AccX,AccY,AccZ,Magnitude,GyroX,GyroY,GyroZ,Temperature,Altitude
-0.1285185546875,-0.0195048828125,0.6531298828125001,0.6659400146973925,0.76611328125,-0.955078125,1.357421875,43.25941176470588,399.43957574448586
0.0179658203125,-0.0263408203125,0.5823291015625001,0.5832013306233319,0.36669921875,0.71923828125,1.6220703125,42.60058823529412,399.43957574448586
0.1332001953125,-0.0878642578125,0.4856494140625,0.5111925011299356,0.0400390625,2.23681640625,1.62744140625,43.30647058823529,399.43957574448586
0.1747041015625,-0.1303447265625,0.3845751953125,0.44205129984546,-0.51123046875,3.35791015625,2.11767578125,43.118235294117646,400.3686481523112
0.1971650390625,-0.1410869140625,0.2605517578125,0.3559027794881351,-1.0751953125,3.181640625,2.36083984375,43.25941176470588,400.3686481523112
0.1688447265625,-0.1303447265625,0.1477587890625,0.2594820787180392,-1.33349609375,1.7666015625,2.25,43.16529411764706,400.3686481523112
0.1165986328125,-0.1347392578125,0.1077197265625,0.2082149088329347,-1.3837890625,0.1904296875,2.0908203125,42.69470588235294,400.3686481523112
0.1024384765625,-0.1674541015625,0.1868212890625,0.2709920878135082,-1.17822265625,-0.4189453125,2.00927734375,43.777058823529416,400.3686481523112
0.1517548828125,-0.2450908203125,0.2478564453125,0.3801734763786633,-0.830078125,-0.13623046875,2.16259765625,43.02411764705882,400.4714077348144
0.1620087890625,-0.3173564453125,0.3259814453125,0.4829346371952522,-0.5126953125,0.8740234375,2.9033203125,43.02411764705882,400.4714077348144
0.1859345703125,-0.3666728515625,0.3469775390625,0.5379721713287202,0.03369140625,1.68994140625,3.92529296875,43.02411764705882,400.4714077348144
0.2640595703125,-0.3671611328125,0.4299853515625,0.6240369834233442,0.65234375,2.05078125,4.1279296875,43.16529411764706,400.4714077348144
0.2289033203125,-0.4101298828125,0.4880908203125,0.6773742685541068,1.07861328125,2.80859375,3.7080078125,43.91823529411765,400.749172488895
0.1703095703125,-0.4648173828125,0.5623095703125001,0.7491679397636548,1.14111328125,3.06787109375,3.72509765625,42.60058823529412,400.749172488895
0.2582001953125,-0.3730205078125,0.6726611328125001,0.8113474223196278,1.291015625,2.15966796875,3.8681640625,43.02411764705882,400.749172488895
0.4471650390625,-0.2323955078125,0.9016650390625,1.0329395368939929,1.49853515625,0.46826171875,3.18115234375,43.118235294117646,400.749172488895
0.5316376953125,-0.0717509765625,1.2566455078125005,1.3663618752073683,2.2099609375,-3.435546875,2.27685546875,42.60058823529412,400.749172488895
0.4232392578125,0.0918232421875,1.6174853515625005,1.6744616566761883,1.767578125,-9.63134765625,3.12744140625,43.30647058823529,400.9609408986098
0.3568330078125,0.3769794921875,2.1975634765625003,2.258036440475646,0.54443359375,-15.24072265625,5.57177734375,43.777058823529416,400.9609408986098
0.5775361328125,0.4917255859375,2.3591845703125003,2.4781230545253745,-0.466796875,-12.87109375,5.34619140625,43.25941176470588,400.9609408986098
0.5589814453125,0.3603779296875,2.4280322265625003,2.5174735354389632,-1.02734375,-2.427734375,1.78564453125,42.60058823529412,400.9609408986098
0.2977509765625,0.1050068359375,2.3269580078125003,2.348279295518369,-0.99267578125,6.5224609375,1.111328125,43.73,400.69106608412784
0.1800751953125,-0.0673564453125,2.0232470703125003,2.0323613542429126,-1.06689453125,9.52099609375,2.267578125,42.60058823529412,400.69106608412784
0.2279267578125,-0.0912822265625,1.6770556640625005,1.6949332589153,-1.0712890625,8.86572265625,2.36572265625,43.777058823529416,400.69106608412784
0.0077119140625,-0.1122783203125,1.3997119140625005,1.404229089998926,-1.06689453125,6.36767578125,2.2578125,42.788823529411765,400.69106608412784
-0.0684599609375,-0.0478251953125,1.3176806640625005,1.3203243343975883,-0.81640625,4.03173828125,3.404296875,43.02411764705882,400.69106608412784
-0.0928740234375,-0.0361064453125,1.2913134765625005,1.295152405848248,-0.6181640625,3.103515625,4.65869140625,43.118235294117646,400.35622087719287
-0.1231474609375,-0.0219462890625,1.3181689453125005,1.3240907465597809,0.44921875,2.54541015625,5.7939453125,43.16529411764706,400.35622087719287
-0.1797880859375,0.0034443359375,1.2454150390625005,1.2583299403646762,0.94921875,1.771484375,6.74755859375,42.69470588235294,400.35622087719287
-0.1602568359375,0.0737568359375,1.1404345703125005,1.1539988446597629,0.8310546875,1.3349609375,7.2978515625,43.118235294117646,400.35622087719287
-0.0005888671874999,0.0268818359375,1.1135791015625005,1.1139036741588926,0.939453125,1.13623046875,6.66748046875,43.30647058823529,400.1303609330288
0.0296845703125,-0.0434306640625,1.0461962890625005,1.047518053087246,0.9052734375,0.466796875,6.14208984375,43.353529411764704,400.1303609330288
0.0350556640625,-0.0907939453125,1.0071337890625005,1.0118255329648789,0.4814453125,-0.4228515625,5.78515625,42.69470588235294,400.1303609330288
0.0116181640625,-0.0463603515625,0.9871142578125,0.9882706217984548,-0.0859375,-0.87939453125,5.35400390625,43.30647058823529,400.1303609330288
-0.0440458984375,0.0122333984375,0.9778369140625,0.9789048614190096,-0.72998046875,-1.21533203125,4.71240234375,43.16529411764706,400.1303609330288
-0.1075224609375,0.0556904296875,0.9260791015625,0.933961993828251,-1.255859375,-1.0947265625,4.25732421875,42.60058823529412,400.0753546351672
-0.1885771484375,0.1074482421875,0.9045947265625,0.9302677490844704,-1.7353515625,-0.66650390625,3.95556640625,43.353529411764704,400.0753546351672
-0.1744169921875,0.1001240234375,0.8308642578125001,0.8548576034307492,-1.880859375,-0.08203125,3.6513671875,42.60058823529412,400.0753546351672
-0.1260771484375,0.1177021484375,0.7390673828125001,0.7589267681682161,-1.8818359375,0.43212890625,3.17333984375,42.69470588235294,400.0753546351672
-0.1031279296875,0.1015888671875,0.6624072265625001,0.6780405604536448,-1.77587890625,0.9248046875,2.888671875,42.74176470588235,399.92547325449806
-0.0499052734375,0.0649677734375,0.5574267578125001,0.56341453498082,-1.5791015625,1.58203125,2.5576171875,43.353529411764704,399.92547325449806
0.0111298828125,0.0141865234375,0.4319384765625,0.4323146762183724,-1.3466796875,1.955078125,2.19775390625,43.68294117647059,399.92547325449806
0.0633759765625,-0.0658916015625,0.2747119140625,0.2895252204724214,-1.11669921875,1.84033203125,2.041015625,44.01235294117648,399.92547325449806
0.0814423828125,-0.0961650390625,0.1926806640625,0.2302312202105438,-0.779296875,1.0693359375,2.11767578125,43.777058823529416,399.92547325449806
0.1341767578125,-0.0854228515625,0.1970751953125,0.2532569811744648,-0.22216796875,0.5400390625,2.1005859375,43.353529411764704,400.6460290826152
0.1800751953125,-0.0761455078125,0.1199267578125,0.2293635576247381,-0.001953125,0.52685546875,1.9228515625,42.55352941176471,400.6460290826152
0.1790986328125,0.0097919921875,0.0662158203125,0.191198164860346,-0.12646484375,-0.34912109375,1.712890625,43.25941176470588,400.6460290826152
0.2196259765625,0.1377216796875,0.1028369140625,0.2788875428033245,0.259765625,-0.759765625,0.619140625,43.02411764705882,400.6460290826152
0.2347626953125,0.1865498046875,0.0798876953125,0.3103166070349393,0.4736328125,-0.2001953125,-1.08740234375,43.30647058823529,401.085743558566
0.2098603515625,0.2046162109375,0.0359423828125,0.2952981811975751,0.16455078125,0.52880859375,-2.22216796875,43.353529411764704,401.085743558566
0.2415986328125,0.2417255859375,0.0276416015625,0.3428778447357555,-0.13916015625,0.798828125,-2.75830078125,42.69470588235294,401.085743558566
0.3665986328125,0.3056904296875,0.1111376953125,0.4900946681018848,0.0498046875,0.74609375,-3.54638671875,43.30647058823529,401.085743558566
0.5804658203125,0.3623310546875,0.3337939453125,0.7613427346926638,0.7099609375,0.12890625,-4.9599609375,43.25941176470588,401.085743558566
0.4198212890625,0.3569599609375,0.3845751953125,0.6719883996857745,1.53857421875,0.24169921875,-5.333984375,43.30647058823529,401.08368611447713
0.1556611328125,0.3423115234375,0.4563525390625,0.5913249591006315,1.7548828125,0.36767578125,-3.42236328125,43.87117647058824,401.08368611447713
0.1307587890625,0.4658466796875,0.5681689453125001,0.7462753783359587,2.32177734375,0.94677734375,-1.92431640625,42.55352941176471,401.08368611447713
0.2689423828125,0.1640888671875,0.6746142578125001,0.7445532609905436,2.6025390625,0.6533203125,-1.9423828125,44.01235294117648,401.08368611447713
0.3343720703125,0.0083271484375,0.9631884765625,1.0196107415033235,2.4951171875,-1.84228515625,-2.3837890625,42.60058823529412,401.3766020415496
0.3475556640625,-0.0815166015625,1.3899462890625005,1.435057693067021,2.47412109375,-6.34228515625,-1.92431640625,43.25941176470588,401.3766020415496
0.5018525390625,-0.2157939453125,1.9876025390625005,2.061307073457206,2.98046875,-12.626953125,-1.13232421875,43.16529411764706,401.3766020415496
0.4154267578125,-0.4950908203125,2.2517626953125003,2.342675723924531,3.0029296875,16.0,0.3193359375,43.30647058823529,401.3766020415496
0.0042939453125,-0.4042705078125,2.2429736328125003,2.2791190839764006,1.0966796875,-14.76318359375,3.4853515625,43.353529411764704,401.3766020415496
-0.0235380859375,-0.0507548828125,2.3977587890625003,2.398411413862388,0.66845703125,-4.7587890625,5.53955078125,43.777058823529416,400.6659691735806
0.1830048828125,0.1523701171875,2.2502978515625003,2.262862757767637,0.67529296875,6.416015625,3.3369140625,42.55352941176471,400.6659691735806
0.0995087890625,0.2490498046875,1.9680712890625005,1.9862609101393751,-0.08984375,13.63525390625,-0.5380859375,43.16529411764706,400.6659691735806
-0.1221708984375,0.2304951171875,1.6306689453125005,1.6514039289885705,-1.06201171875,15.267578125,-2.50537109375,43.25941176470588,400.6659691735806
-0.3067412109375,0.1460224609375,1.2649462890625005,1.3097716762087346,-1.5654296875,13.24169921875,-1.69921875,43.91823529411765,400.4940754623199
-0.0616240234375,0.0801044921875,1.0774462890625005,1.0821759356721048,-1.77978515625,6.5126953125,0.70166015625,42.97705882352941,400.4940754623199
0.0794892578125,0.2334248046875,0.9812548828125,1.0117642149208248,-1.29296875,1.14794921875,-0.46728515625,42.69470588235294,400.4940754623199
-0.0611357421875,0.2466083984375,1.1082080078125005,1.136960100325634,-0.69873046875,-1.2841796875,-2.982421875,43.02411764705882,400.4940754623199
-0.3282255859375,0.2202412109375,1.2532275390625005,1.3140842784707083,-0.11572265625,-1.21630859375,-4.17529296875,43.25941176470588,400.4940754623199
-0.3541044921875,0.1313740234375,1.3157275390625005,1.3688637925188127,0.47412109375,0.40185546875,-4.11767578125,43.91823529411765,400.5590509549502
-0.1592802734375,0.0791279296875,1.3367236328125005,1.3485034316909996,-0.31201171875,1.23779296875,-3.44580078125,42.97705882352941,400.5590509549502
-0.0040068359375,0.0835224609375,1.3611376953125005,1.3637037368196625,-1.083984375,0.89306640625,-3.33740234375,42.93,400.5590509549502
-0.0489287109375,0.0718037109375,1.3455126953125005,1.3483153210230576,-1.14501953125,0.55859375,-3.1376953125,42.55352941176471,400.5590509549502
-0.1202177734375,0.0102802734375,1.2532275390625005,1.2590223436209822,-0.92626953125,0.6025390625,-2.32373046875,43.118235294117646,400.4951072255457
-0.1827177734375,-0.0131572265624999,1.1223681640625005,1.1372199404872405,-0.494140625,0.33447265625,-1.36328125,43.16529411764706,400.4951072255457
-0.2369169921875,-0.0082744140624999,0.9924853515625,1.0204044787148814,0.32666015625,0.03564453125,-0.55419921875,43.353529411764704,400.4951072255457
-0.2271513671875,-0.0004619140624999,0.8416064453125001,0.8717220691087806,0.5302734375,-0.55029296875,-0.24853515625,42.69470588235294,400.4951072255457
-0.2251982421875,0.0053974609375,0.7488330078125001,0.7819809808802434,0.46484375,-1.09033203125,-0.259765625,43.16529411764706,400.4951072255457
-0.2227568359375,0.0053974609375,0.7146533203125001,0.7485847372042386,0.28955078125,-1.154296875,-0.3291015625,43.353529411764704,400.1812343688681
-0.1500029296875,0.0039326171875,0.6633837890625001,0.6801429232034221,-0.05029296875,-1.18603515625,-0.5478515625,44.01235294117648,400.1812343688681
-0.0948271484375,-0.0102275390624999,0.6477587890625001,0.6547428804070946,-0.20654296875,-0.79052734375,-0.82421875,44.01235294117648,400.1812343688681
-0.0123076171875,-0.0048564453124999,0.6116259765625001,0.6117690722061219,-0.47216796875,0.23486328125,-0.88427734375,42.55352941176471,400.1812343688681
0.0677705078125,-0.0146220703124999,0.5276416015625001,0.5321769502419547,-0.75048828125,1.30810546875,-0.6640625,43.16529411764706,400.4940754623199
0.0941376953125,0.0053974609375,0.3953173828125,0.4064072728397533,-1.35693359375,1.70263671875,-0.17529296875,43.02411764705882,400.4940754623199
0.0799775390625,0.0635029296875,0.2903369140625,0.3077735409367167,-1.43359375,1.3134765625,0.61669921875,43.777058823529416,400.4940754623199
0.0882783203125,0.0957294921875,0.2327197265625,0.2666752119020397,-1.1533203125,0.68017578125,1.2705078125,43.16529411764706,400.4940754623199
0.1512666015625,0.2153583984375,0.2312548828125,0.3503421832301332,-0.61376953125,0.4560546875,1.64794921875,43.16529411764706,400.4940754623199
0.2103486328125,-0.0004619140624999,0.2351611328125,0.3155115197205125,-0.06982421875,0.74072265625,1.99609375,42.60058823529412,400.6329658375618
0.3104462890625,-0.1132548828125,0.1692431640625,0.3712772757056869,0.0087890625,1.3271484375,2.5458984375,43.25941176470588,400.6329658375618
0.4251923828125,-0.2143291015625,0.1873095703125,0.5116741163172253,0.107421875,1.7265625,2.8466796875,42.69470588235294,400.6329658375618
0.4476533203125,-0.2895244140625,0.2210009765625,0.5771129119735742,0.50244140625,1.47021484375,3.115234375,43.02411764705882,400.6329658375618
0.4344697265625,-0.3866923828125,0.2629931640625,0.6383262070196614,1.2783203125,0.13818359375,3.28369140625,43.16529411764706,401.2875659711028
0.4676728515625,-0.4281962890625,0.3611376953125,0.7297193933500195,1.92919921875,-1.18603515625,2.66796875,43.16529411764706,401.2875659711028
0.5492158203125,-0.4257548828125,0.4729541015625,0.8405895667357581,2.26220703125,-0.83544921875,1.58837890625,43.02411764705882,401.2875659711028
0.5003876953125,-0.4384501953125,0.6565478515625001,0.934709313520016,2.0859375,-0.078125,1.1533203125,43.25941176470588,401.2875659711028
0.4012666015625,-0.4164775390625,1.0164111328125005,1.1694272174779687,1.9833984375,-1.60009765625,1.4697265625,43.16529411764706,401.2875659711028
0.3514619140625,-0.3774150390625,1.4836962890625005,1.570771233160596,2.23388671875,-6.052734375,1.5869140625,43.02411764705882,401.0077075138377
0.2381806640625,-0.3041728515625,1.9485400390625005,1.9864690876503983,1.74267578125,-13.212890625,2.26953125,42.69470588235294,401.0077075138377
0.0267548828125,-0.0927470703125,2.4587939453125003,2.46068801523299,-0.5166015625,16.0,3.947265625,43.25941176470588,401.0077075138377
0.1537080078125,0.1943623046875,2.8533251953125003,2.8640648608846555,-2.2509765625,-15.1611328125,4.1494140625,43.16529411764706,401.0077075138377
0.3148408203125,0.4682880859375,2.9392626953125003,2.992938967907926,-2.64306640625,-4.20849609375,3.328125,43.118235294117646,400.4170677166931
0.2850556640625,0.3647724609375,2.8547900390625003,2.8920826141386398,-3.181640625,5.65966796875,3.60888671875,42.74176470588235,400.4170677166931
0.0589814453125,0.2070576171875,2.5613330078125003,2.57036543017454,-2.75732421875,12.2724609375,3.15087890625,44.01235294117648,400.4170677166931
-0.1382841796875,0.0903583984375,2.1057666015625003,2.112235814196917,-2.30517578125,15.99951171875,1.94140625,42.97705882352941,400.4170677166931
-0.1812529296875,0.0815693359375,1.7590869140625005,1.7702804727815071,-2.47998046875,15.99951171875,1.5703125,43.30647058823529,400.4170677166931
-0.1739287109375,-0.0004619140624999,1.5291064453125005,1.5389665139141957,-2.22802734375,12.85595703125,2.10888671875,43.25941176470588,400.429100177735
-0.3082060546875,-0.0810283203125,1.2952197265625005,1.333848080148312,-1.1728515625,4.97119140625,6.15185546875,42.55352941176471,400.429100177735
-0.2798857421875,0.2099873046875,1.3450244140625005,1.3897918445702366,1.38916015625,2.267578125,7.43408203125,43.25941176470588,400.429100177735
-0.2994169921875,0.3984638671875,1.2537158203125005,1.3491580140096535,2.18115234375,1.794921875,8.2060546875,43.777058823529416,400.429100177735
-0.1978544921875,0.4585224609375,1.2512744140625005,1.347247900926332,2.0224609375,1.68115234375,7.8994140625,43.353529411764704,399.9663762650943
-0.1172880859375,0.3628193359375,1.1941455078125005,1.2535461138154371,1.6220703125,1.55078125,7.00927734375,42.60058823529412,399.9663762650943
0.0418916015625,0.2187763671875,1.0452197265625005,1.0686918554553595,0.953125,1.02734375,6.3525390625,43.118235294117646,399.9663762650943
0.2289033203125,0.1577412109375,0.9553759765625,0.9949986312909512,-0.21923828125,-0.9716796875,5.24072265625,43.87117647058824,399.9663762650943
0.2323212890625,0.0937763671875,0.8733447265625001,0.9085693148071172,-1.404296875,-2.876953125,3.02587890625,43.25941176470588,399.9663762650943
0.1141572265625,0.0586201171875,0.8660205078125001,0.8754768474764701,-2.49853515625,-3.9990234375,0.83203125,43.25941176470588,399.82749649799865
-0.0596708984375,0.1245380859375,0.9275439453125,0.9377676265766444,-2.66162109375,-3.03076171875,-0.88427734375,42.69470588235294,399.82749649799865
-0.2183623046875,0.0547138671875,0.8337939453125001,0.8636481034604501,-2.029296875,-1.36474609375,-1.55419921875,43.30647058823529,399.82749649799865
-0.1998076171875,-0.0370830078125,0.6633837890625001,0.693812860175918,-1.81640625,0.4833984375,-1.48681640625,42.97705882352941,399.82749649799865
-0.1290068359375,-0.0668681640625,0.5085986328125001,0.528948659495833,-1.4921875,1.966796875,-0.98876953125,42.97705882352941,398.6453548478185
-0.0284208984375,-0.1396220703125,0.3186572265625,0.3490623125272161,-1.03662109375,2.640625,-0.845703125,43.118235294117646,398.6453548478185
0.0858369140625,-0.1352275390625,0.2219775390625,0.2737306906156427,-0.17919921875,2.11181640625,-0.78515625,44.01235294117648,398.6453548478185
0.1556611328125,-0.0932353515625,0.1482470703125,0.2343083713948203,0.39501953125,1.2109375,-0.6943359375,42.93,398.6453548478185
0.2010712890625,-0.0112041015624999,0.1389697265625,0.2446789326401729,0.70263671875,0.84716796875,-1.0400390625,42.60058823529412,398.6453548478185
0.2831025390625,0.0801044921875,0.1575244140625,0.3337330045380371,0.9306640625,1.154296875,-2.10693359375,43.02411764705882,400.3751262188652
0.4100556640625,0.1753193359375,0.1721728515625,0.4780439394014597,1.15771484375,1.7919921875,-3.6806640625,43.25941176470588,400.3751262188652
0.5619111328125,0.2812763671875,0.1487353515625,0.6457419923787246,1.10986328125,2.38134765625,-4.95751953125,43.353529411764704,400.3751262188652
0.6883759765625,0.3520771484375,0.2234423828125,0.8048268770345489,0.8037109375,1.98876953125,-5.505859375,43.16529411764706,400.3751262188652
0.7289033203125,0.3882099609375,0.3503955078125,0.8970975621574624,1.17822265625,0.89794921875,-5.21142578125,43.49470588235295,401.4924766750788
0.6839814453125,0.3691669921875,0.5066455078125001,0.9277955357939206,2.2099609375,-0.06396484375,-4.50732421875,43.30647058823529,401.4924766750788
0.4715791015625,0.3511005859375,0.6213916015625001,0.8554449093708836,2.58935546875,-0.4462890625,-3.58154296875,43.73,401.4924766750788
0.2640595703125,0.2549091796875,0.7805712890625001,0.8625530035141431,2.314453125,-0.86962890625,-3.58154296875,44.01235294117648,401.4924766750788
0.1205048828125,0.2612568359375,1.1707080078125005,1.2055429484933506,2.67138671875,-1.63037109375,-4.57958984375,44.01235294117648,401.4924766750788
0.0946259765625,0.2788349609375,1.6404345703125005,1.6666519103753432,3.06396484375,-4.6298828125,-4.7705078125,42.93,401.55540380385617
0.1913056640625,0.1421162109375,2.1873095703125003,2.200254083258177,2.73974609375,-10.86083984375,-3.7958984375,43.02411764705882,401.55540380385617
0.5799775390625,-0.1152080078125,2.6760791015625003,2.7406287944011454,2.94189453125,16.0,-3.4892578125,43.777058823529416,401.55540380385617
0.4515595703125,-0.3534892578125,2.5710986328125003,2.6342757791430933,1.53955078125,-14.3994140625,-2.74658203125,42.55352941176471,401.55540380385617
0.2411103515625,-0.1303447265625,2.7371142578125003,2.750803229911896,-0.1884765625,-2.62646484375,-0.970703125,43.25941176470588,401.1586369357127
0.2455048828125,0.1255146484375,2.7756884765625003,2.789349941004001,0.5048828125,10.4775390625,-0.90625,43.25941176470588,401.1586369357127
0.0409150390625,0.2163349609375,2.3850634765625003,2.3952040921344717,1.5517578125,15.99951171875,-0.7958984375,44.01235294117648,401.1586369357127
-0.0865263671875,0.1665302734375,1.9075244140625005,1.91673381940068,1.033203125,15.99951171875,-0.83935546875,43.353529411764704,401.1586369357127
-0.0635771484375,0.1347919921875,1.3801806640625005,1.3882037315946545,0.677734375,15.99951171875,-1.18505859375,42.55352941176471,401.1586369357127
0.1292939453125,0.1094013671875,0.9509814453125,0.9659458021885168,-0.44140625,12.6103515625,-3.09423828125,43.02411764705882,400.51401535453726
0.1712861328125,0.1494404296875,0.8289111328125001,0.8595144253702484,-1.6123046875,2.21240234375,-5.25732421875,43.118235294117646,400.51401535453726
-0.1148466796875,0.1806904296875,0.9377978515625,0.96192702509657,-0.6123046875,-0.794921875,-6.662109375,43.447647058823534,400.51401535453726
-0.2056669921875,0.0864521484375,1.0452197265625005,1.0687643156656663,-1.6083984375,-0.63671875,-6.06787109375,42.69470588235294,400.51401535453726
-0.1573271484375,0.0942646484375,1.1384814453125005,1.1531598574791615,-1.92724609375,-1.015625,-5.23095703125,43.25941176470588,400.4500709528581
-0.0933623046875,0.1308857421875,1.0671923828125005,1.0792345339997031,-1.7197265625,-1.7021484375,-5.30908203125,43.118235294117646,400.4500709528581
0.0326142578125,0.1162373046875,0.9880908203125,0.9954387324187784,-1.56494140625,-2.20947265625,-6.33544921875,43.02411764705882,400.4500709528581
-0.0049833984375,0.0483662109375,0.9148486328125,0.9161398067867907,-1.5068359375,-2.74609375,-6.4716796875,43.02411764705882,400.4500709528581
0.0882783203125,0.0053974609375,0.8318408203125001,0.8365293448289434,-1.3173828125,-3.08154296875,-5.83203125,42.55352941176471,400.4500709528581
0.0614228515625,-0.0561259765625,0.7537158203125001,0.7582944215332907,-1.02392578125,-3.25537109375,-4.74853515625,43.25941176470588,399.5146707853685
-0.0088896484375,-0.0844462890625,0.6843798828125001,0.6896274541984396,-0.62890625,-2.9912109375,-2.86083984375,42.97705882352941,399.5146707853685
-0.0401396484375,-0.0361064453125,0.6311572265625001,0.6334621625731546,-0.1650390625,-2.11328125,-0.7626953125,42.60058823529412,399.5146707853685
-0.0782255859375,0.0239521484375,0.5481494140625001,0.5542208294958783,0.42431640625,-0.66064453125,0.62646484375,43.02411764705882,399.5146707853685
-0.1324248046875,-0.0048564453124999,0.4734423828125,0.4916376753268342,0.70751953125,0.80078125,1.7265625,43.118235294117646,399.5686414967776
-0.1460966796875,-0.0395244140625,0.4021533203125,0.4296902514149747,0.6787109375,2.31103515625,2.21337890625,42.55352941176471,399.5686414967776
-0.0923857421875,-0.0434306640625,0.2947314453125,0.3119101998916357,0.4365234375,3.23291015625,2.0693359375,43.91823529411765,399.5686414967776
-0.0079130859375,-0.0419658203125,0.2249072265625,0.2289257686753307,0.15087890625,3.62744140625,1.62890625,43.25941176470588,399.5686414967776
-0.0059599609375,-0.0854228515625,0.1956103515625,0.2135321857281714,-0.0693359375,3.51171875,1.0859375,43.16529411764706,399.5686414967776
0.1981416015625,-0.1674541015625,0.2249072265625,0.3433427310427472,-0.16650390625,3.4755859375,1.123046875,43.30647058823529,400.4390698602416
0.2240205078125,-0.2973369140625,0.2332080078125,0.4392953485898251,-0.33056640625,3.7958984375,1.6611328125,42.93,400.4390698602416
0.1991181640625,-0.3964580078125,0.2361376953125,0.5025813430339173,-0.4521484375,4.8095703125,2.89208984375,42.60058823529412,400.4390698602416
0.2342744140625,-0.4613994140625,0.1829150390625,0.5488459090644494,-0.63525390625,5.77783203125,3.92822265625,43.25941176470588,400.4390698602416
0.3382783203125,-0.4511455078125,0.2107470703125,0.6019790850670368,-0.69189453125,5.80517578125,4.2138671875,43.73,400.877752926894
0.4759736328125,-0.4037822265625,0.0593798828125,0.6269903955431254,-0.71435546875,4.34521484375,4.06396484375,43.353529411764704,400.877752926894
0.4207978515625,-0.2973369140625,0.1975634765625,0.551825515552958,-0.35107421875,2.1240234375,3.943359375,43.02411764705882,400.877752926894
0.1488251953125,-0.2382548828125,0.3733447265625,0.4672265112296495,0.43994140625,0.8740234375,4.048828125,42.69470588235294,400.877752926894
-0.1924833984375,-0.2372783203125,0.5774462890625001,0.6532955508163385,1.13134765625,2.04443359375,3.8984375,43.91823529411765,400.877752926894
-0.3531279296875,-0.2084697265625,0.7048876953125001,0.8154910328270885,1.6533203125,4.451171875,3.34619140625,42.60058823529412,400.921756723936
-0.0586943359375,-0.0805400390625,0.8543017578125001,0.8600948880006558,1.5537109375,4.5283203125,2.25732421875,43.777058823529416,400.921756723936
0.2420869140625,0.1684833984375,0.9788134765625,1.022285944053679,1.93896484375,-0.58203125,0.80322265625,43.02411764705882,400.921756723936
0.4242158203125,0.4121357421875,1.2839892578125005,1.4136630950724236,1.0830078125,-9.4033203125,0.8564453125,42.60058823529412,400.921756723936
0.2884736328125,0.5923115234375,1.8709033203125005,1.983514358803896,0.01806640625,16.0,2.53564453125,43.30647058823529,400.7948912920952
0.2831025390625,0.4511982421875,2.1482470703125003,2.213298980364597,-1.2216796875,16.0,2.10693359375,43.30647058823529,400.7948912920952
0.4500947265625,0.1904560546875,2.5584033203125003,2.6046662590498086,-0.939453125,-11.6416015625,-0.08203125,42.60058823529412,400.7948912920952
0.1263642578125,-0.1342509765625,2.4998095703125003,2.506599117965706,-0.87255859375,-5.2783203125,-0.19189453125,43.16529411764706,400.7948912920952
-0.2349638671875,-0.1552470703125,2.2732470703125003,2.2906247869104805,-0.4892578125,2.87353515625,1.65234375,43.16529411764706,400.7948912920952
-0.2369169921875,-0.0336650390625,1.9436572265625005,1.9583325586863127,-0.654296875,8.9443359375,2.11376953125,43.54176470588236,400.921756723936
-0.2134794921875,0.0425068359375,1.5706103515625005,1.5856220234095295,-1.14404296875,10.50341796875,0.97265625,43.25941176470588,400.921756723936
-0.2969755859375,0.0366474609375,1.2102587890625005,1.2467011957719123,-1.67578125,9.64892578125,0.462890625,42.55352941176471,400.921756723936
-0.3672880859375,0.0161396484375,1.0046923828125005,1.0698447599557508,-1.69921875,6.3515625,1.26708984375,43.353529411764704,400.921756723936
-0.5635771484375,0.0317646484375,0.9793017578125,1.1303362897766107,-0.64404296875,1.2529296875,3.9111328125,43.25941176470588,400.1592321583947
-0.3233427734375,0.1196552734375,1.0173876953125005,1.0742186258713533,0.767578125,-1.45654296875,4.525390625,43.30647058823529,400.1592321583947
-0.3497099609375,0.0757099609375,0.9016650390625,0.9700664398027824,0.3154296875,-1.86328125,4.927734375,43.25941176470588,400.1592321583947
-0.2198271484375,0.0434833984375,0.9470751953125,0.9732246434950396,-0.04052734375,-1.50244140625,5.13427734375,42.60058823529412,400.1592321583947
-0.1490263671875,0.0337177734375,0.9573291015625,0.9694455915940564,0.30224609375,-1.642578125,5.60009765625,43.02411764705882,400.1592321583947
-0.0591826171875,0.0381123046875,0.9353564453125,0.9380014977244924,0.30810546875,-1.69970703125,5.82177734375,42.60058823529412,400.0842894797721
0.0296845703125,0.0283466796875,0.8801806640625001,0.8811371682964277,-0.154296875,-2.21728515625,4.94775390625,43.25941176470588,400.0842894797721
0.0223603515625,0.0669208984375,0.7932666015625001,0.7963983256663709,-0.8828125,-3.5849609375,3.80517578125,42.60058823529412,400.0842894797721
-0.0865263671875,0.1147724609375,0.8030322265625001,0.8157942675124914,-1.37158203125,-4.525390625,2.8271484375,43.91823529411765,400.0842894797721
-0.1421904296875,0.1748310546875,0.8152392578125001,0.8458126645165202,-1.541015625,-4.802734375,1.86376953125,43.16529411764706,399.8364297252977
-0.2374052734375,0.1709248046875,0.8967822265625001,0.9432894118942444,-1.57763671875,-4.02197265625,0.8330078125,43.16529411764706,399.8364297252977
-0.2413115234375,0.1020771484375,0.9065478515625,0.9436524798618628,-1.2841796875,-2.0478515625,0.27880859375,43.02411764705882,399.8364297252977
-0.2471708984375,0.0190693359375,0.8484423828125001,0.8839183047997429,-0.99365234375,0.7958984375,0.01953125,43.118235294117646,399.8364297252977
-0.1011748046875,-0.0297587890625,0.7170947265625001,0.7248080942523799,-0.82177734375,3.068359375,-0.2763671875,43.02411764705882,399.8364297252977
0.0130830078125,-0.0429423828125,0.5662158203125001,0.5679925778627698,-0.9013671875,3.9443359375,-0.84326171875,43.25941176470588,400.1162601769871
0.0379853515625,-0.0883525390625,0.4045947265625,0.4158677083572389,-0.505859375,3.83251953125,-0.87841796875,43.02411764705882,400.1162601769871
0.1009736328125,-0.1025126953125,0.2737353515625,0.3092500119945552,-0.13134765625,2.48486328125,-0.38330078125,44.01235294117648,400.1162601769871
0.1581025390625,-0.0024150390624999,0.2673876953125,0.3106419560783976,0.48583984375,0.5224609375,-0.04541015625,42.60058823529412,400.1162601769871
0.2669892578125,0.0952412109375,0.3362353515625,0.4397821775475548,0.853515625,-0.447265625,-0.60986328125,43.353529411764704,400.8897825807434
0.3568330078125,0.1689716796875,0.3743212890625,0.5440566619813992,1.17138671875,-0.46728515625,-1.8427734375,43.447647058823534,400.8897825807434
0.4164033203125,0.0952412109375,0.4251025390625,0.602639844472219,1.25,-0.12353515625,-2.9169921875,44.01235294117648,400.8897825807434
0.4486298828125,0.2754169921875,0.4885791015625,0.718215030350651,1.69384765625,0.82080078125,-3.67236328125,43.25941176470588,400.8897825807434
0.4354462890625,0.2856708984375,0.5237353515625001,0.7385932922445791,1.82421875,1.47119140625,-3.892578125,43.353529411764704,400.8897825807434
0.4720673828125,0.2519794921875,0.5515673828125001,0.7684841287763494,1.83251953125,1.62548828125,-3.958984375,43.447647058823534,401.2456171027903
0.4588837890625,0.1802021484375,0.6243212890625001,0.7955024941145751,1.56494140625,1.17724609375,-4.216796875,44.01235294117648,401.2456171027903
0.3265595703125,0.1548115234375,0.7566455078125001,0.8385226205920507,1.22265625,-0.55859375,-4.0986328125,43.353529411764704,401.2456171027903
0.2372041015625,0.1709248046875,0.9944384765625,1.036527355318459,0.982421875,-3.40869140625,-3.69580078125,43.16529411764706,401.2456171027903
0.1219697265625,0.2446552734375,1.3132861328125005,1.3414370218747211,0.75341796875,-7.02294921875,-2.76220703125,43.87117647058824,401.0616841382386
-0.0020537109374999,0.2676044921875,1.6194384765625005,1.6414010361086704,0.93017578125,-10.32958984375,-1.572265625,42.93,401.0616841382386
-0.0523466796875,0.1865498046875,2.0715869140625003,2.0806281135797056,0.86572265625,-12.09228515625,-1.033203125,43.25941176470588,401.0616841382386
-0.1172880859375,0.0674091796875,2.2185595703125003,2.2226801523463084,0.8134765625,-9.55859375,-1.6904296875,43.73,401.0616841382386
-0.0792021484375,-0.0195048828125,2.3240283203125003,2.325459321163281,0.896484375,-3.5927734375,-2.25634765625,43.87117647058824,401.0616841382386
0.0443330078125,-0.0429423828125,2.3953173828125003,2.3961124406477765,1.9453125,2.13916015625,-1.7548828125,42.60058823529412,400.3840646055973
0.0062470703125,-0.1498759765625,2.0540087890625003,2.059479045725897,2.0283203125,7.7783203125,-1.138671875,42.55352941176471,400.3840646055973
-0.1539091796875,-0.1537822265625,1.7527392578125005,1.76619135845347,1.11279296875,12.14306640625,-0.54150390625,42.69470588235294,400.3840646055973
-0.2007841796875,-0.0868876953125,1.4729541015625005,1.4891130056914057,0.11572265625,13.2041015625,-0.14892578125,43.16529411764706,400.3840646055973
0.0370087890625,0.0420185546875,1.2024462890625005,1.2037492627146555,-0.17236328125,10.0048828125,-0.6728515625,43.68294117647059,400.6958818098511
0.1297822265625,0.1225849609375,0.8425830078125001,0.8612877707444405,-1.1982421875,4.12548828125,-1.83935546875,43.16529411764706,400.6958818098511
0.1483369140625,0.1914326171875,0.9329150390625,0.9638364784058692,-0.66650390625,0.92724609375,-3.6953125,43.118235294117646,400.6958818098511
0.0355439453125,0.1626240234375,0.9851611328125,0.999125819229884,-1.22998046875,-1.12353515625,-4.0986328125,43.30647058823529,400.6958818098511
0.0438447265625,0.1782490234375,1.1257861328125005,1.1406530985521792,-1.5771484375,-2.373046875,-4.41845703125,43.91823529411765,400.6958818098511
-0.1143583984375,0.1343037109375,1.1135791015625005,1.1274634120456055,-1.7373046875,-2.25244140625,-4.625,42.55352941176471,400.1692011198041
-0.0640654296875,0.0566669921875,1.0769580078125005,1.0803490537211071,-1.818359375,-2.04541015625,-4.408203125,43.02411764705882,400.1692011198041
-0.0459990234375,2.6367187500001e-05,1.0408251953125005,1.041841157782575,-1.83056640625,-2.1630859375,-4.07861328125,44.01235294117648,400.1692011198041
-0.0787138671875,-0.0190166015625,0.9607470703125,0.9641537414420224,-1.4482421875,-2.38623046875,-3.677734375,43.02411764705882,400.1692011198041
-0.1421904296875,-0.0346416015625,0.8386767578125001,0.8513500237554573,-0.99755859375,-2.88720703125,-3.16015625,43.25941176470588,400.22317451289376
-0.1983427734375,-0.0365947265625,0.7136767578125001,0.7416289803053987,-0.46484375,-3.3994140625,-2.37939453125,43.02411764705882,400.22317451289376
-0.1700224609375,-0.0190166015625,0.7131884765625001,0.7334214828185566,-0.00439453125,-3.6025390625,-1.6689453125,43.02411764705882,400.22317451289376
-0.1924833984375,0.0053974609375,0.6843798828125001,0.7109534550567094,-0.01123046875,-3.3232421875,-0.96533203125,43.118235294117646,400.22317451289376
-0.2178740234375,-0.0029033203124999,0.6350634765625001,0.6714038565731734,-0.18310546875,-2.8076171875,-0.4873046875,43.118235294117646,400.22317451289376
-0.1343779296875,0.0288349609375,0.6301806640625001,0.6449934513757635,0.283203125,-1.5439453125,-0.34765625,42.69470588235294,399.696516829127
-0.0626005859375,0.0478779296875,0.5422900390625001,0.5479868757345265,0.3564453125,0.33544921875,-0.04931640625,43.118235294117646,399.696516829127
0.0550751953125,0.0151630859375,0.4260791015625,0.4298913782598638,-0.16064453125,1.83056640625,0.384765625,43.30647058823529,399.696516829127
0.1004853515625,0.0268818359375,0.3450244140625,0.3603634072449385,-0.404296875,2.44775390625,0.93408203125,42.97705882352941,399.696516829127
0.1620087890625,0.0224873046875,0.2395556640625,0.2900679968387265,-0.47509765625,2.42529296875,1.29736328125,43.118235294117646,400.3630936302404
0.2181611328125,-0.0004619140624999,0.2180712890625,0.3084632560743902,-0.41943359375,1.77978515625,1.2998046875,42.60058823529412,400.3630936302404
0.2372041015625,-0.0903056640625,0.2454150390625,0.3530572760302361,-0.13427734375,1.34375,1.34423828125,42.69470588235294,400.3630936302404
0.2748017578125,-0.1938212890625,0.2742236328125,0.4339139303866308,0.0859375,1.720703125,1.63037109375,44.01235294117648,400.3630936302404
0.3031220703125,-0.3012431640625,0.2800830078125,0.5109568716342109,0.19287109375,2.228515625,2.22607421875,42.69470588235294,400.3630936302404
0.3123994140625,-0.3720439453125,0.3147509765625,0.5788594547878883,0.3232421875,2.35595703125,2.7177734375,43.25941176470588,400.9117846015985
0.2728486328125,-0.3788798828125,0.3958056640625,0.6120935106106099,0.693359375,1.68115234375,2.9345703125,43.777058823529416,400.9117846015985
0.1600556640625,-0.3456767578125,0.5227587890625001,0.6468284069460316,1.16357421875,0.78369140625,2.77880859375,43.87117647058824,400.9117846015985
0.0003876953125,-0.3378642578125,0.7141650390625001,0.7900532324052533,1.763671875,0.92822265625,1.927734375,43.16529411764706,400.9117846015985
0.0243134765625,-0.3544658203125,0.8870166015625001,0.9555289709683614,2.05615234375,1.5576171875,1.19189453125,43.118235294117646,400.70585335523214
0.2362275390625,-0.3261455078125,1.1111376953125005,1.1818634948343965,1.78173828125,0.1904296875,1.2236328125,43.30647058823529,400.70585335523214
0.4120087890625,-0.2021220703125,1.3953173828125005,1.4688482468760633,1.5146484375,-3.8408203125,2.2021484375,44.01235294117648,400.70585335523214
0.3363251953125,0.0600849609375,1.6672900390625005,1.7019344622781118,1.1376953125,-8.22998046875,3.66357421875,42.60058823529412,400.70585335523214
0.2904267578125,0.3286396484375,1.9480517578125005,1.9968118016715988,0.146484375,-10.0322265625,4.9462890625,43.30647058823529,400.70585335523214
0.3070283203125,0.4380146484375,2.1165087890625003,2.183055811448382,-1.00341796875,-5.8134765625,3.025390625,43.777058823529416,400.7378270547279
0.2425751953125,0.3266865234375,2.2424853515625003,2.279102314936512,-2.2314453125,0.783203125,-0.34619140625,43.02411764705882,400.7378270547279
0.0296845703125,0.0112568359375,2.2424853515625003,2.2427100664246264,-1.896484375,5.58056640625,-0.68994140625,43.16529411764706,400.7378270547279
-0.1436552734375,-0.1557353515625,1.9304736328125005,1.9420655973207988,-1.40771484375,7.76708984375,0.80859375,43.30647058823529,400.7378270547279
-0.1128935546875,-0.1093486328125,1.6721728515625005,1.679542831752321,-1.080078125,7.79638671875,1.640625,43.447647058823534,400.5989324604404
-0.1573271484375,-0.0282939453125,1.3406298828125005,1.350126239159391,-1.388671875,5.60888671875,2.2470703125,43.25941176470588,400.5989324604404
-0.1363310546875,0.0278583984375,1.3391650390625005,1.3463748544454388,-1.35546875,5.0068359375,2.8095703125,43.118235294117646,400.5989324604404
-0.2081083984375,0.0219990234375,1.2957080078125005,1.312498496776992,-0.22607421875,4.435546875,3.89697265625,43.02411764705882,400.5989324604404
-0.3218779296875,-0.0253642578125,1.2605517578125005,1.301245357847041,0.31884765625,3.55810546875,5.70556640625,43.118235294117646,400.5989324604404
-0.2857451171875,0.0376240234375,1.2600634765625005,1.2926042720426458,1.09521484375,2.10693359375,7.07177734375,43.02411764705882,400.2022043145548
-0.1646513671875,0.1045185546875,1.1970751953125005,1.2128574624510242,1.47607421875,1.025390625,7.39599609375,43.118235294117646,400.2022043145548
-0.0835966796875,0.0586201171875,1.1423876953125005,1.146941310353436,1.0869140625,0.47607421875,7.04150390625,43.16529411764706,400.2022043145548
0.0204072265625,0.0093037109375,1.1692431640625005,1.1694582466424652,0.90673828125,0.01318359375,6.26513671875,42.55352941176471,400.2022043145548
0.0184541015625,-0.0444072265625,1.0877001953125005,1.088762724618318,0.4833984375,-0.83642578125,5.7841796875,43.777058823529416,400.52398580060793
-0.0279326171875,0.0386005859375,1.0515673828125005,1.0526462829140628,-0.35888671875,-1.32421875,5.26513671875,43.91823529411765,400.52398580060793
-0.0704130859375,0.0976826171875,0.9822314453125,0.9895850183448232,-1.0048828125,-1.62744140625,4.33642578125,43.02411764705882,400.52398580060793
-0.1490263671875,0.1416279296875,0.8914111328125001,0.9148120770337128,-1.96923828125,-1.6494140625,3.48681640625,43.16529411764706,400.52398580060793
-0.2212919921875,0.1513935546875,0.8357470703125001,0.8777034349614661,-2.646484375,-1.46142578125,2.31298828125,43.16529411764706,400.52398580060793
-0.2525419921875,0.1289326171875,0.7610400390625001,0.8121471656350845,-3.0224609375,-1.37646484375,1.51513671875,42.69470588235294,399.9653430817709
-0.2618193359375,0.1269794921875,0.6204150390625001,0.6852648953520619,-3.5146484375,-0.93408203125,1.1650390625,43.25941176470588,399.9653430817709
-0.1822294921875,0.1123310546875,0.6643603515625001,0.6979975146075873,-3.36669921875,-0.76513671875,0.783203125,43.118235294117646,399.9653430817709
-0.1109404296875,0.0302998046875,0.5281298828125001,0.5405062721401971,-2.1650390625,-0.037109375,0.6279296875,43.353529411764704,399.9653430817709
-0.0362333984375,-0.0219462890625,0.3201220703125,0.3229127415682241,-1.623046875,0.6240234375,0.9287109375,42.55352941176471,400.10525908702186
0.0272431640625,-0.0419658203125,0.1887744140625,0.1952923435961521,-0.92333984375,0.705078125,1.35205078125,43.25941176470588,400.10525908702186
0.2303681640625,-0.0029033203124999,0.0969775390625,0.2499651242973359,-0.15576171875,0.095703125,1.19921875,43.25941176470588,400.10525908702186
0.3739228515625,0.0776630859375,0.1321337890625,0.4041153202366623,0.8623046875,-0.22705078125,0.58349609375,43.25941176470588,400.10525908702186
0.4862275390625,0.1294208984375,0.0935595703125,0.5117815763508924,1.11376953125,0.49609375,-0.32763671875,43.777058823529416,400.10525908702186
0.5038056640625,0.1054951171875,0.0701220703125,0.5194867386534253,1.06884765625,0.6474609375,-1.34814453125,43.777058823529416,401.0077075138377
0.5521455078125,0.2099873046875,0.1018603515625,0.5994454613623166,1.12744140625,-0.3291015625,-2.4970703125,43.353529411764704,401.0077075138377
0.5892548828125,0.2593037109375,0.2278369140625,0.6829124327714753,1.46240234375,-1.2900390625,-4.021484375,42.93,401.0077075138377
0.4930634765625,0.2856708984375,0.3792041015625,0.6844817052162974,1.39892578125,-1.759765625,-4.98486328125,43.118235294117646,401.0077075138377
0.3075166015625,0.3364521484375,0.5691455078125001,0.7291728995841161,1.33935546875,-2.09228515625,-4.8701171875,43.353529411764704,401.126661929663
0.1219697265625,0.4243427734375,0.7883837890625001,0.9035996914690184,1.64599609375,-2.63525390625,-4.119140625,43.16529411764706,401.126661929663
0.0497041015625,0.4995380859375,1.0549853515625005,1.1683333809429943,1.90283203125,-3.79736328125,-3.60546875,43.30647058823529,401.126661929663
0.0838837890625,0.5351826171875,1.4011767578125005,1.502249390228232,1.75537109375,-6.17138671875,-3.03466796875,42.69470588235294,401.126661929663
0.1532197265625,0.4858662109375,1.8323291015625005,1.9018339033605145,1.68310546875,-9.6845703125,-1.95654296875,42.60058823529412,401.126661929663
0.1170869140625,0.2890888671875,2.2190478515625003,2.240860345068514,2.2421875,-12.3701171875,-1.5849609375,43.16529411764706,401.1366350095756
0.2850556640625,-0.1298564453125,2.3567431640625003,2.377468773582239,2.67529296875,-11.41162109375,-2.8896484375,43.118235294117646,401.1366350095756
0.1209931640625,-0.5424541015625,2.3142626953125003,2.38006462537615,1.81640625,-5.05224609375,-4.33935546875,43.118235294117646,401.1366350095756
0.0848603515625,-0.4916728515625,2.3435595703125003,2.396083248101831,0.537109375,2.04345703125,-3.26025390625,43.02411764705882,401.1366350095756
0.0516572265625,-0.2416728515625,2.1516650390625003,2.165810858907654,-0.41943359375,8.36328125,-1.3994140625,43.353529411764704,400.6099334556875
0.0907197265625,-0.0634501953125,1.9387744140625005,1.9419326004514577,-0.359375,13.216796875,-0.34033203125,43.118235294117646,400.6099334556875
0.0370087890625,0.0190693359375,1.5945361328125005,1.595079549391068,-0.07373046875,15.4833984375,-0.32861328125,43.118235294117646,400.6099334556875
0.1136689453125,0.0454365234375,1.2043994140625005,1.2106044173819277,-0.56787109375,13.94921875,-0.4697265625,43.25941176470588,400.6099334556875
0.1463837890625,-0.0029033203124999,0.8586962890625001,0.8710889505778616,-1.982421875,6.35009765625,0.60791015625,43.118235294117646,400.6099334556875
0.3202119140625,0.2427021484375,1.0139697265625005,1.0906762164588444,-0.6435546875,0.3408203125,-1.79736328125,43.16529411764706,400.641906555712
0.2274384765625,0.2314716796875,1.0232470703125005,1.0734719213940989,-0.38330078125,-2.17822265625,-3.67236328125,44.01235294117648,400.641906555712
-0.1329130859375,0.2324482421875,1.1775439453125005,1.2076041639757693,-1.0615234375,-2.8955078125,-4.451171875,42.55352941176471,400.641906555712
-0.2559599609375,0.2173115234375,1.2117236328125005,1.2573837767913885,-1.361328125,-1.9267578125,-4.26904296875,43.25941176470588,400.641906555712
-0.2315458984375,0.1894794921875,1.1472705078125005,1.1856414294124569,-1.59912109375,-0.92919921875,-4.07275390625,43.25941176470588,400.3190895431953
-0.1202177734375,0.1255146484375,1.0842822265625005,1.098123029019059,-1.2919921875,-0.63427734375,-4.1484375,43.91823529411765,400.3190895431953
-0.0420927734375,0.0678974609375,0.9617236328125,0.9650358608297892,-1.1572265625,-1.23779296875,-4.58447265625,43.02411764705882,400.3190895431953
-0.0655302734375,0.0610615234375,0.8562548828125001,0.8609269136933461,-1.10009765625,-1.51806640625,-4.3037109375,42.97705882352941,400.3190895431953
-0.1031279296875,0.0415302734375,0.7585986328125001,0.7667020406901353,-0.67919921875,-1.6904296875,-3.29345703125,43.16529411764706,400.3190895431953
-0.0845732421875,0.0097919921875,0.6716845703125001,0.6770588441199136,-0.1162109375,-1.82373046875,-1.93701171875,43.25941176470588,400.1262289469189
-0.0259794921875,-0.0243876953125,0.5642626953125001,0.5653866668204186,0.1982421875,-2.1689453125,-0.9384765625,42.60058823529412,400.1262289469189
-0.0425810546875,-0.0512431640625,0.5012744140625001,0.5056827525980483,0.31982421875,-2.14111328125,-0.2216796875,43.91823529411765,400.1262289469189
-0.0440458984375,-0.0395244140625,0.4705126953125,0.4742197981172697,0.2548828125,-1.5068359375,0.14208984375,42.97705882352941,400.1262289469189
-0.0240263671875,0.0014912109375,0.4192431640625,0.4199337098202823,-0.00390625,0.02001953125,0.453125,43.02411764705882,400.0633201251744
0.0501923828125,0.0205341796875,0.3191455078125,0.3237202233175024,-0.22314453125,1.427734375,0.82861328125,43.16529411764706,400.0633201251744
0.1195283203125,0.0195576171875,0.2097705078125,0.2422254852295574,-0.37109375,2.0517578125,0.97998046875,42.60058823529412,400.0633201251744
0.1869111328125,-0.0048564453124999,0.1155322265625,0.2197886530392644,-0.45751953125,1.62939453125,0.96484375,43.16529411764706,400.0633201251744
0.2367158203125,-0.0473369140625,0.0979541015625,0.2605190377536676,-0.32421875,0.93798828125,0.85009765625,42.55352941176471,400.0633201251744
0.2831025390625,-0.1513408203125,0.1106494140625,0.3395502677791159,-0.01904296875,0.716796875,0.81494140625,42.69470588235294,400.47001122323456
0.2992158203125,-0.2797587890625,0.1458056640625,0.4348038395135274,0.20703125,1.07373046875,1.17333984375,43.02411764705882,400.47001122323456
0.3070283203125,-0.3974345703125,0.1438525390625,0.5224118874490938,0.31884765625,2.07275390625,1.63134765625,43.87117647058824,400.47001122323456
0.3875947265625,-0.5131572265625,0.1731494140625,0.6659885365549193,0.24658203125,2.40673828125,2.115234375,42.97705882352941,400.47001122323456
0.3309541015625,-0.5483134765625,0.3010791015625,0.7076912542336375,0.578125,1.33154296875,2.7021484375,43.30647058823529,400.7388562490937
0.1727509765625,-0.5131572265625,0.4861376953125,0.7276696351232222,1.25830078125,0.04296875,3.08544921875,44.01235294117648,400.7388562490937
-0.0464873046875,-0.4233134765625,0.6858447265625001,0.8073031387837714,2.29296875,-0.248046875,2.669921875,43.16529411764706,400.7388562490937
0.0189423828125,-0.3593486328125,0.8377001953125001,0.9117191842872612,2.849609375,1.10107421875,0.95263671875,43.30647058823529,400.7388562490937
0.4749970703125,-0.3315166015625,1.2502978515625005,1.3779587045839987,3.35205078125,-1.35595703125,-0.65234375,42.60058823529412,400.7388562490937
0.7455048828125,-0.1830791015625,1.8782275390625005,2.029047603241232,3.24658203125,-10.51416015625,0.12548828125,43.25941176470588,400.6749095664228
0.6058564453125,0.2080341796875,2.1682666015625003,2.2609113887316203,0.828125,16.0,3.35986328125,42.55352941176471,400.6749095664228
0.2982392578125,0.5498310546875,2.3928759765625003,2.473280469904143,-1.1552734375,-12.958984375,4.982421875,42.97705882352941,400.6749095664228
0.4266572265625,0.5810810546875,2.5520556640625003,2.651920001351517,-1.54833984375,-0.205078125,1.82177734375,42.60058823529412,400.6749095664228
0.4662080078125,0.2783466796875,2.4280322265625003,2.488004677219801,-2.3251953125,7.44140625,-0.017578125,42.60058823529412,401.0176803525254
0.1693330078125,0.0322529296875,2.1267626953125003,2.1337369756324573,-2.31005859375,9.60400390625,0.5478515625,43.73,401.0176803525254
-0.0376982421875,-0.0317119140625,1.7854541015625005,1.7861335761201875,-1.19580078125,8.42138671875,1.08935546875,43.25941176470588,401.0176803525254
-0.0806669921875,-0.0551494140625,1.4915087890625005,1.494706355559747,-1.0556640625,6.5,0.794921875,42.55352941176471,401.0176803525254
-0.0777373046875,0.0478779296875,1.4636767578125005,1.4665214066121746,-0.02099609375,4.3251953125,1.6787109375,43.02411764705882,401.0176803525254
-0.1075224609375,-0.0268291015625,1.3958056640625005,1.4001979617631446,0.7744140625,2.7255859375,4.27880859375,43.25941176470588,400.35209258763183
-0.0215849609375,0.0469013671875,1.4382861328125005,1.439212509889859,0.92578125,1.78369140625,6.130859375,43.25941176470588,400.35209258763183
-0.0709013671875,0.1704365234375,1.3982470703125005,1.4103795524708973,1.2412109375,1.67138671875,6.275390625,42.60058823529412,400.35209258763183
-0.1753935546875,0.2324482421875,1.2590869140625005,1.2923215317735002,1.19482421875,1.92236328125,6.1357421875,42.97705882352941,400.35209258763183
-0.0611357421875,0.1557880859375,1.1458056640625005,1.1579629210344318,0.91259765625,1.69091796875,5.68505859375,43.30647058823529,400.35209258763183
0.0775361328125,0.1269794921875,1.0115283203125005,1.0224114563726,0.57958984375,1.50048828125,4.95458984375,42.60058823529412,400.35209258763183
0.1483369140625,0.1406513671875,0.9368212890625,0.958864315117641,-0.04052734375,0.783203125,3.97412109375,42.69470588235294,400.35209258763183
0.1170869140625,0.1313740234375,0.8865283203125001,0.903825725566018,-0.58349609375,0.240234375,3.015625,43.25941176470588,400.35209258763183
0.1263642578125,0.1260029296875,0.8547900390625001,0.8732185721930148,-1.34814453125,-0.96044921875,1.82861328125,43.02411764705882,400.35209258763183
0.0096650390625,0.1255146484375,0.8460009765625001,0.85531572667476,-1.82763671875,-1.82080078125,1.16845703125,43.02411764705882,399.8154612000674
-0.0943388671875,0.1308857421875,0.8308642578125001,0.8463842592348407,-2.20263671875,-2.03125,1.0302734375,43.87117647058824,399.8154612000674
-0.1246123046875,0.1133076171875,0.7849658203125001,0.8028313531814235,-2.4833984375,-1.81103515625,0.6884765625,43.30647058823529,399.8154612000674
-0.1446318359375,0.1030537109375,0.7380908203125001,0.7591551187565166,-2.8173828125,-1.26611328125,-0.01123046875,43.118235294117646,399.8154612000674
-0.1719755859375,0.0825458984375,0.6497119140625001,0.6771373559198739,-2.85986328125,-0.04248046875,-0.54638671875,43.30647058823529,400.1042268754211
-0.1451201171875,0.0171162109375,0.4827197265625,0.5043522058065629,-2.46044921875,1.02392578125,-0.4638671875,43.02411764705882,400.1042268754211
-0.0547880859375,-0.0497783203125,0.3108447265625,0.3195372584935036,-1.8583984375,1.45458984375,-0.03271484375,42.60058823529412,400.1042268754211
0.0985322265625,-0.0702861328125,0.1506884765625,0.1932763749293414,-0.84521484375,1.33544921875,0.203125,42.60058823529412,400.1042268754211
0.2225556640625,-0.0434306640625,0.0403369140625,0.2303135098584006,0.10888671875,0.97216796875,0.04345703125,42.60058823529412,400.1042268754211
0.3451142578125,0.0073505859375,0.0159228515625,0.3455595741127406,0.96337890625,0.87353515625,-0.53662109375,43.16529411764706,400.5669595407616
0.4598603515625,0.0649677734375,-0.0509716796874999,0.4672156532638621,1.3291015625,1.1708984375,-1.79736328125,43.02411764705882,400.5669595407616
0.4925751953125,0.0967060546875,-0.1520458984374999,0.524500085111562,0.9404296875,1.6875,-3.32373046875,42.60058823529412,400.5669595407616
0.5023408203125,0.1606708984375,-0.1622998046874999,0.5518176002616711,0.115234375,1.23095703125,-4.49658203125,44.01235294117648,400.5669595407616
0.4696259765625,0.2544208984375,-0.0880810546874999,0.5413287574283199,-0.39306640625,0.1845703125,-5.36279296875,43.02411764705882,401.0386544028483
0.4315400390625,0.3095966796875,0.1365283203125,0.5483765965419578,-0.17529296875,-1.283203125,-5.71435546875,43.16529411764706,401.0386544028483
0.3363251953125,0.2700458984375,0.3406298828125,0.549607260987121,0.47314453125,-2.0625,-5.46337890625,42.55352941176471,401.0386544028483
0.2284150390625,0.2754169921875,0.5725634765625001,0.6751717443353723,1.27001953125,-1.7265625,-4.64697265625,43.91823529411765,401.0386544028483
0.1800751953125,0.2920185546875,0.7703173828125001,0.8432619892487216,1.9326171875,-0.34716796875,-4.29833984375,42.69470588235294,401.0386544028483
0.2196259765625,0.3218037109375,0.9763720703125,1.0512352817711623,2.08544921875,-0.00439453125,-4.72509765625,44.01235294117648,401.0066794408398
0.2977509765625,0.3999287109375,1.3557666015625005,1.4445420366982693,2.83349609375,-3.61865234375,-5.19140625,43.30647058823529,401.0066794408398
0.5433564453125,0.3432880859375,1.9666064453125005,2.0689668550641254,4.27783203125,-11.8271484375,-5.22021484375,42.60058823529412,401.0066794408398
0.7738251953125,0.0112568359375,2.3962939453125003,2.5181653681990586,4.47607421875,16.0,-5.52294921875,43.02411764705882,401.0066794408398
0.6473603515625,-0.3359111328125,2.4841845703125003,2.5890316130362723,2.98779296875,16.0,-4.6083984375,43.16529411764706,401.051711488628
0.3099580078125,-0.3315166015625,2.5862353515625003,2.625755228003984,0.677734375,-9.4140625,-1.390625,42.69470588235294,401.051711488628
0.2733369140625,-0.0663798828125,2.5710986328125003,2.5864391616818905,-0.8212890625,0.92578125,0.6640625,43.16529411764706,401.051711488628
0.4188447265625,0.1870380859375,2.4392626953125003,2.482018663770195,-1.33642578125,10.6416015625,-1.00341796875,43.16529411764706,401.051711488628
0.2567353515625,0.2925068359375,2.1287158203125003,2.1640019254753007,-1.25048828125,15.99951171875,-4.4208984375,43.16529411764706,401.051711488628
-0.1387724609375,0.2724873046875,1.7698291015625005,1.7960518299503596,-0.90478515625,15.99951171875,-5.9951171875,42.60058823529412,400.6529075453856
-0.2984404296875,0.2470966796875,1.4529345703125005,1.5037095214148963,-0.27734375,15.99951171875,-5.650390625,43.25941176470588,400.6529075453856
0.0448212890625,0.1137958984375,0.9602587890625,0.9680162170264508,-1.3583984375,9.93603515625,-2.9384765625,42.69470588235294,400.6529075453856
0.2635712890625,0.3564716796875,1.0681689453125005,1.1565149279483231,0.09326171875,2.39892578125,-5.54931640625,44.01235294117648,400.6529075453856
-0.0728544921875,0.2456318359375,1.0813525390625005,1.111290281427333,0.2080078125,-0.32861328125,-6.34716796875,42.69470588235294,400.2991502326912
-0.2564482421875,0.1108662109375,1.2346728515625005,1.26588864756509,-0.033203125,-0.7451171875,-5.9111328125,43.777058823529416,400.2991502326912
-0.2623076171875,0.0693623046875,1.3127978515625005,1.3405426566929015,-0.31494140625,0.546875,-6.2109375,43.16529411764706,400.2991502326912
-0.2320341796875,0.0483662109375,1.2107470703125005,1.2337291514647792,-0.884765625,2.20751953125,-6.3515625,43.16529411764706,400.2991502326912
-0.1377958984375,0.0630146484375,1.0896533203125005,1.1001376795710416,-1.654296875,3.119140625,-6.66357421875,42.55352941176471,400.2991502326912
-0.1421904296875,0.0552021484375,0.9929736328125,1.004620341695153,-1.46435546875,3.6123046875,-6.86865234375,42.69470588235294,400.3190895431953
-0.1163115234375,0.0151630859375,0.8108447265625001,0.8192847247774827,-1.38037109375,2.9677734375,-6.4384765625,42.60058823529412,400.3190895431953
-0.1485380859375,0.0478779296875,0.7703173828125001,0.7859673844303191,-0.8935546875,1.65576171875,-5.4189453125,43.118235294117646,400.3190895431953
-0.1182646484375,0.0210224609375,0.6218798828125001,0.6333743439552971,-0.2001953125,-0.3037109375,-4.30029296875,43.25941176470588,400.3190895431953
-0.1153349609375,0.0210224609375,0.5720751953125001,0.5839641480178029,0.51806640625,-1.8583984375,-3.0908203125,42.55352941176471,399.3427943924423
-0.0718779296875,0.0132099609375,0.5222705078125001,0.5273589130514987,1.19384765625,-2.75634765625,-1.7939453125,43.25941176470588,399.3427943924423
0.0238251953125,0.0034443359375,0.4963916015625,0.4969749747054804,1.2509765625,-2.65380859375,-0.67724609375,42.55352941176471,399.3427943924423
0.0951142578125,-0.0033916015624999,0.4524462890625,0.4623482123754874,0.7587890625,-1.2578125,-0.08544921875,43.16529411764706,399.3427943924423
0.1092744140625,-0.0331767578125,0.3596728515625,0.3773674005246772,0.2138671875,0.8251953125,0.45947265625,43.91823529411765,399.3427943924423
0.1600556640625,-0.0654033203125,0.2434619140625,0.2986119781679286,-0.32373046875,2.44873046875,0.97607421875,43.16529411764706,399.7284861616783
0.2313447265625,-0.0859111328125,0.1980517578125,0.3164263010908323,-0.4296875,2.6455078125,1.2578125,43.87117647058824,399.7284861616783
0.2850556640625,-0.1171611328125,0.1648486328125,0.3495118515818478,-0.31103515625,2.26806640625,1.46435546875,42.83588235294118,399.7284861616783
0.2923798828125,-0.1767314453125,0.1741259765625,0.3834577621453772,-0.19580078125,2.39794921875,1.5966796875,43.16529411764706,399.7284861616783
0.2630830078125,-0.2494853515625,0.1545947265625,0.3941511627851303,-0.15234375,3.10546875,1.7822265625,43.16529411764706,400.4490398760446
0.2640595703125,-0.3031962890625,0.1316455078125,0.4230673540963711,-0.1826171875,3.83984375,1.61865234375,42.93,400.4490398760446
0.3788056640625,-0.3622783203125,0.1643603515625,0.549321069739753,0.08349609375,4.0771484375,1.04736328125,43.87117647058824,400.4490398760446
0.4496064453125,-0.4198955078125,0.2542041015625,0.665640983112411,0.3154296875,3.39697265625,0.96337890625,43.118235294117646,400.4490398760446
0.3529267578125,-0.3891337890625,0.4329150390625,0.6807333054997876,0.76513671875,1.99609375,2.0703125,43.25941176470588,400.4490398760446
0.1283173828125,-0.3793681640625,0.6511767578125001,0.7644715328586152,1.62158203125,1.0166015625,2.86767578125,43.68294117647059,400.7488279859819
-0.0967802734375,-0.3530009765625,0.8669970703125001,0.9410951230939272,2.109375,1.12451171875,2.638671875,42.97705882352941,400.7488279859819
0.0208955078125,-0.2065166015625,1.4724658203125005,1.4870243175403122,2.90771484375,-1.8173828125,0.822265625,42.55352941176471,400.7488279859819
0.6449189453125,-0.1611064453125,2.2332080078125003,2.3300415745007843,3.37939453125,-11.55078125,-1.74072265625,44.01235294117648,400.7488279859819
0.9325166015625,-0.0453837890625,2.3245166015625003,2.504999866554691,0.6826171875,16.0,-1.95263671875,43.25941176470588,400.86675201237495
0.5487275390625,0.3896748046875,2.4690478515625003,2.559129863613652,-2.03076171875,-12.248046875,2.82470703125,43.118235294117646,400.86675201237495
0.7376923828125,0.4170185546875,2.6252978515625003,2.7586741989644072,-1.38037109375,-1.08251953125,4.3125,42.69470588235294,400.86675201237495
0.6356416015625,0.1972919921875,2.4558642578125003,2.544451537879862,-1.40087890625,7.94384765625,2.25927734375,42.55352941176471,400.86675201237495
0.1253876953125,0.1196552734375,2.1731494140625003,2.1800499614544093,-1.63232421875,13.7626953125,0.74072265625,43.91823529411765,400.86675201237495
-0.0860380859375,0.1137958984375,1.8420947265625005,1.8476106300739767,-1.96923828125,15.77734375,-0.02685546875,43.25941176470588,401.08163043743286
-0.2505888671875,0.1694599609375,1.5359423828125005,1.5654489650062038,-2.31103515625,12.63525390625,0.67919921875,42.55352941176471,401.08163043743286
-0.2437529296875,0.1777607421875,1.2981494140625005,1.3327438889093068,-2.09814453125,8.232421875,2.77294921875,42.69470588235294,401.08163043743286
-0.0767607421875,0.2929951171875,1.3884814453125005,1.421133024812942,-0.27685546875,3.77294921875,4.8974609375,42.93,401.08163043743286
-0.0425810546875,0.3222919921875,1.3528369140625005,1.3913493416452376,1.7890625,1.1884765625,5.83056640625,43.25941176470588,400.50198380169707
-0.0079130859375,0.3056904296875,1.2957080078125005,1.3313033077556071,2.703125,0.36328125,5.927734375,42.97705882352941,400.50198380169707
0.0355439453125,0.1469990234375,1.2224658203125005,1.2317851950613268,2.0888671875,0.8427734375,4.95068359375,43.87117647058824,400.50198380169707
-0.0293974609375,0.0537373046875,1.1804736328125005,1.1820617185198878,0.93505859375,1.14794921875,4.52197265625,42.69470588235294,400.50198380169707
-0.1050810546875,-0.0829814453125,1.1082080078125005,1.1162674128093768,-0.23095703125,1.3154296875,4.77294921875,43.118235294117646,400.50198380169707
-0.2584013671875,0.0102802734375,1.0974658203125005,1.127523027410309,-0.75634765625,0.7900390625,5.396484375,43.91823529411765,400.55698890319854
-0.0943388671875,0.0327412109375,1.0027392578125005,1.007699274542876,-0.9990234375,0.22900390625,5.486328125,42.69470588235294,400.55698890319854
-0.0352568359375,0.0591083984375,0.9124072265625,0.9149993411635025,-1.4638671875,-0.56884765625,4.66259765625,42.55352941176471,400.55698890319854
-0.0835966796875,0.1133076171875,0.8738330078125001,0.8851051612718821,-2.076171875,-1.79296875,3.72802734375,42.60058823529412,400.55698890319854
-0.1324248046875,0.1240498046875,0.8689501953125001,0.8876931479250932,-2.560546875,-3.099609375,2.787109375,42.60058823529412,399.7824578547417
-0.1739287109375,0.1020771484375,0.9060595703125,0.9282321291985016,-2.89990234375,-3.56982421875,1.6826171875,43.16529411764706,399.7824578547417
-0.2237333984375,0.1181904296875,0.8601611328125001,0.8966062600982622,-3.322265625,-2.3876953125,0.7333984375,43.16529411764706,399.7824578547417
-0.1485380859375,0.0195576171875,0.8601611328125001,0.8731112402009908,-3.591796875,-0.2236328125,-0.38818359375,43.16529411764706,399.7824578547417
-0.0811552734375,-0.0014384765624999,0.7190478515625001,0.7236145800480968,-3.578125,1.62451171875,-1.51220703125,42.69470588235294,399.7824578547417
-0.0469755859375,-0.0019267578124999,0.5789111328125001,0.5808171121481284,-3.13671875,2.94677734375,-1.5546875,43.02411764705882,399.75942234771617
0.0057587890625,-0.0141337890624999,0.4021533203125,0.4024428166623153,-2.2294921875,3.50439453125,-1.12548828125,43.353529411764704,399.75942234771617
0.0423798828125,0.0151630859375,0.2307666015625,0.2351152866979408,-1.06494140625,2.46435546875,-0.45166015625,43.25941176470588,399.75942234771617
0.1419892578125,0.0581318359375,0.0881884765625,0.1769674181368526,0.21630859375,0.70458984375,-0.41357421875,43.25941176470588,399.75942234771617
0.1546845703125,0.0742451171875,0.0867236328125,0.1922515076849742,0.8896484375,-0.2880859375,-1.22607421875,43.02411764705882,400.0512861931416
0.1371064453125,0.1069599609375,0.1506884765625,0.2300991689657053,1.384765625,0.314453125,-2.47021484375,43.25941176470588,400.0512861931416
0.1781220703125,0.1245380859375,0.1838916015625,0.2846986615820464,1.42431640625,1.85205078125,-3.666015625,42.55352941176471,400.0512861931416
0.2904267578125,0.1416279296875,0.1990283203125,0.3794976210827455,1.27392578125,3.29443359375,-4.66455078125,43.16529411764706,400.0512861931416
0.4315400390625,0.1308857421875,0.2170947265625,0.5004877652083849,1.16650390625,3.9560546875,-5.3681640625,43.16529411764706,400.0512861931416
0.4964814453125,0.1025654296875,0.2737353515625,0.5761462796908576,1.173828125,3.49755859375,-5.80419921875,42.74176470588235,400.8887538553047
0.3690400390625,0.0771748046875,0.3357470703125,0.5048490825318317,1.12548828125,2.0849609375,-5.208984375,42.93,400.8887538553047
0.2020478515625,0.1411396484375,0.4768603515625,0.5367862978638652,1.1650390625,1.177734375,-4.01416015625,43.02411764705882,400.8887538553047
-0.0762724609375,0.1772724609375,0.6052783203125001,0.6352990309646485,1.30419921875,1.333984375,-2.80517578125,42.97705882352941,400.8887538553047
-0.1915068359375,0.1494404296875,0.8206103515625001,0.8558087749769262,1.853515625,1.73681640625,-2.71435546875,43.16529411764706,401.25456315293707
-0.2403349609375,0.0903583984375,1.0154345703125005,1.0473933836924652,2.134765625,1.33544921875,-3.13232421875,43.118235294117646,401.25456315293707
-0.0904326171875,0.0688740234375,1.3469775390625005,1.351765578824494,1.6630859375,-1.0947265625,-3.90576171875,43.25941176470588,401.25456315293707
0.2054658203125,0.0566669921875,1.6824267578125005,1.6958735644863825,0.78369140625,-6.84033203125,-3.208984375,43.118235294117646,401.25456315293707
0.4105439453125,0.0088154296875,1.8772509765625005,1.9216386944059465,-0.14794921875,-11.8154296875,-1.76708984375,43.16529411764706,401.25456315293707
0.3875947265625,0.0591083984375,2.0300830078125003,2.067597759099664,-0.6728515625,-11.21484375,-0.76904296875,43.16529411764706,400.6728505864496
0.2953095703125,0.1997333984375,2.2102587890625003,2.238826721163917,-0.24609375,-7.23583984375,-0.57861328125,42.60058823529412,400.6728505864496
0.1639619140625,0.2475849609375,2.2766650390625003,2.29594980830046,1.32666015625,-1.0751953125,-1.39990234375,43.118235294117646,400.6728505864496
0.0077119140625,0.2109638671875,2.1887744140625003,2.198931254617082,1.75634765625,6.1435546875,-2.423828125,43.16529411764706,400.6728505864496
-0.1480498046875,0.1640888671875,1.7673876953125005,1.781152201959427,1.09619140625,13.24658203125,-3.4169921875,43.16529411764706,400.8887538553047
-0.2535185546875,0.1206318359375,1.3723681640625005,1.400791945702419,0.13525390625,15.99951171875,-4.1298828125,42.55352941176471,400.8887538553047
-0.2740263671875,0.2085224609375,1.1829150390625005,1.2320146331394146,-0.14208984375,14.693359375,-5.04150390625,42.55352941176471,400.8887538553047
-0.3653349609375,0.1098896484375,0.6711962890625001,0.77204263286958,-0.6064453125,6.47998046875,-4.69384765625,42.60058823529412,400.8887538553047
-0.1251005859375,0.1875263671875,0.8303759765625001,0.8604304489292395,0.99267578125,-0.32421875,-5.388671875,42.55352941176471,400.8887538553047
-0.1397490234375,-0.0312236328125,0.8460009765625001,0.858034006984833,0.7822265625,-2.33642578125,-4.97705078125,42.69470588235294,401.070629564697
-0.2764677734375,-0.0883525390625,0.9719775390625,1.0143869761339963,0.25,-3.02978515625,-3.90673828125,42.55352941176471,401.070629564697
-0.1885771484375,-0.0361064453125,1.0281298828125005,1.0459044278699507,-0.0380859375,-3.19287109375,-3.640625,43.87117647058824,401.070629564697
-0.1089873046875,0.0219990234375,1.0408251953125005,1.046746997517812,-0.2861328125,-3.2724609375,-3.9892578125,43.16529411764706,401.070629564697
-0.0557646484375,0.0444599609375,1.0364306640625005,1.0388815647372696,-0.3779296875,-3.326171875,-4.25048828125,42.55352941176471,400.7808018658331
-0.0240263671875,0.0210224609375,1.0071337890625005,1.007639657444806,-0.60009765625,-3.60498046875,-4.1796875,43.447647058823534,400.7808018658331
-0.0250029296875,-0.0243876953125,0.9631884765625,0.9638215330435418,-0.64404296875,-3.93896484375,-3.7265625,43.87117647058824,400.7808018658331
-0.0503935546875,-0.0395244140625,0.9211962890625,0.9234198896729195,-0.5185546875,-4.2734375,-3.16748046875,43.73,400.7808018658331
-0.0987333984375,-0.0380595703125,0.8718798828125001,0.8782774874221296,-0.19287109375,-4.53271484375,-2.4697265625,42.69470588235294,400.7808018658331
-0.1363310546875,-0.0400126953125,0.8186572265625001,0.8308951960755229,0.171875,-4.779296875,-1.8486328125,43.87117647058824,400.6209344648361
-0.1993193359375,-0.0395244140625,0.7742236328125001,0.8004452577103164,0.4365234375,-4.8173828125,-1.17724609375,42.83588235294118,400.6209344648361
-0.2037138671875,-0.0434306640625,0.7327197265625001,0.7617504578004669,0.45947265625,-4.4052734375,-0.564453125,43.25941176470588,400.6209344648361
-0.2032255859375,-0.0322001953125,0.7166064453125001,0.745561727036213,0.3408203125,-3.46728515625,-0.212890625,43.30647058823529,400.6209344648361
-0.1788115234375,-0.0092509765624999,0.6799853515625001,0.7031637219175747,0.232421875,-2.15283203125,-0.1201171875,43.353529411764704,400.429100177735
-0.1402373046875,0.0083271484375,0.6580126953125001,0.6728421436113644,0.095703125,-0.72216796875,-0.13671875,44.01235294117648,400.429100177735
-0.1216826171875,0.0151630859375,0.5940478515625001,0.6065718658549618,-0.02734375,1.22607421875,-0.02880859375,43.777058823529416,400.429100177735
-0.0855498046875,-0.0175517578125,0.4534228515625,0.4617565544780572,-0.20751953125,2.7275390625,0.13330078125,43.87117647058824,400.429100177735
0.0057587890625,-0.0302470703125,0.3269580078125,0.3284046098742746,-0.3203125,3.29296875,0.25341796875,43.30647058823529,400.429100177735
0.1117158203125,-0.0575908203125,0.2463916015625,0.2765970867758647,-0.4853515625,3.25390625,0.43505859375,42.55352941176471,400.66390854895104
0.2098603515625,-0.1205791015625,0.2048876953125,0.3171114229762524,-0.611328125,2.92236328125,0.6279296875,43.16529411764706,400.66390854895104
0.2616181640625,-0.2040751953125,0.1741259765625,0.3747140307262493,-0.6015625,2.38623046875,1.38818359375,43.91823529411765,400.66390854895104
0.2284150390625,-0.2714580078125,0.1580126953125,0.3883695301582961,-0.35009765625,1.6591796875,2.42578125,42.69470588235294,400.66390854895104
0.2040009765625,-0.3168681640625,0.1760791015625,0.4159635583099201,0.080078125,0.755859375,3.40771484375,43.25941176470588,400.618875213036
0.2367158203125,-0.3432353515625,0.2595751953125,0.4911457707951635,0.4267578125,-0.173828125,3.81787109375,43.25941176470588,400.618875213036
0.1908173828125,-0.3139384765625,0.4651416015625,0.5927270452357671,0.99658203125,-0.69384765625,3.85498046875,42.55352941176471,400.618875213036
-0.0049833984375,-0.3129619140625,0.6179736328125001,0.6927202933111813,1.642578125,0.2109375,4.07568359375,43.118235294117646,400.618875213036
-0.1480498046875,-0.2651103515625,0.7522509765625001,0.8112236281771101,1.75732421875,1.0458984375,4.6181640625,44.01235294117648,400.618875213036
-0.1714873046875,-0.0414775390625,0.9265673828125,0.9432154561963404,2.1083984375,1.0068359375,4.728515625,44.01235294117648,401.08163043743286
-0.0040068359375,0.1108662109375,1.1316455078125005,1.137070326239358,2.8701171875,-0.3623046875,3.3154296875,43.02411764705882,401.08163043743286
0.2640595703125,0.1152607421875,1.3118212890625005,1.343088824240912,2.53125,-3.88330078125,1.1484375,44.01235294117648,401.08163043743286
0.3748994140625,0.1240498046875,1.4988330078125005,1.549980099877311,0.70654296875,-8.470703125,-0.04443359375,43.118235294117646,401.08163043743286
0.3597626953125,0.2158466796875,1.7024462890625005,1.7533802648636467,-1.17431640625,-9.568359375,-1.05078125,43.25941176470588,400.5030143008704
0.1908173828125,0.1792255859375,1.9265673828125005,1.944272348400568,-1.90673828125,-5.89404296875,-2.20849609375,43.16529411764706,400.5030143008704
0.0423798828125,-0.0502666015625,1.9939501953125005,1.9950338761751896,-2.33447265625,0.39501953125,-3.0244140625,43.91823529411765,400.5030143008704
-0.0103544921875,0.0058857421875,1.871717122395833,2.076964080618188,-2.2734375,3.47265625,-1.46337890625,43.87117647058824,400.5030143008704
-0.0630888671875,0.0620380859375,1.749484049479167,1.935638803800017,-1.798828125,4.943359375,0.11572265625,43.02411764705882,400.5030143008704
-0.1158232421875,0.1181904296875,1.6272509765625005,1.6356435252903216,-2.09521484375,7.42431640625,0.83837890625,42.74176470588235,400.83580663316735
-0.2432646484375,0.2226826171875,1.5745166015625005,1.60868510460339,-2.1953125,10.267578125,0.36376953125,43.25941176470588,400.83580663316735
-0.4161162109375,0.2090107421875,1.3318408203125005,1.4108997703612491,-2.009765625,10.50537109375,0.8828125,42.97705882352941,400.83580663316735
-0.4434599609375,0.1963154296875,0.8489306640625001,0.9776910336469666,-0.986328125,7.15234375,2.01611328125,44.01235294117648,400.83580663316735
-0.1670927734375,0.2949482421875,0.8137744140625001,0.8815572910975765,0.78271484375,2.7958984375,1.8134765625,42.69470588235294,400.7598289311275
-0.2203154296875,0.3403583984375,0.7200244140625001,0.8263279523236366,1.6513671875,0.34521484375,2.06005859375,43.353529411764704,400.7598289311275
-0.2676787109375,0.0742451171875,0.7859423828125001,0.8335884229140528,1.67822265625,-0.37060546875,2.38134765625,42.60058823529412,400.7598289311275
-0.2847685546875,-0.0400126953125,0.8333056640625001,0.8815284880726334,1.6630859375,-0.27099609375,2.6953125,43.118235294117646,400.7598289311275
-0.2525419921875,-0.0922587890625,0.8723681640625001,0.9128610823378808,1.40771484375,-0.205078125,3.03125,43.91823529411765,400.7598289311275
-0.1558623046875,-0.0863994140625,0.9211962890625,0.9382752899631128,0.876953125,-0.70263671875,2.98193359375,43.118235294117646,401.0396822175864
-0.1285185546875,-0.0375712890625,0.9377978515625,0.9473085194676668,0.26171875,-1.5390625,2.40625,43.73,401.0396822175864
-0.1504912109375,0.0273701171875,0.9387744140625,0.9511541033831916,-0.3359375,-2.1376953125,1.74609375,43.118235294117646,401.0396822175864
-0.1968779296875,0.0576435546875,0.9172900390625,0.9399493147815632,-0.7900390625,-2.54296875,0.857421875,43.68294117647059,401.0396822175864
-0.2271513671875,0.0796162109375,0.8704150390625001,0.903082955705271,-1.19921875,-2.9375,0.15478515625,43.02411764705882,400.70482434437
-0.2598662109375,0.0967060546875,0.8132861328125001,0.8592536542985119,-1.52978515625,-3.36572265625,-0.2509765625,43.777058823529416,400.70482434437
-0.2916044921875,0.1230732421875,0.7859423828125001,0.8472813180446405,-1.7822265625,-3.62646484375,-0.67041015625,43.777058823529416,400.70482434437
-0.3111357421875,0.1533466796875,0.7776416015625001,0.8514969845621517,-1.80126953125,-3.4716796875,-0.85107421875,43.25941176470588,400.70482434437
-0.3096708984375,0.1523701171875,0.7795947265625001,0.8525729620594827,-1.3818359375,-2.69091796875,-0.9189453125,43.02411764705882,400.70482434437
-0.3042998046875,0.1050068359375,0.7517626953125001,0.817784786352724,-0.9228515625,-1.484375,-0.826171875,43.91823529411765,400.4909828230914
-0.2735380859375,0.0302998046875,0.7185595703125001,0.7694602125582171,-0.33837890625,0.3583984375,-0.609375,43.16529411764706,400.4909828230914
-0.2183623046875,-0.0361064453125,0.6448291015625001,0.6817553386101514,-0.04443359375,2.19921875,-0.4921875,43.353529411764704,400.4909828230914
-0.1670927734375,-0.0766337890625,0.5442431640625001,0.5744504801894353,0.5908203125,3.5185546875,-0.12255859375,42.93,400.4909828230914
-0.0494169921875,-0.0917705078125,0.4314501953125,0.4438616183634467,0.91015625,3.7333984375,0.3310546875,43.777058823529416,400.6948524184048
0.0814423828125,-0.0722392578125,0.3318408203125,0.3492416099395253,1.16748046875,2.669921875,0.0341796875,43.353529411764704,400.6948524184048
0.1532197265625,-0.0483134765625,0.2566455078125,0.3027827493530279,1.25341796875,0.796875,-0.81494140625,43.16529411764706,400.6948524184048
0.1888642578125,0.0229755859375,0.2639697265625,0.3253883863473295,1.1689453125,-0.4892578125,-1.71923828125,43.25941176470588,400.6948524184048
0.1698212890625,0.0635029296875,0.2756884765625,0.3299636774057061,0.8974609375,-0.55908203125,-2.5712890625,42.69470588235294,400.6948524184048
0.0999970703125,0.1011005859375,0.2424853515625,0.2811047638699461,0.62109375,-0.44091796875,-3.13916015625,43.16529411764706,400.5119546756102
0.1292939453125,0.1704365234375,0.2273486328125,0.3121745243572034,0.4189453125,-0.5888671875,-4.00537109375,43.87117647058824,400.5119546756102
0.3250947265625,0.3159443359375,0.3118212890625,0.5502180667356659,0.6962890625,-0.45166015625,-5.7412109375,43.02411764705882,400.5119546756102
0.5174775390625,0.4194599609375,0.4988330078125,0.8322043210336846,1.03515625,-0.4794921875,-7.45751953125,43.16529411764706,400.5119546756102
0.3958955078125,0.5044208984375,0.6375048828125001,0.9042047176919568,0.5888671875,-1.02685546875,-8.09619140625,43.25941176470588,400.55595853993617
-0.1001982421875,0.5737568359375,0.7498095703125001,0.9494477269732612,-0.13623046875,-2.21630859375,-6.48779296875,42.60058823529412,400.55595853993617
-0.2217802734375,0.3979755859375,1.1296923828125005,1.2181034178069172,-0.70849609375,-4.90234375,-3.91357421875,42.97705882352941,400.55595853993617
-0.0103544921875,0.2300068359375,1.8669970703125005,1.8811401916502395,0.3984375,-9.66357421875,-1.5478515625,43.25941176470588,400.55595853993617
0.3304658203125,0.0967060546875,2.1052783203125003,2.133250225685177,2.5234375,-14.1240234375,0.66455078125,43.16529411764706,400.55595853993617
0.8143525390625,-0.2148173828125,2.1736376953125003,2.331097895052756,3.3349609375,-15.49609375,1.64306640625,42.60058823529412,400.46898090756986
1.0414033203125,-0.3979228515625,2.2190478515625003,2.4833519361696763,2.85498046875,-14.671875,0.5009765625,43.25941176470588,400.46898090756986
0.6341767578125,-0.2221416015625,2.2068408203125003,2.3068752583293004,2.02783203125,-7.60693359375,-1.5693359375,43.02411764705882,400.46898090756986
0.2601533203125,-0.1703837890625,2.2439501953125003,2.2653968448569715,2.08984375,2.75927734375,-4.1103515625,43.777058823529416,400.46898090756986
-0.1075224609375,-0.2826884765625,2.1453173828125003,2.166531912385497,1.11767578125,10.66552734375,-5.0341796875,42.55352941176471,400.78183086311344
-0.3824248046875,-0.0937236328125,1.9417041015625005,1.9812237805489008,-0.638671875,13.82421875,-4.3388671875,42.60058823529412,400.78183086311344
-0.4976591796875,0.1401630859375,1.7288134765625005,1.8044684498574304,-2.03564453125,11.9912109375,-3.583984375,43.91823529411765,400.78183086311344
-0.5445341796875,0.3442646484375,1.4089892578125005,1.5492857546762488,-2.3310546875,5.56982421875,-3.43701171875,43.16529411764706,400.78183086311344
-0.1441435546875,0.4795185546875,1.4734423828125005,1.5561966020126492,-1.365234375,0.26171875,-6.1787109375,42.55352941176471,400.78183086311344
-0.2696318359375,0.2485615234375,1.2952197265625005,1.3461345764674628,-1.64794921875,-0.3525390625,-7.52392578125,42.55352941176471,400.395065628731
-0.5054716796875,0.0903583984375,1.2712939453125005,1.371077880546001,-2.30126953125,1.2138671875,-6.869140625,43.02411764705882,400.395065628731
-0.4932646484375,0.0927998046875,1.2151416015625005,1.314720855921928,-1.908203125,2.4150390625,-5.15185546875,42.97705882352941,400.395065628731
-0.3169951171875,0.1152607421875,1.0686572265625005,1.120624473628247,-1.2626953125,2.0556640625,-4.36279296875,43.91823529411765,400.395065628731
-0.2178740234375,0.0859638671875,1.0833056640625005,1.108336608770354,-1.2431640625,0.9833984375,-4.4833984375,42.55352941176471,399.8993368168221
-0.1334013671875,0.0312763671875,0.8826220703125001,0.8931941865656456,-1.2119140625,0.21044921875,-4.892578125,43.16529411764706,399.8993368168221
-0.1128935546875,-0.0214580078125,0.8528369140625001,0.8605441318008676,-1.16015625,-0.5361328125,-4.34912109375,43.16529411764706,399.8993368168221
-0.0782255859375,-0.0658916015625,0.8225634765625001,0.8288978335273431,-0.59375,-1.46044921875,-2.8935546875,43.02411764705882,399.8993368168221
-0.0001005859374999,-0.1337626953125,0.7717822265625001,0.7832881168590302,0.123046875,-2.84716796875,-1.31640625,43.30647058823529,399.8993368168221
0.0389619140625,-0.1816142578125,0.7844775390625001,0.8061679593495112,0.7646484375,-4.35009765625,-0.1728515625,42.93,400.07225590050575
0.0140595703125,-0.1718486328125,0.8577197265625001,0.8748787078511784,1.4619140625,-5.09521484375,0.39306640625,43.73,400.07225590050575
-0.0567412109375,-0.1366923828125,0.8948291015625001,0.906985938998375,1.84033203125,-4.5888671875,0.83935546875,43.118235294117646,400.07225590050575
-0.0826201171875,-0.0824931640625,0.9163134765625,0.92372159940708,1.80908203125,-2.2421875,1.25830078125,43.02411764705882,400.07225590050575
-0.0533232421875,-0.0029033203124999,0.8508837890625001,0.8525579276011577,1.40087890625,0.732421875,1.51171875,43.25941176470588,399.9863124173266
0.0531220703125,-0.0087626953124999,0.6506884765625001,0.6529121171449134,0.78955078125,3.12060546875,1.595703125,43.16529411764706,399.9863124173266
0.2425751953125,-0.1283916015625,0.4104541015625,0.4937607702340885,-0.2978515625,3.24267578125,2.39404296875,42.97705882352941,399.9863124173266
0.2323212890625,-0.0947001953125,0.2732470703125,0.3709518429368584,-1.083984375,3.255859375,1.76611328125,42.60058823529412,399.9863124173266
0.1986298828125,-0.0473369140625,0.2293017578125,0.3070405672137973,-1.67431640625,2.9482421875,0.99267578125,42.55352941176471,399.9863124173266
0.1332001953125,-0.0160869140625,0.2654345703125,0.2974165293865221,-2.0,3.08154296875,-0.01123046875,43.353529411764704,400.4480092409701
0.0897431640625,-0.0629619140625,0.2961962890625,0.315832676860325,-1.865234375,4.0419921875,-0.189453125,42.60058823529412,400.4480092409701
0.1351533203125,-0.1469462890625,0.3313525390625,0.3868515697317237,-1.638671875,4.89404296875,0.9091796875,43.25941176470588,400.4480092409701
0.2372041015625,-0.2221416015625,0.3040087890625,0.4450101355812842,-1.15673828125,5.74365234375,2.1484375,43.02411764705882,400.4480092409701
0.3700166015625,-0.2724345703125,0.2542041015625,0.5251215152556751,-0.91015625,6.01318359375,2.9462890625,42.83588235294118,400.7918027915039
0.4251923828125,-0.2123759765625,0.3269580078125,0.576882706185032,-0.306640625,4.96826171875,3.22705078125,43.16529411764706,400.7918027915039
0.3509736328125,-0.1474345703125,0.4631884765625,0.599552339894629,0.771484375,3.54345703125,3.0810546875,43.73,400.7918027915039
0.1102509765625,-0.0966533203125,0.5730517578125001,0.5915111658222623,1.88720703125,2.6630859375,2.8251953125,42.97705882352941,400.7918027915039
-0.0816435546875,0.0112568359375,0.7849658203125001,0.7892805112481941,2.408203125,1.84375,2.56201171875,43.16529411764706,400.7918027915039
0.0975556640625,0.1098896484375,1.2068408203125005,1.2157539257583918,3.11083984375,-0.6025390625,1.92919921875,42.55352941176471,400.618875213036
0.4720673828125,0.0864521484375,1.5525439453125005,1.6250274736174175,2.85693359375,-6.57080078125,1.28759765625,43.353529411764704,400.618875213036
0.7323212890625,0.0429951171875,1.7981494140625005,1.942030989919945,0.4248046875,-14.818359375,1.76806640625,43.777058823529416,400.618875213036
0.8534150390625,0.1294208984375,2.1355517578125003,2.3033992941186896,0.17724609375,16.0,2.140625,42.55352941176471,400.618875213036
0.7313447265625,0.0058857421875,2.4177783203125003,2.525975407086342,-0.1171875,-12.73974609375,-0.115234375,43.49470588235295,400.9097273478165
0.1859345703125,-0.1913798828125,2.5623095703125003,2.5761654174562723,-1.44482421875,-4.9287109375,-2.17236328125,43.02411764705882,400.9097273478165
-0.4146513671875,-0.1904033203125,2.5149462890625003,2.556001568380921,-2.2763671875,4.970703125,-1.18408203125,42.55352941176471,400.9097273478165
-0.6197294921875,-0.1474345703125,2.0754931640625003,2.1710535392017345,-2.7666015625,12.5625,1.81591796875,43.02411764705882,400.9097273478165
-0.3956083984375,-0.0331767578125,1.6624072265625005,1.709153149691524,-2.90869140625,14.0791015625,3.18408203125,42.93,400.9097273478165
-0.2793974609375,0.2168232421875,1.3303759765625005,1.376581090435884,-2.51708984375,11.8623046875,3.33984375,44.01235294117648,400.78183086311344
-0.2393583984375,0.3442646484375,1.2434619140625005,1.3122530711681866,-0.80908203125,7.26806640625,4.0283203125,43.16529411764706,400.78183086311344
-0.3086943359375,0.3598896484375,1.1277392578125005,1.2233595488260394,1.52880859375,4.38232421875,5.32861328125,43.16529411764706,400.78183086311344
-0.1841826171875,0.2710224609375,0.9832080078125,1.0363756063480465,2.5478515625,1.501953125,6.2919921875,43.16529411764706,400.78183086311344
-0.1260771484375,0.2143818359375,1.0027392578125005,1.0331219860676806,2.76318359375,-1.63232421875,6.337890625,43.777058823529416,400.3180587586477
-0.1827177734375,0.0932880859375,1.0642626953125005,1.0838558651138388,2.7109375,-4.64990234375,6.04736328125,43.02411764705882,400.3180587586477
-0.2901396484375,-0.0512431640625,1.0969775390625005,1.1358550077656002,1.99755859375,-6.0732421875,5.92626953125,43.777058823529416,400.3180587586477
-0.2867216796875,-0.0810283203125,1.2576220703125005,1.292434981742829,1.0478515625,-5.697265625,5.263671875,44.01235294117648,400.3180587586477
-0.2188505859375,-0.1005595703125,1.2649462890625005,1.2876711227482007,0.27587890625,-4.34814453125,3.79150390625,43.87117647058824,400.3180587586477
-0.1709990234375,-0.0541728515625,1.2893603515625005,1.3017778151606232,-0.51025390625,-2.32568359375,2.2294921875,43.16529411764706,400.3840646055973
-0.2383818359375,0.0078388671875,1.2405322265625005,1.2632527667429947,-1.5146484375,-0.42138671875,1.0830078125,43.25941176470588,400.3840646055973
-0.3350615234375,0.0327412109375,1.2190478515625005,1.2646801476187803,-2.05029296875,1.13525390625,0.78515625,43.25941176470588,400.3840646055973
-0.3370146484375,0.0346943359375,1.0764697265625005,1.1285254283414,-2.70947265625,1.62109375,1.1259765625,43.25941176470588,400.3840646055973
-0.1998076171875,0.0620380859375,0.9710009765625,0.9932848053193324,-2.73291015625,2.470703125,1.6572265625,43.25941176470588,399.4146262923691
-0.0254912109375,0.0254169921875,0.8284228515625001,0.8292045865272717,-2.720703125,3.53955078125,1.806640625,42.69470588235294,399.4146262923691
0.1063447265625,-0.0009501953124999,0.6960986328125001,0.704175695648619,-2.37548828125,4.08447265625,2.1279296875,43.16529411764706,399.4146262923691
0.1117158203125,-0.0151103515624999,0.3733447265625,0.3899936308255111,-2.0673828125,3.72607421875,3.0498046875,42.69470588235294,399.4146262923691
0.1849580078125,-0.0287822265625,0.1101611328125,0.2171942826190348,-1.23291015625,2.359375,3.78662109375,43.777058823529416,399.4146262923691
0.2806611328125,0.0483662109375,0.0178759765625,0.2853585680685084,0.0654296875,0.203125,3.3349609375,42.60058823529412,399.32868725200734
0.3241181640625,0.0996357421875,-0.0363232421874999,0.3410267486862451,1.31396484375,-0.71240234375,2.0888671875,43.25941176470588,399.32868725200734
0.3324189453125,0.1323505859375,-0.0548779296874999,0.361981518820313,1.64208984375,-0.60205078125,0.47900390625,43.87117647058824,399.32868725200734
0.3275361328125,0.1992451171875,-0.0783154296874999,0.391295082447973,1.38232421875,0.0849609375,-1.3671875,44.01235294117648,399.32868725200734
0.2440400390625,0.2768818359375,-0.0646435546874999,0.3746970521639888,1.13623046875,0.23779296875,-2.17236328125,43.118235294117646,400.994650972981
0.2479462890625,0.3559833984375,0.0305712890625,0.4348978569019622,1.5380859375,0.22607421875,-2.84814453125,43.02411764705882,400.994650972981
0.2582001953125,0.3979755859375,0.1653369140625,0.5023825265805133,2.48486328125,-0.0849609375,-3.7998046875,42.69470588235294,400.994650972981
0.3089814453125,0.4013935546875,0.3123095703125,0.5950828404523583,3.1767578125,-0.37451171875,-4.60009765625,43.02411764705882,400.994650972981
0.2816376953125,0.3100849609375,0.3713916015625,0.5598251478200191,2.9833984375,-0.59033203125,-4.4150390625,42.60058823529412,400.994650972981
0.2430634765625,0.2783466796875,0.5652392578125001,0.6753163305474928,2.794921875,-0.9775390625,-4.23193359375,44.01235294117648,401.1026049263909
0.3050751953125,0.1875263671875,0.7405322265625001,0.8225721802754546,2.99609375,-1.85498046875,-4.87060546875,43.87117647058824,401.1026049263909
0.3499970703125,0.0356708984375,0.9627001953125,1.0249692816262337,2.9208984375,-4.615234375,-5.7578125,43.25941176470588,401.1026049263909
0.4623017578125,-0.0317119140625,1.3210986328125005,1.400010770811815,1.94970703125,-9.650390625,-6.0625,43.68294117647059,401.1026049263909
0.5287080078125,-0.1034892578125,1.9119189453125005,1.98637263308084,0.5263671875,16.0,-4.63671875,42.69470588235294,401.2525099362218
0.5790009765625,-0.1352275390625,2.6262744140625003,2.6927394816692827,0.357421875,16.0,-2.5029296875,43.447647058823534,401.2525099362218
0.2650361328125,-0.1181376953125,2.8845751953125003,2.899133443662451,0.216796875,16.0,-0.0146484375,43.25941176470588,401.2525099362218
0.1747041015625,0.2910419921875,3.0999072265625003,3.118437393569677,0.48193359375,-7.01025390625,1.00048828125,42.55352941176471,401.2525099362218
0.3021455078125,0.3672138671875,2.8738330078125003,2.912911617083277,1.546875,7.27099609375,-1.58984375,43.25941176470588,401.2525099362218
0.2240205078125,0.2314716796875,2.4729541015625003,2.493845687858957,1.78662109375,15.99951171875,-4.0244140625,44.01235294117648,400.8017750532203
-0.0054716796875,0.0049091796875,1.9265673828125005,1.92658140753014,0.7734375,15.99951171875,-4.541015625,42.60058823529412,400.8017750532203
-0.0503935546875,-0.0253642578125,1.5598681640625005,1.5608880629898276,-0.12841796875,15.21533203125,-2.6640625,43.30647058823529,400.8017750532203
0.0975556640625,0.0483662109375,1.3269580078125005,1.3314180231801152,-0.88134765625,6.52978515625,-1.07861328125,43.16529411764706,400.8017750532203
0.1351533203125,0.2710224609375,1.2473681640625005,1.2836070002305084,-0.990234375,0.33642578125,-2.12744140625,42.97705882352941,400.608903670085
-0.0469755859375,0.4165302734375,1.3557666015625005,1.4190867670006726,-0.72900390625,-0.54736328125,-3.623046875,42.60058823529412,400.608903670085
-0.0298857421875,0.2886005859375,1.3572314453125005,1.3878979256179556,-0.73876953125,-0.7001953125,-4.29345703125,43.73,400.608903670085
0.0462861328125,0.2646748046875,1.2712939453125005,1.2993781026765556,-0.89306640625,0.1513671875,-4.75048828125,44.01235294117648,400.608903670085
0.0277314453125,0.2158466796875,1.1843798828125005,1.2042070125199364,-0.587890625,1.48876953125,-4.2490234375,43.02411764705882,400.608903670085
0.0169892578125,0.0962177734375,0.9895556640625,0.994367591529644,-0.513671875,1.330078125,-2.95361328125,43.16529411764706,400.70585335523214
-0.0254912109375,0.0322529296875,0.7932666015625001,0.7943311365312361,-0.79248046875,-0.3095703125,-1.73974609375,42.69470588235294,400.70585335523214
-0.0279326171875,0.0879169921875,0.7058642578125001,0.7118665458324559,-0.55419921875,-2.06689453125,-1.21875,44.01235294117648,400.70585335523214
-0.0484404296875,0.0869404296875,0.6267626953125001,0.6346153084963729,-0.1845703125,-3.1533203125,-1.26171875,43.02411764705882,400.70585335523214
-0.0762724609375,0.0722919921875,0.5881884765625001,0.5975025559717839,0.1865234375,-3.6162109375,-1.40185546875,43.73,400.46898090756986
-0.1075224609375,0.0527607421875,0.5657275390625001,0.5782667411981642,0.47021484375,-3.30908203125,-1.19091796875,43.353529411764704,400.46898090756986
-0.0972685546875,0.0317646484375,0.5554736328125001,0.5648195476178823,0.5166015625,-2.275390625,-0.51318359375,43.25941176470588,400.46898090756986
-0.0069365234375,0.0063740234375,0.5100634765625001,0.5101504617808406,0.2216796875,-0.86083984375,-0.0126953125,43.777058823529416,400.46898090756986
0.0960908203125,-0.0180400390625,0.4876025390625,0.4973078773334508,0.03369140625,1.10888671875,0.10400390625,42.97705882352941,400.46898090756986
0.1541962890625,-0.0795634765625,0.3972705078125,0.433509744689735,-0.201171875,2.71435546875,0.28125,42.60058823529412,400.39403485775046
0.1991181640625,-0.1796611328125,0.2825244140625,0.3895461595811855,-0.46484375,3.302734375,0.73876953125,42.55352941176471,400.39403485775046
0.2611298828125,-0.2831767578125,0.2073291015625,0.4374508523452465,-0.57373046875,3.00341796875,1.16748046875,43.118235294117646,400.39403485775046
0.3421845703125,-0.3866923828125,0.1902392578125,0.550283794326355,-0.50927734375,2.81591796875,1.49072265625,42.55352941176471,400.39403485775046
0.3871064453125,-0.4809306640625,0.1799853515625,0.6430710928156804,-0.53369140625,2.79931640625,2.078125,43.118235294117646,400.71582523392937
0.3861298828125,-0.5556376953125,0.1926806640625,0.7035306483420232,-0.50830078125,2.826171875,2.896484375,43.16529411764706,400.71582523392937
0.3143525390625,-0.5942119140625,0.2293017578125,0.7102708031200232,-0.4638671875,2.32373046875,3.751953125,43.118235294117646,400.71582523392937
0.2645478515625,-0.4941142578125,0.3406298828125,0.6558682661974047,0.1572265625,1.62744140625,4.2763671875,43.25941176470588,400.71582523392937
0.2157197265625,-0.3715556640625,0.4285205078125,0.6068100506262302,0.7373046875,0.9873046875,3.62890625,42.97705882352941,400.71582523392937
0.0882783203125,-0.2690166015625,0.4661181640625,0.5453706415112836,1.25390625,1.27587890625,2.21533203125,43.25941176470588,400.8877255716297
-0.0206083984375,-0.2621806640625,0.6887744140625001,0.7372744401927633,1.88916015625,1.76708984375,2.044921875,42.69470588235294,400.8877255716297
0.1644501953125,-0.2319072265625,0.8948291015625001,0.938905719161078,2.18310546875,0.3681640625,2.5595703125,43.30647058823529,400.8877255716297
0.4603486328125,-0.0400126953125,1.2024462890625005,1.2881766018674174,2.94140625,-4.3173828125,2.330078125,42.55352941176471,400.8877255716297
0.6668916015625,0.1079365234375,1.5007861328125005,1.6458291885152208,2.787109375,-12.1865234375,2.0,43.118235294117646,400.70482434437
0.6195283203125,0.1850849609375,1.7395556640625005,1.8558355775246875,0.38818359375,16.0,2.39697265625,43.777058823529416,400.70482434437
0.3568330078125,0.3784443359375,2.2551806640625003,2.314387551476431,-0.59326171875,-14.205078125,2.8603515625,42.55352941176471,400.70482434437
0.2464814453125,0.1357685546875,2.4949267578125003,2.510746050514481,-1.04736328125,-4.26123046875,1.63232421875,43.30647058823529,400.70482434437
0.1439423828125,-0.0942119140625,2.4817431640625003,2.487698620551133,-2.56689453125,4.47900390625,1.07275390625,43.25941176470588,400.70482434437
0.0853486328125,-0.1078837890625,2.2913134765625003,2.2954391189797163,-1.77880859375,10.06640625,0.96875,42.60058823529412,400.608903670085
0.0340791015625,-0.2626689453125,1.8591845703125005,1.8779573015601192,-1.07177734375,11.39599609375,0.83251953125,43.30647058823529,400.608903670085
-0.0826201171875,-0.1918681640625,1.5198291015625005,1.53411863103903,-1.29052734375,10.2265625,1.93359375,43.91823529411765,400.608903670085
-0.0914091796875,-0.1113017578125,1.3728564453125005,1.3803907196367875,-0.75439453125,8.5400390625,4.15673828125,42.74176470588235,400.608903670085
0.0223603515625,-0.0732158203125,1.2332080078125005,1.235581859772515,0.03369140625,6.79052734375,5.41064453125,42.97705882352941,400.0591913739961
0.0355439453125,0.0141865234375,1.0515673828125005,1.0522635554321702,0.654296875,5.478515625,5.4921875,43.02411764705882,400.0591913739961
-0.0025419921874999,0.1230732421875,0.9685595703125,0.9763509235468356,0.55712890625,3.28955078125,5.43603515625,43.25941176470588,400.0591913739961
0.0721650390625,0.1386982421875,0.9353564453125,0.948333630657708,0.76806640625,1.9931640625,4.9541015625,43.777058823529416,400.0591913739961
0.1356416015625,0.0014912109375,0.8425830078125001,0.8534324770237302,0.84619140625,0.96875,4.4365234375,42.97705882352941,400.0591913739961
0.1849580078125,-0.0839580078125,0.7986376953125001,0.824063456357503,0.31640625,-0.333984375,4.267578125,43.91823529411765,400.2541146888337
0.1903291015625,-0.0751689453125,0.8318408203125001,0.8566415163761064,-0.34814453125,-1.509765625,4.12939453125,42.60058823529412,400.2541146888337
0.1556611328125,-0.0238994140625,0.8621142578125001,0.8763803761978012,-0.78271484375,-2.97021484375,3.7939453125,42.55352941176471,400.2541146888337
0.0824189453125,0.0288349609375,0.8787158203125001,0.8830435042432292,-1.10986328125,-3.8935546875,3.26171875,42.55352941176471,400.2541146888337
-0.0215849609375,0.0937763671875,0.9334033203125,0.938350508046944,-1.41845703125,-4.20849609375,2.67333984375,44.01235294117648,400.629876113747
-0.1402373046875,0.1499287109375,0.9407275390625,0.9628672923824876,-1.61962890625,-3.33203125,2.345703125,43.118235294117646,400.629876113747
-0.2569365234375,0.1504169921875,0.8635791015625001,0.9134607343889382,-1.79833984375,-2.13232421875,2.24658203125,43.777058823529416,400.629876113747
-0.2818388671875,0.1269794921875,0.8132861328125001,0.8700524537743918,-1.85400390625,-0.79736328125,1.8828125,43.25941176470588,400.629876113747
-0.1749052734375,0.0957294921875,0.7415087890625001,0.7678484711241265,-1.5869140625,0.9990234375,1.08642578125,43.91823529411765,400.629876113747
-0.1065458984375,0.0249287109375,0.5789111328125001,0.589161750962426,-1.4462890625,2.5625,0.66552734375,43.91823529411765,400.34900100869993
-0.0469755859375,0.0049091796875,0.4036181640625,0.4063722776968907,-1.466796875,2.97119140625,0.908203125,43.118235294117646,400.34900100869993
0.0208955078125,0.0141865234375,0.2151416015625,0.2166189936659814,-1.2529296875,2.17138671875,1.1494140625,43.25941176470588,400.34900100869993
0.0042939453125,0.1128193359375,0.1194384765625,0.1643538566973592,-0.53564453125,0.68798828125,0.8271484375,43.353529411764704,400.34900100869993
0.1893525390625,0.2256123046875,0.0994189453125,0.3108688192194109,0.25,-0.33251953125,-0.16064453125,43.91823529411765,400.8866977296986
0.1859345703125,0.2558857421875,0.0935595703125,0.3298523467995966,0.927734375,0.1240234375,-1.35107421875,43.353529411764704,400.8866977296986
0.2479462890625,0.2832294921875,0.0520556640625,0.38000802579109,1.06787109375,1.248046875,-2.48388671875,44.01235294117648,400.8866977296986
0.3080048828125,0.3125263671875,0.0042041015625,0.4388136421007279,0.9755859375,1.96728515625,-3.43896484375,42.60058823529412,400.8866977296986
0.4491181640625,0.3310810546875,-0.0050732421874999,0.5579852398138782,0.916015625,2.1494140625,-4.42919921875,42.60058823529412,400.8866977296986
0.6117158203125,0.2988544921875,0.0691455078125,0.6843181669164511,1.1171875,1.73681640625,-5.4365234375,43.91823529411765,400.98365015025314
0.6947236328125,0.2744404296875,0.2459033203125,0.7864012451515886,1.8623046875,0.005859375,-6.18115234375,43.25941176470588,400.98365015025314
0.5096650390625,0.1675068359375,0.2556689453125,0.5942925220172119,1.9638671875,-1.39501953125,-5.97607421875,43.118235294117646,400.98365015025314
0.1878876953125,0.1841083984375,0.4207080078125,0.4961783109554736,2.03466796875,-2.4580078125,-4.96630859375,43.16529411764706,400.98365015025314
0.0121064453125,0.1260029296875,0.6174853515625001,0.6303264739023754,2.53369140625,-1.80859375,-4.728515625,43.02411764705882,401.30546202969776
-0.0870146484375,-0.0092509765624999,0.8860400390625001,0.8903505379522934,2.9560546875,-1.04296875,-5.32470703125,42.69470588235294,401.30546202969776
-0.1802763671875,-0.1044658203125,1.2605517578125005,1.277655434890045,3.68310546875,-1.64306640625,-5.76171875,43.30647058823529,401.30546202969776
-0.1031279296875,-0.2768291015625,1.8352587890625005,1.8588826063484172,3.43603515625,-5.2021484375,-5.2783203125,44.01235294117648,401.30546202969776
0.2132783203125,-0.3334697265625,2.6008837890625003,2.630833743256517,2.6640625,-13.03271484375,-3.00830078125,43.16529411764706,401.30546202969776
0.2142548828125,-0.2255595703125,2.5203173828125003,2.539445211985368,2.32275390625,-14.7509765625,0.47607421875,43.25941176470588,400.85575111175245
0.2059541015625,0.1416279296875,2.4065478515625003,2.419493361073361,0.62646484375,-8.353515625,3.9658203125,43.87117647058824,400.85575111175245
0.5013642578125,0.4106708984375,2.4627001953125003,2.546548440110176,0.18310546875,0.9794921875,3.3212890625,43.16529411764706,400.85575111175245
0.5282197265625,0.4883076171875,2.4251025390625003,2.529542000738569,0.13330078125,9.02587890625,-0.2451171875,42.55352941176471,400.85575111175245
0.1034150390625,0.2949482421875,2.1873095703125003,2.209527617445514,0.78369140625,14.92626953125,-3.1005859375,43.16529411764706,400.8237768517105
-0.3951201171875,0.1128193359375,1.8357470703125005,1.8811739461646204,0.68359375,15.99951171875,-3.57421875,43.30647058823529,400.8237768517105
-0.4532255859375,-0.0634501953125,1.5496142578125005,1.6157795972995113,-0.09716796875,15.99951171875,-2.76025390625,43.68294117647059,400.8237768517105
-0.3599638671875,-0.1088603515625,1.1360400390625005,1.1966668425990663,-1.052734375,12.92578125,-1.69775390625,42.60058823529412,400.8237768517105
0.1532197265625,0.0615498046875,0.9832080078125,0.9969767548401426,-1.26220703125,5.11962890625,-2.84228515625,43.118235294117646,400.8237768517105
-0.0469755859375,0.1440693359375,0.9348681640625,0.9470697774764186,-0.5009765625,1.14453125,-4.3232421875,42.60058823529412,400.5649000171444
-0.1060576171875,0.0498310546875,0.9612353515625,0.9683515649123732,-0.78564453125,0.23974609375,-4.77001953125,43.02411764705882,400.5649000171444
-0.0445341796875,0.0459248046875,0.9753955078125,0.9774910626224818,-1.45947265625,-0.17822265625,-5.09521484375,42.60058823529412,400.5649000171444
-0.1124052734375,-0.0097392578124999,0.9392626953125,0.9460149097371562,-2.19482421875,-0.7060546875,-4.8642578125,43.02411764705882,400.5649000171444
-0.0479521484375,0.0053974609375,0.8801806640625001,0.88150243477477,-2.21484375,-1.810546875,-4.47216796875,43.30647058823529,400.5219258828296
-0.0376982421875,0.0010029296875,0.8333056640625001,0.834158553927627,-1.89404296875,-3.11181640625,-3.98583984375,43.91823529411765,400.5219258828296
-0.1094755859375,-0.0038798828124999,0.8118212890625001,0.8191787123589681,-1.07763671875,-4.02490234375,-3.30908203125,43.777058823529416,400.5219258828296
-0.1006865234375,-0.0541728515625,0.8113330078125001,0.8193495733900281,-0.36865234375,-4.23193359375,-2.39453125,43.118235294117646,400.5219258828296
-0.1246123046875,-0.0771220703125,0.8044970703125001,0.8177356396478096,0.49609375,-3.7216796875,-1.21240234375,43.73,400.5219258828296
-0.1231474609375,-0.0912822265625,0.7595751953125001,0.7748885205986621,0.759765625,-2.99169921875,-0.16748046875,43.16529411764706,400.404005443205
-0.1055693359375,-0.0541728515625,0.7195361328125001,0.7292542964970896,0.8359375,-1.44140625,0.6806640625,43.02411764705882,400.404005443205
-0.1124052734375,-0.0282939453125,0.6628955078125001,0.6729531537305536,0.703125,0.5654296875,1.40478515625,43.25941176470588,400.404005443205
-0.0533232421875,-0.0282939453125,0.5540087890625001,0.5572877657523366,0.52197265625,2.38037109375,2.119140625,42.69470588235294,400.404005443205
0.0135712890625,-0.0561259765625,0.4099658203125,0.4140124140124464,0.31201171875,3.17333984375,2.66845703125,43.25941176470588,400.4150063718026
0.1043916015625,-0.0600322265625,0.3230517578125,0.3447664614323459,0.16796875,2.8095703125,2.73828125,43.02411764705882,400.4150063718026
0.1971650390625,-0.0961650390625,0.2952197265625,0.3677994756902824,0.14501953125,2.1806640625,2.2626953125,43.87117647058824,400.4150063718026
0.2279267578125,-0.2074931640625,0.3313525390625,0.4525467105203077,0.095703125,2.42822265625,2.1689453125,43.118235294117646,400.4150063718026
0.1751923828125,-0.3124736328125,0.2820361328125,0.455934778680452,-0.21044921875,2.98681640625,3.1435546875,43.02411764705882,400.4150063718026
0.1532197265625,-0.3608134765625,0.1985400390625,0.4394096000179605,-0.521484375,3.47412109375,4.11279296875,43.16529411764706,400.7147966036466
0.1395478515625,-0.3461650390625,0.1331103515625,0.3962602715866732,-0.60009765625,3.763671875,4.556640625,42.60058823529412,400.7147966036466
0.1815400390625,-0.3490947265625,0.0569384765625,0.3975750294093167,-0.556640625,3.9326171875,4.28125,42.97705882352941,400.7147966036466
0.3236298828125,-0.3866923828125,0.0847705078125,0.5113250814982878,-0.44775390625,3.57373046875,3.7958984375,43.118235294117646,400.7147966036466
0.3709931640625,-0.3500712890625,0.2693408203125,0.5768278015955852,-0.09814453125,2.849609375,4.04443359375,43.118235294117646,401.10363222459927
0.0731416015625,-0.3017314453125,0.5061572265625001,0.5937901118837696,0.83642578125,2.8955078125,4.80029296875,42.55352941176471,401.10363222459927
-0.1612333984375,-0.2626689453125,0.5623095703125001,0.6412357105373306,1.8046875,3.99169921875,5.39306640625,42.69470588235294,401.10363222459927
-0.3462919921875,-0.0971416015625,0.5261767578125001,0.6373512493667753,2.22607421875,4.03466796875,5.31787109375,42.55352941176471,401.10363222459927
0.0604462890625,0.1631123046875,0.8098681640625001,0.8283391943907156,3.09521484375,0.8759765625,3.5048828125,43.16529411764706,401.10363222459927
0.2523408203125,0.3808857421875,1.0295947265625005,1.126416947299275,3.84619140625,-5.15576171875,2.22265625,42.55352941176471,401.18958479583085
0.5721650390625,0.4116474609375,1.3718798828125005,1.5423621095214062,2.20751953125,-12.50341796875,2.083984375,43.87117647058824,401.18958479583085
0.7293916015625,0.3579365234375,2.0071337890625003,2.165344478469147,-1.18115234375,16.0,1.75048828125,43.118235294117646,401.18958479583085
0.5160126953125,0.3115498046875,2.4656298828125003,2.5382401583661216,-1.19091796875,-13.20849609375,0.14404296875,43.25941176470588,401.18958479583085
0.3880830078125,-0.1274150390625,2.6619189453125003,2.693075469522848,-0.953125,-5.3076171875,-2.21875,44.01235294117648,401.1565821693985
-0.1358427734375,-0.4487041015625,2.6633837890625003,2.704330201305884,-1.6025390625,2.748046875,-1.73193359375,42.55352941176471,401.1565821693985
-0.4878935546875,-0.4809306640625,2.3367236328125003,2.4350794156424653,-2.06005859375,10.98291015625,0.87939453125,43.118235294117646,401.1565821693985
-0.4708037109375,-0.2494853515625,1.9661181640625005,2.037036992774869,-2.18994140625,15.99951171875,2.84326171875,43.16529411764706,401.1565821693985
-0.4556669921875,-0.0038798828124999,1.6047900390625005,1.6682321573252517,-2.3720703125,15.99951171875,3.48291015625,43.91823529411765,401.1565821693985
-0.5167021484375,0.1767841796875,1.2249072265625005,1.341130668530381,-2.09716796875,13.69921875,3.912109375,43.353529411764704,400.34006065204295
-0.5865263671875,0.2925068359375,1.0159228515625005,1.208996554504278,-0.94580078125,8.041015625,4.83642578125,42.60058823529412,400.34006065204295
-0.6490263671875,0.2617451171875,0.9163134765625,1.152985741024648,0.52978515625,2.7197265625,5.802734375,43.25941176470588,400.34006065204295
-0.5074248046875,0.1992451171875,1.0022509765625005,1.140914356626164,1.1708984375,-0.37744140625,5.77685546875,42.55352941176471,400.34006065204295
-0.5582060546875,0.0600849609375,1.1228564453125005,1.255392687090565,0.8583984375,-0.90869140625,6.52978515625,43.16529411764706,400.0382209944753
-0.4527373046875,-0.0517314453125,1.2463916015625005,1.3270792116280614,0.7841796875,-0.55126953125,7.423828125,42.97705882352941,400.0382209944753
-0.2818388671875,-0.0497783203125,1.2083056640625005,1.2417381390761044,0.51708984375,-0.5244140625,7.97900390625,43.16529411764706,400.0382209944753
-0.1617216796875,-0.1479228515625,1.1111376953125005,1.1325467096944402,0.0966796875,-0.35302734375,7.53857421875,43.16529411764706,400.0382209944753
-0.1324248046875,0.0713154296875,0.9934619140625,1.0047829587034016,-0.40283203125,-0.4326171875,5.94873046875,43.63588235294118,400.0382209944753
-0.2305693359375,0.1206318359375,0.8435595703125001,0.8827836695261877,-0.77001953125,-0.64111328125,4.22216796875,42.55352941176471,400.2211118361355
-0.3111357421875,0.1313740234375,0.7610400390625001,0.8326142715309263,-1.4765625,-1.71630859375,2.3134765625,43.91823529411765,400.2211118361355
-0.3243193359375,0.0849873046875,0.7166064453125001,0.7911578041607149,-1.896484375,-2.57470703125,1.26904296875,42.60058823529412,400.2211118361355
-0.3560576171875,0.0410419921875,0.7009814453125001,0.7872969316289508,-2.212890625,-1.66162109375,0.65234375,43.16529411764706,400.2211118361355
-0.3418974609375,-0.0248759765625,0.6980517578125001,0.7776817759151674,-1.7412109375,0.150390625,0.70166015625,43.25941176470588,399.9533093224345
-0.1993193359375,-0.1347392578125,0.6116259765625001,0.6572436386002235,-1.068359375,1.908203125,0.9775390625,42.55352941176471,399.9533093224345
-0.0059599609375,-0.1440166015625,0.4299853515625,0.4535016044274983,-0.0244140625,2.8115234375,1.2568359375,43.777058823529416,399.9533093224345
0.1561494140625,-0.1156962890625,0.2444384765625,0.3122794255776251,0.23291015625,2.33740234375,0.92822265625,43.777058823529416,399.9533093224345
0.1820283203125,-0.0522197265625,0.1194384765625,0.2238900598991014,0.01904296875,1.62109375,0.5185546875,44.01235294117648,399.9533093224345
0.2005830078125,0.0737568359375,0.0632861328125,0.2228872999454705,-0.09716796875,0.4814453125,0.22607421875,42.60058823529412,400.21011091302273
0.2865205078125,0.0986591796875,0.1013720703125,0.3195370585287186,0.220703125,-0.35693359375,-0.212890625,43.87117647058824,400.21011091302273
0.4749970703125,0.3052021484375,0.1096728515625,0.5751510258933509,0.91552734375,-0.93701171875,-1.3671875,43.16529411764706,400.21011091302273
0.6268525390625,0.3017841796875,0.1384814453125,0.7093623245807458,1.470703125,-1.2841796875,-2.966796875,42.60058823529412,400.21011091302273
0.7508759765625,0.2475849609375,0.1711962890625,0.808963048877934,1.62255859375,-1.6328125,-4.42919921875,42.74176470588235,401.2195076101228
0.8651337890625,0.2373310546875,0.2844775390625,0.9411216567095754,1.96826171875,-2.82421875,-4.9814453125,43.353529411764704,401.2195076101228
0.5902314453125,0.2177998046875,0.3464892578125,0.7182372308207455,2.20947265625,-3.7529296875,-4.27783203125,43.87117647058824,401.2195076101228
0.4525361328125,0.1313740234375,0.4475634765625,0.649893184367832,2.08642578125,-4.57763671875,-3.16845703125,43.16529411764706,401.2195076101228
0.3373017578125,-0.0234111328125,0.6848681640625001,0.7637833194756917,1.708984375,-4.75146484375,-3.2890625,43.87117647058824,401.2195076101228
0.2406220703125,-0.1293681640625,1.0442431640625005,1.0793882009201496,0.82373046875,-5.8896484375,-3.61328125,43.353529411764704,401.2745115564423
0.2049775390625,-0.1528056640625,1.5974658203125005,1.6177955400965816,-0.4892578125,-10.470703125,-2.4599609375,43.02411764705882,401.2745115564423
0.2123017578125,-0.0546611328125,2.1956103515625003,2.2065277455085464,-0.544921875,16.0,0.44140625,42.55352941176471,401.2745115564423
0.2489228515625,0.0512958984375,2.6003955078125003,2.6127859943512304,0.68505859375,16.0,3.82275390625,44.01235294117648,401.2745115564423
0.1087861328125,0.2851826171875,2.6931689453125003,2.7104100272530456,1.69677734375,16.0,5.244140625,43.25941176470588,400.7037957752568
-0.0274443359375,0.5244404296875,2.8313525390625003,2.8796437551060943,2.912109375,-6.57421875,3.61083984375,42.55352941176471,400.7037957752568
0.0540986328125,0.5459248046875,2.5989306640625003,2.656200510324779,3.13525390625,4.52685546875,-0.12548828125,42.60058823529412,400.7037957752568
-0.0333037109375,0.3935810546875,2.2878955078125003,2.3217409498993966,1.5341796875,13.62255859375,-3.0546875,43.353529411764704,400.7037957752568
-0.2906279296875,0.2353779296875,1.9861376953125005,2.021041886760308,0.37744140625,15.99951171875,-3.30029296875,43.25941176470588,400.7037957752568
-0.2798857421875,0.0967060546875,1.6233447265625005,1.6501321737822543,-0.712890625,15.99951171875,-2.40185546875,43.118235294117646,400.63984794274126
-0.0118193359375,0.1186787109375,1.3865283203125005,1.391648345006882,-0.642578125,13.0205078125,-1.74560546875,43.30647058823529,400.63984794274126
0.3207001953125,0.0224873046875,1.0750048828125005,1.122047143490995,-0.955078125,4.60205078125,-1.86181640625,42.97705882352941,400.63984794274126
0.2879853515625,0.1850849609375,1.1624072265625005,1.2117683631142284,-0.73876953125,-0.6708984375,-3.7568359375,42.93,400.63984794274126
0.0677705078125,0.1841083984375,1.1370166015625005,1.153817791652184,-0.21240234375,-3.353515625,-4.68896484375,42.69470588235294,401.0156254094763
-0.1055693359375,0.1772724609375,1.2419970703125005,1.259018321058894,-0.73974609375,-4.1025390625,-4.33447265625,43.02411764705882,401.0156254094763
-0.0494169921875,0.0927998046875,1.2615283203125005,1.265901870532379,-1.46533203125,-4.375,-4.322265625,43.02411764705882,401.0156254094763
-0.0679716796875,0.2441669921875,1.2210009765625005,1.247028890635662,-1.98486328125,-3.81689453125,-4.83984375,43.16529411764706,401.0156254094763
-0.0733427734375,0.1826435546875,1.1936572265625005,1.2097749398170183,-2.0791015625,-3.49951171875,-5.0927734375,42.60058823529412,401.0156254094763
-0.1563505859375,0.0356708984375,1.1453173828125005,1.1564903052299285,-1.6240234375,-2.96435546875,-4.70654296875,43.25941176470588,400.5968734533086
-0.2315458984375,-0.0326884765625,0.9119189453125,0.941423497902548,-0.67578125,-2.44873046875,-3.14599609375,42.55352941176471,400.5968734533086
-0.1656279296875,-0.1254619140625,0.8367236328125001,0.8621367296895203,-0.3134765625,-2.203125,-1.95166015625,43.49470588235295,400.5968734533086
-0.0840849609375,-0.1659892578125,0.7390673828125001,0.7621307700797312,-0.09130859375,-2.55078125,-1.10107421875,42.97705882352941,400.5968734533086
-0.1441435546875,-0.1303447265625,0.7214892578125001,0.7472040291911128,0.07763671875,-2.66259765625,-0.20849609375,43.73,400.0591913739961
-0.1490263671875,-0.0658916015625,0.6799853515625001,0.6992357539579563,0.04833984375,-2.0205078125,0.31201171875,43.16529411764706,400.0591913739961
-0.1797880859375,-0.0058330078124999,0.6252978515625001,0.6506575005284185,0.119140625,-0.8583984375,0.6845703125,43.118235294117646,400.0591913739961
-0.1670927734375,0.0776630859375,0.5056689453125001,0.5381938610815135,0.0615234375,0.91162109375,0.935546875,43.25941176470588,400.0591913739961
-0.0547880859375,0.1015888671875,0.3367236328125,0.3559562293198164,-0.31787109375,2.22265625,0.8720703125,42.97705882352941,400.0591913739961
0.0775361328125,0.1142841796875,0.2127001953125,0.2536022450695934,-0.48876953125,2.490234375,0.47802734375,43.25941176470588,400.0901320596035
0.1927705078125,0.0737568359375,0.1077197265625,0.2328176948182852,-0.44189453125,2.2861328125,0.5478515625,43.118235294117646,400.0901320596035
0.3021455078125,0.0078388671875,0.0535205078125,0.3069491822542693,-0.4921875,1.96142578125,0.83447265625,43.447647058823534,400.0901320596035
0.3973603515625,-0.0751689453125,0.0364306640625,0.4060453332046829,-0.33984375,1.9267578125,1.07568359375,43.353529411764704,400.0901320596035
0.3802705078125,-0.1806376953125,-0.0221630859374999,0.421576610425746,-0.26171875,2.3642578125,1.501953125,43.447647058823534,400.8327213743503
0.3070283203125,-0.3002666015625,-0.1027294921874999,0.4415651368177857,-0.3984375,2.5888671875,2.57080078125,42.55352941176471,400.8327213743503
0.2215791015625,-0.3613017578125,-0.0392529296874999,0.4256489761959952,-0.4052734375,1.8095703125,3.2685546875,43.02411764705882,400.8327213743503
0.1737275390625,-0.3066142578125,-0.1559521484374999,0.3853759638650219,-0.3525390625,0.73828125,2.9609375,43.25941176470588,400.8327213743503
0.1639619140625,-0.2558330078125,-0.0182568359374999,0.3044131225947366,-0.14501953125,-0.09619140625,1.73388671875,42.55352941176471,400.8327213743503
0.1278291015625,-0.2758525390625,0.1917041015625,0.3594236568026503,0.19140625,-0.208984375,0.90185546875,44.01235294117648,400.94067426257385
0.0272431640625,-0.2724345703125,0.4773486328125,0.5502949230525899,0.48583984375,1.1103515625,1.5234375,43.25941176470588,400.94067426257385
-0.0118193359375,-0.3202861328125,0.6672900390625001,0.7402694778295419,1.7919921875,3.171875,1.88525390625,43.16529411764706,400.94067426257385
0.0272431640625,-0.4433330078125,0.7551806640625001,0.8761188168154437,2.67041015625,4.13720703125,1.921875,43.118235294117646,400.94067426257385
0.4432587890625,-0.5517314453125,0.9050830078125,1.1489391597724816,3.55078125,0.337890625,1.95654296875,42.55352941176471,401.0046246201248
0.9466767578125,-0.4530986328125,1.4700244140625005,1.8062300608667603,4.2275390625,-9.65380859375,1.38525390625,43.16529411764706,401.0046246201248
1.0482392578125,-0.1943095703125,2.4578173828125003,2.6790722345598703,4.22705078125,16.0,1.640625,43.25941176470588,401.0046246201248
0.4383759765625,0.1157490234375,2.6594775390625003,2.697849535098612,-0.373046875,16.0,5.109375,43.25941176470588,401.0046246201248
0.2435517578125,0.4360615234375,3.0896533203125003,3.129764328296022,-2.9404296875,-11.68798828125,5.15966796875,43.118235294117646,401.0046246201248
1.0062470703125,0.5039326171875,3.4158251953125003,3.596434764333925,-1.8671875,4.47802734375,2.9228515625,43.25941176470588,400.853695353144
0.5775361328125,-0.0766337890625,2.7478564453125003,2.8089385479884643,-1.9892578125,14.095703125,1.47314453125,42.97705882352941,400.853695353144
-0.0865263671875,-0.3222392578125,2.3796923828125003,2.4029691609153145,-2.8095703125,15.99951171875,1.70166015625,42.60058823529412,400.853695353144
-0.3028349609375,-0.2621806640625,1.9812548828125005,2.02134079878744,-3.224609375,15.99951171875,2.91015625,43.25941176470588,400.853695353144
-0.3570341796875,-0.1567119140625,1.6379931640625005,1.683761751255129,-3.212890625,11.287109375,5.392578125,42.97705882352941,400.3170284158342
-0.2691435546875,0.1694599609375,1.6321337890625005,1.6628336166887765,-1.72705078125,6.49560546875,8.80078125,43.91823529411765,400.3170284158342
-0.1597685546875,0.2143818359375,1.6140673828125005,1.636062064503074,0.6982421875,3.31689453125,9.48974609375,42.60058823529412,400.3170284158342
-0.3013701171875,0.4726826171875,1.5198291015625005,1.6199176837361549,1.5068359375,3.25048828125,8.53173828125,43.25941176470588,400.3170284158342
-0.3433623046875,0.5664326171875,1.5388720703125005,1.6753718485405182,1.66259765625,4.06640625,8.05322265625,42.60058823529412,400.3170284158342
