AccX,AccY,AccZ,Magnitude,GyroX,GyroY,GyroZ,Temperature,Altitude
0.5340791015625,-0.4999736328125,2.8250048828125003,2.9181957967463394,1.3369140625,-12.62841796875,-1.08984375,45.84764705882353,336.33302117449267
0.1288056640625,0.1782490234375,2.4460986328125003,2.455964603755149,-0.361328125,-0.560546875,3.07080078125,46.69470588235294,336.33302117449267
0.7284150390625,0.5483662109375,2.4124072265625003,2.5789537795783293,-0.900390625,10.6611328125,1.287109375,45.89470588235295,336.33302117449267
0.5448212890625,0.2500263671875,2.0178759765625003,2.105033699989805,-0.29052734375,15.76953125,-2.1943359375,45.61235294117647,336.33302117449267
0.2611298828125,0.0610615234375,1.4695361328125005,1.4938051315294432,0.220703125,12.5302734375,-3.8447265625,46.03588235294118,336.51146365972755
0.3524384765625,0.0107685546875,1.2878955078125005,1.3352916088163558,0.2783203125,5.7978515625,-3.46484375,46.83588235294118,336.51146365972755
0.1371064453125,0.0053974609375,1.2883837890625005,1.2956697487592457,-0.1376953125,2.81884765625,-3.2021484375,46.36529411764706,336.51146365972755
-0.0420927734375,0.1172138671875,1.3567431640625005,1.362447395486165,-0.2421875,2.072265625,-2.98779296875,46.08294117647059,336.51146365972755
-0.0704130859375,0.1450458984375,1.3093798828125005,1.319269492120113,-0.3115234375,1.68017578125,-2.9697265625,46.13,336.51146365972755
0.0350556640625,0.0820576171875,1.1370166015625005,1.1405126497983662,-0.70458984375,1.14453125,-3.59619140625,46.08294117647059,336.1864935978734
0.0516572265625,0.0366474609375,1.0017626953125005,1.0037629217943151,-1.306640625,-0.001953125,-4.41015625,46.03588235294118,336.1864935978734
0.0931611328125,-0.0219462890625,0.9612353515625,0.965988632109098,-2.0322265625,-1.7861328125,-5.01806640625,45.94176470588236,336.1864935978734
0.0707001953125,-0.0405009765625,0.9602587890625,0.9637093901646496,-2.46875,-2.83349609375,-5.41552734375,46.08294117647059,336.1864935978734
0.0003876953125,-0.0370830078125,0.9919970703125,0.9926900257807876,-2.42822265625,-3.29541015625,-5.623046875,46.27117647058824,336.2354382002205
-0.0577177734375,-0.0400126953125,0.9348681640625,0.9375024487084516,-2.193359375,-3.259765625,-5.59326171875,46.27117647058824,336.2354382002205
-0.0938505859375,-0.0390361328125,0.9412158203125,0.9466884242200808,-1.783203125,-2.767578125,-5.19580078125,45.84764705882353,336.2354382002205
-0.1041044921875,-0.0317119140625,0.8709033203125001,0.8776764689328647,-1.0263671875,-2.07177734375,-4.4072265625,46.08294117647059,336.2354382002205
-0.0640654296875,-0.0546611328125,0.8606494140625001,0.8647598699335639,-0.77197265625,-1.4853515625,-3.32080078125,46.08294117647059,336.2354382002205
-0.0245146484375,-0.0253642578125,0.8547900390625001,0.8555175769339071,-0.1708984375,-0.78076171875,-2.5205078125,46.08294117647059,335.8713165640526
-0.0142607421875,-0.0473369140625,0.7659228515625001,0.7675167533978202,0.482421875,0.0693359375,-1.73876953125,46.224117647058826,335.8713165640526
0.0228486328125,-0.0766337890625,0.6428759765625001,0.6478304707936053,1.078125,0.509765625,-0.90673828125,46.08294117647059,335.8713165640526
0.0086884765625,-0.0478251953125,0.5579150390625001,0.5600285079741627,1.41259765625,0.61083984375,-0.03125,45.84764705882353,335.8713165640526
0.0086884765625,0.0273701171875,0.4910205078125,0.4918594840320557,1.37109375,1.11669921875,0.54931640625,45.94176470588236,336.0937371520377
0.0267548828125,0.0830341796875,0.4138720703125,0.4229664163210143,1.25732421875,2.021484375,0.75732421875,46.03588235294118,336.0937371520377
0.0580048828125,0.0273701171875,0.2112353515625,0.2207579296303585,0.9013671875,2.05322265625,0.2861328125,46.08294117647059,336.0937371520377
0.1048798828125,-0.0209697265625,0.1335986328125,0.171137704613095,0.416015625,1.2568359375,-0.0283203125,46.27117647058824,336.0937371520377
0.2035126953125,-0.1010478515625,0.1311572265625,0.2623553001910242,0.1875,1.89306640625,0.4501953125,46.27117647058824,336.0937371520377
0.3158173828125,-0.1742900390625,0.0999072265625,0.374298131069814,0.24853515625,2.88037109375,1.30615234375,46.27117647058824,336.4774519775953
0.3846650390625,-0.2489970703125,0.0686572265625,0.4633363228373286,0.5263671875,3.296875,2.13623046875,46.08294117647059,336.4774519775953
0.4154267578125,-0.3061259765625,0.0398486328125,0.5175716551067836,0.79248046875,2.7099609375,2.6767578125,46.03588235294118,336.4774519775953
0.4691376953125,-0.3588603515625,0.0632861328125,0.5940337226900898,0.947265625,1.61572265625,2.72314453125,45.70647058823529,336.4774519775953
0.4139619140625,-0.4101298828125,0.2439501953125,0.6317299144912251,1.0244140625,0.052734375,2.701171875,46.08294117647059,336.64733140470685
0.2381806640625,-0.4267314453125,0.4319384765625,0.6522274163870161,0.79931640625,0.166015625,2.748046875,45.94176470588236,336.64733140470685
0.1766572265625,-0.3539775390625,0.5999072265625001,0.7186073714758352,0.3671875,0.4658203125,2.529296875,45.61235294117647,336.64733140470685
0.3768525390625,-0.2411845703125,0.9182666015625,1.0214702074460231,0.5458984375,-0.12890625,1.7041015625,46.08294117647059,336.64733140470685
0.6932587890625,-0.2597392578125,1.3132861328125005,1.5075784216083103,1.38427734375,-2.8193359375,0.96044921875,46.27117647058824,336.64733140470685
0.7909150390625,-0.3075908203125,1.7942431640625005,1.984809120177748,1.96923828125,-7.458984375,1.52685546875,46.03588235294118,336.6265459808948
0.5252900390625,-0.1332744140625,2.2844775390625003,2.3478776205464893,1.3623046875,-10.107421875,3.1259765625,45.65941176470588,336.6265459808948
0.1673798828125,0.2480732421875,2.4373095703125003,2.4556128156117465,0.19775390625,-5.7548828125,4.86279296875,45.65941176470588,336.6265459808948
0.2772431640625,0.2627216796875,2.4529345703125003,2.4824935970171964,-0.89453125,2.49560546875,4.13623046875,46.224117647058826,336.6265459808948
0.3250947265625,0.0659443359375,2.3723681640625003,2.395446919165245,-0.9609375,6.15576171875,4.451171875,46.27117647058824,336.3773211054998
0.1302705078125,-0.0483134765625,1.8958056640625005,1.9008902422588048,-0.03125,8.2685546875,5.4912109375,46.08294117647059,336.3773211054998
0.2210908203125,-0.0605205078125,1.4719775390625005,1.4897186842477446,0.69580078125,4.50341796875,5.900390625,46.224117647058826,336.3773211054998
0.2704072265625,-0.0126689453124999,1.2747119140625005,1.303138915927783,0.04150390625,0.2919921875,5.9169921875,45.94176470588236,336.3773211054998
0.2699189453125,0.0371357421875,1.3533251953125005,1.380479766115406,0.13232421875,-2.04345703125,5.57275390625,46.08294117647059,336.3773211054998
0.1683564453125,0.0366474609375,1.3923876953125005,1.403007634736562,0.9453125,-3.4521484375,6.2294921875,46.224117647058826,336.48604445147976
0.1234345703125,0.0678974609375,1.3621142578125005,1.3693799362069277,1.3798828125,-4.0966796875,7.3603515625,46.13,336.48604445147976
0.0897431640625,0.0957294921875,1.3044970703125005,1.311079928007565,1.837890625,-3.716796875,7.3623046875,45.94176470588236,336.48604445147976
0.0277314453125,0.0571552734375,1.2678759765625005,1.2694665219237369,1.8017578125,-2.61083984375,6.58349609375,46.97705882352941,336.48604445147976
-0.0562529296875,0.0327412109375,1.2053759765625005,1.2071319827865064,1.73681640625,-1.96875,5.91259765625,46.08294117647059,336.1548844681273
-0.0157255859375,0.0420185546875,1.0964892578125005,1.097406736579155,1.46923828125,-1.84521484375,5.662109375,46.03588235294118,336.1548844681273
0.0643525390625,0.0674091796875,1.0364306640625005,1.0406122083653293,1.02685546875,-2.134765625,5.85888671875,45.89470588235295,336.1548844681273
0.2015595703125,0.1025654296875,0.9495166015625,0.9760777143211192,0.6904296875,-2.23486328125,5.3740234375,46.03588235294118,336.1548844681273
0.2313447265625,0.1074482421875,0.9114306640625,0.9464519864477392,0.04345703125,-2.9814453125,4.75341796875,46.224117647058826,336.1548844681273
0.1600556640625,0.1367451171875,0.9050830078125,0.9292428604536238,-0.24267578125,-3.62646484375,4.42626953125,46.13,335.8762926995224
0.0819306640625,0.1435810546875,0.8870166015625001,0.9022896455276344,-0.15625,-4.0517578125,4.01171875,46.27117647058824,335.8762926995224
0.0252900390625,0.1421162109375,0.8225634765625001,0.8351330890711979,-0.39453125,-3.7626953125,3.4599609375,46.13,335.8762926995224
0.0272431640625,0.1523701171875,0.7898486328125001,0.8048724776979546,-0.42822265625,-2.888671875,2.58642578125,46.13,335.8762926995224
0.0291962890625,0.1328388671875,0.7234423828125001,0.7361164779979505,-0.42822265625,-1.607421875,1.59521484375,46.08294117647059,336.01438634990666
0.0492158203125,0.0595966796875,0.7048876953125001,0.7091125610238298,-0.49951171875,-0.00537109375,0.8330078125,46.08294117647059,336.01438634990666
0.0501923828125,-0.0053447265624999,0.4109423828125,0.4140307758923722,-0.05419921875,1.123046875,0.70263671875,46.08294117647059,336.01438634990666
0.0912080078125,-0.0385478515625,0.2395556640625,0.2592137221167795,0.31982421875,1.21337890625,0.8154296875,46.08294117647059,336.01438634990666
0.1952119140625,-0.0468486328125,0.1067431640625,0.2273688388113444,0.64990234375,0.830078125,0.83935546875,46.08294117647059,336.01438634990666
0.2816376953125,0.0058857421875,0.0208056640625,0.2824664741860809,0.79736328125,0.52099609375,0.3642578125,46.03588235294118,336.3455438495396
0.3807587890625,0.0732685546875,-0.0504833984374999,0.3910167644387334,0.30078125,0.94384765625,-0.7138671875,46.08294117647059,336.3455438495396
0.4046845703125,0.1308857421875,-0.0988232421874999,0.4366539959206084,-0.2783203125,1.9599609375,-1.52587890625,46.224117647058826,336.3455438495396
0.3954072265625,0.1826435546875,-0.1544873046874999,0.462138366938239,-0.763671875,2.2314453125,-1.75390625,46.08294117647059,336.3455438495396
0.4603486328125,0.2524677734375,-0.1256787109374999,0.5398666305114056,-1.06201171875,0.6552734375,-2.4091796875,46.224117647058826,336.60216346571974
0.4808564453125,0.3032490234375,-0.0206982421874999,0.568868445639256,-1.10498046875,-0.1513671875,-2.6689453125,46.08294117647059,336.60216346571974
0.4398408203125,0.3403583984375,0.2908251953125,0.6276010522845439,-0.8837890625,0.00390625,-2.07470703125,46.08294117647059,336.60216346571974
0.4276337890625,0.3735615234375,0.4666064453125,0.7349424767613202,-0.5537109375,-0.21533203125,-1.36181640625,46.27117647058824,336.60216346571974
0.5057587890625,0.3882099609375,0.7507861328125001,0.984976519369173,-0.2685546875,-1.62890625,-1.431640625,45.65941176470588,336.60216346571974
0.5707001953125,0.3755146484375,1.1912158203125005,1.373209778105169,0.00537109375,-4.3193359375,-1.7900390625,45.84764705882353,336.8905686993356
0.6039033203125,0.3388935546875,1.6956103515625005,1.831568324147122,0.4912109375,-7.71630859375,-1.3349609375,46.08294117647059,336.8905686993356
0.6019501953125,0.2217060546875,2.2439501953125003,2.333840202619893,1.43017578125,-10.720703125,-0.18505859375,46.03588235294118,336.8905686993356
0.7225556640625,-0.2270244140625,2.4988330078125003,2.6110904184234007,2.1328125,-10.8173828125,0.5546875,45.89470588235295,336.8905686993356
0.6776337890625,-0.4169658203125,2.3054736328125003,2.4389048195822944,1.9248046875,-3.6416015625,0.3154296875,46.08294117647059,336.581377591024
0.7225556640625,-0.1664775390625,2.1043017578125003,2.2311179589196724,0.91943359375,6.60693359375,-1.3662109375,46.224117647058826,336.581377591024
0.6214814453125,0.0517841796875,1.7561572265625005,1.8636010819221247,-0.435546875,11.8515625,-3.6884765625,46.13,336.581377591024
0.3094697265625,0.0771748046875,1.4695361328125005,1.5037499485548589,-1.03076171875,8.0029296875,-4.46826171875,46.224117647058826,336.581377591024
0.4403291015625,0.0298115234375,1.4275439453125005,1.4942088744251527,-0.86572265625,2.6962890625,-3.15087890625,46.788823529411765,336.581377591024
0.3138642578125,0.0669208984375,1.3699267578125005,1.407014037154762,-0.55322265625,-0.05224609375,-1.65869140625,46.27117647058824,336.3027745183075
0.3431611328125,0.1479755859375,1.3489306640625005,1.3997393591504108,-0.6396484375,-1.03173828125,-1.54248046875,46.27117647058824,336.3027745183075
0.2874970703125,0.2910419921875,1.3543017578125005,1.414741410247388,-1.30126953125,-1.20068359375,-2.5498046875,45.89470588235295,336.3027745183075
0.2298798828125,0.3276630859375,1.3728564453125005,1.430014922245236,-2.07080078125,-0.34033203125,-3.9638671875,45.89470588235295,336.3027745183075
0.1419892578125,0.3086201171875,1.3831103515625005,1.424219635683455,-2.16162109375,0.5,-5.10693359375,46.08294117647059,336.0571544660416
0.0296845703125,0.2256123046875,1.2830126953125005,1.3030363241575769,-2.16943359375,2.55419921875,-5.83544921875,46.27117647058824,336.0571544660416
0.0658173828125,0.1479755859375,1.1960986328125005,1.20701310735624,-2.4189453125,4.07275390625,-6.07958984375,46.08294117647059,336.0571544660416
0.0912080078125,0.1011005859375,1.0696337890625005,1.0782655850347038,-2.53173828125,4.59326171875,-5.880859375,45.61235294117647,336.0571544660416
0.1468720703125,0.0239521484375,1.0344775390625005,1.045126255185209,-2.56396484375,4.3583984375,-5.8271484375,46.224117647058826,336.0571544660416
0.1605439453125,-0.0488017578125,1.0051806640625005,1.0190898573468494,-1.90185546875,3.49609375,-5.875,46.224117647058826,336.26240626902154
0.1454072265625,-0.0790751953125,0.8894580078125001,0.9047274151434176,-1.19970703125,2.42138671875,-5.1083984375,46.03588235294118,336.26240626902154
0.1112275390625,-0.0961650390625,0.8186572265625001,0.8317565357644007,-0.5537109375,1.8056640625,-4.7431640625,46.13,336.26240626902154
0.0355439453125,-0.1186259765625,0.7131884765625001,0.7238599985254914,-0.0634765625,1.25146484375,-4.05322265625,45.94176470588236,336.26240626902154
0.0360322265625,-0.1264384765625,0.6160205078125001,0.6298938607035852,0.25048828125,0.8525390625,-3.07470703125,46.08294117647059,336.06694589389747
0.0130830078125,-0.1230205078125,0.5427783203125001,0.5566987654352452,0.70361328125,1.1015625,-1.7333984375,46.27117647058824,336.06694589389747
0.0360322265625,-0.0824931640625,0.4670947265625,0.4756899484439318,0.97509765625,1.591796875,-0.646484375,46.08294117647059,336.06694589389747
0.0506806640625,-0.0346416015625,0.3748095703125,0.3798036127612162,1.373046875,2.3525390625,0.11376953125,46.27117647058824,336.06694589389747
0.0897431640625,-0.0473369140625,0.2415087890625,0.26195632102193,1.00732421875,2.4580078125,0.408203125,46.224117647058826,336.06694589389747
0.0931611328125,-0.0697978515625,0.1702197265625,0.2062170993411102,0.6083984375,1.93310546875,0.396484375,46.64764705882353,336.20504417507425
0.1180634765625,-0.0922587890625,0.1614306640625,0.2202510566534531,0.1318359375,1.51171875,0.43017578125,46.224117647058826,336.20504417507425
0.1468720703125,-0.1298564453125,0.1794970703125,0.2658068841806939,-0.130859375,1.8330078125,0.677734375,46.224117647058826,336.20504417507425
0.1986298828125,-0.1562236328125,0.2258837890625,0.3389441546279775,-0.05078125,3.322265625,1.1923828125,46.08294117647059,336.20504417507425
0.2625947265625,-0.2016337890625,0.2288134765625,0.4024522112832189,0.2294921875,4.970703125,1.86328125,46.13,336.8599868067759
0.2997041015625,-0.2431376953125,0.1765673828125,0.4243990198486742,0.53515625,5.8134765625,2.47119140625,45.89470588235295,336.8599868067759
0.3910126953125,-0.2924541015625,0.0710986328125,0.493432209127132,0.78466796875,5.58447265625,2.64013671875,46.13,336.8599868067759
0.5584931640625,-0.4028056640625,0.0447314453125,0.6900492152775187,1.0009765625,4.044921875,2.6962890625,46.08294117647059,336.8599868067759
0.5604462890625,-0.4169658203125,0.2908251953125,0.7566636190946128,1.0361328125,2.1875,3.6708984375,46.08294117647059,336.8599868067759
0.3817353515625,-0.3378642578125,0.5481494140625001,0.7485598943817382,1.2236328125,3.349609375,4.7880859375,46.224117647058826,336.75126228385164
0.1917939453125,-0.1327861328125,0.7502978515625001,0.7857251049731938,1.2802734375,4.79931640625,5.18701171875,46.03588235294118,336.75126228385164
0.1366181640625,0.0986591796875,1.1414111328125005,1.153784005174597,1.22802734375,4.23388671875,3.8681640625,46.08294117647059,336.75126228385164
0.6131806640625,0.2104755859375,1.9304736328125005,2.0364230763866717,1.728515625,0.94970703125,0.93603515625,46.27117647058824,336.75126228385164
1.3675751953125,0.0400654296875,2.3992236328125003,2.761908976366904,0.84423828125,-6.2744140625,-1.484375,46.08294117647059,336.429884015665
0.6375947265625,0.1455341796875,2.3147509765625003,2.4053646950711385,0.0419921875,-4.81396484375,-1.48828125,46.08294117647059,336.429884015665
0.1234345703125,0.1733662109375,2.2581103515625003,2.2681169052931938,-0.46044921875,4.58251953125,0.16845703125,45.65941176470588,336.429884015665
0.3631806640625,0.0083271484375,2.2522509765625003,2.2813601200986917,0.30029296875,7.53564453125,2.22802734375,46.88294117647059,336.429884015665
0.3548798828125,-0.2206767578125,1.7752001953125005,1.8237252249451368,0.11328125,6.2001953125,3.845703125,46.13,336.429884015665
0.2713837890625,-0.1279033203125,1.5217822265625005,1.5510736814846684,0.0078125,4.72314453125,4.26220703125,46.03588235294118,336.4836462500213
0.1439423828125,-0.0395244140625,1.4085009765625005,1.4163885730456318,-0.177734375,1.3583984375,4.31005859375,46.224117647058826,336.4836462500213
-0.0640654296875,0.0268818359375,1.4490283203125005,1.450692967327022,-0.35498046875,-1.34814453125,4.76416015625,46.27117647058824,336.4836462500213
-0.2447294921875,0.1108662109375,1.4934619140625005,1.517436104035098,0.02099609375,-1.83349609375,5.72021484375,45.61235294117647,336.4836462500213
-0.2066435546875,0.1943623046875,1.4885791015625005,1.5153699237433556,0.6318359375,-1.7890625,6.525390625,45.89470588235295,335.90686600352427
-0.1197294921875,0.2261005859375,1.4050830078125005,1.4281858720433347,1.06689453125,-1.41455078125,6.623046875,46.13,335.90686600352427
-0.0538115234375,0.1660419921875,1.2932666015625005,1.3049920022518442,1.10400390625,-1.533203125,6.0185546875,46.224117647058826,335.90686600352427
-0.0709013671875,0.1313740234375,1.2463916015625005,1.2553000288173135,0.9482421875,-1.517578125,5.5302734375,46.03588235294118,335.90686600352427
-0.1402373046875,0.0932880859375,1.2156298828125005,1.2272429183297944,0.845703125,-1.25048828125,5.708984375,46.27117647058824,335.90686600352427
-0.1548857421875,0.1118427734375,1.2043994140625005,1.2194573988857744,1.07958984375,-0.60302734375,6.23828125,45.61235294117647,335.96062608893334
-0.0953154296875,0.1181904296875,1.1306689453125005,1.1408182470053283,1.4560546875,0.3505859375,6.3310546875,46.27117647058824,335.96062608893334
-0.0308623046875,0.1025654296875,1.0315478515625005,1.0370935923439195,1.4609375,0.89794921875,6.10693359375,46.224117647058826,335.96062608893334
0.0277314453125,0.1045185546875,0.8997119140625001,0.9061868955348512,1.10595703125,0.88671875,5.87158203125,46.08294117647059,335.96062608893334
0.0912080078125,0.1094013671875,0.7771533203125001,0.7900979958868156,0.61572265625,0.3798828125,5.41259765625,46.224117647058826,336.1121162070253
0.1415009765625,0.1255146484375,0.7141650390625001,0.7387883028037684,0.0166015625,-0.40771484375,4.91845703125,47.02411764705882,336.1121162070253
0.1366181640625,0.1684833984375,0.7000048828125001,0.7328424211671971,-0.5234375,-0.73681640625,4.17626953125,46.03588235294118,336.1121162070253
0.1283173828125,0.1806904296875,0.6814501953125001,0.7165812939255026,-0.66796875,-0.5400390625,3.23193359375,46.224117647058826,336.1121162070253
0.0858369140625,0.1465107421875,0.6326220703125001,0.6550145473488195,-0.921875,0.57373046875,1.9140625,46.224117647058826,336.1121162070253
0.0638642578125,0.0913349609375,0.5505908203125001,0.5617570381648883,-1.15576171875,1.8408203125,0.826171875,46.08294117647059,335.2433852670107
0.0589814453125,0.0176044921875,0.4441455078125,0.4483904115236573,-1.0244140625,2.7734375,0.25439453125,46.03588235294118,335.2433852670107
0.1185517578125,-0.0561259765625,0.2581103515625,0.2895265067472153,-0.65625,2.59326171875,-0.0546875,46.13,335.2433852670107
0.1683564453125,-0.0746806640625,0.1047900390625,0.2119010300819632,-0.3544921875,1.87158203125,-0.169921875,46.08294117647059,335.2433852670107
0.2723603515625,-0.0224345703125,0.0608447265625,0.2799741984519653,-0.21435546875,1.1171875,-0.4716796875,46.08294117647059,336.27099763853874
0.3167939453125,0.0654560546875,0.0315478515625,0.3250202544767352,-0.18408203125,0.52490234375,-0.9013671875,46.224117647058826,336.27099763853874
0.2904267578125,0.1601826171875,0.0129931640625,0.331926188805392,-0.19921875,0.76806640625,-1.6552734375,46.27117647058824,336.27099763853874
0.2625947265625,0.2270771484375,-0.0143505859374999,0.3474564160836436,-0.32568359375,1.66015625,-2.31494140625,46.08294117647059,336.27099763853874
0.3558564453125,0.3056904296875,-0.0275341796874999,0.4699346545255417,-0.4345703125,2.64404296875,-3.0751953125,46.03588235294118,336.27099763853874
0.5262666015625,0.3818623046875,0.0168994140625,0.6504313536854202,-0.63623046875,3.34765625,-4.11962890625,46.08294117647059,336.7292779573797
0.5858369140625,0.4360615234375,0.1902392578125,0.7546823949940514,-0.67919921875,3.06787109375,-4.65283203125,46.83588235294118,336.7292779573797
0.3260712890625,0.5010029296875,0.4290087890625,0.7357818713444979,-0.32275390625,2.95751953125,-4.029296875,45.89470588235295,336.7292779573797
0.0052705078125,0.5200458984375,0.6218798828125001,0.8106849593899945,0.0703125,2.86376953125,-2.216796875,46.08294117647059,336.7292779573797
0.1043916015625,0.4331318359375,0.9075244140625,1.0109902847697685,0.4873046875,0.57763671875,-0.76416015625,46.03588235294118,336.72068143100205
0.4964814453125,0.3603779296875,1.3259814453125005,1.461024596322206,0.46240234375,-3.61865234375,-0.91552734375,46.13,336.72068143100205
0.8050751953125,0.1279560546875,1.9426806640625005,2.1067811904801523,0.1005859375,-7.6689453125,-2.45751953125,45.84764705882353,336.72068143100205
0.7733369140625,-0.3383525390625,2.5271533203125003,2.664401682875209,-0.2490234375,-10.5908203125,-3.0322265625,46.08294117647059,336.72068143100205
0.3573212890625,-0.5697978515625,2.7273486328125003,2.8090529827980717,-0.4013671875,-6.05126953125,-1.75341796875,46.224117647058826,336.72068143100205
0.0707001953125,-0.3129619140625,2.4934619140625003,2.514019887381784,-0.92529296875,4.369140625,-0.291015625,46.03588235294118,336.77324666593944
0.2059541015625,0.0210224609375,2.2727587890625003,2.2821681684475243,-0.4501953125,8.89453125,-0.5439453125,46.224117647058826,336.77324666593944
0.0145478515625,-0.0180400390625,1.6560595703125005,1.6562217192809918,-0.07666015625,7.68115234375,-2.580078125,46.03588235294118,336.77324666593944
-0.0254912109375,0.1933857421875,1.4324267578125005,1.445646659323675,-0.33740234375,4.52001953125,-3.16650390625,46.27117647058824,336.77324666593944
-0.0899443359375,0.1411396484375,1.3855517578125005,1.3956231789081208,-0.49755859375,2.603515625,-2.6064453125,45.61235294117647,336.2697977824161
0.0067353515625,0.0962177734375,1.3176806640625005,1.321206099490209,-0.978515625,0.890625,-2.330078125,46.224117647058826,336.2697977824161
0.1595673828125,0.0844990234375,1.2268603515625005,1.2400758673789212,-1.57275390625,-0.45947265625,-2.98193359375,45.61235294117647,336.2697977824161
0.1795869140625,0.1391865234375,1.1057666015625005,1.128868515434898,-1.88720703125,-1.6748046875,-3.76953125,46.27117647058824,336.2697977824161
0.0858369140625,0.1377216796875,1.0627978515625005,1.075116044972628,-1.7392578125,-2.76171875,-4.126953125,45.65941176470588,336.2697977824161
0.0038056640625,0.0747333984375,0.9758837890625,0.9787485548780936,-1.7509765625,-3.3828125,-4.54296875,45.65941176470588,335.96062608893334
0.0135712890625,0.0361591796875,0.9768603515625,0.9776235536326352,-2.28564453125,-3.75341796875,-5.0341796875,46.08294117647059,335.96062608893334
0.0145478515625,0.0014912109375,0.9631884765625,0.9632994887769506,-2.3486328125,-4.42724609375,-5.4541015625,46.27117647058824,335.96062608893334
-0.0689482421875,-0.0468486328125,0.9177783203125,0.9215561294532096,-2.3291015625,-5.27978515625,-5.17578125,45.65941176470588,335.96062608893334
-0.1001982421875,-0.0707744140625,0.8938525390625001,0.902231160519206,-2.25732421875,-5.41748046875,-4.46142578125,45.94176470588236,335.93864149541093
-0.0611357421875,-0.0483134765625,0.9338916015625,0.93713675333931,-1.7734375,-4.73486328125,-3.951171875,45.94176470588236,335.93864149541093
-0.0181669921875,-0.0385478515625,0.9211962890625,0.922181424367107,-1.18310546875,-3.4609375,-3.78662109375,46.08294117647059,335.93864149541093
-0.0020537109374999,-0.0600322265625,0.8469775390625001,0.8491048448990471,-0.40380859375,-2.44287109375,-3.27099609375,46.03588235294118,335.93864149541093
0.0091767578125,-0.0761455078125,0.7810595703125001,0.7848161591230904,0.111328125,-2.083984375,-2.3466796875,46.13,335.93864149541093
0.0907197265625,-0.0439189453125,0.7234423828125001,0.7304298897186267,0.7685546875,-1.53759765625,-1.69775390625,46.03588235294118,336.0253786758629
0.0565400390625,-0.0834697265625,0.6404345703125001,0.6483212244874944,1.14990234375,-1.1181640625,-0.6328125,46.27117647058824,336.0253786758629
0.0858369140625,-0.0077861328124999,0.6121142578125001,0.6181524603989655,1.291015625,-0.322265625,-0.12060546875,46.08294117647059,336.0253786758629
0.0848603515625,0.0425068359375,0.4924853515625,0.5015475370015966,1.125,0.18505859375,0.08203125,46.224117647058826,336.0253786758629
0.0506806640625,0.0669208984375,0.4187548828125,0.4270861602028434,0.89013671875,0.26123046875,-0.14599609375,46.27117647058824,336.0461621595503
0.0580048828125,0.0547138671875,0.3108447265625,0.3209090489911724,0.443359375,0.265625,-0.3173828125,46.03588235294118,336.0461621595503
0.0682587890625,0.0254169921875,0.2703173828125,0.2799585205467731,0.115234375,0.44970703125,-0.0966796875,46.27117647058824,336.0461621595503
0.0970673828125,-0.0292705078125,0.2483447265625,0.2682423207569472,-0.0068359375,1.01416015625,0.55126953125,46.03588235294118,336.0461621595503
0.1332001953125,-0.0883525390625,0.2424853515625,0.2904265981491157,0.24609375,2.28564453125,1.4375,46.08294117647059,336.0461621595503
0.2040009765625,-0.1488994140625,0.1414111328125,0.289455596646401,0.4638671875,3.19921875,2.0654296875,46.224117647058826,336.5887753385909
0.2347626953125,-0.1938212890625,0.0501025390625,0.3085295441683798,0.5810546875,2.830078125,2.15478515625,46.788823529411765,336.5887753385909
0.2425751953125,-0.2592509765625,-0.0104443359374999,0.3551941418192068,0.56298828125,1.5673828125,1.9228515625,46.224117647058826,336.5887753385909
0.2625947265625,-0.3520244140625,0.0823291015625,0.4468279976440252,0.5947265625,0.36572265625,2.134765625,46.224117647058826,336.5887753385909
0.3250947265625,-0.4018291015625,0.3616259765625,0.6308142000827617,0.96630859375,-0.4599609375,3.18701171875,46.08294117647059,336.97611238434786
0.2801728515625,-0.4604228515625,0.6585009765625001,0.8509462762873886,1.44189453125,0.30859375,3.98388671875,46.08294117647059,336.97611238434786
0.1595673828125,-0.4355205078125,0.8621142578125001,0.9789692824121126,1.55419921875,2.779296875,3.5458984375,46.97705882352941,336.97611238434786
0.3670869140625,-0.2568095703125,1.2229541015625005,1.3024287667310497,1.7373046875,1.6318359375,2.2060546875,46.08294117647059,336.97611238434786
1.1678681640625,-0.1596416015625,1.7810595703125005,2.1357843249218544,3.22412109375,-5.361328125,0.4521484375,46.03588235294118,336.97611238434786
1.6043916015625,-0.2958720703125,2.1047900390625003,2.66303469780099,2.66455078125,-13.42578125,0.017578125,46.224117647058826,336.7524600554973
0.7640595703125,0.0351826171875,2.2000048828125003,2.329172884939443,-0.63134765625,-10.1474609375,1.55126953125,46.08294117647059,336.7524600554973
0.2098603515625,0.6992451171875,2.3293994140625003,2.441124071263732,-2.60595703125,1.9453125,1.10546875,45.94176470588236,336.7524600554973
0.3612275390625,0.5205341796875,2.3513720703125003,2.4352395734805605,-2.60546875,9.3623046875,0.24755859375,45.89470588235295,336.7524600554973
0.4266572265625,0.2827412109375,1.9968798828125005,2.061433541912441,-1.7529296875,9.13330078125,1.9638671875,46.13,336.527615147732
0.5423798828125,0.2007099609375,1.5496142578125005,1.6540147441044837,-0.609375,5.60400390625,1.38671875,45.65941176470588,336.527615147732
0.3578095703125,0.0708271484375,1.2996142578125005,1.3498301347475317,-0.4609375,0.7060546875,1.2900390625,46.13,336.527615147732
0.1600556640625,-0.0507548828125,1.3860400390625005,1.3961736509518348,0.19287109375,-3.4072265625,2.181640625,45.61235294117647,336.527615147732
0.0008759765625,-0.0654033203125,1.5193408203125005,1.520748134935795,1.1923828125,-4.17333984375,3.501953125,45.89470588235295,336.527615147732
-0.0152373046875,-0.0199931640625,1.5554736328125005,1.5556767416267063,1.62744140625,-2.15478515625,4.77197265625,46.03588235294118,336.0999227549663
-0.0113310546875,0.0229755859375,1.4602587890625005,1.4604834820646837,2.03662109375,-1.48583984375,5.52001953125,46.08294117647059,336.0999227549663
-0.0323271484375,0.0312763671875,1.3601611328125005,1.3609046854516784,2.404296875,-1.49658203125,5.60400390625,46.224117647058826,336.0999227549663
-0.0567412109375,-0.0278056640625,1.2258837890625005,1.2275112155328127,2.15185546875,-0.89892578125,5.2255859375,46.27117647058824,336.0999227549663
-0.0494169921875,-0.0009501953124999,1.1790087890625005,1.1800443494524326,1.97802734375,-0.06005859375,5.09033203125,46.83588235294118,335.9178583127997
0.0340791015625,0.0078388671875,1.1116259765625005,1.1121758605412289,1.83349609375,0.56640625,5.0400390625,46.08294117647059,335.9178583127997
-0.0084013671875,0.0395771484375,1.0242236328125005,1.0250224308085645,1.302734375,0.845703125,4.77099609375,45.94176470588236,335.9178583127997
0.1952119140625,0.0747333984375,0.9592822265625,0.9817918121642036,0.89892578125,0.18603515625,4.7841796875,46.97705882352941,335.9178583127997
0.2254853515625,0.0581318359375,0.8562548828125001,0.8873530179466214,0.259765625,-0.4873046875,4.66943359375,46.224117647058826,335.9178583127997
0.2469697265625,0.0644794921875,0.8220751953125001,0.8607899148451955,-0.40625,-1.65380859375,4.37158203125,46.27117647058824,336.0253786758629
0.2030244140625,0.0879169921875,0.8001025390625001,0.8301279318484458,-0.9453125,-2.60888671875,3.35888671875,46.83588235294118,336.0253786758629
0.1024384765625,0.1006123046875,0.7913134765625001,0.8042347266342126,-1.51806640625,-2.8076171875,2.40625,46.08294117647059,336.0253786758629
0.0540986328125,0.1255146484375,0.7786181640625001,0.7905231397325629,-1.79541015625,-2.3515625,1.546875,46.224117647058826,336.0253786758629
0.0150361328125,0.1250263671875,0.7083056640625001,0.7194126712291616,-1.56201171875,-1.62060546875,0.81982421875,46.224117647058826,336.0889304540386
-0.0220732421875,0.0864521484375,0.5627978515625001,0.5698268366034487,-1.279296875,-0.84228515625,0.4541015625,46.08294117647059,336.0889304540386
-0.0523466796875,0.0576435546875,0.4026416015625,0.4101014674201149,-0.7763671875,-0.82861328125,0.60009765625,46.08294117647059,336.0889304540386
-0.0162138671875,0.0678974609375,0.3030322265625,0.3109686238615716,0.17236328125,-0.27978515625,0.75732421875,46.03588235294118,336.0889304540386
0.2054658203125,0.0884052734375,0.1150439453125,0.2515289347993848,0.61474609375,1.08984375,0.37451171875,47.02411764705882,336.0889304540386
0.3529267578125,0.0859638671875,-0.0309521484374999,0.3645615425888614,0.44921875,2.265625,-0.6552734375,45.94176470588236,335.8860830381916
0.3993134765625,0.1147724609375,-0.1393505859374999,0.4382266036598015,0.33349609375,2.732421875,-1.2705078125,46.03588235294118,335.8860830381916
0.4110322265625,0.1343037109375,-0.3063427734374999,0.5299347817249678,-0.19775390625,2.5068359375,-1.8125,46.08294117647059,335.8860830381916
0.4315400390625,0.1963154296875,-0.3385693359374999,0.5825768176683753,-0.8720703125,1.36083984375,-2.29931640625,46.224117647058826,335.8860830381916
0.4818330078125,0.2680927734375,-0.2306591796874999,0.5976959425670897,-1.3037109375,0.30810546875,-2.76708984375,45.61235294117647,336.4530675571231
0.5443330078125,0.3388935546875,0.0120166015625,0.6413202503555027,-1.4697265625,-0.3486328125,-2.86376953125,46.83588235294118,336.4530675571231
0.4940400390625,0.4062763671875,0.2439501953125,0.6845785159680048,-1.3818359375,-0.37451171875,-2.46875,45.80058823529412,336.4530675571231
0.4207978515625,0.4604755859375,0.4031298828125,0.7427127974799679,-1.484375,0.84716796875,-2.6728515625,46.03588235294118,336.4530675571231
0.3915009765625,0.4829365234375,0.7058642578125001,0.9406088723675116,-1.69921875,0.21630859375,-3.07958984375,46.08294117647059,336.4530675571231
0.4583955078125,0.5024677734375,1.3616259765625005,1.522046518663507,-1.03759765625,-2.6220703125,-3.53125,46.27117647058824,336.8270101043593
0.5501923828125,0.4258076171875,2.0193408203125003,2.135827973770396,-0.0859375,-6.49365234375,-3.09814453125,46.27117647058824,336.8270101043593
0.7484345703125,-0.0248759765625,2.8020556640625003,2.9003946394850364,1.45703125,-10.6005859375,-2.96923828125,46.27117647058824,336.8270101043593
0.8221650390625,-0.6493876953125,2.8835986328125003,3.068028814310264,2.11376953125,-10.19873046875,-2.25341796875,46.08294117647059,336.8270101043593
0.2020478515625,-0.5263408203125,2.4031298828125003,2.46837825851604,1.36669921875,1.8173828125,1.16357421875,46.03588235294118,336.4420752868072
0.4969697265625,-0.0190166015625,2.2961962890625003,2.3494377919321443,0.419921875,14.55712890625,2.56201171875,45.89470588235295,336.4420752868072
0.8480439453125,0.0893818359375,2.0222705078125003,2.194708557541292,0.33935546875,15.99951171875,-1.27197265625,46.03588235294118,336.4420752868072
0.4657197265625,0.1225849609375,1.2366259765625005,1.3270891990618623,0.12451171875,13.6787109375,-5.080078125,46.224117647058826,336.4420752868072
0.3812470703125,0.0210224609375,1.1482470703125005,1.210067191096004,-0.6201171875,6.0947265625,-5.07666015625,46.03588235294118,336.4420752868072
0.1585908203125,-0.1034892578125,1.0950244140625005,1.111278336944843,-0.54248046875,2.7197265625,-4.12109375,46.03588235294118,336.3883133535664
0.1156220703125,-0.0468486328125,1.1785205078125005,1.1851049931859972,-0.50048828125,1.66845703125,-3.45166015625,46.03588235294118,336.3883133535664
0.0218720703125,0.0859638671875,1.2205126953125005,1.2237317571022537,-1.03955078125,1.8681640625,-3.5673828125,45.7535294117647,336.3883133535664
-0.0831083984375,0.1552998046875,1.3938525390625005,1.4049376982193198,-1.3017578125,3.484375,-3.58056640625,46.08294117647059,336.3883133535664
-0.1392607421875,0.1640888671875,1.3420947265625005,1.3592413198973767,-1.13427734375,4.62255859375,-4.240234375,46.08294117647059,335.99240173970344
-0.0538115234375,0.0473896484375,1.1614306640625005,1.1636419751187883,-1.31494140625,4.5732421875,-5.22314453125,46.08294117647059,335.99240173970344
0.1102509765625,0.0088154296875,1.0105517578125005,1.01658636861385,-2.109375,4.7724609375,-6.515625,46.08294117647059,335.99240173970344
0.1332001953125,0.0083271484375,0.9412158203125,0.9506307663014704,-2.57763671875,3.5927734375,-6.95263671875,47.02411764705882,335.99240173970344
0.0125947265625,0.0219990234375,0.8440478515625001,0.8444284220090297,-2.71240234375,1.296875,-6.4765625,46.224117647058826,335.99240173970344
-0.1275419921875,-0.0375712890625,0.7976611328125001,0.8086667078176862,-2.197265625,-1.1923828125,-5.341796875,46.13,335.8531060936646
-0.1719755859375,-0.0590556640625,0.7937548828125001,0.8143156559990081,-1.2939453125,-2.6845703125,-4.3310546875,46.08294117647059,335.8531060936646
-0.1905302734375,-0.0893291015625,0.8025439453125001,0.8296735849958615,-0.79638671875,-2.98388671875,-3.8837890625,46.08294117647059,335.8531060936646
-0.1304716796875,-0.0322001953125,0.9036181640625,0.9135565106780884,-0.05224609375,-2.4267578125,-3.71240234375,46.08294117647059,335.8531060936646
-0.0577177734375,-0.0439189453125,0.8362353515625001,0.8393746352677111,0.80908203125,-1.4912109375,-3.0986328125,46.08294117647059,335.98140945545657
0.0023408203125,-0.0863994140625,0.7561572265625001,0.7610808692069265,0.83056640625,0.2548828125,-2.35986328125,46.13,335.98140945545657
0.0614228515625,-0.0370830078125,0.6282275390625001,0.6323114398767555,0.93994140625,2.20947265625,-1.04052734375,45.65941176470588,335.98140945545657
0.0453095703125,0.0049091796875,0.5100634765625001,0.5120955060632065,1.283203125,3.443359375,0.19287109375,46.13,335.98140945545657
0.0907197265625,0.0639912109375,0.3596728515625,0.3764166627766664,1.1669921875,3.85888671875,0.5576171875,46.224117647058826,335.98140945545657
0.1439423828125,0.0620380859375,0.2200244140625,0.270146028029426,0.89111328125,3.78173828125,0.22900390625,46.03588235294118,336.19645215487253
0.1634736328125,0.0044208984375,0.1951220703125,0.2545894642182724,0.62890625,3.416015625,0.03515625,46.224117647058826,336.19645215487253
0.1844697265625,-0.0917705078125,0.1736376953125,0.2694456445289926,0.48583984375,2.837890625,0.37255859375,46.224117647058826,336.19645215487253
0.2289033203125,-0.1855205078125,0.1824267578125,0.3465459721812899,0.46435546875,2.4482421875,0.9052734375,46.03588235294118,336.19645215487253
0.2357392578125,-0.2665751953125,0.1550830078125,0.3881830389675183,0.5810546875,2.451171875,1.46923828125,46.08294117647059,336.3455438495396
0.2562470703125,-0.3202861328125,0.1545947265625,0.4383438118608039,0.74853515625,2.55810546875,2.044921875,46.08294117647059,336.3455438495396
0.3499970703125,-0.3842509765625,0.1213916015625,0.533744023991348,0.83154296875,2.54541015625,2.41162109375,46.27117647058824,336.3455438495396
0.5814423828125,-0.4682353515625,0.1306689453125,0.7578878295979009,1.0107421875,1.90869140625,2.76318359375,46.03588235294118,336.3455438495396
0.5916962890625,-0.4740947265625,0.3381884765625,0.830205850331332,1.1640625,0.2099609375,3.1806640625,46.36529411764706,336.3455438495396
0.2811494140625,-0.4076884765625,0.5193408203125001,0.7176139453720222,1.23779296875,-0.51318359375,3.42578125,46.08294117647059,336.59236985855074
0.1190400390625,-0.2343486328125,0.7673876953125001,0.811155772659062,1.1044921875,-2.34912109375,3.49169921875,46.13,336.59236985855074
0.4139619140625,-0.0883525390625,1.1682666015625005,1.2425850030398211,1.65380859375,-6.4169921875,2.3984375,46.224117647058826,336.59236985855074
0.7430634765625,-0.1425517578125,1.6370166015625005,1.803410016509784,2.27001953125,-10.1748046875,0.48046875,46.03588235294118,336.59236985855074
0.7123017578125,-0.1352275390625,2.0789111328125003,2.2017111026734253,1.4033203125,-13.28271484375,0.67724609375,46.08294117647059,336.5166229024496
0.3622041015625,0.1972919921875,2.4714892578125003,2.505668591983504,0.26513671875,-11.2998046875,2.76806640625,46.03588235294118,336.5166229024496
0.4183564453125,0.2197529296875,2.6472705078125003,2.689117812029552,0.47509765625,-2.7236328125,2.63671875,46.08294117647059,336.5166229024496
0.2704072265625,-0.0658916015625,2.4290087890625003,2.444901934368037,0.3359375,6.794921875,2.826171875,46.13,336.5166229024496
0.1190400390625,-0.0878642578125,2.0623095703125003,2.06761007506335,-0.9501953125,10.18701171875,4.4970703125,46.08294117647059,336.5166229024496
0.0926728515625,0.0332294921875,1.8088916015625005,1.811568735315089,-1.470703125,9.5,5.06982421875,45.94176470588236,336.14029077388386
0.1664033203125,0.0981708984375,1.5637744140625005,1.575664307010718,-1.3779296875,6.244140625,4.94580078125,46.13,336.14029077388386
0.1678681640625,0.1816669921875,1.3650439453125005,1.387273437066566,-0.73583984375,1.54052734375,4.095703125,46.83588235294118,336.14029077388386
0.0140595703125,0.1557880859375,1.2976611328125005,1.30705470996805,-0.1787109375,-1.2705078125,3.8056640625,46.08294117647059,336.14029077388386
-0.1617216796875,0.1636005859375,1.3611376953125005,1.3804401033730744,0.2109375,-1.89013671875,4.0732421875,46.13,335.95083532405
-0.1954130859375,0.1899677734375,1.3699267578125005,1.396772476415213,0.6064453125,-1.36376953125,4.44091796875,45.84764705882353,335.95083532405
-0.1583037109375,0.2461201171875,1.3357470703125005,1.3674265657904263,0.92236328125,-0.03515625,4.2587890625,46.27117647058824,335.95083532405
-0.1094755859375,0.1924091796875,1.2258837890625005,1.2457115479237593,1.322265625,0.8076171875,3.7724609375,46.08294117647059,335.95083532405
-0.1011748046875,0.1230732421875,1.0725634765625005,1.0843319488523493,1.3427734375,1.55029296875,3.58984375,46.03588235294118,335.95083532405
-0.1104521484375,0.1357685546875,1.0461962890625005,1.0607353358800389,1.49560546875,2.43115234375,4.0908203125,46.13,335.80054836094155
-0.0767607421875,0.0893818359375,0.8674853515625001,0.8754496897664927,1.4755859375,2.982421875,4.6083984375,46.83588235294118,335.80054836094155
0.0536103515625,0.0522724609375,0.6394580078125001,0.6438268584974136,1.23095703125,1.52294921875,4.4111328125,46.97705882352941,335.80054836094155
0.1659150390625,0.0268818359375,0.5505908203125001,0.5756741132818752,0.79638671875,-0.5224609375,3.91357421875,46.08294117647059,335.80054836094155
0.1771455078125,0.0298115234375,0.5344775390625001,0.5638576927116623,0.44189453125,-2.517578125,3.66064453125,46.08294117647059,335.33990819615343
0.0946259765625,0.0283466796875,0.6096728515625001,0.6176233444600866,0.01904296875,-3.7822265625,3.2646484375,46.224117647058826,335.33990819615343
0.0121064453125,0.0083271484375,0.6716845703125001,0.6718452719302953,-0.28955078125,-3.650390625,2.84423828125,46.03588235294118,335.33990819615343
-0.0479521484375,-0.0195048828125,0.7156298828125001,0.7174998105696851,-0.23974609375,-2.8125,2.20703125,46.13,335.33990819615343
-0.0001005859374999,-0.0346416015625,0.6585009765625001,0.6594115458574501,-0.37451171875,-1.73095703125,1.13427734375,46.83588235294118,335.33990819615343
0.0819306640625,-0.0512431640625,0.5042041015625001,0.5133812147023948,-0.45703125,-0.44775390625,-0.12255859375,45.94176470588236,335.7369991185152
0.1390595703125,-0.0741923828125,0.3953173828125,0.4255794954137457,-0.44921875,-0.1328125,-0.6728515625,46.08294117647059,335.7369991185152
0.1971650390625,-0.1049541015625,0.2717822265625,0.3517882811274117,-0.2705078125,-0.607421875,-0.880859375,46.27117647058824,335.7369991185152
0.2323212890625,-0.1239970703125,0.1414111328125,0.2989072820810147,-0.2060546875,-0.84716796875,-0.96044921875,46.13,335.7369991185152
0.2826142578125,-0.0761455078125,0.0584033203125,0.2984625686789856,-0.359375,-0.7021484375,-1.255859375,46.08294117647059,336.2502132686334
0.3255830078125,0.0029560546875,0.0022509765625,0.3256042077907392,-0.8896484375,-0.02490234375,-2.1005859375,46.13,336.2502132686334
0.3548798828125,0.0864521484375,-0.0324169921874999,0.366694104911652,-1.3896484375,0.47021484375,-2.85693359375,46.03588235294118,336.2502132686334
0.3802705078125,0.1572529296875,-0.0646435546874999,0.4165488352761465,-1.78759765625,0.2607421875,-3.5166015625,46.224117647058826,336.2502132686334
0.4583955078125,0.2329365234375,-0.0348583984374999,0.5153648935224985,-1.91796875,-0.83349609375,-3.86669921875,46.08294117647059,336.2502132686334
0.5892548828125,0.3208271484375,0.1917041015625,0.6977835184703033,-1.79345703125,-2.3203125,-3.8671875,46.03588235294118,336.8160178980267
0.5243134765625,0.4438740234375,0.4807666015625,0.8384898899602816,-1.3974609375,-2.4033203125,-3.2802734375,46.03588235294118,336.8160178980267
0.3744111328125,0.5923115234375,0.7825244140625001,1.0504099655728,-0.5625,-2.38525390625,-2.1708984375,46.224117647058826,336.8160178980267
0.4603486328125,0.6162373046875,1.1794970703125005,1.408148649218762,0.53515625,-4.56494140625,-1.27490234375,46.03588235294118,336.8160178980267
0.8172822265625,0.4087177734375,1.6331103515625005,1.8713764657490108,1.3564453125,-8.162109375,-1.2451171875,46.08294117647059,337.1899746212636
1.0487275390625,-0.1030009765625,2.1951220703125003,2.434953707143927,2.81298828125,-11.63916015625,-2.6201171875,46.03588235294118,337.1899746212636
0.8104462890625,-0.7616923828125,2.3494189453125003,2.5993783591626407,2.84423828125,-10.7880859375,-1.87451171875,46.788823529411765,337.1899746212636
0.3622041015625,-0.5517314453125,2.3738330078125003,2.463875513883658,1.908203125,-3.74658203125,1.03515625,46.03588235294118,337.1899746212636
0.2743134765625,0.0996357421875,2.2815478515625003,2.3001382053073507,0.24658203125,5.79248046875,3.0947265625,46.08294117647059,337.1899746212636
0.5477509765625,0.3672138671875,2.2366259765625003,2.331817513360368,0.498046875,10.6962890625,0.58447265625,45.89470588235295,336.4554671505563
0.2855439453125,0.1802021484375,1.9006884765625005,1.930446799045132,1.05078125,10.63818359375,-2.68701171875,45.61235294117647,336.4554671505563
0.3006806640625,0.0068623046875,1.5447314453125005,1.5737379677392092,1.0859375,4.578125,-2.85546875,46.224117647058826,336.4554671505563
0.3343720703125,-0.0986064453125,1.4490283203125005,1.4903727673068574,0.8896484375,-0.21875,-1.40966796875,46.224117647058826,336.4554671505563
0.3563447265625,-0.1786845703125,1.4553759765625005,1.5089827609922908,0.2197265625,-3.185546875,-0.6884765625,46.27117647058824,336.18666053714264
0.2684541015625,-0.1103251953125,1.5012744140625005,1.529072960877006,-0.77978515625,-4.76025390625,-1.06201171875,45.84764705882353,336.18666053714264
0.1673798828125,-0.0468486328125,1.5037158203125005,1.5137278777325938,-1.84814453125,-5.09716796875,-2.1474609375,46.27117647058824,336.18666053714264
0.0956025390625,0.0078388671875,1.4358447265625005,1.4390452988392417,-2.552734375,-4.46533203125,-3.36279296875,45.84764705882353,336.18666053714264
0.0692353515625,0.0444599609375,1.3611376953125005,1.3636223992121763,-2.84326171875,-3.01025390625,-4.12548828125,46.13,336.18666053714264
0.0663056640625,0.0190693359375,1.2781298828125005,1.2799906554339224,-2.72265625,-2.048828125,-4.23583984375,46.224117647058826,336.26120559457
0.0555634765625,-0.0556376953125,1.1238330078125005,1.1265804376591533,-2.68798828125,-1.17138671875,-3.68115234375,46.224117647058826,336.26120559457
0.0785126953125,-0.0737041015625,1.0471728515625005,1.052695359048337,-2.74951171875,-1.10009765625,-2.62890625,46.08294117647059,336.26120559457
0.1371064453125,-0.0546611328125,0.9939501953125,1.004849743766864,-1.97509765625,-1.3759765625,-1.640625,46.224117647058826,336.26120559457
0.1800751953125,-0.0395244140625,0.9363330078125,0.95431061861064,-0.93603515625,-1.833984375,-1.29638671875,45.89470588235295,336.1524830234928
0.1815400390625,-0.0341533203125,0.8674853515625001,0.8869352119781334,-0.1494140625,-2.36083984375,-1.1845703125,46.03588235294118,336.1524830234928
0.1688447265625,0.0063740234375,0.8645556640625001,0.8809118378846419,0.609375,-2.50830078125,-0.97265625,46.27117647058824,336.1524830234928
0.1410126953125,0.0122333984375,0.8377001953125001,0.8495739246841486,1.35107421875,-1.61767578125,-0.47314453125,46.08294117647059,336.1524830234928
0.0804658203125,-0.0190166015625,0.6970751953125001,0.7019616850608803,1.61865234375,0.17626953125,0.12548828125,45.94176470588236,336.1524830234928
0.0858369140625,0.0141865234375,0.5745166015625001,0.5810667420649199,1.609375,0.67578125,0.51025390625,46.27117647058824,336.1328997411535
0.1185517578125,0.0610615234375,0.4827197265625,0.5008007221815048,1.38330078125,1.37646484375,0.57763671875,46.08294117647059,336.1328997411535
0.1483369140625,0.0664326171875,0.3748095703125,0.4085331647465201,1.00390625,2.12646484375,0.45703125,46.03588235294118,336.1328997411535
0.1478486328125,0.0654560546875,0.2468798828125,0.2951158922479306,0.4892578125,2.10400390625,0.42724609375,46.08294117647059,336.1328997411535
0.1327119140625,0.0327412109375,0.1648486328125,0.2141483382329564,0.1767578125,1.751953125,0.82958984375,46.03588235294118,335.9178583127997
0.1957001953125,-0.0595439453125,0.1697314453125,0.2658059656903863,0.25634765625,1.634765625,1.57763671875,46.08294117647059,335.9178583127997
0.2879853515625,-0.0390361328125,0.1809619140625,0.3423544898503531,0.779296875,2.35009765625,2.50244140625,46.27117647058824,335.9178583127997
0.4090791015625,-0.2758525390625,0.1614306640625,0.5191340808905441,1.30810546875,3.10498046875,3.25048828125,46.13,335.9178583127997
0.4969697265625,-0.3373759765625,0.1350634765625,0.6156651698628529,1.60693359375,2.5615234375,3.5537109375,46.08294117647059,335.9178583127997
0.5155244140625,-0.3949931640625,0.1726611328125,0.6720095891686999,1.65380859375,1.0302734375,3.36376953125,46.13,336.48484513086976
0.4369111328125,-0.4081767578125,0.2693408203125,0.655777463077557,1.47509765625,-0.91650390625,3.11669921875,45.65941176470588,336.48484513086976
0.3016572265625,-0.4062236328125,0.4763720703125,0.6949424951509167,1.61279296875,-1.24853515625,3.392578125,45.84764705882353,336.48484513086976
0.2342744140625,-0.4530986328125,0.6736376953125001,0.84496781991199,1.9716796875,-0.17578125,3.9990234375,45.94176470588236,336.48484513086976
0.2401337890625,-0.4272197265625,0.8904345703125001,1.0163929630911743,2.39306640625,-0.69873046875,4.42138671875,46.224117647058826,336.13169892131174
0.3197236328125,-0.4037822265625,1.1375048828125005,1.2486715526065582,2.71728515625,-2.5361328125,3.77587890625,46.27117647058824,336.13169892131174
0.4740205078125,-0.4355205078125,1.4817431640625005,1.615529745562745,2.68310546875,-3.88671875,2.31591796875,46.13,336.13169892131174
0.4984345703125,-0.3539775390625,1.8416064453125005,1.94042557663516,2.2373046875,-4.9423828125,1.8720703125,46.13,336.13169892131174
0.4217744140625,-0.0859111328125,2.0002978515625003,2.046085500184302,1.53369140625,-3.63525390625,3.28955078125,46.224117647058826,336.13169892131174
0.5233369140625,0.3174091796875,2.0046923828125003,2.096049060178891,0.74951171875,1.0947265625,5.31103515625,46.224117647058826,336.2172363742275
0.6415009765625,0.4433857421875,1.8674853515625005,2.023762821480401,0.10888671875,6.05224609375,7.033203125,46.224117647058826,336.2172363742275
0.7420869140625,0.1938740234375,1.7566455078125005,1.916789911572076,0.60205078125,7.91796875,6.26904296875,46.27117647058824,336.2172363742275
0.5716767578125,0.0112568359375,1.2883837890625005,1.409565117224948,0.66552734375,4.43017578125,4.95703125,45.61235294117647,336.2172363742275
0.5389619140625,0.0093037109375,1.1189501953125005,1.2420209512874592,-0.28564453125,0.89990234375,3.39990234375,46.08294117647059,336.0865297435074
0.2684541015625,0.0415302734375,1.1682666015625005,1.1994328745636065,-0.99853515625,0.05224609375,3.2353515625,45.94176470588236,336.0865297435074
0.1288056640625,0.1172138671875,1.3142626953125005,1.325751267035302,-0.4345703125,0.5302734375,4.45703125,45.94176470588236,336.0865297435074
0.1278291015625,0.2324482421875,1.4294970703125005,1.453903139323372,0.60400390625,1.98681640625,5.19091796875,46.03588235294118,336.0865297435074
0.0873017578125,0.3066669921875,1.4128955078125005,1.4484267178601835,1.73876953125,3.3310546875,5.35009765625,46.27117647058824,336.0865297435074
0.1117158203125,0.2671162109375,1.2883837890625005,1.3205166725841622,2.3798828125,4.10595703125,4.8564453125,46.224117647058826,335.95083532405
0.0980439453125,0.2065693359375,1.1111376953125005,1.1344207701318216,2.68994140625,4.396484375,4.0341796875,45.94176470588236,335.95083532405
0.1224580078125,0.0991474609375,0.9846728515625,0.9971994821960072,2.3515625,4.1455078125,3.52197265625,46.13,335.95083532405
0.1551728515625,0.0239521484375,0.8782275390625001,0.8921524139095207,1.99853515625,2.99169921875,3.8291015625,45.94176470588236,335.95083532405
0.1566376953125,-0.0058330078124999,0.8274462890625001,0.8421619516792804,1.46435546875,1.02392578125,5.1064453125,46.13,335.545152087248
0.2074189453125,0.0346943359375,0.7654345703125001,0.7937987133084656,1.07763671875,-0.5654296875,5.61865234375,46.27117647058824,335.545152087248
0.2352509765625,0.0669208984375,0.7556689453125001,0.79426505873732,0.65673828125,-1.74951171875,4.77490234375,46.08294117647059,335.545152087248
0.1664033203125,0.0493427734375,0.7644580078125001,0.78391378353119,0.18359375,-2.37548828125,3.5908203125,46.27117647058824,335.545152087248
0.0550751953125,0.0532490234375,0.7693408203125001,0.7731455447940367,-0.1494140625,-2.21923828125,2.69970703125,45.94176470588236,335.545152087248
-0.0054716796875,0.0732685546875,0.7546923828125001,0.7582603860546896,-0.28125,-0.8125,1.85302734375,46.224117647058826,335.61969187787207
-0.0118193359375,0.0830341796875,0.6248095703125001,0.6304136505917923,-0.419921875,0.7138671875,1.0029296875,46.08294117647059,335.61969187787207
-0.0196318359375,0.0742451171875,0.4978564453125,0.5037447632955214,-0.46142578125,2.150390625,0.5595703125,46.224117647058826,335.61969187787207
0.0399384765625,0.0415302734375,0.3259814453125,0.331034361071405,-0.185546875,2.63330078125,0.2548828125,46.27117647058824,335.61969187787207
0.0936494140625,0.0239521484375,0.1819384765625,0.206023123515068,0.00048828125,2.27001953125,-0.0283203125,46.08294117647059,335.89707538083854
0.1810517578125,0.0210224609375,0.1443408203125,0.2324993661912872,0.4765625,2.8740234375,-0.05126953125,46.224117647058826,335.89707538083854
0.2972626953125,0.0566669921875,0.0706103515625,0.3107443962098274,0.736328125,4.2685546875,-0.2333984375,46.224117647058826,335.89707538083854
0.3861298828125,0.0908466796875,-0.0836865234374999,0.4054045384749576,0.6474609375,3.76318359375,-1.0615234375,46.97705882352941,335.89707538083854
0.4828095703125,0.1562763671875,-0.1647412109374999,0.5335419858903487,0.06982421875,3.10791015625,-2.390625,46.03588235294118,335.89707538083854
0.5692353515625,0.2314716796875,-0.1266552734374999,0.6274150000241973,-0.56005859375,2.94482421875,-3.7578125,46.224117647058826,336.5911712454709
0.6605439453125,0.2763935546875,-0.0329052734374999,0.7167945715348238,-0.97021484375,3.13525390625,-4.705078125,46.03588235294118,336.5911712454709
0.6624970703125,0.3276630859375,0.1467822265625,0.7535320086720778,-0.94775390625,2.55419921875,-4.8095703125,46.224117647058826,336.5911712454709
0.4730439453125,0.4243427734375,0.3718798828125,0.736296143413833,-0.72998046875,1.55126953125,-4.0859375,46.03588235294118,336.5911712454709
0.2362275390625,0.4511982421875,0.6448291015625001,0.8216981648917782,-0.51611328125,0.666015625,-3.3701171875,46.08294117647059,336.709689180166
0.0907197265625,0.4643818359375,1.1169970703125005,1.2130799699207662,-0.11572265625,-1.1162109375,-2.294921875,45.65941176470588,336.709689180166
0.3421845703125,0.5302998046875,1.9500048828125005,2.0495919608556585,0.12646484375,-4.146484375,-1.8486328125,46.08294117647059,336.709689180166
0.8524384765625,0.1245380859375,2.5710986328125003,2.711587961107565,1.3818359375,-8.68115234375,-3.029296875,46.03588235294118,336.709689180166
0.9012666015625,-0.5727275390625,2.7141650390625003,2.916674507099095,2.64501953125,-8.890625,-3.3798828125,46.224117647058826,336.709689180166
0.2240205078125,-0.6381572265625,2.4085009765625003,2.50166080591215,0.1923828125,-0.02294921875,0.51171875,46.08294117647059,336.335751379332
0.4129853515625,0.0605732421875,2.3069384765625003,2.3443956903472625,-1.2197265625,11.5263671875,2.236328125,46.03588235294118,336.335751379332
0.5536103515625,0.1792255859375,2.0471728515625003,2.128267585663592,-1.06884765625,15.99951171875,-0.56787109375,46.224117647058826,336.335751379332
0.3080048828125,0.1636005859375,1.4915087890625005,1.5317410445000554,0.16748046875,14.3427734375,-3.3818359375,45.65941176470588,336.335751379332
0.2914033203125,0.0669208984375,1.3059619140625005,1.339750283716567,0.74169921875,7.75146484375,-3.60986328125,46.08294117647059,336.5519986155679
0.0697236328125,-0.0590556640625,1.2239306640625005,1.227336639583007,0.462890625,4.794921875,-2.9287109375,46.224117647058826,336.5519986155679
-0.0552763671875,-0.0522197265625,1.2996142578125005,1.3018370081239992,0.001953125,3.5078125,-2.44921875,46.03588235294118,336.5519986155679
-0.1534208984375,-0.0312236328125,1.3323291015625005,1.3414968215369425,-0.64990234375,2.97998046875,-2.37646484375,46.13,336.5519986155679
-0.2027373046875,-0.1542705078125,1.2371142578125005,1.26307303477497,-1.30078125,2.587890625,-2.734375,46.03588235294118,336.5519986155679
-0.1011748046875,0.0093037109375,1.0754931640625005,1.080281651277078,-2.19921875,1.8359375,-3.46533203125,46.27117647058824,335.6184887176153
-0.0582060546875,0.0117451171875,1.0344775390625005,1.036180327648059,-2.61865234375,1.2177734375,-4.2060546875,45.61235294117647,335.6184887176153
-0.0542998046875,0.0229755859375,1.0125048828125005,1.0142201358962597,-2.6474609375,0.81640625,-5.12109375,46.08294117647059,335.6184887176153
0.1019501953125,0.0068623046875,0.8665087890625001,0.872512701954786,-3.12109375,0.23876953125,-6.14404296875,45.65941176470588,335.6184887176153
-0.0303740234375,-0.0043681640624999,0.9148486328125,0.9153631427559006,-3.0029296875,-1.43359375,-6.263671875,46.224117647058826,336.08034051417684
-0.1089873046875,-0.0229228515625,0.8391650390625001,0.8465232734494484,-2.94384765625,-2.5263671875,-5.7724609375,46.03588235294118,336.08034051417684
-0.1104521484375,-0.0038798828124999,0.8684619140625001,0.8754660625987735,-2.84228515625,-3.13037109375,-5.41943359375,46.08294117647059,336.08034051417684
-0.0938505859375,0.0268818359375,0.8835986328125001,0.8889753143323509,-2.33984375,-3.02197265625,-5.1943359375,45.61235294117647,336.08034051417684
-0.1348662109375,0.0420185546875,0.8777392578125001,0.8890335530765434,-1.67431640625,-2.27783203125,-4.72802734375,46.03588235294118,336.08034051417684
-0.1104521484375,0.0283466796875,0.8318408203125001,0.8396203675959382,-0.552734375,-1.7431640625,-3.94970703125,45.70647058823529,336.0253786758629
-0.1158232421875,-0.0102275390624999,0.7610400390625001,0.7698711366471346,0.2001953125,-1.2890625,-2.90625,46.03588235294118,336.0253786758629
-0.1216826171875,-0.0400126953125,0.6633837890625001,0.6756372745065877,0.50537109375,-0.421875,-1.89111328125,46.08294117647059,336.0253786758629
-0.0752958984375,0.0107685546875,0.5847705078125001,0.5896965159290474,0.83837890625,0.6025390625,-1.0341796875,46.224117647058826,336.0253786758629
-0.0469755859375,0.0844990234375,0.4734423828125,0.4832126658928142,0.96142578125,1.32763671875,-0.3310546875,46.03588235294118,335.8762926995224
-0.0142607421875,0.1352802734375,0.3816455078125,0.4051634420607616,0.7978515625,1.927734375,-0.09228515625,46.03588235294118,335.8762926995224
0.0462861328125,0.1284443359375,0.2883837890625,0.3190698408173456,0.46923828125,2.59765625,-0.1904296875,46.97705882352941,335.8762926995224
0.1371064453125,0.0718037109375,0.2542041015625,0.2976132985970611,0.234375,2.896484375,-0.3466796875,46.08294117647059,335.8762926995224
0.1947236328125,-0.0331767578125,0.2312548828125,0.3041328842122629,0.021484375,3.330078125,-0.1591796875,46.08294117647059,335.8762926995224
0.2367158203125,-0.1332744140625,0.1799853515625,0.3258698755745907,0.205078125,3.806640625,0.5498046875,45.89470588235295,336.3577360228526
0.2679658203125,-0.1977275390625,0.1404345703125,0.361419049163599,0.46728515625,4.03369140625,1.2255859375,46.224117647058826,336.3577360228526
0.2562470703125,-0.2387431640625,0.0774462890625,0.3586903777910211,0.60107421875,4.0888671875,1.6962890625,46.27117647058824,336.3577360228526
0.2665009765625,-0.2607158203125,0.0510791015625,0.3763038454313457,0.59326171875,4.18896484375,1.9560546875,46.08294117647059,336.3577360228526
0.3163056640625,-0.2983134765625,0.0574267578125,0.4385636053409811,0.6650390625,4.50048828125,2.12890625,46.03588235294118,336.9369329323365
0.4437470703125,-0.4369853515625,-0.0001904296874999,0.6227902505294977,0.8056640625,3.52587890625,2.17822265625,46.08294117647059,336.9369329323365
0.5721650390625,-0.5258525390625,0.2742236328125,0.8240705828730662,0.82568359375,0.828125,3.24072265625,46.27117647058824,336.9369329323365
0.1180634765625,-0.4999736328125,0.7112353515625001,0.8773644301645614,1.1796875,0.6640625,3.95849609375,45.61235294117647,336.9369329323365
-0.3345732421875,-0.3705791015625,1.0940478515625005,1.2025842284061636,0.7939453125,2.3330078125,3.45361328125,46.08294117647059,336.9369329323365
0.3441376953125,0.0044208984375,1.7878955078125005,1.820719814945208,0.97265625,-3.0966796875,2.2158203125,46.08294117647059,336.4640598413405
1.2850556640625,0.0420185546875,1.9895556640625005,2.3688531738122385,2.2421875,-12.57568359375,1.64599609375,46.224117647058826,336.4640598413405
1.2069306640625,0.0669208984375,1.9006884765625005,2.2525045437111797,0.5048828125,-13.62744140625,1.09423828125,46.27117647058824,336.4640598413405
0.4359345703125,0.5654560546875,2.0691455078125003,2.1888678881734607,-1.67919921875,-5.8720703125,-0.32373046875,46.88294117647059,336.4640598413405
0.4759736328125,0.2768818359375,2.2537158203125003,2.320010657072871,-2.0458984375,1.40283203125,-3.34716796875,46.08294117647059,336.4224900142762
0.1161103515625,-0.0815166015625,2.2800830078125003,2.2844923052147856,-2.33740234375,2.94482421875,-2.7255859375,46.13,336.4224900142762
-0.2867216796875,-0.1196025390625,1.9973681640625005,2.02138409802873,-1.45263671875,2.34423828125,0.77197265625,46.88294117647059,336.4224900142762
-0.2286162109375,-0.0234111328125,1.8943408203125005,1.9082297022489767,-0.384765625,0.28466796875,3.25732421875,45.89470588235295,336.4224900142762
-0.1866240234375,-0.0556376953125,1.7019580078125005,1.713063086877066,0.2265625,-0.25048828125,4.2255859375,46.08294117647059,336.4224900142762
-0.1089873046875,0.0229755859375,1.5945361328125005,1.598421593002566,1.00830078125,-2.48779296875,3.7548828125,46.03588235294118,336.2318314504796
-0.2076201171875,-0.0590556640625,1.4055712890625005,1.4220493427288776,1.61474609375,-4.0244140625,3.537109375,45.89470588235295,336.2318314504796
-0.2374052734375,-0.0834697265625,1.3611376953125005,1.384205289944009,1.728515625,-4.0234375,3.89208984375,46.13,336.2318314504796
-0.1871123046875,-0.0248759765625,1.3303759765625005,1.3437001405782587,1.54931640625,-4.23046875,4.619140625,46.27117647058824,336.2318314504796
-0.1441435546875,0.0415302734375,1.3098681640625005,1.3184296474193105,1.27783203125,-4.60546875,5.2890625,46.08294117647059,336.1450934184502
-0.0928740234375,0.0361591796875,1.2678759765625005,1.2717871529660365,1.06982421875,-4.57275390625,5.5859375,46.08294117647059,336.1450934184502
-0.0958037109375,0.0971943359375,1.2293017578125005,1.2368540341239262,1.08642578125,-4.35302734375,5.20703125,46.08294117647059,336.1450934184502
-0.1451201171875,0.1430927734375,1.1418994140625005,1.1599438184924435,1.1787109375,-3.25048828125,4.54736328125,46.08294117647059,336.1450934184502
-0.1070341796875,0.1880146484375,1.0833056640625005,1.104697689613927,1.2109375,-1.97412109375,3.8232421875,46.08294117647059,336.1450934184502
-0.0308623046875,0.1406513671875,1.0027392578125005,1.0130258180819978,1.0205078125,-0.74365234375,3.19580078125,46.08294117647059,336.1121162070253
0.0619111328125,0.0942646484375,0.8738330078125001,0.8810805512856433,0.56689453125,0.333984375,2.7314453125,46.08294117647059,336.1121162070253
0.1493134765625,0.1006123046875,0.7742236328125001,0.7948833774479722,0.04248046875,0.24755859375,2.240234375,46.03588235294118,336.1121162070253
0.2103486328125,0.1089130859375,0.6931689453125001,0.7325242619600807,-0.48779296875,-0.7724609375,1.50732421875,46.08294117647059,336.1121162070253
0.2064423828125,0.1474873046875,0.6663134765625001,0.7129828970698326,-1.0771484375,-1.5849609375,0.60107421875,46.224117647058826,335.822533082401
0.2000947265625,0.1465107421875,0.6360400390625001,0.6826787154035787,-1.26953125,-1.5126953125,-0.33984375,46.224117647058826,335.822533082401
0.1844697265625,0.1137958984375,0.5627978515625001,0.603092039611374,-1.41162109375,-1.31787109375,-1.16845703125,46.08294117647059,335.822533082401
0.1043916015625,0.0620380859375,0.4519580078125,0.4679875761272047,-1.0263671875,-1.27734375,-1.30615234375,46.03588235294118,335.822533082401
0.0838837890625,-0.0204814453125,0.3245166015625,0.3358079873368788,-0.36865234375,-1.2919921875,-0.98974609375,46.03588235294118,335.822533082401
0.1639619140625,-0.0663798828125,0.1624072265625,0.2401372635493356,0.35546875,-1.25537109375,-0.685546875,45.94176470588236,336.0179920675573
0.2933564453125,-0.0434306640625,0.0344775390625,0.2985513813183615,0.47802734375,-0.75537109375,-1.05615234375,45.89470588235295,336.0179920675573
0.3841767578125,0.0161396484375,-0.0841748046874999,0.3936212230548413,0.06396484375,-0.205078125,-2.07470703125,45.89470588235295,336.0179920675573
0.3304658203125,0.0771748046875,-0.1906201171874999,0.3892295440353205,-0.57666015625,-0.09033203125,-3.10546875,46.03588235294118,336.0179920675573
0.2049775390625,0.1289326171875,-0.2628857421874999,0.3574189764693668,-1.3076171875,-0.3603515625,-3.81005859375,46.27117647058824,336.530013838591
0.1419892578125,0.2197529296875,-0.2194287109374999,0.3414692645379329,-1.72705078125,-0.77685546875,-4.20458984375,46.08294117647059,336.530013838591
0.1869111328125,0.3047138671875,-0.0680615234374999,0.3638937803786247,-1.8056640625,-0.8203125,-4.50341796875,46.224117647058826,336.530013838591
0.3543916015625,0.3603779296875,0.2244189453125,0.5530185552755507,-1.54638671875,-0.0400390625,-4.74755859375,46.224117647058826,336.530013838591
0.4300751953125,0.4590107421875,0.4578173828125,0.7779796212446004,-1.18017578125,1.9970703125,-4.1494140625,46.08294117647059,336.530013838591
0.4706025390625,0.6562763671875,0.6047900390625001,1.008928347926707,-1.130859375,3.10693359375,-3.65234375,45.94176470588236,336.32475907841905
0.5057587890625,0.7788349609375,0.9036181640625,1.2957243671075136,-1.23193359375,1.9931640625,-3.69287109375,46.224117647058826,336.32475907841905
0.8553681640625,0.8471943359375,1.5862353515625005,1.9913652426119228,-1.01953125,-3.4638671875,-3.4169921875,46.08294117647059,336.32475907841905
1.3592744140625,0.5825458984375,2.3264697265625003,2.7567096410618044,0.3876953125,-11.84423828125,-2.7138671875,46.08294117647059,336.32475907841905
1.6419892578125,-0.5541728515625,2.5588916015625003,3.090495510549668,3.00341796875,-14.45556640625,-5.10302734375,45.94176470588236,336.50922899994544
0.7669892578125,-1.5541728515625,2.2532275390625003,2.8426677816662527,1.6328125,-9.70703125,-3.73828125,45.89470588235295,336.50922899994544
0.0443330078125,-0.9823955078125,2.4334033203125003,2.624598649062325,-1.22265625,5.1826171875,0.9013671875,46.13,336.50922899994544
0.4081025390625,-0.1108134765625,2.3225634765625003,2.36074742648154,-0.40771484375,15.99951171875,1.1630859375,46.13,336.50922899994544
0.6498017578125,-0.0258525390625,1.8494189453125005,1.9604237076491893,0.1826171875,15.12548828125,-2.0693359375,46.224117647058826,336.50922899994544
0.6302705078125,0.1469990234375,1.2693408203125005,1.424807265570125,-0.3623046875,2.52783203125,-3.087890625,46.08294117647059,336.4017054767363
0.2625947265625,0.1440693359375,1.3606494140625005,1.3932260376423244,-0.43408203125,-4.28857421875,-2.259765625,47.02411764705882,336.4017054767363
0.1175751953125,0.1504169921875,1.5725634765625005,1.5841101874269492,-0.2646484375,-4.607421875,-1.8603515625,46.224117647058826,336.4017054767363
0.0692353515625,0.2480732421875,1.6838916015625005,1.703474330070202,-0.44775390625,-3.00048828125,-2.6416015625,46.08294117647059,336.4017054767363
-0.0025419921874999,0.2929951171875,1.5110400390625005,1.5391863435172497,-1.783203125,-1.2373046875,-4.40771484375,46.27117647058824,335.7601869939153
-0.0372099609375,0.3222919921875,1.5002978515625005,1.5349756847664433,-3.197265625,-0.27197265625,-5.5712890625,46.27117647058824,335.7601869939153
-0.0601591796875,0.3032490234375,1.4583056640625005,1.4907161054182114,-2.779296875,1.2158203125,-6.20166015625,46.64764705882353,335.7601869939153
-0.0430693359375,0.2026630859375,1.3015673828125005,1.317954834621122,-2.177734375,3.30908203125,-6.29248046875,46.03588235294118,335.7601869939153
0.0921845703125,0.0630146484375,1.1194384765625005,1.1249939305302823,-2.21435546875,3.9912109375,-6.20947265625,46.08294117647059,335.7601869939153
0.1361298828125,-0.0673564453125,0.9651416015625,0.9770192151571576,-2.263671875,3.392578125,-5.81689453125,46.13,335.8347280888304
0.1883759765625,-0.0531962890625,0.8967822265625001,0.9178963534050518,-1.76416015625,2.3505859375,-5.87158203125,46.27117647058824,335.8347280888304
0.1844697265625,-0.1186259765625,0.8103564453125001,0.8395110307750346,-1.349609375,0.3115234375,-5.318359375,46.08294117647059,335.8347280888304
0.2323212890625,-0.1205791015625,0.7668994140625001,0.8103377150143558,-0.4521484375,-1.14697265625,-4.45947265625,46.08294117647059,335.8347280888304
0.0726533203125,-0.1269267578125,0.7151416015625001,0.7299427491842092,0.4169921875,-1.99560546875,-3.42529296875,45.94176470588236,335.833525463983
0.0570283203125,-0.1049541015625,0.6912158203125001,0.7014605498549003,1.076171875,-2.7314453125,-2.37939453125,46.03588235294118,335.833525463983
0.0414033203125,-0.0917705078125,0.6565478515625001,0.6642222086232876,1.6875,-2.38330078125,-1.4892578125,46.08294117647059,335.833525463983
0.0628876953125,-0.0756572265625,0.6287158203125001,0.6363666088537858,1.9228515625,-0.85546875,-0.7734375,46.224117647058826,335.833525463983
0.0868134765625,-0.0390361328125,0.5530322265625001,0.5611640072158043,1.7294921875,1.37548828125,-0.33984375,46.224117647058826,335.833525463983
0.1048798828125,-0.0116923828124999,0.3928759765625,0.4068022057395165,1.31298828125,3.21044921875,-0.5009765625,46.88294117647059,335.833525463983
0.1180634765625,-0.0102275390624999,0.2376025390625,0.2655156372461815,0.87451171875,3.693359375,-1.27490234375,46.27117647058824,335.833525463983
0.1043916015625,-0.0610087890625,0.1169970703125,0.1682497942981341,0.0361328125,3.56005859375,-1.54248046875,45.61235294117647,335.833525463983
0.0960908203125,-0.1225322265625,0.1028369140625,0.1866092794814636,-0.37451171875,3.39501953125,-1.06884765625,46.13,335.833525463983
0.1209931640625,-0.1821025390625,0.1184619140625,0.2486642426369652,-0.48291015625,3.67578125,-0.14501953125,46.08294117647059,336.316167432815
0.1673798828125,-0.2455791015625,0.1238330078125,0.3219623178548409,-0.28515625,4.59814453125,0.8984375,46.03588235294118,336.316167432815
0.2459931640625,-0.2900126953125,0.1003955078125,0.3933182657808187,0.1142578125,5.01416015625,1.619140625,46.224117647058826,336.316167432815
0.3724580078125,-0.3783916015625,0.0442431640625,0.532787602411084,0.43798828125,4.44677734375,1.8232421875,46.27117647058824,336.316167432815
0.5780244140625,-0.5190166015625,0.0964892578125,0.7828158358279362,0.759765625,3.0478515625,2.06591796875,46.08294117647059,336.316167432815
0.6039033203125,-0.5238994140625,0.3333056640625,0.8661769346014918,0.951171875,1.97216796875,3.2080078125,46.08294117647059,336.3149668922379
0.4530244140625,-0.4399150390625,0.5120166015625001,0.8129682414495933,0.99267578125,2.8779296875,4.1884765625,46.08294117647059,336.3149668922379
0.3343720703125,-0.2822001953125,0.6438525390625001,0.7784521332084001,0.86279296875,2.84130859375,4.314453125,46.03588235294118,336.3149668922379
0.4886689453125,-0.0780986328125,1.0168994140625005,1.130920489194828,1.21240234375,0.82861328125,3.0205078125,46.27117647058824,336.3149668922379
0.7757783203125,-0.0429423828125,1.6921923828125005,1.8620395030603265,2.2802734375,-2.7099609375,0.46240234375,46.224117647058826,336.25141388190553
1.0389619140625,-0.1249736328125,2.1775439453125003,2.4159383066497986,2.23291015625,-6.7041015625,-0.97021484375,46.224117647058826,336.25141388190553
0.6585908203125,0.1347919921875,2.2180712890625003,2.3177038191108776,0.80126953125,-5.39306640625,-0.0087890625,45.61235294117647,336.25141388190553
0.2279267578125,0.3437763671875,2.3254931640625003,2.361789841130021,-0.70361328125,2.25634765625,0.83935546875,46.08294117647059,336.25141388190553
0.2337861328125,0.0180927734375,2.1882861328125003,2.200813373143114,-1.35986328125,8.28466796875,2.001953125,45.89470588235295,336.25141388190553
0.4217744140625,-0.0727275390625,1.9255908203125005,1.9725828141215316,-0.84375,6.09228515625,5.91162109375,45.94176470588236,336.2294291493829
0.3192353515625,-0.0473369140625,1.6189501953125005,1.6508033583751205,-0.51416015625,5.7001953125,7.60400390625,46.08294117647059,336.2294291493829
0.2616181640625,-0.0483134765625,1.3918994140625005,1.417096409794521,-0.25537109375,3.1845703125,6.5087890625,46.69470588235294,336.2294291493829
0.1556611328125,-0.0346416015625,1.4119189453125005,1.4208960331282685,-0.576171875,-0.16796875,5.28466796875,46.27117647058824,336.2294291493829
-0.0489287109375,0.1401630859375,1.5593798828125005,1.5664307607851218,-0.14453125,-0.5908203125,5.3798828125,46.97705882352941,336.059557447987
-0.0113310546875,0.2002216796875,1.5632861328125005,1.5760966489594086,0.48193359375,0.06103515625,6.49951171875,46.60058823529412,336.059557447987
-0.2085966796875,0.2461201171875,1.4744189453125005,1.5093041155305529,1.06640625,0.51220703125,7.2890625,45.89470588235295,336.059557447987
-0.1021513671875,0.2339130859375,1.2712939453125005,1.2966643856369704,1.267578125,0.35693359375,6.8671875,46.224117647058826,336.059557447987
-0.1475615234375,0.2895771484375,1.1946337890625005,1.2380546102923795,1.1923828125,-0.37744140625,5.93115234375,46.224117647058826,336.059557447987
-0.1534208984375,0.2685810546875,1.1931689453125005,1.2326093813826682,1.16162109375,-1.03955078125,5.66162109375,46.08294117647059,335.3948701737331
-0.1749052734375,0.3364521484375,1.2229541015625005,1.280393938361549,1.67236328125,-0.00830078125,5.74072265625,46.83588235294118,335.3948701737331
-0.1529326171875,0.1240498046875,1.1794970703125005,1.1958219258395444,1.90576171875,1.4423828125,6.177734375,45.61235294117647,335.3948701737331
-0.0640654296875,0.1177021484375,1.0769580078125005,1.085263436046436,1.8642578125,2.173828125,6.76611328125,46.83588235294118,335.3948701737331
0.0716767578125,0.1050068359375,0.9221728515625,0.930895676949372,1.67822265625,1.92822265625,6.99267578125,46.13,335.8139461594397
0.1639619140625,0.1040302734375,0.7903369140625001,0.8138416582999147,1.17333984375,1.16845703125,6.13330078125,46.03588235294118,335.8139461594397
0.1683564453125,0.1084248046875,0.6951220703125001,0.7233909894277918,0.544921875,0.1064453125,5.1279296875,46.224117647058826,335.8139461594397
0.1097626953125,0.1006123046875,0.6799853515625001,0.6960968061098771,-0.05810546875,-0.5439453125,3.89697265625,46.08294117647059,335.8139461594397
0.0228486328125,0.1269794921875,0.7024462890625001,0.7141964999041043,-0.44140625,-0.390625,2.65478515625,46.13,335.8139461594397
-0.0181669921875,0.0952412109375,0.7141650390625001,0.7207167480259663,-0.70751953125,0.5830078125,1.55517578125,46.08294117647059,335.7491945261302
-0.0298857421875,0.0552021484375,0.6589892578125001,0.6619722627803095,-0.73583984375,1.9638671875,0.79638671875,45.65941176470588,335.7491945261302
0.0130830078125,0.0224873046875,0.5378955078125001,0.538524299628529,-0.47998046875,3.20703125,0.125,45.84764705882353,335.7491945261302
0.0892548828125,-0.0610087890625,0.3650439453125,0.3807172027346036,-0.3359375,3.4736328125,-0.06884765625,46.08294117647059,335.7491945261302
0.2093720703125,-0.0654033203125,0.2400439453125,0.3251697307807608,-0.080078125,3.080078125,-0.42138671875,46.03588235294118,335.71742047728884
0.3236298828125,-0.0473369140625,0.1541064453125,0.3615603420855882,-0.029296875,2.40283203125,-0.58837890625,46.03588235294118,335.71742047728884
0.4095673828125,0.0429951171875,0.0964892578125,0.4229706822453004,-0.06103515625,1.86767578125,-1.0751953125,46.08294117647059,335.71742047728884
0.4315400390625,0.0962177734375,0.0320361328125,0.443295588794784,-0.1962890625,1.70703125,-1.86181640625,46.13,335.71742047728884
0.4613251953125,0.1513935546875,0.0193408203125,0.485916671417429,-0.31591796875,2.1787109375,-2.73388671875,45.94176470588236,335.71742047728884
0.5482392578125,0.2011982421875,0.0466845703125,0.585855328192382,-0.486328125,2.75537109375,-3.5478515625,45.61235294117647,336.3699287721677
0.6278291015625,0.2363544921875,0.1472705078125,0.6868197938450367,-0.46826171875,3.32080078125,-4.41064453125,46.08294117647059,336.3699287721677
0.5184541015625,0.3188740234375,0.2659228515625,0.664221545294437,-0.458984375,3.3798828125,-4.7431640625,47.02411764705882,336.3699287721677
0.2870087890625,0.3364521484375,0.3684619140625,0.5756199052342903,-0.4560546875,2.8466796875,-4.31494140625,46.224117647058826,336.3699287721677
0.1117158203125,0.2719990234375,0.5857470703125001,0.6554109578262522,-0.44580078125,1.5166015625,-3.4794921875,46.27117647058824,336.30517503736104
0.1678681640625,0.2563740234375,0.9548876953125,1.002854860415237,-0.33984375,-0.611328125,-2.18115234375,46.03588235294118,336.30517503736104
0.4789033203125,0.3105732421875,1.5105517578125005,1.614797430639406,-0.08251953125,-4.51611328125,-1.7314453125,46.08294117647059,336.30517503736104
0.6927705078125,0.0517841796875,1.8733447265625005,1.9980072678296807,-0.056640625,-8.939453125,-1.66357421875,46.224117647058826,336.30517503736104
0.5667939453125,-0.3715556640625,2.3191455078125003,2.41614256084916,-0.6865234375,-10.54150390625,-1.30224609375,46.224117647058826,336.30517503736104
0.1361298828125,-0.3520244140625,2.4348681640625003,2.4639471401504704,-0.64208984375,-5.43603515625,0.2041015625,46.224117647058826,336.45426713396137
-0.0088896484375,0.0410419921875,2.3762744140625003,2.3766454430352333,-0.15771484375,2.890625,1.3525390625,46.83588235294118,336.45426713396137
0.0814423828125,0.0444599609375,2.1863330078125003,2.188301069527499,0.4033203125,7.40966796875,0.29150390625,46.36529411764706,336.45426713396137
-0.0845732421875,0.0669208984375,1.7361376953125005,1.739484158314409,0.5068359375,6.82421875,-0.80419921875,46.03588235294118,336.45426713396137
-0.1226591796875,0.0459248046875,1.6121142578125005,1.617425961918982,0.8642578125,5.873046875,-0.90185546875,45.61235294117647,336.3589363683758
-0.0879912109375,-0.0898173828125,1.4138720703125005,1.4194519529266534,0.404296875,5.09521484375,-0.67626953125,46.27117647058824,336.3589363683758
0.1722626953125,-0.1816142578125,1.1404345703125005,1.167582624057488,-0.2568359375,2.45361328125,-0.6875,46.13,336.3589363683758
0.2728486328125,-0.1459697265625,1.0398486328125005,1.084914151747689,-1.177734375,-0.70751953125,-0.62841796875,46.224117647058826,336.3589363683758
0.1571259765625,-0.0453837890625,1.0657275390625005,1.0782038064932815,-1.31298828125,-2.76171875,-0.36767578125,46.224117647058826,336.3589363683758
0.0111298828125,-0.0395244140625,0.9900439453125,0.990895083875354,-1.34716796875,-4.31396484375,-0.25439453125,45.61235294117647,336.1450934184502
-0.0069365234375,-0.0146220703124999,1.0652392578125005,1.0653621903759063,-1.72119140625,-5.580078125,-0.22216796875,46.64764705882353,336.1450934184502
-0.0665068359375,0.0454365234375,1.1663134765625005,1.1690914260654766,-1.68994140625,-5.54248046875,-0.296875,46.224117647058826,336.1450934184502
-0.1045927734375,0.0854755859375,1.1599658203125005,1.1678041052933317,-1.8828125,-4.4794921875,-0.591796875,46.788823529411765,336.1450934184502
-0.1514677734375,0.0722919921875,1.2039111328125005,1.2155536328087004,-1.869140625,-3.681640625,-0.56787109375,46.03588235294118,336.07054989072867
-0.1587919921875,0.0532490234375,1.2151416015625005,1.2266293112133757,-1.423828125,-2.775390625,-0.271484375,46.224117647058826,336.07054989072867
-0.0215849609375,-0.0107158203124999,1.1516650390625005,1.151917141786888,-1.01318359375,-1.88134765625,0.02587890625,46.13,336.07054989072867
-0.0381865234375,-0.0014384765624999,1.0266650390625005,1.0273759692635742,-0.6787109375,-1.2119140625,0.21240234375,45.7535294117647,336.07054989072867
0.0370087890625,0.0390888671875,0.9641650390625,0.9656665120818196,-0.10400390625,-0.8916015625,0.35595703125,46.03588235294118,336.07054989072867
0.0199189453125,0.0302998046875,0.8489306640625001,0.849704722201813,0.9013671875,-1.44873046875,0.859375,45.84764705882353,336.1133177840018
0.0614228515625,0.0215107421875,0.7566455078125001,0.7594392031073732,1.3974609375,-1.50634765625,1.5361328125,46.97705882352941,336.1133177840018
0.1004853515625,0.0542255859375,0.6926806640625001,0.7020286478591672,1.470703125,-0.44873046875,1.8720703125,46.224117647058826,336.1133177840018
0.1546845703125,0.1011005859375,0.6096728515625001,0.6370632862612778,1.4111328125,1.10302734375,1.74755859375,46.13,336.1133177840018
0.1815400390625,0.1225849609375,0.4919970703125,0.538558237915776,1.0634765625,2.1787109375,1.0380859375,46.13,336.2098465288602
0.1996064453125,0.1113544921875,0.3479541015625,0.4163107165745252,0.5966796875,2.212890625,0.5283203125,45.61235294117647,336.2098465288602
0.1937470703125,0.0859638671875,0.2410205078125,0.3209651054284598,0.3564453125,2.13037109375,0.7744140625,45.65941176470588,336.2098465288602
0.2748017578125,0.0464130859375,0.1643603515625,0.3235498505776664,0.296875,2.53662109375,1.154296875,46.03588235294118,336.2098465288602
0.3592744140625,-0.0624736328125,0.0745166015625,0.3722012671998419,0.341796875,2.7021484375,1.86572265625,46.03588235294118,336.2098465288602
0.4139619140625,-0.1640361328125,0.0095751953125,0.4453807399603639,0.484375,2.72802734375,2.55810546875,46.13,336.3821220974948
0.3612275390625,-0.2377666015625,0.0852587890625,0.4407803907935725,0.56982421875,2.07861328125,3.27978515625,46.97705882352941,336.3821220974948
0.2772431640625,-0.2797587890625,-0.1149365234374999,0.4102915506039596,0.40869140625,0.91943359375,3.4931640625,46.13,336.3821220974948
0.3001923828125,-0.3593486328125,-0.0905224609374999,0.4769079812050126,0.2158203125,-0.38134765625,3.15087890625,46.03588235294118,336.3821220974948
0.3250947265625,-0.4311259765625,0.1926806640625,0.5733079689043943,0.599609375,-1.994140625,3.28515625,46.224117647058826,336.4884444119695
0.3900361328125,-0.5312236328125,0.5535205078125001,0.8606460861044148,1.56201171875,-0.841796875,3.51806640625,46.08294117647059,336.4884444119695
0.2474580078125,-0.5942119140625,0.6448291015625001,0.9111135136009412,1.83349609375,0.4150390625,2.99951171875,45.84764705882353,336.4884444119695
-0.0279326171875,-0.3827861328125,0.8528369140625001,0.9352198974381054,1.7041015625,-1.12353515625,3.1513671875,46.03588235294118,336.4884444119695
0.0540986328125,-0.1166728515625,1.3220751953125005,1.3283154890403457,2.26318359375,-3.15576171875,1.71630859375,46.03588235294118,336.4884444119695
0.5687470703125,-0.2157939453125,1.9436572265625005,2.036625559888517,3.4853515625,-6.35107421875,-2.58056640625,46.03588235294118,336.15608585005987
0.6683564453125,-0.1708720703125,2.2327197265625003,2.336864347749986,2.10498046875,-11.16796875,-2.57861328125,46.13,336.15608585005987
0.5667939453125,0.3218037109375,2.7014697265625003,2.778983930926864,1.353515625,-6.87060546875,2.32470703125,46.224117647058826,336.15608585005987
0.6112275390625,0.7563740234375,2.3406298828125003,2.5346102296318245,1.234375,2.73095703125,5.55712890625,46.224117647058826,336.15608585005987
0.7059541015625,0.5342060546875,1.9529345703125005,2.1442249738074057,-0.86181640625,11.9609375,3.25537109375,46.224117647058826,335.9752247093147
0.7469697265625,0.2641865234375,1.8044970703125005,1.9707785183356463,-2.32470703125,10.57373046875,0.3515625,46.27117647058824,335.9752247093147
0.2498994140625,0.0825458984375,1.3284228515625005,1.3542417860378846,-2.16748046875,5.21923828125,-0.84619140625,46.27117647058824,335.9752247093147
0.0033173828125,0.0713154296875,1.0046923828125005,1.007225734193531,-2.234375,-0.98828125,0.5166015625,46.13,335.9752247093147
-0.0787138671875,0.1650654296875,1.0510791015625005,1.066869132886955,-2.32421875,-3.95556640625,1.6025390625,45.89470588235295,335.9752247093147
-0.1163115234375,0.2466083984375,1.2781298828125005,1.306889463574696,-1.86767578125,-3.904296875,1.39404296875,46.03588235294118,335.90068303733494
-0.1094755859375,0.2563740234375,1.4822314453125005,1.5082183533172755,-0.34228515625,-2.36279296875,0.9990234375,46.08294117647059,335.90068303733494
-0.1226591796875,0.1748310546875,1.4094775390625005,1.4255658894510754,0.95263671875,0.08447265625,0.92431640625,46.03588235294118,335.90068303733494
-0.0601591796875,0.1045185546875,1.2214892578125005,1.2274279050624397,1.70849609375,1.43896484375,1.67724609375,46.27117647058824,335.90068303733494
0.0492158203125,-0.0102275390624999,1.0139697265625005,1.0152149555190462,2.15869140625,1.01123046875,2.18408203125,46.83588235294118,335.2897648130476
0.1200166015625,-0.0863994140625,0.9197314453125,0.9315442957248868,2.0654296875,0.03955078125,2.15869140625,46.224117647058826,335.2897648130476
0.1346650390625,-0.1283916015625,0.8811572265625001,0.9005871051823946,1.4521484375,-0.255859375,2.14599609375,46.27117647058824,335.2897648130476
0.1942353515625,-0.1117900390625,0.8215869140625001,0.8516040406133271,0.83935546875,-0.87841796875,1.73779296875,45.84764705882353,335.2897648130476
0.1717744140625,-0.0810283203125,0.8464892578125001,0.8675344959199821,0.34619140625,-2.8974609375,1.37890625,46.03588235294118,335.2897648130476
0.1141572265625,-0.0590556640625,0.9138720703125,0.9228659733306672,0.04443359375,-3.2568359375,1.2470703125,46.08294117647059,335.31295569611984
0.0931611328125,-0.0375712890625,0.9382861328125,0.943647956314728,-0.25146484375,-2.60009765625,1.3515625,46.83588235294118,335.31295569611984
0.0399384765625,0.0293232421875,0.8704150390625001,0.8718241076436769,-0.63720703125,-2.56787109375,1.2265625,45.61235294117647,335.31295569611984
0.0165009765625,0.0698505859375,0.8357470703125001,0.838823314005551,-0.8095703125,-2.72802734375,0.9296875,46.13,335.31295569611984
-0.0176787109375,0.0805927734375,0.7878955078125001,0.7922039277748358,-0.62548828125,-2.4794921875,0.60888671875,46.08294117647059,335.76259446528195
-0.0503935546875,0.0591083984375,0.7024462890625001,0.70672774258378,-0.62158203125,-1.759765625,0.357421875,46.13,335.76259446528195
-0.1021513671875,0.0454365234375,0.5759814453125001,0.5867316293030729,-0.15576171875,-0.7802734375,0.388671875,46.08294117647059,335.76259446528195
-0.0762724609375,0.0185810546875,0.4089892578125,0.4164552279618806,0.30517578125,-0.2099609375,0.40673828125,46.27117647058824,335.76259446528195
-0.1211943359375,-0.0121806640624999,0.2786181640625,0.3040797872037753,0.5224609375,0.9404296875,0.28759765625,46.08294117647059,335.76259446528195
0.1883759765625,-0.0033916015624999,0.1790087890625,0.2598868178047069,0.6904296875,2.15380859375,-0.18212890625,46.224117647058826,336.1353027000675
0.3426728515625,-0.0048564453124999,0.0271533203125,0.3437812837590809,0.55908203125,3.39599609375,-1.07421875,46.08294117647059,336.1353027000675
0.4842744140625,0.0302998046875,-0.1427685546874999,0.5057891324329102,-0.04296875,3.837890625,-2.25927734375,46.13,336.1353027000675
0.5047822265625,0.0727802734375,-0.2555615234374999,0.5704504857713141,-0.85888671875,3.14599609375,-3.7197265625,45.94176470588236,336.1353027000675
0.4818330078125,0.1181904296875,-0.2858349609374999,0.5725675942467393,-1.4765625,1.951171875,-4.48681640625,46.97705882352941,336.6901017282284
0.5345673828125,0.1709248046875,-0.1764599609374999,0.5883159809477642,-1.63671875,0.82666015625,-4.77685546875,45.94176470588236,336.6901017282284
0.6629853515625,0.2368427734375,0.0183642578125,0.7042594136261315,-1.51123046875,0.34765625,-5.083984375,46.27117647058824,336.6901017282284
0.5682587890625,0.3076435546875,0.1951220703125,0.6750075780393698,-1.3681640625,0.33935546875,-5.10888671875,46.13,336.6901017282284
0.2982392578125,0.3720966796875,0.4260791015625,0.639488854260432,-1.22509765625,-0.20751953125,-4.640625,45.61235294117647,336.6901017282284
0.1473603515625,0.4258076171875,0.7893603515625001,0.9089097670761348,-1.1240234375,-1.51953125,-4.130859375,45.94176470588236,336.7988264719681
0.2865205078125,0.4394794921875,1.5037158203125005,1.5926071372779325,-0.30517578125,-4.44921875,-4.57861328125,47.02411764705882,336.7988264719681
0.5150361328125,0.4560810546875,2.6458056640625003,2.7337812199465645,1.21826171875,-11.98876953125,-3.748046875,46.08294117647059,336.7988264719681
0.6707978515625,-0.2607158203125,3.0857470703125003,3.1685607897852086,3.77294921875,16.0,-2.615234375,46.224117647058826,336.7988264719681
0.3797822265625,-0.8197978515625,2.6008837890625003,2.75334333878784,3.1650390625,-7.76416015625,0.98974609375,46.224117647058826,336.17807075499843
0.5736298828125,-0.2900126953125,2.5676806640625003,2.6469118985146345,0.9140625,6.53125,2.470703125,46.08294117647059,336.17807075499843
0.6712861328125,0.1108662109375,2.4006884765625003,2.4952397781243345,0.84814453125,15.32666015625,1.13330078125,45.94176470588236,336.17807075499843
0.5819306640625,0.1802021484375,1.9802783203125005,2.0718634940500813,0.39453125,15.99951171875,-1.4453125,46.788823529411765,336.17807075499843
0.1082978515625,0.1513935546875,1.3626025390625005,1.3752578349217075,0.1640625,12.4541015625,-4.017578125,46.03588235294118,336.17807075499843
0.0672822265625,0.0083271484375,1.2585986328125005,1.2604232455527795,-0.12255859375,4.501953125,-3.40576171875,46.27117647058824,336.43348237913307
-0.1294951171875,-0.1440166015625,1.2161181640625005,1.231443525243347,-0.53369140625,0.58544921875,-1.8046875,45.70647058823529,336.43348237913307
-0.1421904296875,-0.1235087890625,1.2976611328125005,1.311257775909307,-1.2470703125,0.322265625,-1.10546875,45.89470588235295,336.43348237913307
0.0047822265625,0.0288349609375,1.2991259765625005,1.2994547424372394,-1.9404296875,1.19091796875,-1.9345703125,47.02411764705882,336.43348237913307
0.0960908203125,0.1611591796875,1.2224658203125005,1.2367814717152708,-2.8251953125,1.61767578125,-3.97021484375,46.08294117647059,336.1231085969304
0.1571259765625,0.1816669921875,1.1057666015625005,1.1315525819387509,-3.41552734375,2.263671875,-6.05078125,46.13,336.1231085969304
0.0956025390625,0.1440693359375,1.0476611328125005,1.0618331640322034,-3.80810546875,3.0732421875,-6.86376953125,46.224117647058826,336.1231085969304
0.1302705078125,0.1001240234375,1.0066455078125005,1.0199658835834295,-3.5419921875,2.751953125,-6.28271484375,45.61235294117647,336.1231085969304
0.0746064453125,0.0512958984375,0.9050830078125,0.909600264901896,-2.9443359375,1.66357421875,-4.642578125,46.224117647058826,336.1231085969304
0.0540986328125,-0.0136455078124999,0.8928759765625001,0.8946174442062266,-1.9638671875,-0.1240234375,-3.0986328125,45.7535294117647,336.07054989072867
0.0345673828125,0.0127216796875,0.9143603515625,0.9151019602197756,-0.77294921875,-1.39111328125,-2.20751953125,46.224117647058826,336.07054989072867
0.0511689453125,0.0112568359375,0.9011767578125,0.9026984691142258,0.27734375,-2.2119140625,-2.08642578125,46.224117647058826,336.07054989072867
0.0169892578125,0.0610615234375,0.9168017578125,0.9189899932282276,1.0185546875,-1.982421875,-2.28564453125,46.27117647058824,336.07054989072867
-0.0562529296875,0.0693623046875,0.8577197265625001,0.862356452254193,1.541015625,-0.82080078125,-1.89794921875,46.08294117647059,335.70642800394023
-0.0655302734375,0.2075458984375,0.7976611328125001,0.8268208992851738,1.48583984375,1.140625,-1.45068359375,46.03588235294118,335.70642800394023
-0.0210966796875,0.0429951171875,0.5994189453125001,0.6013291295084197,1.49462890625,2.9013671875,-1.29638671875,46.08294117647059,335.70642800394023
0.0873017578125,0.0136982421875,0.4436572265625,0.4523726046494298,1.25048828125,2.912109375,-1.1376953125,46.08294117647059,335.70642800394023
0.0077119140625,0.0268818359375,0.2776416015625,0.2790465295252174,0.8759765625,2.30224609375,-0.90966796875,46.03588235294118,335.70642800394023
0.2259736328125,0.0351826171875,0.2278369140625,0.3228181511132293,0.53173828125,1.443359375,-0.47998046875,46.224117647058826,335.78337560937086
0.1107392578125,0.0185810546875,0.1399462890625,0.179425200672949,-0.015625,1.123046875,-0.2265625,46.69470588235294,335.78337560937086
0.1624970703125,-0.0414775390625,0.0935595703125,0.1920392597983194,-0.166015625,1.56640625,0.02978515625,46.224117647058826,335.78337560937086
0.2621064453125,-0.1298564453125,0.0452197265625,0.2959853184432298,-0.04296875,2.31640625,0.408203125,46.83588235294118,335.78337560937086
0.3319306640625,-0.2294658203125,-0.0285107421874999,0.4045310752670836,0.04541015625,2.98779296875,0.697265625,46.08294117647059,336.12431023508634
0.3744111328125,-0.3197978515625,-0.1598583984374999,0.5176959240605752,-0.107421875,2.421875,0.76611328125,46.224117647058826,336.12431023508634
0.3719697265625,-0.3822978515625,-0.2169873046874999,0.5758442629598998,-0.41943359375,0.99755859375,0.53857421875,46.27117647058824,336.12431023508634
0.3602509765625,-0.4462626953125,-0.1647412109374999,0.5967167049136182,-0.51806640625,-1.02978515625,0.56298828125,45.94176470588236,336.12431023508634
0.4330048828125,-0.5282939453125,0.0085986328125,0.6831263848509715,-0.06298828125,-2.7919921875,1.0458984375,46.64764705882353,336.12431023508634
0.4715791015625,-0.5448955078125,0.2595751953125,0.76594859193438,0.6494140625,-4.02685546875,2.17138671875,46.03588235294118,336.25381642769514
0.2093720703125,-0.4589580078125,0.5437548828125001,0.7417199534491417,1.2041015625,-3.78369140625,3.36767578125,46.224117647058826,336.25381642769514
-0.1158232421875,-0.3827861328125,0.7507861328125001,0.8506586060976061,1.60009765625,-2.8759765625,4.2548828125,46.03588235294118,336.25381642769514
-0.0269560546875,-0.1918681640625,0.9812548828125,1.0002005630414348,1.97509765625,-4.74853515625,4.646484375,46.13,336.25381642769514
0.4300751953125,-0.0209697265625,1.6648486328125005,1.7196294290436072,2.67041015625,-8.87060546875,2.57373046875,46.08294117647059,336.10232534682365
0.7708955078125,0.0654560546875,2.2654345703125003,2.3939002008078214,3.01220703125,-14.62744140625,1.55517578125,46.27117647058824,336.10232534682365
0.8368134765625,0.2197529296875,2.4265673828125003,2.576194365336661,1.63330078125,16.0,3.17431640625,46.64764705882353,336.10232534682365
0.6996064453125,0.7007099609375,2.5945361328125003,2.7770598430983564,0.28125,-7.640625,3.6455078125,45.84764705882353,336.10232534682365
0.6444306640625,0.3955341796875,2.5808642578125003,2.6893490820901564,-0.5390625,3.908203125,1.9638671875,45.89470588235295,336.10232534682365
0.4940400390625,-0.0165751953125,2.2971728515625003,2.3497560314322663,-1.013671875,12.1572265625,0.78076171875,45.94176470588236,336.2428239321366
0.2621064453125,-0.1977275390625,1.7932666015625005,1.8230746207047,-1.80615234375,15.99951171875,0.31787109375,46.27117647058824,336.2428239321366
0.1205048828125,-0.1928447265625,1.4168017578125005,1.43493474983541,-2.859375,15.99951171875,0.9326171875,46.03588235294118,336.2428239321366
0.3290009765625,-0.0766337890625,1.0701220703125005,1.1221745076301932,-2.94677734375,5.9189453125,1.9853515625,46.08294117647059,336.2428239321366
0.1317353515625,0.0498310546875,1.0906298828125005,1.099686718182125,-2.02001953125,-1.712890625,2.68408203125,46.08294117647059,335.8774951293357
-0.2071318359375,0.0713154296875,1.4871142578125005,1.5031627668883951,-0.5810546875,-3.0517578125,3.15625,45.70647058823529,335.8774951293357
-0.4024443359375,0.1128193359375,1.7390673828125005,1.788587433717422,0.97021484375,-1.82470703125,3.9189453125,46.27117647058824,335.8774951293357
-0.4068388671875,0.0556904296875,1.7502978515625005,1.7978214196625566,1.9013671875,1.05810546875,4.4609375,45.94176470588236,335.8774951293357
-0.2911162109375,-0.0175517578125,1.5994189453125005,1.6257913996258764,2.326171875,3.2001953125,4.5732421875,45.89470588235295,335.8774951293357
-0.2364287109375,-0.0536845703125,1.4133837890625005,1.4340273022609702,2.4521484375,3.96337890625,4.6943359375,45.89470588235295,335.4522425781793
-0.2232451171875,0.0024677734375,1.3127978515625005,1.3316466015129225,2.56201171875,3.93701171875,5.26416015625,46.08294117647059,335.4522425781793
-0.1495146484375,0.0307880859375,1.1433642578125005,1.153509584865342,2.95166015625,3.412109375,6.0576171875,46.03588235294118,335.4522425781793
-0.0225615234375,0.0454365234375,0.9128955078125,0.9143039473753516,2.828125,2.2685546875,6.59521484375,46.97705882352941,335.4522425781793
0.2162080078125,0.1333271484375,0.7146533203125001,0.7584532941364327,2.20068359375,0.0087890625,6.17822265625,46.13,335.3764998348174
0.3646455078125,0.1679951171875,0.5745166015625001,0.7008980177155606,0.78369140625,-2.63525390625,4.61083984375,46.13,335.3764998348174
0.2264619140625,0.1977802734375,0.6213916015625001,0.6903112034251452,-0.43701171875,-3.95068359375,2.26171875,46.224117647058826,335.3764998348174
0.0428681640625,0.2358662109375,0.6960986328125001,0.7362226942682047,-0.8388671875,-3.4560546875,0.74267578125,46.27117647058824,335.3764998348174
-0.0284208984375,0.2270771484375,0.7166064453125001,0.7522609761737733,-1.15087890625,-2.03857421875,-0.126953125,46.08294117647059,335.3764998348174
-0.0284208984375,0.2016865234375,0.6506884765625001,0.6818216003732407,-1.24658203125,-0.8720703125,-0.41748046875,45.89470588235295,335.506000297279
0.0374970703125,0.1328388671875,0.4905322265625,0.5095822408738777,-0.58544921875,-0.04345703125,-0.6025390625,46.03588235294118,335.506000297279
0.0912080078125,0.0942646484375,0.3279345703125,0.3531937245198654,-0.1142578125,0.2939453125,-0.5244140625,46.03588235294118,335.506000297279
0.2274384765625,0.0493427734375,0.1731494140625,0.2900753169467585,0.4345703125,1.15673828125,-0.47119140625,46.08294117647059,335.506000297279
0.4217744140625,0.0488544921875,-0.0597607421874999,0.4287793885804966,0.62353515625,2.18115234375,-1.1318359375,46.13,335.4400447646558
0.4129853515625,0.0224873046875,-0.2716748046874999,0.4948431862512622,0.12646484375,1.63427734375,-2.841796875,46.08294117647059,335.4400447646558
0.4691376953125,0.0469013671875,-0.3991162109374999,0.6177245868834167,-0.76806640625,1.2705078125,-4.30810546875,45.89470588235295,335.4400447646558
0.4789033203125,0.1264912109375,-0.4396435546874999,0.662295154616907,-1.47900390625,0.4365234375,-4.87890625,46.03588235294118,335.4400447646558
0.4823212890625,0.1020771484375,-0.3952099609374999,0.6318579613649442,-1.78173828125,-0.6474609375,-5.07421875,45.61235294117647,335.4400447646558
0.5741181640625,0.2925068359375,-0.1461865234374999,0.6607135650275435,-1.4287109375,-2.27001953125,-4.697265625,46.08294117647059,336.15608585005987
0.6073212890625,0.3237568359375,0.1238330078125,0.6992798086522224,-0.9033203125,-3.3388671875,-3.81494140625,46.36529411764706,336.15608585005987
0.3700166015625,0.3471943359375,0.3513720703125,0.6171859720818644,-0.52197265625,-3.103515625,-2.76513671875,46.08294117647059,336.15608585005987
0.4154267578125,0.2890888671875,0.6379931640625001,0.814362966759195,-0.43310546875,-2.97509765625,-2.7509765625,46.08294117647059,336.15608585005987
0.4730439453125,0.2041279296875,1.1951220703125005,1.3014436402792695,-0.48828125,-4.02392578125,-3.5205078125,46.08294117647059,336.35154747005663
0.6556611328125,0.1958271484375,1.7390673828125005,1.8688486174937904,-1.2783203125,-7.4697265625,-3.62939453125,46.88294117647059,336.35154747005663
0.8382783203125,0.0503193359375,2.5198291015625003,2.6560838237820006,-1.38818359375,-12.7041015625,-3.8837890625,46.08294117647059,336.35154747005663
0.7933564453125,-0.3090556640625,2.8474658203125003,2.972034900645673,-1.4404296875,-12.376953125,-2.8896484375,46.224117647058826,336.35154747005663
0.5121064453125,-0.3544658203125,2.8694384765625003,2.9362520668154057,-1.34716796875,-4.84619140625,-1.1376953125,46.13,336.35154747005663
0.3553681640625,-0.0683330078125,2.6282275390625003,2.6530239216924487,-1.10888671875,6.46728515625,-2.05419921875,46.03588235294118,336.0607595985749
0.2396455078125,0.1972919921875,2.3049853515625003,2.3257926757373983,-0.111328125,14.3818359375,-4.67041015625,46.03588235294118,336.0607595985749
0.1258759765625,0.2124287109375,1.7810595703125005,1.7980945224620086,0.43212890625,11.42626953125,-6.9560546875,46.03588235294118,336.0607595985749
0.2123017578125,0.0766865234375,1.5056689453125005,1.5224952650585368,0.15087890625,3.7626953125,-5.71533203125,46.224117647058826,336.0607595985749
0.1537080078125,-0.0492900390625,1.5022509765625005,1.510898294459113,0.251953125,-0.701171875,-3.8701171875,45.70647058823529,336.08154234737185
0.1424775390625,-0.0761455078125,1.6238330078125005,1.6318491427698585,0.564453125,-2.2578125,-2.912109375,46.03588235294118,336.08154234737185
0.0824189453125,-0.0981181640625,1.5793994140625005,1.5845890842128092,-0.28955078125,-1.94482421875,-3.0380859375,46.27117647058824,336.08154234737185
0.0287080078125,-0.0195048828125,1.5784228515625005,1.5788043857618292,-1.64794921875,-0.96337890625,-3.5478515625,45.84764705882353,336.08154234737185
0.0194306640625,0.0752216796875,1.4817431640625005,1.4837785063973896,-2.388671875,0.03857421875,-4.474609375,46.08294117647059,336.08154234737185
-0.0044951171875,0.1479755859375,1.3879931640625005,1.3958660407060222,-2.54541015625,0.9970703125,-5.40234375,46.08294117647059,335.6428804607236
-0.0328154296875,0.1303974609375,1.1951220703125005,1.2026625100968928,-2.4892578125,2.052734375,-5.9033203125,46.224117647058826,335.6428804607236
-0.0005888671874999,0.0547138671875,1.0544970703125005,1.0559157283253346,-2.716796875,2.27685546875,-5.52587890625,46.27117647058824,335.6428804607236
-0.0079130859375,0.0410419921875,0.9710009765625,0.9719001793070634,-2.3466796875,1.4365234375,-4.9521484375,46.224117647058826,335.6428804607236
0.1732392578125,0.0356708984375,0.9055712890625,0.922682834465388,-1.626953125,0.2578125,-4.2822265625,46.27117647058824,335.7735870693273
0.1986298828125,0.0278583984375,0.8464892578125001,0.8699275741701531,-0.6064453125,-1.16552734375,-3.669921875,46.03588235294118,335.7735870693273
0.1180634765625,0.0156513671875,0.7752001953125001,0.7842954115672233,0.31103515625,-2.18408203125,-3.03271484375,46.224117647058826,335.7735870693273
0.0584931640625,0.0161396484375,0.7004931640625001,0.70311635693676,0.96728515625,-2.494140625,-2.40283203125,46.224117647058826,335.7735870693273
-0.0044951171875,-0.0131572265624999,0.6438525390625001,0.6440026480897221,1.24560546875,-2.00927734375,-1.66455078125,46.27117647058824,335.7735870693273
-0.0113310546875,-0.0175517578125,0.5857470703125001,0.5861195162953684,0.994140625,-0.77001953125,-1.2607421875,45.61235294117647,335.71862418813544
-0.0225615234375,2.6367187500001e-05,0.4929736328125,0.4934896409078949,0.74462890625,0.39208984375,-1.25146484375,46.08294117647059,335.71862418813544
0.0091767578125,0.0019794921875,0.3572314453125,0.3573547772079273,0.31591796875,0.63134765625,-1.388671875,46.27117647058824,335.71862418813544
0.0204072265625,0.0019794921875,0.2522509765625,0.2530828490080443,-0.14892578125,0.5859375,-1.126953125,46.03588235294118,335.71862418813544
0.0892548828125,-0.0292705078125,0.1575244140625,0.183404301365068,-0.50341796875,0.96240234375,-0.75439453125,46.03588235294118,335.9018864689759
0.1830048828125,-0.0932353515625,0.0769580078125,0.2193311489065532,-0.56787109375,1.60546875,-0.15380859375,46.97705882352941,335.9018864689759
0.2748017578125,-0.1767314453125,0.0071337890625,0.3268040709744499,-0.2958984375,2.3935546875,0.3935546875,45.89470588235295,335.9018864689759
0.3465791015625,-0.2734111328125,-0.0900341796874999,0.4505295491948172,0.14599609375,3.05517578125,1.07177734375,45.61235294117647,335.9018864689759
0.3758759765625,-0.3754619140625,-0.1813427734374999,0.5613729599350984,0.52490234375,2.5361328125,1.68310546875,45.89470588235295,335.9018864689759
0.3485322265625,-0.4242900390625,-0.2160107421874999,0.5900486343859006,0.6923828125,1.109375,1.916015625,45.65941176470588,336.0399771004182
0.3128876953125,-0.4511455078125,-0.1603466796874999,0.5719633176910667,0.806640625,-0.73193359375,2.00830078125,46.03588235294118,336.0399771004182
0.3441376953125,-0.4653056640625,0.0769580078125,0.5838344365572419,1.24072265625,-2.1201171875,2.79541015625,45.89470588235295,336.0399771004182
0.3285126953125,-0.4399150390625,0.3567431640625,0.6547606567900733,2.0087890625,-1.13330078125,3.78076171875,46.13,336.0399771004182
0.2601533203125,-0.4657939453125,0.4631884765625,0.706531891976358,2.1337890625,0.3154296875,3.56201171875,46.03588235294118,336.22083898271427
0.1771455078125,-0.2475322265625,0.6541064453125001,0.7214623870476492,1.76611328125,0.328125,3.634765625,46.08294117647059,336.22083898271427
0.5189423828125,-0.0224345703125,1.1614306640625005,1.272291512998842,2.30712890625,-1.96337890625,2.8984375,46.97705882352941,336.22083898271427
1.1024384765625,-0.0702861328125,2.1199267578125003,2.390481163607152,3.5166015625,-9.64697265625,1.37939453125,46.08294117647059,336.22083898271427
1.3866181640625,-0.1977275390625,2.5100634765625003,2.87440859464774,1.77197265625,16.0,1.22314453125,45.80058823529412,336.22083898271427
0.7303681640625,0.1811787109375,2.5535205078125003,2.66209135158657,-0.45703125,-11.29296875,1.29638671875,46.08294117647059,335.6660697836208
0.4271455078125,0.3344990234375,2.4670947265625003,2.526044194260571,-1.65673828125,5.89453125,1.00341796875,46.08294117647059,335.6660697836208
0.6039033203125,0.1845966796875,2.3538134765625003,2.437050068604122,-2.7373046875,14.64990234375,2.1943359375,46.224117647058826,335.6660697836208
0.5824189453125,0.1147724609375,1.8992236328125005,1.9898328957684075,-1.875,15.30517578125,4.044921875,46.224117647058826,335.6660697836208
0.3631806640625,0.0244404296875,1.2293017578125005,1.2820609740231124,-0.30419921875,6.26611328125,4.3486328125,46.224117647058826,336.27580146053634
0.4603486328125,-0.0155986328124999,1.1707080078125005,1.2580625662638047,-0.12744140625,-2.517578125,3.806640625,46.13,336.27580146053634
0.1820283203125,-0.0741923828125,1.3259814453125005,1.34047216023915,-0.2451171875,-5.4794921875,3.3994140625,46.83588235294118,336.27580146053634
0.0013642578125,-0.0243876953125,1.5920947265625005,1.5922820853197328,0.19677734375,-4.341796875,4.56396484375,45.61235294117647,336.27580146053634
-0.0079130859375,0.0068623046875,1.7629931640625005,1.7630242779626673,1.2861328125,-2.3125,5.9384765625,46.13,336.27580146053634
-0.0162138671875,-0.0322001953125,1.7239306640625005,1.7243075933725718,2.19482421875,-0.47412109375,6.33740234375,46.13,335.8896905111646
0.0243134765625,0.1006123046875,1.5476611328125005,1.5511186166813795,2.48193359375,1.04931640625,5.30224609375,46.03588235294118,335.8896905111646
-0.0474638671875,0.1186787109375,1.3987353515625005,1.4045632911438526,2.2041015625,2.48876953125,4.4130859375,45.7535294117647,335.8896905111646
-0.0694365234375,0.1196552734375,1.2795947265625005,1.2870514673062028,1.943359375,3.89453125,4.49267578125,46.27117647058824,335.8896905111646
0.0125947265625,0.1645771484375,1.1834033203125005,1.194858855033369,2.14501953125,4.77001953125,4.84765625,46.03588235294118,335.3752945638204
0.1156220703125,0.1875263671875,1.0447314453125005,1.067707073292406,2.09912109375,4.6025390625,5.00390625,45.84764705882353,335.3752945638204
0.1527314453125,0.1875263671875,0.9324267578125,0.963282249116279,2.34130859375,4.3798828125,5.630859375,46.03588235294118,335.3752945638204
0.2889619140625,0.1831318359375,0.7937548828125001,0.8643396734508886,2.09619140625,3.84765625,6.0478515625,46.224117647058826,335.3752945638204
0.4447236328125,0.1885029296875,0.7029345703125001,0.8528947615169981,1.4423828125,2.1123046875,5.37548828125,45.61235294117647,335.3752945638204
0.3841767578125,0.2002216796875,0.6335986328125001,0.7675465652076605,0.70068359375,0.32958984375,4.3505859375,46.03588235294118,335.3886981996539
0.2918916015625,0.2080341796875,0.6140673828125001,0.7110257925104868,0.08935546875,-0.1044921875,2.9091796875,46.224117647058826,335.3886981996539
0.1029267578125,0.1982685546875,0.6057666015625001,0.6456450362391427,-0.17333984375,0.677734375,1.81494140625,45.94176470588236,335.3886981996539
0.0121064453125,0.1738544921875,0.5540087890625001,0.5807733540981161,-0.14892578125,1.9453125,1.2392578125,46.224117647058826,335.3886981996539
0.0018525390625,0.1299091796875,0.4534228515625,0.4716694914737715,0.1591796875,2.80908203125,1.1669921875,45.80058823529412,335.8689087486263
0.0863251953125,0.0683857421875,0.2869189453125,0.3073290260608553,0.6142578125,3.10888671875,1.3037109375,46.03588235294118,335.8689087486263
0.2567353515625,0.0102802734375,0.2112353515625,0.3326245608995271,0.86181640625,2.86328125,1.17529296875,46.08294117647059,335.8689087486263
0.4105439453125,0.0088154296875,-0.0573193359374999,0.4146197644898808,0.88037109375,2.48828125,0.4716796875,45.89470588235295,335.8689087486263
0.5111298828125,0.0444599609375,-0.2233349609374999,0.5595613907404966,0.94091796875,1.84375,-0.8232421875,46.13,335.8689087486263
0.4867158203125,0.0556904296875,-0.3649365234374999,0.6108783674676139,0.6201171875,0.86767578125,-2.14111328125,46.224117647058826,335.91287907023207
0.4598603515625,0.0766865234375,-0.4293896484374999,0.6338200343957235,-0.0419921875,-0.3310546875,-3.197265625,46.03588235294118,335.91287907023207
0.5101533203125,0.1460224609375,-0.4103466796874999,0.6707930879598176,-0.32421875,-1.83447265625,-3.7119140625,46.27117647058824,335.91287907023207
0.6654267578125,0.1919208984375,-0.3141552734374999,0.7604734953293922,-0.44287109375,-4.7255859375,-3.93115234375,46.08294117647059,335.91287907023207
0.8651337890625,0.1797138671875,0.0388720703125,0.8844572261491817,-0.56396484375,-7.14404296875,-3.88134765625,46.03588235294118,336.2012577819349
0.4696259765625,0.2207294921875,0.4304736328125,0.674223712969534,-1.01220703125,-6.1767578125,-3.55712890625,46.03588235294118,336.2012577819349
0.2196259765625,0.2920185546875,0.7644580078125001,0.8472936041133938,-1.22607421875,-2.81201171875,-3.74169921875,46.08294117647059,336.2012577819349
0.0116181640625,0.2627216796875,1.1663134765625005,1.1955939061091396,-1.10595703125,-0.71240234375,-3.818359375,46.03588235294118,336.2012577819349
0.0331025390625,0.1528583984375,1.7551806640625005,1.7621352478070862,-0.2314453125,-1.455078125,-2.984375,46.08294117647059,336.2012577819349
0.3485322265625,0.0688740234375,2.3728564453125003,2.3993053274058638,0.29833984375,-5.2783203125,-0.7880859375,45.94176470588236,336.08274462031363
1.0091767578125,-0.1967509765625,2.8855517578125003,3.0632593135910087,0.494140625,-13.1240234375,-1.1591796875,46.13,336.08274462031363
1.0135712890625,-0.7006572265625,2.6326220703125003,2.906707118414676,-0.36376953125,-12.587890625,-2.87255859375,46.36529411764706,336.08274462031363
1.1624970703125,-0.7612041015625,2.5085986328125003,2.8677339875360586,-0.05810546875,-3.72509765625,-4.7041015625,46.224117647058826,336.08274462031363
0.6112275390625,-0.4687236328125,2.2615283203125003,2.389102612287892,0.73291015625,7.4404296875,-3.9140625,46.224117647058826,336.1157222571952
0.3499970703125,-0.3481181640625,1.9646533203125005,2.025721321996812,0.3896484375,13.0498046875,-2.0244140625,46.03588235294118,336.1157222571952
0.3929658203125,-0.1503642578125,1.6589892578125005,1.7115130450857363,-0.28125,12.814453125,-0.9619140625,46.03588235294118,336.1157222571952
0.3397431640625,0.1489521484375,1.3782275390625005,1.4272782873292866,-0.4052734375,5.50634765625,-0.572265625,45.94176470588236,336.1157222571952
0.2166962890625,0.2031513671875,1.3367236328125005,1.3693275102045737,-0.11181640625,0.25146484375,-0.4658203125,46.08294117647059,336.1157222571952
-0.0459990234375,0.1069599609375,1.4002001953125005,1.4050327150476316,-0.4404296875,-0.61767578125,-0.0771484375,46.224117647058826,335.88110505720203
-0.1573271484375,0.0693623046875,1.4841845703125005,1.4941107053029028,-0.48046875,1.25048828125,-0.06640625,46.64764705882353,335.88110505720203
-0.1514677734375,0.0469013671875,1.3962939453125005,1.405268304043935,-0.5263671875,4.07421875,-0.71875,45.94176470588236,335.88110505720203
-0.1070341796875,0.0249287109375,1.2761767578125005,1.2809000247604052,-0.615234375,5.72216796875,-1.37255859375,46.03588235294118,335.88110505720203
-0.1275419921875,0.0005146484375,1.1497119140625005,1.1567647599972213,-0.77685546875,5.97900390625,-1.31494140625,45.94176470588236,335.55614453558275
-0.1280302734375,-0.0131572265624999,1.0149462890625005,1.0230742070881458,-0.81103515625,5.4619140625,-0.96044921875,46.03588235294118,335.55614453558275
0.1273408203125,-0.0405009765625,0.9397509765625,0.9492038303602388,-1.16455078125,5.11962890625,-1.67626953125,46.08294117647059,335.55614453558275
0.9779267578125,0.0244404296875,0.3401416015625,1.035680639658037,-3.5751953125,4.65380859375,-8.693359375,46.224117647058826,335.55614453558275
-0.1304716796875,0.2173115234375,0.7156298828125001,0.759192522746001,-3.9970703125,2.22119140625,-8.7275390625,46.224117647058826,335.55614453558275
-0.3516630859375,0.1943623046875,0.8611376953125001,0.95026404845319,-1.56298828125,1.91650390625,-5.73828125,46.08294117647059,335.5487655600405
-0.5621123046875,0.0200458984375,0.7302783203125001,0.92178007477039,0.66259765625,2.34912109375,-1.32177734375,46.13,335.5487655600405
-0.4073271484375,-0.0571025390625,0.6575244140625001,0.7755736334545184,1.61279296875,2.75927734375,1.89697265625,46.03588235294118,335.5487655600405
-0.2022490234375,-0.0282939453125,0.6028369140625001,0.6364884600518436,2.0869140625,2.74462890625,3.76318359375,45.65941176470588,335.5487655600405
-0.5938505859375,-0.0859111328125,0.5901416015625001,0.8416093815150777,3.42626953125,1.8916015625,8.470703125,45.94176470588236,335.5793337087019
0.1185517578125,0.0088154296875,0.3621142578125,0.381128543659625,3.60400390625,2.0029296875,8.1875,46.08294117647059,335.5793337087019
0.6205048828125,0.2978779296875,0.2019580078125,0.7173176475653302,2.3037109375,2.15380859375,2.6025390625,46.03588235294118,335.5793337087019
0.4139619140625,0.3882099609375,0.2068408203125,0.6040319238359276,0.84423828125,1.53662109375,-1.42431640625,45.94176470588236,335.5793337087019
0.1283173828125,0.2944599609375,0.2415087890625,0.4018687777392004,0.38720703125,1.228515625,-1.9208984375,46.08294117647059,335.5793337087019
0.0511689453125,0.1606708984375,0.2444384765625,0.2969571810771764,0.220703125,1.3466796875,-0.2890625,46.224117647058826,335.5573486479642
0.1834931640625,0.0683857421875,0.2654345703125,0.3298512727111785,0.31494140625,1.939453125,0.88037109375,46.13,335.5573486479642
0.3197236328125,0.0195576171875,0.2493212890625,0.4059147779382537,0.2890625,2.2666015625,1.40625,46.224117647058826,335.5573486479642
0.3460908203125,-0.0058330078124999,0.1516650390625,0.3779089360660178,0.35107421875,2.134765625,0.91845703125,46.27117647058824,335.5573486479642
0.2845673828125,-0.0737041015625,0.0769580078125,0.3038641553628201,0.22265625,1.75048828125,0.06494140625,46.03588235294118,335.59032625993035
0.2323212890625,-0.1947978515625,0.0247119140625,0.3041875458030125,-0.05126953125,0.95361328125,-0.5712890625,45.84764705882353,335.59032625993035
0.2811494140625,-0.3320048828125,0.1033251953125,0.4471558243223442,-0.1513671875,0.0185546875,-0.5947265625,45.7535294117647,335.59032625993035
0.3539033203125,-0.4037822265625,0.3875048828125,0.6621538196065258,0.25830078125,-1.37109375,-0.068359375,45.89470588235295,335.59032625993035
0.2669892578125,-0.3578837890625,0.6399462890625001,0.780317450237957,0.76513671875,-2.57666015625,0.1904296875,46.03588235294118,335.59032625993035
0.2279267578125,-0.2094462890625,0.9246142578125,0.97505378348024,0.86865234375,-4.84130859375,-0.17529296875,45.94176470588236,336.0949399258958
0.5086884765625,-0.0571025390625,1.4002001953125005,1.490833744288083,1.529296875,-9.39599609375,-1.42236328125,46.27117647058824,336.0949399258958
0.9515595703125,-0.2338603515625,1.8088916015625005,2.0572421116848627,1.974609375,-13.76708984375,-3.22509765625,46.13,336.0949399258958
0.7855439453125,-0.4267314453125,2.0095751953125003,2.199447994850275,-0.46630859375,-14.8759765625,-2.41357421875,46.27117647058824,336.0949399258958
0.2132783203125,-0.0697978515625,2.4802783203125003,2.490409590450988,-2.3564453125,-6.59814453125,0.6669921875,46.27117647058824,336.04118000814094
0.1922822265625,0.2124287109375,2.6067431640625003,2.6224431996268245,-2.7255859375,4.595703125,1.4189453125,46.08294117647059,336.04118000814094
0.0838837890625,0.1084248046875,2.3279345703125003,2.331967365122216,-2.7421875,10.47607421875,0.83740234375,46.08294117647059,336.04118000814094
0.0565400390625,0.1372333984375,1.8752978515625005,1.8811623570917064,-2.35498046875,9.59521484375,1.34716796875,45.61235294117647,336.04118000814094
