AccX,AccY,AccZ,Magnitude,GyroX,GyroY,GyroZ,Temperature,Altitude
-0.2774443359375,0.0532490234375,0.9500048828125,0.9911206260634676,0.02978515625,0.5478515625,0.0712890625,40.01235294117648,171.40103928316532
-0.2789091796875,0.0552021484375,0.9519580078125,0.9935097666074622,0.021484375,0.5400390625,0.07080078125,39.63588235294118,171.40103928316532
-0.2745146484375,0.0517841796875,0.9490283203125,0.9892899707506576,0.01513671875,0.5419921875,0.03173828125,39.91823529411765,171.40103928316532
-0.2793974609375,0.0493427734375,0.9500048828125,0.991467058371794,0.04833984375,0.47900390625,0.02099609375,39.87117647058824,171.40103928316532
-0.2793974609375,0.0415302734375,0.9353564453125,0.9770769593935532,0.04833984375,0.3837890625,-0.0322265625,39.73,171.34284231966376
-0.2862333984375,0.0473896484375,0.9504931640625,0.99378699533132,-0.03466796875,0.2275390625,-0.0400390625,39.91823529411765,171.34284231966376
-0.2842802734375,0.0547138671875,0.9846728515625,1.0263476534452332,-0.00048828125,0.26416015625,0.02978515625,39.82411764705883,171.34284231966376
-0.2886748046875,0.0664326171875,1.0046923828125005,1.0474508196422432,-0.0107421875,0.84375,0.037109375,40.01235294117648,171.34284231966376
-0.2852568359375,0.0498310546875,0.9758837890625,1.017940944365303,0.13916015625,1.2783203125,-0.05810546875,39.91823529411765,171.14534581541167
-0.2779326171875,0.0376240234375,0.9177783203125,0.9596765872271518,0.09716796875,1.00341796875,-0.1103515625,40.059411764705885,171.14534581541167
-0.2725615234375,0.0464130859375,0.9319384765625,0.9720870756791524,0.00439453125,0.55859375,-0.11328125,39.87117647058824,171.14534581541167
-0.2989287109375,0.0512958984375,0.9700244140625,1.0163350861288625,0.0185546875,0.67822265625,-0.06884765625,40.01235294117648,171.14534581541167
-0.3008818359375,0.0425068359375,0.9666064453125,1.013244654769126,0.03759765625,1.04443359375,0.0126953125,39.82411764705883,171.14534581541167
-0.2945341796875,0.0527607421875,0.9475634765625,0.9936853732623702,0.05859375,1.1748046875,0.1259765625,39.87117647058824,171.27079906911274
-0.2872099609375,0.0517841796875,0.9343798828125,0.9788957699021532,0.03564453125,0.98193359375,0.21484375,39.82411764705883,171.27079906911274
-0.2842802734375,0.0527607421875,0.9358447265625,0.9794918692958692,0.05078125,0.73095703125,0.3740234375,39.91823529411765,171.27079906911274
-0.2974638671875,0.0454365234375,0.9368212890625,0.983963087511393,0.08984375,0.40869140625,0.283203125,40.01235294117648,171.27079906911274
-0.3038115234375,0.0498310546875,0.9534228515625,1.0018980535295257,0.099609375,0.240234375,0.27001953125,39.87117647058824,171.29596477546684
-0.3111357421875,0.0473896484375,0.9666064453125,1.0165526297075147,0.06494140625,0.20166015625,0.22412109375,39.87117647058824,171.29596477546684
-0.3194365234375,0.0425068359375,0.9793017578125,1.0309599684090098,0.08837890625,0.32958984375,0.17724609375,40.01235294117648,171.29596477546684
-0.3194365234375,0.0410419921875,0.9954150390625,1.0462194978207746,0.0908203125,0.60791015625,0.09619140625,40.01235294117648,171.29596477546684
-0.3077177734375,0.0405537109375,0.9851611328125,1.0328975211338942,0.08251953125,0.86572265625,0.0361328125,39.91823529411765,171.29596477546684
-0.2935576171875,0.0390888671875,0.9817431640625,1.025438274266303,0.08935546875,1.06103515625,-0.00634765625,40.01235294117648,171.11506710122651
-0.2930693359375,0.0434833984375,0.9729541015625,1.017064464699172,0.10546875,1.30810546875,-0.05419921875,40.059411764705885,171.11506710122651
-0.2872099609375,0.0444599609375,0.9456103515625,0.9892649729826885,0.10107421875,1.416015625,-0.1201171875,40.01235294117648,171.11506710122651
-0.2789091796875,0.0429951171875,0.9216845703125,0.9639197880363588,0.1103515625,1.3369140625,-0.2451171875,39.87117647058824,171.11506710122651
-0.2549833984375,0.0293232421875,0.8865283203125001,0.9229349103415831,0.05224609375,0.77197265625,-0.28369140625,40.01235294117648,171.0955548575478
-0.2608427734375,0.0337177734375,0.9006884765625001,0.9383046267138552,0.03857421875,0.2529296875,-0.30078125,40.01235294117648,171.0955548575478
-0.2686552734375,0.0337177734375,0.9133837890625,0.9526712393651496,0.0029296875,0.10302734375,-0.25244140625,39.63588235294118,171.0955548575478
-0.2725615234375,0.0390888671875,0.9065478515625,0.9474422044479324,0.03369140625,0.12451171875,-0.19873046875,39.91823529411765,171.0955548575478
-0.2691435546875,0.0346943359375,0.8992236328125001,0.9392790276507176,0.04150390625,-0.056640625,-0.14111328125,40.15352941176471,171.0955548575478
-0.2789091796875,0.0386005859375,0.8762744140625001,0.9204005565454914,0.08544921875,-0.1298828125,-0.14404296875,40.059411764705885,171.26824935976083
-0.3018583984375,0.0449482421875,0.8684619140625001,0.9205242709239664,0.09765625,-0.24853515625,-0.1591796875,39.91823529411765,171.26824935976083
-0.3282255859375,0.0522724609375,0.8826220703125001,0.9431257415844408,0.1142578125,-0.326171875,-0.119140625,39.73,171.26824935976083
-0.3458037109375,0.0537373046875,0.9045947265625,0.969927586852703,0.14892578125,-0.30859375,-0.09375,40.059411764705885,171.26824935976083
-0.3565458984375,0.0576435546875,0.9158251953125,0.9844712009291048,0.1611328125,-0.2451171875,-0.130859375,40.059411764705885,171.26824935976083
-0.3531279296875,0.0649677734375,0.9353564453125,1.0019041002503395,0.13720703125,-0.2724609375,-0.25439453125,40.01235294117648,171.26824935976083
-0.3599638671875,0.0566669921875,0.9475634765625,1.015215088441543,0.14794921875,-0.173828125,-0.302734375,40.01235294117648,171.26824935976083
-0.3482451171875,0.0566669921875,0.9661181640625,1.0285281311563672,0.142578125,-0.0849609375,-0.3544921875,40.01235294117648,171.26824935976083
-0.3423857421875,0.0566669921875,0.9895556640625,1.0486465356520465,0.1083984375,0.0859375,-0.400390625,39.82411764705883,171.26824935976083
-0.3257841796875,0.0561787109375,0.9944384765625,1.047950028849278,0.0908203125,0.248046875,-0.4326171875,40.01235294117648,171.1792616862176
-0.3204130859375,0.0527607421875,0.9988330078125,1.0502931110180307,0.078125,0.38134765625,-0.42724609375,39.73,171.1792616862176
-0.2925810546875,0.0493427734375,0.9841845703125,1.0279385445121487,0.06298828125,0.41845703125,-0.369140625,39.68294117647059,171.1792616862176
-0.2852568359375,0.0444599609375,0.9739306640625,1.0158194175033572,0.07568359375,0.34521484375,-0.3515625,40.01235294117648,171.1792616862176
-0.2930693359375,0.0317646484375,0.9719775390625,1.0156962956510174,0.1240234375,0.39404296875,-0.2431640625,39.82411764705883,171.2795649078771
-0.2769560546875,0.0381123046875,0.9583056640625,0.9982519470408898,0.15234375,0.32080078125,-0.1748046875,39.91823529411765,171.2795649078771
-0.2803740234375,0.0337177734375,0.9441455078125,0.9854730951104844,0.16455078125,0.20947265625,-0.1337890625,40.01235294117648,171.2795649078771
-0.2798857421875,0.0283466796875,0.9456103515625,0.9865690548113236,0.1748046875,0.06201171875,-0.05908203125,39.63588235294118,171.2795649078771
-0.2862333984375,0.0327412109375,0.9612353515625,1.003481413065642,0.2197265625,0.212890625,-0.06005859375,39.87117647058824,171.2795649078771
-0.2808623046875,0.0410419921875,0.9719775390625,1.0125751407965171,0.24072265625,0.41552734375,-0.076171875,40.15352941176471,171.17652877602185
-0.2847685546875,0.0366474609375,0.9705126953125,1.0120924156887583,0.2763671875,0.67822265625,-0.14599609375,39.87117647058824,171.17652877602185
-0.2584013671875,0.0322529296875,0.9441455078125,0.9793989268731712,0.251953125,0.7890625,-0.1455078125,39.91823529411765,171.17652877602185
-0.2584013671875,0.0346943359375,0.9207080078125,0.9569107582008765,0.2421875,0.73974609375,-0.1708984375,39.87117647058824,171.17652877602185
-0.2559599609375,0.0395771484375,0.9148486328125,0.9508048554989984,0.314453125,0.7314453125,-0.29541015625,39.91823529411765,170.83132526693444
-0.2710966796875,0.0351826171875,0.9187548828125,0.9585623406860714,0.232421875,0.62109375,-0.32373046875,39.73,170.83132526693444
-0.2808623046875,0.0420185546875,0.9329150390625,0.97518186162448,0.126953125,0.533203125,-0.2470703125,40.01235294117648,170.83132526693444
-0.2818388671875,0.0527607421875,0.9675830078125,1.009174771772062,0.14501953125,0.7783203125,-0.22119140625,40.059411764705885,170.83132526693444
-0.2701201171875,0.0371357421875,0.9539111328125,0.9921141014827036,0.283203125,1.12646484375,-0.2626953125,39.91823529411765,170.83132526693444
-0.2847685546875,0.0288349609375,0.8840869140625001,0.9292654391117908,0.3330078125,1.08544921875,-0.42919921875,39.91823529411765,171.248927124149
-0.2901396484375,0.0259052734375,0.8543017578125001,0.9025982451726988,0.13818359375,0.23876953125,-0.3740234375,40.059411764705885,171.248927124149
-0.3038115234375,0.0425068359375,0.9236376953125,0.973249641704028,0.15478515625,0.03369140625,-0.39453125,40.059411764705885,171.248927124149
-0.3169951171875,0.0434833984375,0.9558642578125,1.0079946376959714,0.1533203125,0.59912109375,-0.294921875,39.82411764705883,171.248927124149
-0.3126005859375,0.0517841796875,0.9182666015625,0.9713981053818864,0.1357421875,0.84521484375,-0.20947265625,39.91823529411765,171.22668052034732
-0.3316435546875,0.0571552734375,0.9075244140625,0.9679125656622918,0.18310546875,0.9208984375,-0.1474609375,40.01235294117648,171.22668052034732
-0.3257841796875,0.0649677734375,0.8909228515625001,0.950841559228634,0.15576171875,0.60498046875,-0.07568359375,39.73,171.22668052034732
-0.3340849609375,0.0639912109375,0.8953173828125001,0.9577582430697652,0.1591796875,0.359375,-0.03466796875,40.01235294117648,171.22668052034732
-0.3423857421875,0.0566669921875,0.8918994140625001,0.9570390322562056,0.14599609375,0.01953125,-0.009765625,40.01235294117648,171.22668052034732
-0.3570341796875,0.0571552734375,0.9377978515625,1.0050895189693714,0.19970703125,-0.12939453125,0.01318359375,39.91823529411765,171.4159724553978
-0.3565458984375,0.0469013671875,0.9685595703125,1.0331661808153592,0.14697265625,-0.0615234375,0.03564453125,40.01235294117648,171.4159724553978
-0.3541044921875,0.0473896484375,0.9788134765625,1.0419748519358636,0.13525390625,0.0,0.00732421875,39.91823529411765,171.4159724553978
-0.3492216796875,0.0454365234375,0.9846728515625,1.0457537395725969,0.11767578125,0.29833984375,-0.04248046875,39.82411764705883,171.4159724553978
-0.3428740234375,0.0454365234375,0.9817431640625,1.040887464519462,0.107421875,0.451171875,-0.06396484375,39.87117647058824,171.4688574926234
-0.3282255859375,0.0434833984375,0.9734423828125,1.028208594527087,0.1123046875,0.5498046875,-0.083984375,39.91823529411765,171.4688574926234
-0.3223662109375,0.0483662109375,0.9558642578125,1.0099186817155592,0.09033203125,0.60693359375,-0.09033203125,39.82411764705883,171.4688574926234
-0.3140654296875,0.0473896484375,0.9553759765625,1.0067900126126472,0.08056640625,0.58642578125,-0.0732421875,39.63588235294118,171.4688574926234
-0.3096708984375,0.0444599609375,0.9539111328125,1.003901988627017,0.1181640625,0.56787109375,-0.07080078125,39.91823529411765,171.4688574926234
-0.3194365234375,0.0429951171875,0.9470751953125,1.0004197609923615,0.1162109375,0.58251953125,-0.0732421875,39.73,171.1960428864563
-0.3135771484375,0.0390888671875,0.9338916015625,0.9859067354619134,0.10498046875,0.50390625,-0.03466796875,39.82411764705883,171.1960428864563
-0.2999052734375,0.0376240234375,0.9421923828125,0.9894873553538438,0.09033203125,0.4873046875,-0.02099609375,40.059411764705885,171.1960428864563
-0.2955107421875,0.0405537109375,0.9451220703125,0.9910736249193576,0.1162109375,0.50439453125,-0.02294921875,39.63588235294118,171.1960428864563
-0.2930693359375,0.0351826171875,0.9485400390625,0.9934060891315788,0.12744140625,0.48193359375,-0.00341796875,40.15352941176471,171.16267302696662
-0.2974638671875,0.0342060546875,0.9490283203125,0.995142984306573,0.1298828125,0.51318359375,-0.0244140625,39.91823529411765,171.16267302696662
-0.2930693359375,0.0288349609375,0.9392626953125,0.9843452145689624,0.13330078125,0.50537109375,-0.06201171875,40.01235294117648,171.16267302696662
-0.2930693359375,0.0273701171875,0.9348681640625,0.9801108320793592,0.10205078125,0.4228515625,-0.06689453125,40.01235294117648,171.16267302696662
-0.2857451171875,0.0376240234375,0.9246142578125,0.968492315347047,0.10009765625,0.33642578125,-0.07958984375,40.01235294117648,171.16267302696662
-0.2901396484375,0.0361591796875,0.9251025390625,0.9702078177643144,0.048828125,0.22705078125,-0.052734375,40.059411764705885,171.3742108767699
-0.2945341796875,0.0366474609375,0.9265673828125,0.9729442606282028,0.05126953125,0.15478515625,-0.04931640625,39.82411764705883,171.3742108767699
-0.2930693359375,0.0366474609375,0.9226611328125,0.9687807998008934,0.052734375,0.2099609375,-0.0859375,40.059411764705885,171.3742108767699
-0.2959990234375,0.0332294921875,0.9221728515625,0.9690832725756366,0.0126953125,0.21728515625,-0.0927734375,39.82411764705883,171.3742108767699
-0.2999052734375,0.0366474609375,0.9187548828125,0.9671591100333998,0.03515625,0.23095703125,-0.04296875,39.91823529411765,171.56077389527013
-0.3013701171875,0.0410419921875,0.9128955078125,0.9622300145186538,0.02734375,0.1787109375,0.037109375,40.01235294117648,171.56077389527013
-0.3057646484375,0.0483662109375,0.9158251953125,0.9667301065777032,0.01611328125,0.123046875,0.10986328125,39.87117647058824,171.56077389527013
-0.3091826171875,0.0498310546875,0.9207080078125,0.9725123446168916,0.02978515625,0.00048828125,0.0791015625,39.91823529411765,171.56077389527013
-0.3223662109375,0.0512958984375,0.9265673828125,0.982384017603461,0.02783203125,0.20654296875,0.03564453125,40.01235294117648,171.56077389527013
-0.3213896484375,0.0459248046875,0.9299853515625,0.985024440269982,0.009765625,0.3173828125,-0.015625,40.01235294117648,171.10978898104668
-0.3184599609375,0.0473896484375,0.9163134765625,0.9712326769777668,-0.04150390625,0.27685546875,-0.05615234375,39.73,171.10978898104668
-0.3316435546875,0.0473896484375,0.9109423828125,0.970592216612572,-0.0771484375,0.25146484375,-0.06982421875,40.24764705882353,171.10978898104668
-0.3272490234375,0.0537373046875,0.9021533203125,0.9611764846305506,-0.12353515625,0.150390625,-0.08154296875,40.15352941176471,171.10978898104668
-0.3414091796875,0.0591083984375,0.9094775390625,0.9732437643262448,-0.154296875,0.015625,-0.05810546875,40.24764705882353,171.1794558099936
-0.3497099609375,0.0532490234375,0.9124072265625,0.978580330049316,-0.181640625,-0.123046875,-0.0224609375,40.01235294117648,171.1794558099936
-0.3550810546875,0.0595966796875,0.9241259765625,0.9917878503920868,-0.17431640625,-0.19677734375,0.0068359375,40.01235294117648,171.1794558099936
-0.3633818359375,0.0586201171875,0.9465869140625,1.0156325431487272,-0.146484375,-0.10546875,-0.0361328125,39.87117647058824,171.1794558099936
-0.3702177734375,0.0586201171875,0.9524462890625,1.0235484607272016,-0.10888671875,0.02001953125,-0.0703125,40.01235294117648,171.1794558099936
-0.3594755859375,0.0517841796875,0.9441455078125,1.0115903509195507,-0.111328125,0.072265625,-0.11376953125,39.82411764705883,171.1293032937858
-0.3609404296875,0.0498310546875,0.9519580078125,1.0193062230912795,-0.21142578125,0.17236328125,-0.0849609375,40.01235294117648,171.1293032937858
-0.3492216796875,0.0566669921875,0.9700244140625,1.032528107823043,-0.375,0.31884765625,-0.015625,39.91823529411765,171.1293032937858
-0.3350615234375,0.0527607421875,0.9646533203125,1.0225487513044869,-0.16015625,0.8037109375,-0.00244140625,40.01235294117648,171.1293032937858
-0.3179716796875,0.0254169921875,0.9080126953125,0.9624131479898956,-0.099609375,0.78515625,-0.06005859375,40.059411764705885,171.1794558099936
-0.3096708984375,0.0244404296875,0.8811572265625001,0.934308010168871,-0.20654296875,-0.0283203125,-0.13427734375,39.91823529411765,171.1794558099936
-0.3218779296875,0.0376240234375,0.9236376953125,0.9788399056851552,-0.341796875,-0.47900390625,-0.244140625,39.87117647058824,171.1794558099936
-0.3531279296875,0.0337177734375,0.9710009765625,1.0337693744043164,-0.36181640625,-0.19091796875,-0.24658203125,39.87117647058824,171.1794558099936
-0.3501982421875,0.0307880859375,0.9749072265625,1.0363545799921452,-0.341796875,0.326171875,-0.03369140625,39.82411764705883,171.1794558099936
-0.3126005859375,0.0332294921875,0.9460986328125,0.996958348422435,-0.31787109375,0.5029296875,0.06494140625,40.059411764705885,171.42163347377823
-0.3042998046875,0.0376240234375,0.9280322265625,0.9773728826865556,-0.28125,0.35986328125,0.08056640625,39.91823529411765,171.42163347377823
-0.2955107421875,0.0283466796875,0.9070361328125,0.9543818309382088,-0.32470703125,0.15966796875,0.103515625,39.91823529411765,171.42163347377823
-0.3101591796875,0.0195576171875,0.8977587890625001,0.9500273998540476,-0.32080078125,-0.0419921875,0.19384765625,39.63588235294118,171.42163347377823
-0.3116240234375,0.0224873046875,0.9080126953125,0.9602615610885168,-0.3466796875,-0.27099609375,0.20361328125,39.73,171.7725234353398
-0.3174833984375,0.0180927734375,0.9265673828125,0.9796173598023318,-0.39208984375,-0.48193359375,0.1591796875,40.01235294117648,171.7725234353398
-0.3321318359375,0.0132099609375,0.9495166015625,1.0060158230137255,-0.3916015625,-0.41943359375,0.111328125,39.91823529411765,171.7725234353398
-0.3453154296875,0.0122333984375,0.9656298828125,1.0255893294092309,-0.431640625,-0.28466796875,0.150390625,40.059411764705885,171.7725234353398
-0.3218779296875,0.0244404296875,0.9675830078125,1.020009614283466,-0.47900390625,-0.13427734375,0.24951171875,40.059411764705885,171.7725234353398
-0.3174833984375,0.0215107421875,0.9670947265625,1.0181014833786848,-0.5048828125,0.021484375,0.08984375,39.87117647058824,171.165601471296
-0.3243193359375,0.0229755859375,0.9573291015625,1.0110340834564262,-0.50927734375,0.19580078125,0.13134765625,39.82411764705883,171.165601471296
-0.3218779296875,0.0278583984375,0.9578173828125,1.0108390726526162,-0.5185546875,0.2275390625,0.1904296875,40.15352941176471,171.165601471296
-0.3160185546875,0.0263935546875,0.9480517578125,0.9996831908795856,-0.53369140625,0.1728515625,0.248046875,39.91823529411765,171.165601471296
-0.3174833984375,0.0200458984375,0.9319384765625,0.984736954940366,-0.51025390625,0.0517578125,0.25390625,40.059411764705885,171.449542170129
-0.3194365234375,0.0146748046875,0.9192431640625,0.97327438940624,-0.5166015625,-0.08056640625,0.27001953125,39.73,171.449542170129
-0.3296904296875,0.0049091796875,0.9485400390625,1.004215158806827,-0.46728515625,-0.076171875,0.35302734375,40.24764705882353,171.449542170129
-0.3301787109375,-0.0019267578124999,0.9480517578125,1.0039042927706747,-0.44580078125,0.02197265625,0.49853515625,40.01235294117648,171.449542170129
-0.3228544921875,-0.0063212890624999,0.9368212890625,0.9909132704035124,-0.42919921875,0.15185546875,0.59765625,40.059411764705885,171.449542170129
-0.3028349609375,-0.0058330078124999,0.9387744140625,0.986428121073476,-0.42236328125,0.2216796875,0.57763671875,39.73,171.00694868613274
-0.3052763671875,-0.0107158203124999,0.9426806640625,0.9909365890739342,-0.39990234375,0.30908203125,0.67431640625,40.01235294117648,171.00694868613274
-0.2857451171875,-0.0160869140625,0.9275439453125,0.9706939946689844,-0.4326171875,0.3017578125,0.71630859375,39.91823529411765,171.00694868613274
-0.2911162109375,-0.0072978515624999,0.9348681640625,0.9791733202480676,-0.466796875,0.29150390625,0.736328125,40.24764705882353,171.00694868613274
-0.2906279296875,-0.0043681640624999,0.9275439453125,0.9720192615671756,-0.509765625,0.1787109375,0.74072265625,40.24764705882353,171.5525839164775
-0.3033232421875,-0.0019267578124999,0.9407275390625,0.9884214710321668,-0.52099609375,0.12451171875,0.78759765625,39.73,171.5525839164775
-0.3038115234375,0.0005146484375,0.9426806640625,0.9904284633600474,-0.51953125,0.10400390625,0.80810546875,39.82411764705883,171.5525839164775
-0.3086943359375,-0.0053447265624999,0.9446337890625,0.9938077050317622,-0.52783203125,0.05126953125,0.83447265625,40.01235294117648,171.5525839164775
-0.3213896484375,-0.0136455078124999,0.9490283203125,1.0020639993340774,-0.56640625,0.03173828125,0.8876953125,39.91823529411765,171.5525839164775
-0.3184599609375,-0.0131572265624999,0.9602587890625,1.0117740860997133,-0.5498046875,0.09814453125,0.93505859375,40.15352941176471,171.2268784965156
-0.3184599609375,-0.0170634765625,0.9553759765625,1.0071996651833557,-0.54296875,0.13818359375,1.013671875,40.01235294117648,171.2268784965156
-0.3169951171875,-0.0219462890625,0.9656298828125,1.0165670732936485,-0.53515625,0.193359375,1.0654296875,40.01235294117648,171.2268784965156
-0.3096708984375,-0.0229228515625,0.9456103515625,0.99528913359134,-0.5615234375,0.16162109375,1.11865234375,39.91823529411765,171.2268784965156
-0.3033232421875,-0.0219462890625,0.9358447265625,0.9840182829041298,-0.5986328125,0.099609375,1.119140625,40.01235294117648,171.5804949631554
-0.3072294921875,-0.0214580078125,0.9260791015625,0.9759471857226076,-0.6220703125,0.03564453125,1.1630859375,40.059411764705885,171.5804949631554
-0.3111357421875,-0.0229228515625,0.9382861328125,0.9887930896899308,-0.64990234375,-0.00048828125,1.1259765625,39.82411764705883,171.5804949631554
-0.3096708984375,-0.0180400390625,0.9451220703125,0.9947247036945706,-0.65087890625,0.0068359375,1.33203125,39.87117647058824,171.5804949631554
-0.3126005859375,-0.0214580078125,0.9480517578125,0.9984897134768694,-0.68212890625,0.05126953125,1.3759765625,39.91823529411765,171.5804949631554
-0.3091826171875,-0.0195048828125,0.9587939453125,1.007601191341272,-0.662109375,0.14892578125,1.4482421875,39.73,171.32152538790018
-0.3067412109375,-0.0160869140625,0.9524462890625,1.0007511642962927,-0.66015625,0.2197265625,1.47705078125,40.01235294117648,171.32152538790018
-0.3106474609375,-0.0151103515624999,0.9548876953125,1.0042612600167726,-0.64599609375,0.2724609375,1.5087890625,40.01235294117648,171.32152538790018
-0.3101591796875,-0.0165751953125,0.9568408203125,1.0059909588362952,-0.60205078125,0.25830078125,1.583984375,40.01235294117648,171.32152538790018
-0.3047880859375,-0.0141337890624999,0.9465869140625,0.9945462921337924,-0.53759765625,0.2177734375,1.546875,39.91823529411765,171.68626773382323
-0.3033232421875,-0.0209697265625,0.9421923828125,0.9900359614241996,-0.58203125,0.0556640625,1.4677734375,39.91823529411765,171.68626773382323
-0.3252958984375,-0.0243876953125,0.9627001953125,1.0164663532442386,-0.65771484375,0.06103515625,1.58251953125,39.82411764705883,171.68626773382323
-0.3169951171875,-0.0024150390624999,0.9876025390625,1.0372321398303694,-0.68701171875,0.32080078125,1.66845703125,39.91823529411765,171.68626773382323
-0.3047880859375,-0.0082744140624999,0.9778369140625,1.024270117576802,-0.5966796875,0.6923828125,1.63330078125,40.01235294117648,171.68626773382323
-0.2994169921875,-0.0273173828125,0.9392626953125,0.986210517800351,-0.54296875,0.6796875,1.61669921875,39.91823529411765,171.4942399884963
-0.2940458984375,-0.0278056640625,0.9226611328125,0.9687825924038472,-0.5693359375,0.296875,1.650390625,40.01235294117648,171.4942399884963
-0.2974638671875,-0.0131572265624999,0.9465869140625,0.9923127786979902,-0.6279296875,0.10791015625,1.63720703125,40.059411764705885,171.4942399884963
-0.3101591796875,-0.0058330078124999,0.9622119140625,1.010981952503794,-0.595703125,0.3623046875,1.62109375,39.82411764705883,171.4942399884963
-0.3028349609375,-0.0068095703124999,0.9417041015625,0.9892229267023148,-0.59619140625,0.44775390625,1.69580078125,39.87117647058824,171.23254137702284
-0.2930693359375,-0.0048564453124999,0.9412158203125,0.9857993919324828,-0.5537109375,0.455078125,1.70263671875,40.01235294117648,171.23254137702284
-0.2916044921875,-0.0097392578124999,0.9338916015625,0.9784076637453528,-0.54541015625,0.38232421875,1.71533203125,39.82411764705883,171.23254137702284
-0.2945341796875,0.0063740234375,0.9251025390625,0.9708788384545493,-0.52685546875,0.2900390625,1.76806640625,40.24764705882353,171.23254137702284
-0.2969755859375,0.0063740234375,0.9290087890625,0.9753422255665322,-0.5126953125,0.21533203125,1.7666015625,40.20058823529412,171.23254137702284
-0.2940458984375,0.0107685546875,0.9334033203125,0.9786831512437384,-0.4716796875,0.10205078125,1.70458984375,39.82411764705883,171.2268784965156
-0.2969755859375,-0.0004619140624999,0.9402392578125,0.98602463150741,-0.47705078125,0.05810546875,1.60546875,39.63588235294118,171.2268784965156
-0.2964873046875,-0.0019267578124999,0.9465869140625,0.9919350886579692,-0.47314453125,0.0966796875,1.52880859375,40.20058823529412,171.2268784965156
-0.3013701171875,-0.0038798828124999,0.9636767578125,1.009708816725029,-0.62451171875,0.1650390625,1.4423828125,39.91823529411765,171.2268784965156
-0.3052763671875,0.0024677734375,0.9666064453125,1.0136704446656235,-0.525390625,0.2421875,1.4296875,40.01235294117648,171.10725574289376
-0.3116240234375,0.0068623046875,0.9700244140625,1.0188738818353802,-0.51025390625,0.3310546875,1.42529296875,39.91823529411765,171.10725574289376
-0.3091826171875,0.0146748046875,0.9753955078125,1.0233306588411848,-0.46875,0.4716796875,1.40966796875,39.73,171.10725574289376
-0.3077177734375,0.0127216796875,0.9724658203125,1.0200695274830376,-0.43212890625,0.57861328125,1.3515625,39.82411764705883,171.10725574289376
-0.3038115234375,0.0073505859375,0.9773486328125,1.0235066306319185,-0.3740234375,0.6484375,1.31640625,39.73,171.10725574289376
-0.2999052734375,0.0014912109375,0.9641650390625,1.009732449362738,-0.33203125,0.7783203125,1.33251953125,39.68294117647059,171.34104147289824
-0.2920927734375,0.0005146484375,0.9573291015625,1.0008983274318568,-0.30029296875,0.818359375,1.33642578125,39.87117647058824,171.34104147289824
-0.2813505859375,-0.0038798828124999,0.9563525390625,0.9968868464722084,-0.2666015625,0.8818359375,1.31982421875,40.059411764705885,171.34104147289824
-0.2750029296875,-0.0146220703124999,0.9407275390625,0.9802085079346736,-0.26611328125,0.90673828125,1.2783203125,39.82411764705883,171.34104147289824
-0.2671904296875,-0.0121806640624999,0.9348681640625,0.9723772819596228,-0.27392578125,0.93310546875,1.24169921875,39.91823529411765,171.08774015629834
-0.2603544921875,-0.0087626953124999,0.9187548828125,0.9549721363072126,-0.26416015625,0.93603515625,1.12939453125,40.059411764705885,171.08774015629834
-0.2740263671875,-0.0048564453124999,0.9055712890625,0.9461360338499796,-0.30908203125,0.814453125,1.08544921875,39.91823529411765,171.08774015629834
-0.2906279296875,0.0068623046875,0.9119189453125,0.9571352295051776,-0.28125,0.6953125,1.11767578125,39.91823529411765,171.08774015629834
-0.2916044921875,0.0166279296875,0.9036181640625,0.94965017471346,-0.28857421875,0.49267578125,1.09716796875,40.01235294117648,171.08774015629834
-0.3062529296875,0.0219990234375,0.9275439453125,0.9770427751435752,-0.291015625,0.3251953125,0.98876953125,39.73,171.12677157209637
-0.3126005859375,0.0229755859375,0.9431689453125,0.9938886573854908,-0.28955078125,0.27734375,0.8974609375,39.73,171.12677157209637
-0.3248076171875,0.0161396484375,0.9524462890625,1.0064364907850047,-0.26123046875,0.28125,0.86328125,39.63588235294118,171.12677157209637
-0.3272490234375,0.0112568359375,0.9607470703125,1.0150140751783558,-0.234375,0.29638671875,0.861328125,40.01235294117648,171.12677157209637
-0.3277373046875,0.0078388671875,0.9568408203125,1.011443297540158,-0.2392578125,0.28564453125,0.8359375,40.059411764705885,171.44135404490385
-0.3277373046875,-0.0009501953124999,0.9568408203125,1.0114133671112209,-0.251953125,0.30322265625,0.81689453125,39.63588235294118,171.44135404490385
-0.3282255859375,-0.0068095703124999,0.9543994140625,1.0092852159200092,-0.23193359375,0.3349609375,0.78564453125,40.059411764705885,171.44135404490385
-0.3257841796875,-0.0072978515624999,0.9641650390625,1.0177439820124106,-0.21728515625,0.38671875,0.771484375,39.87117647058824,171.44135404490385
-0.3130888671875,-0.0097392578124999,0.9661181640625,1.015629754797971,-0.2021484375,0.4228515625,0.76611328125,39.91823529411765,171.44135404490385
-0.3018583984375,-0.0121806640624999,0.9529345703125,0.9996755256486602,-0.1787109375,0.3466796875,0.7666015625,40.059411764705885,171.28269721389316
-0.2955107421875,-0.0063212890624999,0.9534228515625,0.9981892061754564,-0.142578125,0.22412109375,0.77490234375,40.059411764705885,171.28269721389316
-0.2872099609375,-0.0053447265624999,0.9568408203125,0.999030771888457,-0.12158203125,0.1572265625,0.77685546875,39.91823529411765,171.28269721389316
-0.2872099609375,-0.0048564453124999,0.9612353515625,1.003238031484192,-0.07275390625,0.1884765625,0.76806640625,39.87117647058824,171.28269721389316
-0.2896513671875,0.0005146484375,0.9617236328125,1.0043956019849325,-0.02490234375,0.2470703125,0.76708984375,40.01235294117648,171.29382011273665
-0.2828154296875,0.0024677734375,0.9583056640625,0.9991698569058882,-0.00048828125,0.2861328125,0.708984375,39.82411764705883,171.29382011273665
-0.2833037109375,-0.0033916015624999,0.9636767578125,1.004462736561257,0.072265625,0.431640625,0.673828125,40.01235294117648,171.29382011273665
-0.2779326171875,-0.0029033203124999,0.9597705078125,0.9992068837994436,0.07958984375,0.53271484375,0.6357421875,40.059411764705885,171.29382011273665
-0.2745146484375,-0.0112041015624999,0.9543994140625,0.9931576237745096,0.11279296875,0.55615234375,0.60791015625,39.82411764705883,171.29382011273665
-0.2735380859375,-0.0141337890624999,0.9436572265625,0.982604604963382,0.19189453125,0.5439453125,0.58447265625,40.059411764705885,171.41910823900187
-0.2798857421875,-0.0185283203125,0.9304736328125,0.971833580759968,0.1826171875,0.421875,0.52880859375,39.91823529411765,171.41910823900187
-0.2793974609375,-0.0097392578124999,0.9480517578125,0.9884128336947228,0.08984375,0.29638671875,0.53662109375,39.91823529411765,171.41910823900187
-0.2925810546875,0.0024677734375,0.9880908203125,1.0305014471865714,0.1064453125,0.59912109375,0.5859375,39.73,171.41910823900187
-0.2842802734375,0.0044208984375,0.9866259765625,1.0267743840964292,0.24560546875,1.095703125,0.54736328125,39.73,171.51102928750848
-0.2745146484375,-0.0092509765624999,0.9236376953125,0.9636132341226488,0.35205078125,1.17529296875,0.3818359375,39.73,171.51102928750848
-0.2750029296875,-0.0058330078124999,0.9216845703125,0.9618539818854972,0.3505859375,0.8759765625,0.24462890625,39.91823529411765,171.51102928750848
-0.2808623046875,0.0058857421875,0.9387744140625,0.9799059529637842,0.32080078125,0.7392578125,0.212890625,40.059411764705885,171.51102928750848
-0.2950224609375,0.0029560546875,0.9514697265625,0.9961634561064028,0.3125,0.9794921875,0.19921875,40.15352941176471,171.51102928750848
-0.2891630859375,0.0029560546875,0.9509814453125,0.9939767290318546,0.3349609375,1.248046875,0.23193359375,40.20058823529412,171.26884550895872
-0.2803740234375,0.0058857421875,0.9412158203125,0.982105623334966,0.3203125,1.2666015625,0.28759765625,40.01235294117648,171.26884550895872
-0.2813505859375,0.0102802734375,0.9177783203125,0.959990042378023,0.2744140625,0.96435546875,0.39794921875,40.01235294117648,171.26884550895872
-0.2774443359375,0.0205341796875,0.9187548828125,0.9599518460688794,0.30615234375,0.64111328125,0.40869140625,39.87117647058824,171.26884550895872
-0.2925810546875,0.0210224609375,0.9207080078125,0.966306811047082,0.3681640625,0.2919921875,0.4072265625,39.58882352941177,171.10179617725635
-0.3018583984375,0.0200458984375,0.9441455078125,0.9914288026247486,0.3955078125,0.044921875,0.322265625,40.01235294117648,171.10179617725635
-0.3169951171875,0.0141865234375,0.9714892578125,1.0219973286721653,0.41552734375,0.04052734375,0.23828125,39.82411764705883,171.10179617725635
-0.3296904296875,0.0171162109375,0.9905322265625,1.0440990546702211,0.42236328125,0.31689453125,0.11474609375,39.91823529411765,171.10179617725635
-0.3321318359375,0.0151630859375,0.9880908203125,1.0425281506051487,0.3828125,0.59326171875,-0.00537109375,40.24764705882353,171.10179617725635
-0.3345732421875,0.0166279296875,0.9670947265625,1.0234685889554915,0.3974609375,0.775390625,-0.134765625,40.01235294117648,171.29675731000685
-0.3379912109375,0.0219990234375,0.9617236328125,1.0196246179909907,0.3984375,0.90087890625,-0.19677734375,40.059411764705885,171.29675731000685
-0.3477568359375,0.0283466796875,0.9587939453125,1.02030592508251,0.44140625,0.99609375,-0.17724609375,39.63588235294118,171.29675731000685
-0.3462919921875,0.0327412109375,0.9451220703125,1.007097740310556,0.4560546875,1.126953125,-0.2900390625,39.91823529411765,171.29675731000685
-0.3487333984375,0.0346943359375,0.9246142578125,0.988802409929341,0.4794921875,1.00341796875,-0.33642578125,39.91823529411765,171.33285390037813
-0.3599638671875,0.0346943359375,0.9158251953125,0.9846387515205276,0.5341796875,0.857421875,-0.42529296875,39.91823529411765,171.33285390037813
-0.3643583984375,0.0361591796875,0.9265673828125,0.996288935841214,0.55224609375,0.79736328125,-0.46435546875,39.63588235294118,171.33285390037813
-0.3687529296875,0.0356708984375,0.9285205078125,0.9997006899951784,0.599609375,0.8154296875,-0.49169921875,39.73,171.33285390037813
-0.3697294921875,0.0312763671875,0.9275439453125,0.9990074469309786,0.6337890625,0.853515625,-0.49560546875,40.01235294117648,171.33285390037813
-0.3702177734375,0.0263935546875,0.9265673828125,0.9981407387688712,0.66943359375,0.9541015625,-0.53857421875,39.63588235294118,171.151952096601
-0.3638701171875,0.0278583984375,0.9348681640625,1.0035716400552264,0.6767578125,1.05078125,-0.64208984375,40.059411764705885,171.151952096601
-0.3624052734375,0.0210224609375,0.9275439453125,0.9960508503912116,0.6748046875,1.08984375,-0.6328125,40.01235294117648,171.151952096601
-0.3560576171875,0.0132099609375,0.9207080078125,0.98724605113177,0.689453125,1.07177734375,-0.6142578125,39.91823529411765,171.151952096601
-0.3526396484375,0.0151630859375,0.9197314453125,0.9851347990614746,0.67236328125,1.02685546875,-0.61181640625,39.73,171.25499437524502
-0.3487333984375,0.0141865234375,0.9109423828125,0.9755164096196056,0.6630859375,0.9794921875,-0.61474609375,40.059411764705885,171.25499437524502
-0.3541044921875,0.0136982421875,0.9221728515625,0.9879172037095556,0.66552734375,1.00732421875,-0.64892578125,40.059411764705885,171.25499437524502
-0.3521513671875,0.0166279296875,0.9353564453125,0.9995892922822622,0.6494140625,1.04931640625,-0.67626953125,40.059411764705885,171.25499437524502
-0.3487333984375,0.0146748046875,0.9177783203125,0.9819100663064916,0.662109375,1.060546875,-0.65869140625,40.059411764705885,171.25499437524502
-0.3531279296875,0.0200458984375,0.9329150390625,0.9977132067275308,0.6474609375,1.05029296875,-0.65234375,40.01235294117648,171.11858380416825
-0.3511748046875,0.0195576171875,0.9280322265625,0.992446501014492,0.6474609375,1.0673828125,-0.666015625,40.059411764705885,171.11858380416825
-0.3443388671875,0.0239521484375,0.9231494140625,0.9855697852281592,0.6376953125,0.998046875,-0.70947265625,39.91823529411765,171.11858380416825
-0.3619169921875,0.0185810546875,0.9163134765625,0.9853727985678324,0.6171875,0.9833984375,-0.716796875,39.91823529411765,171.11858380416825
-0.3707060546875,0.0219990234375,0.9211962890625,0.9932318656772428,0.6025390625,0.99755859375,-0.75244140625,40.059411764705885,171.3192166185006
-0.3770537109375,0.0254169921875,0.9148486328125,0.9898300588396474,0.5810546875,0.99755859375,-0.81201171875,40.01235294117648,171.3192166185006
-0.3780302734375,0.0200458984375,0.9119189453125,0.9873727201514432,0.56005859375,1.05224609375,-0.82763671875,39.87117647058824,171.3192166185006
-0.3790068359375,0.0161396484375,0.9021533203125,0.978666073433584,0.53515625,0.990234375,-0.8505859375,40.01235294117648,171.3192166185006
-0.3746123046875,0.0078388671875,0.8997119140625001,0.9746165168762896,0.49560546875,0.85498046875,-0.818359375,40.059411764705885,171.3192166185006
-0.3643583984375,0.0058857421875,0.8938525390625001,0.9652792580706974,0.46142578125,0.67919921875,-0.7705078125,40.20058823529412,171.12697810373638
-0.3614287109375,0.0078388671875,0.8933642578125001,0.963738480120829,0.44189453125,0.57275390625,-0.6953125,40.01235294117648,171.12697810373638
-0.3628935546875,0.0083271484375,0.8943408203125001,0.96519768768479,0.43798828125,0.53955078125,-0.65673828125,40.01235294117648,171.12697810373638
-0.3570341796875,0.0112568359375,0.8860400390625001,0.9553361045424412,0.41845703125,0.49169921875,-0.603515625,39.82411764705883,171.12697810373638
-0.3565458984375,0.0034443359375,0.8845751953125001,0.9537348254650252,0.41552734375,0.416015625,-0.4931640625,39.87117647058824,171.4554153135789
-0.3531279296875,0.0073505859375,0.8909228515625001,0.9583824358132096,0.45703125,0.3134765625,-0.41748046875,39.87117647058824,171.4554153135789
-0.3448271484375,0.0068623046875,0.8904345703125001,0.9548961082404558,0.45068359375,0.20166015625,-0.458984375,40.059411764705885,171.4554153135789
-0.3697294921875,0.0151630859375,0.9080126953125,0.9805186746906178,0.32177734375,0.1376953125,-0.39306640625,40.01235294117648,171.4554153135789
-0.3794951171875,0.0263935546875,0.9363330078125,1.0106595199261716,0.2841796875,0.27734375,-0.28466796875,40.059411764705885,171.4554153135789
-0.3677763671875,0.0317646484375,0.9294970703125,1.000116619635687,0.36865234375,0.54833984375,-0.3115234375,40.059411764705885,171.2717842879252
-0.3726591796875,0.0136982421875,0.8777392578125001,0.9536711753794525,0.3916015625,0.48828125,-0.3662109375,39.82411764705883,171.2717842879252
-0.3804716796875,0.0229755859375,0.8787158203125001,0.9578246548616656,0.4033203125,0.16015625,-0.4052734375,39.87117647058824,171.2717842879252
-0.3863310546875,0.0166279296875,0.9177783203125,0.9959142619208154,0.3193359375,-0.02490234375,-0.41455078125,39.82411764705883,171.2717842879252
-0.3926787109375,0.0185810546875,0.9265673828125,1.0065132589831307,0.23681640625,0.15771484375,-0.357421875,39.73,171.22162621784275
-0.3824248046875,0.0210224609375,0.9168017578125,0.9935875090963208,0.1884765625,0.3125,-0.3271484375,39.91823529411765,171.22162621784275
-0.2603544921875,0.0171162109375,0.9080126953125,0.9447563077999208,0.15380859375,0.24609375,-0.18701171875,40.01235294117648,171.22162621784275
-0.3819365234375,0.0219990234375,0.8967822265625001,0.9749758083389162,0.14453125,0.06591796875,-0.0439453125,40.01235294117648,171.22162621784275
-0.3765654296875,0.0229755859375,0.8923876953125001,0.9688576774377434,0.15869140625,-0.13427734375,0.05517578125,39.73,171.22162621784275
-0.3760771484375,0.0141865234375,0.8933642578125001,0.9693992862391654,0.16796875,-0.3330078125,0.12548828125,40.01235294117648,171.5418856224431
-0.3716826171875,0.0141865234375,0.9070361328125,0.980338600481511,0.18896484375,-0.56005859375,0.16162109375,40.15352941176471,171.5418856224431
-0.3711943359375,0.0088154296875,0.9285205078125,1.0000066401084744,0.18359375,-0.58154296875,0.24853515625,40.01235294117648,171.5418856224431
-0.3790068359375,0.0097919921875,0.9451220703125,1.0183308856114213,0.1767578125,-0.39990234375,0.06298828125,39.91823529411765,171.5418856224431
-0.3711943359375,0.0151630859375,0.9436572265625,1.0141519193152766,0.13037109375,-0.1748046875,-0.00927734375,39.91823529411765,171.34418841828835
-0.3736357421875,0.0166279296875,0.9319384765625,1.0041859787824814,0.10400390625,0.064453125,-0.04931640625,39.87117647058824,171.34418841828835
-0.3755888671875,0.0210224609375,0.9353564453125,1.008166960779163,0.1142578125,0.21484375,-0.060546875,40.15352941176471,171.34418841828835
-0.3692412109375,0.0244404296875,0.9221728515625,0.9936494223904192,0.0791015625,0.28759765625,-0.0634765625,39.91823529411765,171.34418841828835
-0.3726591796875,0.0244404296875,0.9133837890625,0.986783737670438,0.05078125,0.28466796875,-0.04541015625,40.059411764705885,171.34418841828835
-0.3697294921875,0.0224873046875,0.9075244140625,0.980207191559427,0.04248046875,0.19384765625,-0.02392578125,39.63588235294118,171.4583572041541
-0.3682646484375,0.0215107421875,0.8909228515625001,0.9642743856156862,0.00390625,-0.04443359375,-0.00927734375,39.82411764705883,171.4583572041541
-0.3760771484375,0.0176044921875,0.8982470703125001,0.9739567439301658,-0.0068359375,-0.1875,0.025390625,39.82411764705883,171.4583572041541
-0.3775419921875,0.0200458984375,0.9133837890625,0.9885391949898812,-0.01220703125,-0.234375,0.09619140625,40.01235294117648,171.4583572041541
-0.3755888671875,0.0215107421875,0.9251025390625,0.9986713257946936,0.01708984375,-0.1865234375,0.1171875,40.24764705882353,171.23002115538927
-0.3736357421875,0.0132099609375,0.9338916015625,1.0059481569032005,0.03271484375,-0.0458984375,0.1474609375,40.059411764705885,171.23002115538927
-0.3628935546875,0.0146748046875,0.9314501953125,0.9997532436926826,0.056640625,0.13232421875,0.17138671875,39.73,171.23002115538927
-0.3638701171875,0.0132099609375,0.9187548828125,0.9882745063704852,0.072265625,0.17041015625,0.21142578125,40.059411764705885,171.23002115538927
-0.3560576171875,0.0166279296875,0.9041064453125,0.9718343373530992,0.0380859375,0.0869140625,0.22509765625,40.059411764705885,171.23002115538927
-0.3516630859375,0.0180927734375,0.8967822265625001,0.9634379255251172,0.0234375,-0.099609375,0.27734375,39.73,171.4222635960378
-0.3531279296875,0.0215107421875,0.8967822265625001,0.964043779417321,-0.01708984375,-0.23779296875,0.28173828125,40.01235294117648,171.4222635960378
-0.3550810546875,0.0298115234375,0.9182666015625,0.9849796108919184,-0.0166015625,-0.3017578125,0.30029296875,39.91823529411765,171.4222635960378
-0.3604521484375,0.0268818359375,0.9290087890625,0.9968478893853128,-0.02490234375,-0.3173828125,0.3046875,39.87117647058824,171.4222635960378
-0.3648466796875,0.0239521484375,0.9363330078125,1.0051896868815202,-0.02978515625,-0.2470703125,0.30712890625,40.01235294117648,171.7645573737859
-0.3672880859375,0.0224873046875,0.9348681640625,1.0046813928411984,-0.04150390625,-0.20166015625,0.283203125,40.059411764705885,171.7645573737859
-0.3638701171875,0.0185810546875,0.9329150390625,1.0015374121241458,-0.06787109375,-0.1572265625,0.26513671875,39.73,171.7645573737859
-0.3677763671875,0.0229755859375,0.9343798828125,1.0044167955662169,-0.0830078125,-0.125,0.28662109375,39.91823529411765,171.7645573737859
-0.3653349609375,0.0224873046875,0.9231494140625,0.9930660366960752,-0.123046875,-0.125,0.32421875,40.01235294117648,171.7645573737859
-0.3565458984375,0.0268818359375,0.9265673828125,0.9931639973780668,-0.08984375,-0.154296875,0.33447265625,40.15352941176471,171.70894442585669
-0.3643583984375,0.0307880859375,0.9231494140625,0.9929299015698804,-0.10888671875,-0.1181640625,0.3583984375,39.82411764705883,171.70894442585669
-0.3604521484375,0.0312763671875,0.9275439453125,0.9956112358463696,-0.08544921875,-0.09130859375,0.341796875,39.91823529411765,171.70894442585669
-0.3555693359375,0.0263935546875,0.9280322265625,0.9941679867741812,-0.07421875,-0.0986328125,0.328125,40.059411764705885,171.70894442585669
-0.3467802734375,0.0263935546875,0.9216845703125,0.9851170615346012,-0.091796875,-0.13916015625,0.35498046875,40.01235294117648,171.5307630523705
-0.3433623046875,0.0239521484375,0.9226611328125,0.9847715185249468,-0.07861328125,-0.203125,0.35302734375,39.73,171.5307630523705
-0.3511748046875,0.0317646484375,0.9211962890625,0.9863748472665872,-0.08984375,-0.20263671875,0.34033203125,39.91823529411765,171.5307630523705
-0.3521513671875,0.0268818359375,0.9255908203125,0.9906823835933304,-0.07958984375,-0.181640625,0.357421875,39.91823529411765,171.5307630523705
-0.3511748046875,0.0263935546875,0.9275439453125,0.9921482417775198,-0.07177734375,-0.14208984375,0.337890625,39.91823529411765,171.5307630523705
-0.3497099609375,0.0263935546875,0.9319384765625,0.9957424368809352,-0.0927734375,-0.103515625,0.34716796875,40.059411764705885,171.44723462278716
-0.3477568359375,0.0205341796875,0.9343798828125,0.9972072176240008,-0.080078125,-0.095703125,0.35302734375,40.01235294117648,171.44723462278716
-0.3375029296875,0.0239521484375,0.9241259765625,0.9841192780959084,-0.0185546875,-0.13720703125,0.32568359375,39.73,171.44723462278716
-0.3370146484375,0.0215107421875,0.9168017578125,0.9770194718730016,-0.02734375,-0.28564453125,0.2724609375,39.91823529411765,171.44723462278716
-0.3472685546875,0.0273701171875,0.9338916015625,0.9967437463353226,-0.142578125,-0.40234375,0.29736328125,39.91823529411765,171.41659324085362
-0.3487333984375,0.0342060546875,0.9695361328125,1.030914812286675,-0.17138671875,-0.232421875,0.390625,39.73,171.41659324085362
-0.3418974609375,0.0400654296875,0.9656298828125,1.0251537362913117,-0.0712890625,0.30810546875,0.3837890625,40.059411764705885,171.41659324085362
-0.3238310546875,0.0234638671875,0.9104541015625,0.9666145954284936,0.00390625,0.41357421875,0.23193359375,40.059411764705885,171.41659324085362
-0.3257841796875,0.0244404296875,0.8855517578125001,0.9438933107628084,0.00537109375,0.041015625,0.11767578125,39.91823529411765,171.41659324085362
-0.3399443359375,0.0239521484375,0.9138720703125,0.975345076292496,-0.08544921875,-0.3681640625,0.14306640625,40.20058823529412,171.37482944145407
-0.3467802734375,0.0244404296875,0.9460986328125,1.007946682944281,-0.09814453125,-0.36279296875,0.13623046875,39.73,171.37482944145407
-0.3511748046875,0.0244404296875,0.9583056640625,1.0209166586087637,-0.07666015625,0.00830078125,0.1494140625,40.059411764705885,171.37482944145407
-0.3335966796875,0.0278583984375,0.9480517578125,1.005417808949791,-0.05517578125,0.24951171875,0.2216796875,39.82411764705883,171.37482944145407
-0.3223662109375,0.0293232421875,0.9270556640625,0.9819429875287824,-0.060546875,0.25439453125,0.2353515625,40.01235294117648,171.42498950216117
-0.3262724609375,0.0361591796875,0.9143603515625,0.9715019596230284,-0.0302734375,0.16748046875,0.30419921875,39.91823529411765,171.42498950216117
-0.3272490234375,0.0302998046875,0.9041064453125,0.961986728578156,-0.01171875,-0.03076171875,0.35546875,39.82411764705883,171.42498950216117
-0.3184599609375,0.0312763671875,0.9070361328125,0.9618261298655888,0.0068359375,-0.330078125,0.36474609375,40.01235294117648,171.42498950216117
-0.3223662109375,0.0312763671875,0.9304736328125,0.9852306158752576,0.0380859375,-0.53173828125,0.306640625,39.87117647058824,171.42498950216117
-0.3267607421875,0.0210224609375,0.9314501953125,0.9873266900304524,-0.01708984375,-0.57470703125,0.25830078125,40.01235294117648,171.25793456458388
-0.3306669921875,0.0195576171875,0.9417041015625,0.998263379580768,-0.0166015625,-0.5068359375,0.189453125,39.87117647058824,171.25793456458388
-0.3350615234375,0.0278583984375,0.9568408203125,1.0141926199041575,-0.009765625,-0.287109375,0.095703125,39.87117647058824,171.25793456458388
-0.3370146484375,0.0263935546875,0.9460986328125,1.0046781156172238,-0.0244140625,-0.11572265625,0.033203125,40.24764705882353,171.25793456458388
-0.3306669921875,0.0288349609375,0.9456103515625,1.0021731645163676,-0.0322265625,-0.04931640625,0.00244140625,39.91823529411765,171.291302334338
-0.3257841796875,0.0283466796875,0.9382861328125,0.9936396394126996,-0.0498046875,-0.0126953125,-0.02490234375,40.059411764705885,171.291302334338
-0.3316435546875,0.0219990234375,0.9441455078125,1.000940629768064,-0.0234375,0.0498046875,-0.04150390625,40.01235294117648,171.291302334338
-0.3311552734375,0.0219990234375,0.9436572265625,1.0003183160380993,0.01953125,0.09716796875,-0.0576171875,39.91823529411765,171.291302334338
-0.3267607421875,0.0195576171875,0.9373095703125,0.9928264267355004,0.00439453125,0.11376953125,-0.05224609375,40.01235294117648,171.291302334338
-0.3223662109375,0.0254169921875,0.9412158203125,0.995215161586977,0.0048828125,0.10205078125,-0.0517578125,39.91823529411765,171.65605692601468
-0.3252958984375,0.0224873046875,0.9529345703125,1.0071779364685456,0.0322265625,0.17919921875,-0.04345703125,39.91823529411765,171.65605692601468
-0.3243193359375,0.0244404296875,0.9500048828125,1.00413626746266,0.04736328125,0.29931640625,-0.00927734375,39.91823529411765,171.65605692601468
-0.3169951171875,0.0185810546875,0.9446337890625,0.9965762165296704,0.0380859375,0.36767578125,-0.00048828125,40.20058823529412,171.65605692601468
-0.3111357421875,0.0215107421875,0.9417041015625,0.9920054319385851,0.06689453125,0.37353515625,-0.00341796875,39.91823529411765,171.40547065384442
-0.3130888671875,0.0200458984375,0.9329150390625,0.9842545132789102,0.0859375,0.30859375,-0.00390625,39.73,171.40547065384442
-0.3155302734375,0.0215107421875,0.9334033203125,0.9855271806781384,0.07373046875,0.26953125,-0.00341796875,39.91823529411765,171.40547065384442
-0.3145537109375,0.0215107421875,0.9319384765625,0.9838272578006988,0.08447265625,0.1943359375,-0.00634765625,39.73,171.40547065384442
-0.3194365234375,0.0166279296875,0.9358447265625,0.9890002693560652,0.1015625,0.1748046875,-0.00390625,39.91823529411765,171.40547065384442
-0.3174833984375,0.0117451171875,0.9358447265625,0.9883010716861602,0.08984375,0.14208984375,0.01953125,40.059411764705885,171.36937694618433
-0.3160185546875,0.0195576171875,0.9348681640625,0.9870302485103578,0.09375,0.1103515625,0.001953125,40.15352941176471,171.36937694618433
-0.3228544921875,0.0132099609375,0.9412158203125,0.995136546711129,0.091796875,0.09814453125,-0.0146484375,40.059411764705885,171.36937694618433
-0.3218779296875,0.0176044921875,0.9465869140625,0.9999710524007472,0.0947265625,0.12890625,-0.02197265625,40.15352941176471,171.36937694618433
-0.3277373046875,0.0166279296875,0.9446337890625,1.000010612127739,0.11328125,0.154296875,-0.02490234375,40.15352941176471,171.2272938214551
-0.3238310546875,0.0171162109375,0.9490283203125,1.002902921230186,0.11962890625,0.20166015625,-0.0341796875,40.15352941176471,171.2272938214551
-0.3233427734375,0.0190693359375,0.9431689453125,0.9972371072664944,0.11572265625,0.2529296875,-0.02978515625,40.059411764705885,171.2272938214551
-0.3218779296875,0.0185810546875,0.9485400390625,1.001837742809633,0.1025390625,0.30029296875,-0.0478515625,40.01235294117648,171.2272938214551
-0.3238310546875,0.0190693359375,0.9441455078125,0.9983190529463212,0.10888671875,0.30859375,-0.0537109375,40.059411764705885,171.2272938214551
-0.3169951171875,0.0185810546875,0.9353564453125,0.9877868392024934,0.087890625,0.30712890625,-0.06298828125,39.91823529411765,171.33033915501971
-0.3209013671875,0.0219990234375,0.9343798828125,0.9881940143006898,0.1044921875,0.25634765625,-0.05810546875,39.87117647058824,171.33033915501971
-0.3228544921875,0.0224873046875,0.9358447265625,0.9902252542894456,0.09033203125,0.25927734375,-0.07177734375,40.15352941176471,171.33033915501971
-0.3228544921875,0.0166279296875,0.9363330078125,0.990571053832356,0.0849609375,0.279296875,-0.05859375,40.15352941176471,171.33033915501971
-0.3248076171875,0.0136982421875,0.9402392578125,0.9948555131042144,0.078125,0.34619140625,-0.0537109375,40.059411764705885,171.3471320220338
-0.3277373046875,0.0156513671875,0.9504931640625,1.005531680807824,0.087890625,0.38525390625,-0.0615234375,39.91823529411765,171.3471320220338
-0.3267607421875,0.0185810546875,0.9524462890625,1.0071106055330532,0.0751953125,0.4365234375,-0.0673828125,40.059411764705885,171.3471320220338
-0.3228544921875,0.0180927734375,0.9524462890625,1.0058410933767006,0.0751953125,0.45703125,-0.0595703125,40.059411764705885,171.3471320220338
-0.3199248046875,0.0200458984375,0.9563525390625,1.0086445844150418,0.07177734375,0.478515625,-0.03466796875,40.01235294117648,171.3471320220338
-0.3194365234375,0.0195576171875,0.9426806640625,0.995524498590168,0.1142578125,0.49560546875,-0.0615234375,40.15352941176471,171.6590053029717
-0.3179716796875,0.0093037109375,0.9329150390625,0.985658672274274,0.138671875,0.462890625,-0.08203125,39.87117647058824,171.6590053029717
-0.3204130859375,0.0146748046875,0.9387744140625,0.9920571032107972,0.07763671875,0.376953125,-0.06689453125,40.01235294117648,171.6590053029717
-0.3272490234375,0.0200458984375,0.9700244140625,1.0239341410765932,0.02587890625,0.47900390625,-0.0009765625,39.91823529411765,171.6590053029717
-0.3135771484375,0.0263935546875,0.9719775390625,1.021649442907512,0.07080078125,0.85791015625,0.0244140625,39.82411764705883,171.27472661275254
-0.3135771484375,0.0112568359375,0.9480517578125,0.9986287998395044,0.1884765625,1.21044921875,-0.076171875,40.059411764705885,171.27472661275254
-0.3160185546875,0.0010029296875,0.9177783203125,0.9706625458986088,0.173828125,1.001953125,-0.08447265625,39.91823529411765,171.27472661275254
-0.3091826171875,0.0117451171875,0.9285205078125,0.9787145508150183,0.1328125,0.5615234375,-0.0556640625,39.87117647058824,171.27472661275254
-0.3379912109375,0.0151630859375,0.9670947265625,1.024568293473472,0.1484375,0.68115234375,-0.04443359375,40.01235294117648,171.27472661275254
-0.3448271484375,0.0156513671875,0.9690478515625,1.028690656228719,0.17578125,1.1357421875,-0.00830078125,40.01235294117648,171.44745543998698
-0.3379912109375,0.0161396484375,0.9426806640625,1.0015714559231408,0.19873046875,1.31396484375,0.05029296875,40.24764705882353,171.44745543998698
-0.3301787109375,0.0195576171875,0.9094775390625,0.9677550700490198,0.177734375,1.1640625,0.1044921875,39.82411764705883,171.44745543998698
-0.3306669921875,0.0210224609375,0.9085009765625,0.9670349673104964,0.18896484375,0.943359375,0.11962890625,40.01235294117648,171.44745543998698
-0.3292021484375,0.0244404296875,0.9036181640625,0.9620276376294284,0.19921875,0.72802734375,0.19775390625,40.01235294117648,171.1828035795292
-0.3277373046875,0.0195576171875,0.8962939453125001,0.9545350059991132,0.19775390625,0.3974609375,0.203125,39.82411764705883,171.1828035795292
-0.3296904296875,0.0171162109375,0.9231494140625,0.9804048065918092,0.2099609375,0.19189453125,0.19140625,40.24764705882353,171.1828035795292
-0.3433623046875,0.0166279296875,0.9465869140625,1.0070754421593109,0.18408203125,0.24951171875,0.16064453125,40.059411764705885,171.1828035795292
-0.3438505859375,0.0151630859375,0.9460986328125,1.0067600347820689,0.19775390625,0.431640625,0.09228515625,40.24764705882353,171.1828035795292
-0.3394560546875,0.0161396484375,0.9456103515625,1.004823287099699,0.13671875,0.57373046875,0.03076171875,39.82411764705883,171.0214199259047
-0.3296904296875,0.0136982421875,0.9397509765625,0.9959996582412708,0.1455078125,0.69140625,0.00390625,39.91823529411765,171.0214199259047
-0.3384794921875,0.0122333984375,0.9426806640625,1.0016810156263094,0.1455078125,0.8271484375,0.00732421875,39.91823529411765,171.0214199259047
-0.3384794921875,0.0234638671875,0.9421923828125,1.0014216923578183,0.15771484375,0.9150390625,0.03466796875,40.01235294117648,171.0214199259047
-0.3272490234375,0.0205341796875,0.9314501953125,0.9874781224026842,0.1513671875,0.9130859375,0.04833984375,40.01235294117648,171.56980204279756
-0.3365263671875,0.0219990234375,0.9270556640625,0.986491843410265,0.17578125,0.857421875,0.04736328125,40.01235294117648,171.56980204279756
-0.3394560546875,0.0141865234375,0.9207080078125,0.981394368315464,0.17333984375,0.8359375,0.0498046875,39.82411764705883,171.56980204279756
-0.3511748046875,0.0205341796875,0.9265673828125,0.9910966203528032,0.1611328125,0.8056640625,0.1044921875,40.01235294117648,171.56980204279756
-0.3560576171875,0.0205341796875,0.9251025390625,0.9914703157798338,0.1787109375,0.75,0.1015625,39.82411764705883,171.56980204279756
-0.3526396484375,0.0151630859375,0.9211962890625,0.9865025310701402,0.16259765625,0.89892578125,0.099609375,40.01235294117648,171.19959555253334
-0.3589873046875,0.0180927734375,0.9168017578125,0.984746006087634,0.1611328125,0.9609375,0.064453125,39.91823529411765,171.19959555253334
-0.3624052734375,0.0156513671875,0.9226611328125,0.99140612945099,0.1552734375,0.93017578125,0.08349609375,40.15352941176471,171.19959555253334
-0.3619169921875,0.0210224609375,0.9124072265625,0.9817906091328176,0.1240234375,0.84716796875,0.1142578125,40.01235294117648,171.19959555253334
-0.3633818359375,0.0190693359375,0.9109423828125,0.9809312020047688,0.14306640625,0.7294921875,0.14013671875,39.91823529411765,171.5421076871769
-0.3614287109375,0.0171162109375,0.9197314453125,0.9883469073475264,0.11279296875,0.6455078125,0.162109375,39.73,171.5421076871769
-0.3648466796875,0.0176044921875,0.9182666015625,0.9882492445579284,0.111328125,0.59033203125,0.18017578125,39.87117647058824,171.5421076871769
-0.3624052734375,0.0161396484375,0.9202197265625,0.9891422625799372,0.0947265625,0.58154296875,0.22216796875,40.20058823529412,171.5421076871769
-0.3624052734375,0.0244404296875,0.9163134765625,0.9856801226303968,0.11669921875,0.6083984375,0.20654296875,39.82411764705883,171.5421076871769
-0.3653349609375,0.0283466796875,0.9231494140625,0.9932159929322764,0.0986328125,0.64697265625,0.2265625,40.059411764705885,171.15510591714263
-0.3648466796875,0.0312763671875,0.9231494140625,0.9931244390847392,0.11865234375,0.673828125,0.22509765625,39.68294117647059,171.15510591714263
-0.3614287109375,0.0366474609375,0.9177783203125,0.9870616975238896,0.10595703125,0.65576171875,0.21728515625,39.82411764705883,171.15510591714263
-0.3619169921875,0.0337177734375,0.9251025390625,0.9939494480402482,0.09423828125,0.59716796875,0.19140625,39.73,171.15510591714263
-0.3648466796875,0.0410419921875,0.9314501953125,1.0011977882263856,0.08154296875,0.5791015625,0.16162109375,39.91823529411765,171.02708950110463
-0.3653349609375,0.0420185546875,0.9294970703125,0.9995999181376276,0.08203125,0.560546875,0.126953125,39.87117647058824,171.02708950110463
-0.3702177734375,0.0449482421875,0.9397509765625,1.0110457171636398,0.0830078125,0.6279296875,0.080078125,39.91823529411765,171.02708950110463
-0.3653349609375,0.0376240234375,0.9319384765625,1.00169582454978,0.0869140625,0.67919921875,0.09521484375,40.15352941176471,171.02708950110463
-0.3628935546875,0.0415302734375,0.9260791015625,0.9955094163273044,0.08837890625,0.70068359375,0.0380859375,40.059411764705885,171.02708950110463
-0.3643583984375,0.0317646484375,0.9177783203125,0.9879691698823057,0.11083984375,0.7021484375,0.05126953125,39.91823529411765,171.16622830494128
-0.3619169921875,0.0356708984375,0.9187548828125,0.9881127754063278,0.1181640625,0.6787109375,0.04443359375,40.059411764705885,171.16622830494128
-0.3614287109375,0.0254169921875,0.9124072265625,0.981714665096369,0.13134765625,0.615234375,0.04296875,39.91823529411765,171.16622830494128
-0.3682646484375,0.0268818359375,0.9124072265625,0.9842908266745348,0.13720703125,0.578125,0.04736328125,40.059411764705885,171.16622830494128
-0.3687529296875,0.0210224609375,0.9050830078125,0.9775458649331524,0.171875,0.54736328125,0.08203125,40.059411764705885,171.196869643001
-0.3716826171875,0.0210224609375,0.9055712890625,0.9791063636589932,0.18115234375,0.48486328125,0.125,39.82411764705883,171.196869643001
-0.3726591796875,0.0215107421875,0.9119189453125,0.9853597003402768,0.18603515625,0.46044921875,0.15771484375,39.91823529411765,171.196869643001
-0.3814482421875,0.0224873046875,0.9050830078125,0.9824376272165904,0.21923828125,0.45751953125,0.193359375,40.24764705882353,171.196869643001
-0.3834013671875,0.0190693359375,0.9045947265625,0.982675870905064,0.267578125,0.50146484375,0.17041015625,39.82411764705883,171.196869643001
-0.3751005859375,0.0161396484375,0.9026416015625,0.9776107603201066,0.2666015625,0.42578125,0.13134765625,40.20058823529412,171.44745543998698
-0.3887724609375,0.0234638671875,0.9138720703125,0.9934066339339837,0.13916015625,0.2802734375,0.21728515625,39.82411764705883,171.44745543998698
-0.3902373046875,0.0429951171875,0.9627001953125,1.0396756225508308,0.115234375,0.4580078125,0.2734375,39.73,171.44745543998698
-0.3931669921875,0.0464130859375,0.9680712890625,1.0458950611792457,0.302734375,1.13427734375,0.20751953125,40.24764705882353,171.44745543998698
-0.3711943359375,0.0278583984375,0.8875048828125001,0.9624064850215908,0.33349609375,1.07763671875,0.18603515625,40.059411764705885,171.27767248345543
-0.3296904296875,0.0234638671875,0.8225634765625001,0.8864857615695289,0.2451171875,0.162109375,0.19873046875,40.01235294117648,171.27767248345543
-0.3326201171875,0.0283466796875,0.8704150390625001,0.9322349579549704,0.19775390625,-0.380859375,0.1513671875,40.01235294117648,171.27767248345543
-0.3531279296875,0.0288349609375,0.9104541015625,0.976963387619836,0.1826171875,-0.32177734375,0.08837890625,40.059411764705885,171.27767248345543
-0.3409208984375,0.0254169921875,0.9011767578125,0.9638426382479356,0.05908203125,-0.34375,0.10400390625,40.059411764705885,171.27767248345543
-0.3633818359375,0.0405537109375,0.9041064453125,0.9752432653526582,0.05908203125,-0.50341796875,0.2626953125,40.059411764705885,171.70916945191942
-0.3721708984375,0.0415302734375,0.8982470703125001,0.9731822751060352,0.0546875,-0.7109375,0.400390625,39.91823529411765,171.70916945191942
-0.3809599609375,0.0434833984375,0.9045947265625,0.9825033929212968,0.06884765625,-0.93603515625,0.48095703125,39.73,171.70916945191942
-0.3731474609375,0.0361591796875,0.9128955078125,0.9868762445534994,0.001953125,-0.99755859375,0.48876953125,40.059411764705885,171.70916945191942
-0.3736357421875,0.0283466796875,0.9246142578125,0.997656618200606,0.0791015625,-1.09326171875,0.482421875,39.91823529411765,171.4753738758471
-0.3785185546875,0.0332294921875,0.9524462890625,1.0254435279149603,0.08447265625,-0.9580078125,0.416015625,39.91823529411765,171.4753738758471
-0.3873076171875,0.0283466796875,0.9573291015625,1.0330971557792754,0.11328125,-0.54736328125,0.306640625,39.91823529411765,171.4753738758471
-0.3824248046875,0.0346943359375,0.9553759765625,1.0296580426428803,0.12060546875,-0.22265625,0.2197265625,40.059411764705885,171.4753738758471
-0.3667998046875,0.0307880859375,0.9446337890625,1.0138160574744606,0.1328125,0.052734375,0.24169921875,39.91823529411765,171.4753738758471
-0.3638701171875,0.0346943359375,0.9314501953125,1.000602131456796,0.125,0.279296875,0.23583984375,40.059411764705885,171.64243577611202
-0.3580107421875,0.0337177734375,0.9138720703125,0.9820747123638212,0.1201171875,0.30078125,0.1708984375,40.01235294117648,171.64243577611202
-0.3428740234375,0.0312763671875,0.9109423828125,0.9738361422214632,0.06689453125,0.201171875,0.18994140625,39.91823529411765,171.64243577611202
-0.3477568359375,0.0337177734375,0.9104541015625,0.9751914561965886,0.0673828125,0.17529296875,0.1884765625,40.24764705882353,171.64243577611202
-0.3536162109375,0.0312763671875,0.9011767578125,0.9685774024845362,0.0947265625,0.17236328125,0.24169921875,40.01235294117648,171.6006700551772
-0.3589873046875,0.0322529296875,0.9031298828125,0.9723968951149232,0.0625,0.12744140625,0.29150390625,40.059411764705885,171.6006700551772
-0.3682646484375,0.0346943359375,0.9080126953125,0.9804639733736322,0.07666015625,0.11279296875,0.3447265625,39.87117647058824,171.6006700551772
-0.3648466796875,0.0390888671875,0.9055712890625,0.9770877129466492,0.07373046875,0.12060546875,0.39111328125,39.91823529411765,171.6006700551772
-0.3638701171875,0.0395771484375,0.9202197265625,0.9903394155617816,0.0927734375,0.1689453125,0.39501953125,40.01235294117648,171.6006700551772
-0.3580107421875,0.0356708984375,0.9290087890625,0.9962436622997186,0.1142578125,0.21484375,0.43115234375,39.73,171.4029661872613
-0.3516630859375,0.0322529296875,0.9177783203125,0.983373897721587,0.0849609375,0.2314453125,0.43505859375,39.91823529411765,171.4029661872613
-0.3589873046875,0.0366474609375,0.9236376953125,0.991625692245894,0.05908203125,0.19677734375,0.4404296875,39.91823529411765,171.4029661872613
-0.3565458984375,0.0376240234375,0.9338916015625,1.0003469739551376,0.05810546875,0.16943359375,0.4755859375,39.91823529411765,171.4029661872613
-0.3506865234375,0.0469013671875,0.9407275390625,1.0050617288083974,0.03857421875,0.08935546875,0.44287109375,39.91823529411765,171.57002675367113
-0.3521513671875,0.0478779296875,0.9392626953125,1.004249616563974,0.04052734375,0.0869140625,0.4140625,40.01235294117648,171.57002675367113
-0.3521513671875,0.0547138671875,0.9543994140625,1.0187651516603229,0.0556640625,0.09912109375,0.3193359375,40.059411764705885,171.57002675367113
-0.3624052734375,0.0439716796875,0.9402392578125,1.008623295765892,0.0048828125,0.1484375,0.3173828125,40.059411764705885,171.57002675367113
-0.3687529296875,0.0395771484375,0.9392626953125,1.009831413968322,0.0185546875,0.2177734375,0.39501953125,39.87117647058824,171.57002675367113
-0.3765654296875,0.0342060546875,0.9363330078125,1.009797543338376,0.00732421875,0.2919921875,0.43310546875,39.91823529411765,171.31398835543249
-0.3624052734375,0.0434833984375,0.9280322265625,0.997232270683984,0.02685546875,0.35498046875,0.45556640625,39.91823529411765,171.31398835543249
-0.3638701171875,0.0459248046875,0.9241259765625,0.994243114346398,0.02099609375,0.25048828125,0.5322265625,39.87117647058824,171.31398835543249
-0.3575224609375,0.0444599609375,0.9182666015625,0.9864139849710736,0.048828125,0.41015625,0.54736328125,39.91823529411765,171.31398835543249
-0.3462919921875,0.0503193359375,0.9109423828125,0.9758412802431008,0.025390625,0.42333984375,0.39404296875,39.91823529411765,171.22773497673518
-0.3531279296875,0.0449482421875,0.9163134765625,0.983031060817094,0.0146484375,0.43603515625,0.4677734375,40.24764705882353,171.22773497673518
-0.3433623046875,0.0483662109375,0.9128955078125,0.9765322169928674,0.01513671875,0.43408203125,0.4931640625,39.87117647058824,171.22773497673518
-0.3409208984375,0.0552021484375,0.9089892578125,0.9723866550925448,0.017578125,0.41064453125,0.4189453125,39.91823529411765,171.22773497673518
-0.3350615234375,0.0581318359375,0.9060595703125,0.9677755317182776,-0.009765625,0.37060546875,0.34228515625,39.91823529411765,171.22773497673518
-0.3379912109375,0.0586201171875,0.9241259765625,0.985739923797179,-0.0029296875,0.3251953125,0.27294921875,39.91823529411765,171.34463113616857
-0.3453154296875,0.0581318359375,0.9226611328125,0.9868767006736824,-0.0185546875,0.32958984375,0.17529296875,40.059411764705885,171.34463113616857
-0.3536162109375,0.0615498046875,0.9299853515625,0.9968478104583924,-0.037109375,0.33056640625,0.08935546875,39.91823529411765,171.34463113616857
-0.3531279296875,0.0620380859375,0.9236376953125,0.9907848661714383,-0.06494140625,0.3466796875,0.009765625,40.15352941176471,171.34463113616857
-0.3565458984375,0.0630146484375,0.9314501953125,0.9993474320565398,-0.06494140625,0.33447265625,-0.04931640625,40.01235294117648,171.39184390916446
-0.3438505859375,0.0654560546875,0.9241259765625,0.988193574712166,-0.04150390625,0.36181640625,-0.052734375,40.059411764705885,171.39184390916446
-0.3521513671875,0.0615498046875,0.9241259765625,0.9908621419888284,-0.00634765625,0.38037109375,-0.0859375,40.059411764705885,171.39184390916446
-0.3628935546875,0.0595966796875,0.9197314453125,0.9905298722199772,0.0634765625,0.35791015625,-0.1318359375,39.87117647058824,171.39184390916446
-0.3531279296875,0.0542255859375,0.9128955078125,0.9803152335243432,0.04443359375,0.27783203125,-0.16796875,40.059411764705885,171.39184390916446
-0.3721708984375,0.0615498046875,0.9265673828125,1.0004132501085996,-0.02197265625,0.21142578125,-0.1044921875,40.059411764705885,171.3055901770415
-0.3580107421875,0.0659443359375,0.9583056640625,1.0251195504613848,-0.03759765625,0.4033203125,-0.02978515625,39.91823529411765,171.3055901770415
-0.3545927734375,0.0591083984375,0.9553759765625,1.0207708334061545,0.15234375,0.93994140625,-0.0673828125,40.15352941176471,171.3055901770415
-0.3448271484375,0.0459248046875,0.9075244140625,0.971913273962552,0.19482421875,0.94873046875,-0.16357421875,40.15352941176471,171.3055901770415
-0.3521513671875,0.0415302734375,0.8596728515625001,0.929931589278168,0.1318359375,0.41015625,-0.2568359375,39.91823529411765,171.04660828925532
-0.3697294921875,0.0542255859375,0.9109423828125,0.9846097381031772,0.126953125,0.0078125,-0.29833984375,40.01235294117648,171.04660828925532
-0.3643583984375,0.0410419921875,0.9446337890625,1.013298812331898,0.14306640625,0.2236328125,-0.328125,40.01235294117648,171.04660828925532
-0.3482451171875,0.0342060546875,0.9382861328125,1.0014117948428891,0.10546875,0.49609375,-0.3427734375,40.01235294117648,171.04660828925532
-0.3409208984375,0.0342060546875,0.9114306640625,0.9737057915829228,0.0771484375,0.50732421875,-0.3330078125,39.82411764705883,171.04660828925532
-0.3399443359375,0.0346943359375,0.9011767578125,0.9637870082666508,0.08642578125,0.3134765625,-0.2412109375,39.91823529411765,171.48104910253716
-0.3506865234375,0.0386005859375,0.9021533203125,0.968685530141886,0.14404296875,0.12939453125,-0.0791015625,39.82411764705883,171.48104910253716
-0.3531279296875,0.0356708984375,0.9006884765625001,0.9680968337584808,0.20361328125,-0.0673828125,0.08251953125,39.87117647058824,171.48104910253716
-0.3521513671875,0.0254169921875,0.8914111328125001,0.9587859075966592,0.1875,-0.369140625,0.150390625,39.91823529411765,171.48104910253716
-0.3438505859375,0.0351826171875,0.9080126953125,0.9715750598128768,0.15673828125,-0.69873046875,0.1162109375,40.01235294117648,171.3503068717538
-0.3580107421875,0.0346943359375,0.9324267578125,0.999397341977914,0.1640625,-0.60400390625,0.04150390625,39.91823529411765,171.3503068717538
-0.3663115234375,0.0327412109375,0.9485400390625,1.0173417934998272,0.13720703125,-0.3271484375,-0.03759765625,40.15352941176471,171.3503068717538
-0.3614287109375,0.0488544921875,0.9480517578125,1.015785218433608,0.14599609375,-0.2275390625,-0.08349609375,40.15352941176471,171.3503068717538
-0.3599638671875,0.0552021484375,0.9578173828125,1.0247123507065206,0.1552734375,-0.283203125,-0.119140625,39.91823529411765,171.3503068717538
-0.3667998046875,0.0469013671875,0.9568408203125,1.0258100167083293,0.201171875,-0.2119140625,-0.18701171875,39.82411764705883,171.3975184011707
-0.3599638671875,0.0327412109375,0.9387744140625,1.005953961706312,0.1796875,-0.26025390625,-0.1826171875,39.82411764705883,171.3975184011707
-0.3624052734375,0.0449482421875,0.9407275390625,1.0091215137145986,0.2216796875,-0.29150390625,-0.181640625,40.01235294117648,171.3975184011707
-0.3531279296875,0.0434833984375,0.9324267578125,0.9980029054816348,0.18408203125,-0.2646484375,-0.16552734375,40.059411764705885,171.3975184011707
-0.3375029296875,0.0469013671875,0.9197314453125,0.9808230713478974,0.1455078125,-0.29052734375,-0.11767578125,40.059411764705885,171.68987872441133
-0.3296904296875,0.0400654296875,0.9241259765625,0.9819927895056902,0.15869140625,-0.265625,-0.13330078125,40.01235294117648,171.68987872441133
-0.3379912109375,0.0405537109375,0.9246142578125,0.98528888550108,0.11474609375,-0.11181640625,-0.1552734375,39.91823529411765,171.68987872441133
-0.3370146484375,0.0346943359375,0.9251025390625,0.9851889554737612,0.13134765625,-0.00341796875,-0.1904296875,39.91823529411765,171.68987872441133
-0.3267607421875,0.0288349609375,0.9158251953125,0.9727999927921318,0.07666015625,-0.1572265625,-0.19970703125,39.82411764705883,171.68987872441133
-0.3282255859375,0.0224873046875,0.9241259765625,0.9809416571303912,0.04052734375,-0.27734375,-0.203125,39.91823529411765,171.34463113616857
-0.3243193359375,0.0205341796875,0.9143603515625,0.9703914347869514,-0.01904296875,-0.3505859375,-0.2197265625,40.24764705882353,171.34463113616857
-0.3272490234375,0.0263935546875,0.9363330078125,0.9922237875545228,-0.0009765625,-0.30517578125,-0.17431640625,39.87117647058824,171.34463113616857
-0.3301787109375,0.0278583984375,0.9319384765625,0.989092207843882,-0.04541015625,-0.2998046875,-0.1142578125,40.15352941176471,171.34463113616857
-0.3311552734375,0.0351826171875,0.9309619140625,0.9887323789137996,-0.046875,-0.28271484375,-0.07275390625,40.059411764705885,171.59522425761563
-0.3389677734375,0.0425068359375,0.9480517578125,1.007724227168309,-0.03173828125,-0.17041015625,-0.03271484375,39.82411764705883,171.59522425761563
-0.3438505859375,0.0415302734375,0.9495166015625,1.010712503981303,-0.04052734375,-0.037109375,-0.029296875,40.059411764705885,171.59522425761563
-0.3438505859375,0.0410419921875,0.9485400390625,1.0097751612497556,-0.04345703125,0.07958984375,-0.04443359375,40.01235294117648,171.59522425761563
-0.3340849609375,0.0390888671875,0.9485400390625,1.0064138842282049,-0.0439453125,0.189453125,-0.0302734375,39.91823529411765,171.59522425761563
-0.3248076171875,0.0351826171875,0.9329150390625,0.9884676397556824,-0.0205078125,0.2568359375,0.00732421875,39.82411764705883,171.60362407379094
-0.3209013671875,0.0390888671875,0.9363330078125,0.9905680837378176,0.0166015625,0.24365234375,0.0654296875,40.24764705882353,171.60362407379094
-0.3106474609375,0.0332294921875,0.9353564453125,0.9861529921495906,0.03125,0.27685546875,0.0927734375,39.82411764705883,171.60362407379094
-0.3091826171875,0.0268818359375,0.9255908203125,0.9762350590513792,0.03076171875,0.19580078125,0.13720703125,40.01235294117648,171.60362407379094
-0.3096708984375,0.0293232421875,0.9197314453125,0.9709077450345608,0.0146484375,0.1298828125,0.12646484375,39.91823529411765,171.63426828971157
-0.3160185546875,0.0298115234375,0.9221728515625,0.9752739215191564,0.02099609375,0.13720703125,0.11669921875,39.68294117647059,171.63426828971157
-0.3228544921875,0.0327412109375,0.9304736328125,0.9854380707982584,0.0078125,0.16796875,0.158203125,40.01235294117648,171.63426828971157
-0.3223662109375,0.0351826171875,0.9265673828125,0.9816745414842788,0.0048828125,0.1640625,0.193359375,40.15352941176471,171.63426828971157
-0.3233427734375,0.0361591796875,0.9299853515625,0.9852567125022564,0.04248046875,0.181640625,0.19970703125,39.91823529411765,171.63426828971157
-0.3233427734375,0.0376240234375,0.9329150390625,0.9880772168119584,0.03759765625,0.17578125,0.205078125,40.15352941176471,171.15260402019186
-0.3199248046875,0.0322529296875,0.9294970703125,0.9835430523608424,0.04541015625,0.1455078125,0.19580078125,39.87117647058824,171.15260402019186
-0.3155302734375,0.0381123046875,0.9299853515625,0.9827943097845872,0.02490234375,0.2490234375,0.15234375,40.059411764705885,171.15260402019186
-0.3174833984375,0.0386005859375,0.9216845703125,0.9755963102996448,0.0,0.099609375,0.12646484375,40.059411764705885,171.15260402019186
-0.3233427734375,0.0410419921875,0.9246142578125,0.980380803569273,0.025390625,0.07421875,0.09228515625,40.67117647058824,171.45335977159465
-0.3257841796875,0.0420185546875,0.9304736328125,0.9867532984652116,-0.015625,0.10693359375,0.08935546875,39.82411764705883,171.45335977159465
-0.3292021484375,0.0425068359375,0.9324267578125,0.9897477175129096,-0.00341796875,0.126953125,0.08544921875,40.059411764705885,171.45335977159465
-0.3296904296875,0.0415302734375,0.9402392578125,0.9972313698290496,0.0419921875,0.15234375,0.05419921875,39.91823529411765,171.45335977159465
-0.3213896484375,0.0312763671875,0.9246142578125,0.9793778857097948,0.05517578125,0.11767578125,-0.001953125,39.73,171.45335977159465
-0.3213896484375,0.0312763671875,0.9275439453125,0.9821442296084142,-0.0458984375,0.0166015625,0.0322265625,40.01235294117648,171.55913589992676
-0.3306669921875,0.0386005859375,0.9485400390625,1.005265572205542,-0.12158203125,0.03857421875,0.12451171875,39.82411764705883,171.55913589992676
-0.3194365234375,0.0361591796875,0.9656298828125,1.0177368271621068,-0.02685546875,0.4208984375,0.2216796875,40.01235294117648,171.55913589992676
-0.2950224609375,0.0307880859375,0.9192431640625,0.9659162248191868,0.06787109375,0.4638671875,0.130859375,39.73,171.55913589992676
-0.3326201171875,0.0288349609375,0.9070361328125,0.9665309842718692,0.0712890625,0.1328125,0.1083984375,40.01235294117648,171.46448177723494
-0.3306669921875,0.0346943359375,0.9216845703125,0.9798197812968517,-0.068359375,-0.27587890625,0.1025390625,39.91823529411765,171.46448177723494
-0.3365263671875,0.0415302734375,0.9749072265625,1.0321912903275223,-0.0126953125,-0.00537109375,0.06884765625,39.82411764705883,171.46448177723494
-0.3160185546875,0.0268818359375,0.9563525390625,1.0075716048904106,0.01171875,0.43505859375,0.173828125,40.059411764705885,171.46448177723494
-0.2999052734375,0.0356708984375,0.9280322265625,0.975940264344858,0.041015625,0.3974609375,0.23974609375,39.87117647058824,171.46448177723494
-0.3028349609375,0.0405537109375,0.9177783203125,0.9673007093311022,0.05322265625,0.2333984375,0.26025390625,39.82411764705883,171.33918483513273
-0.3106474609375,0.0356708984375,0.9226611328125,0.9742062533083536,0.05615234375,0.173828125,0.2939453125,39.73,171.33918483513273
-0.3199248046875,0.0366474609375,0.9309619140625,0.985081216185962,0.07373046875,0.18310546875,0.30126953125,39.82411764705883,171.33918483513273
-0.3218779296875,0.0381123046875,0.9255908203125,0.9807019506635392,0.10693359375,0.14013671875,0.2783203125,39.91823529411765,171.33918483513273
-0.3184599609375,0.0302998046875,0.9285205078125,0.9820820527393817,0.07568359375,0.01416015625,0.248046875,40.059411764705885,171.3671060498511
-0.3150419921875,0.0356708984375,0.9402392578125,0.992256887992524,0.07470703125,-0.134765625,0.18701171875,40.01235294117648,171.3671060498511
-0.3233427734375,0.0337177734375,0.9529345703125,1.0068623206161338,0.06005859375,-0.10302734375,0.1259765625,39.91823529411765,171.3671060498511
-0.3287138671875,0.0356708984375,0.9514697265625,1.007283406019189,0.0458984375,0.0224609375,0.08056640625,39.91823529411765,171.3671060498511
-0.3233427734375,0.0444599609375,0.9519580078125,1.006355447095688,0.0556640625,0.13232421875,0.083984375,40.24764705882353,171.3671060498511
-0.3145537109375,0.0429951171875,0.9509814453125,1.0025758457569036,0.02978515625,0.17236328125,0.0771484375,40.059411764705885,171.08314857198408
-0.3150419921875,0.0410419921875,0.9441455078125,0.9961659710543778,0.04638671875,0.14453125,0.05224609375,40.01235294117648,171.08314857198408
-0.3140654296875,0.0395771484375,0.9373095703125,0.9893192990145504,0.04638671875,0.12060546875,0.06591796875,40.24764705882353,171.08314857198408
-0.3150419921875,0.0371357421875,0.9387744140625,0.9909227622209896,0.07080078125,0.13427734375,0.08154296875,40.01235294117648,171.08314857198408
-0.3223662109375,0.0400654296875,0.9368212890625,0.9915439174595188,0.0537109375,0.15478515625,0.0908203125,40.01235294117648,171.4004719574145
-0.3179716796875,0.0371357421875,0.9426806640625,0.9955560691535272,0.06591796875,0.18115234375,0.12255859375,40.01235294117648,171.4004719574145
-0.3130888671875,0.0371357421875,0.9319384765625,0.9838257092606404,0.091796875,0.18115234375,0.13720703125,40.15352941176471,171.4004719574145
-0.3052763671875,0.0366474609375,0.9358447265625,0.9850594139396888,0.11328125,0.201171875,0.173828125,40.059411764705885,171.4004719574145
-0.2969755859375,0.0361591796875,0.9363330078125,0.9829656588293396,0.11376953125,0.2197265625,0.16650390625,40.059411764705885,171.4004719574145
-0.2984404296875,0.0410419921875,0.9353564453125,0.982671264962202,0.10400390625,0.20849609375,0.142578125,39.91823529411765,171.24180951478334
-0.2974638671875,0.0361591796875,0.9348681640625,0.981718250179452,0.103515625,0.1630859375,0.14599609375,40.15352941176471,171.24180951478334
-0.3003935546875,0.0381123046875,0.9436572265625,0.9910488366927306,0.0859375,0.14794921875,0.14892578125,39.82411764705883,171.24180951478334
-0.3086943359375,0.0405537109375,0.9402392578125,0.990447706061505,0.09423828125,0.14697265625,0.1337890625,39.73,171.24180951478334
-0.3057646484375,0.0390888671875,0.9431689453125,0.9922638858559772,0.0947265625,0.1455078125,0.14404296875,40.15352941176471,171.52304847284628
-0.3047880859375,0.0400654296875,0.9470751953125,0.995717048945984,0.09912109375,0.142578125,0.1591796875,39.82411764705883,171.52304847284628
-0.3057646484375,0.0351826171875,0.9480517578125,0.9967607397352894,0.09228515625,0.00048828125,0.14013671875,39.91823529411765,171.52304847284628
-0.3052763671875,0.0425068359375,0.9519580078125,1.000612082728846,0.0966796875,0.1181640625,0.14208984375,39.91823529411765,171.52304847284628
-0.3013701171875,0.0410419921875,0.9504931640625,0.9979707648953796,0.1142578125,0.1337890625,0.13232421875,40.059411764705885,171.52304847284628
-0.3047880859375,0.0410419921875,0.9441455078125,0.992970776193684,0.1162109375,0.16259765625,0.0947265625,39.82411764705883,171.2363651930532
-0.3033232421875,0.0425068359375,0.9456103515625,0.9939772418595456,0.10986328125,0.15869140625,0.0927734375,40.15352941176471,171.2363651930532
-0.2989287109375,0.0390888671875,0.9426806640625,0.9897136697843844,0.09912109375,0.1298828125,0.09765625,39.91823529411765,171.2363651930532
-0.2959990234375,0.0439716796875,0.9343798828125,0.981129296216964,0.09765625,0.130859375,0.09375,40.01235294117648,171.2363651930532
-0.2945341796875,0.0415302734375,0.9382861328125,0.984304837763291,0.119140625,0.13720703125,0.10107421875,39.87117647058824,171.45359661662616
-0.2979521484375,0.0444599609375,0.9377978515625,0.984995929575512,0.10791015625,0.1435546875,0.1044921875,39.82411764705883,171.45359661662616
-0.2930693359375,0.0395771484375,0.9324267578125,0.9782002070282044,0.1064453125,0.14599609375,0.0830078125,39.91823529411765,171.45359661662616
-0.2959990234375,0.0395771484375,0.9334033203125,0.9800120055003394,0.24755859375,0.1552734375,0.11328125,40.01235294117648,171.45359661662616
-0.2979521484375,0.0420185546875,0.9358447265625,0.9830291928174814,0.11572265625,0.130859375,0.14208984375,40.15352941176471,171.45359661662616
-0.2969755859375,0.0400654296875,0.9338916015625,0.980792159821813,0.12255859375,0.12548828125,0.14990234375,40.059411764705885,171.37278467869905
-0.3018583984375,0.0439716796875,0.9309619140625,0.9796642724712924,0.1103515625,0.12646484375,0.14208984375,39.91823529411765,171.37278467869905
-0.2999052734375,0.0420185546875,0.9304736328125,0.9785141354793702,0.09619140625,0.10693359375,0.103515625,40.059411764705885,171.37278467869905
-0.3018583984375,0.0420185546875,0.9329150390625,0.9814349299644196,0.10546875,0.10009765625,0.08447265625,40.24764705882353,171.37278467869905
-0.3008818359375,0.0415302734375,0.9392626953125,0.987151991141494,0.09326171875,0.15234375,0.11474609375,40.059411764705885,171.56753623119045
-0.2999052734375,0.0429951171875,0.9314501953125,0.979485180840059,0.05908203125,0.16748046875,0.13037109375,40.01235294117648,171.56753623119045
-0.2994169921875,0.0429951171875,0.9397509765625,0.9872340215282032,0.083984375,0.1845703125,0.10888671875,39.73,171.56753623119045
-0.3023466796875,0.0420185546875,0.9387744140625,0.9871557496942782,0.09130859375,0.16162109375,0.11279296875,40.15352941176471,171.56753623119045
-0.3003935546875,0.0405537109375,0.9358447265625,0.9837104469321422,0.11767578125,0.09521484375,0.04248046875,39.91823529411765,171.56753623119045
-0.2999052734375,0.0371357421875,0.9270556640625,0.9750663775629848,0.095703125,-0.02294921875,0.01318359375,40.15352941176471,171.19187793926056
-0.3189482421875,0.0454365234375,0.9426806640625,0.9962124739501602,-0.00634765625,-0.09130859375,0.1064453125,40.01235294117648,171.19187793926056
-0.3179716796875,0.0537373046875,0.9846728515625,1.0361343115651525,0.0107421875,0.21923828125,0.20361328125,40.059411764705885,171.19187793926056
-0.2969755859375,0.0522724609375,0.9519580078125,0.9985744626484936,0.0830078125,0.466796875,0.16064453125,40.01235294117648,171.19187793926056
-0.2974638671875,0.0410419921875,0.9124072265625,0.9605499177493768,0.1455078125,0.2861328125,0.03076171875,40.059411764705885,171.46199812131204
-0.3189482421875,0.0312763671875,0.9182666015625,0.9725840549197208,0.087890625,-0.115234375,0.05078125,40.15352941176471,171.46199812131204
-0.3184599609375,0.0434833984375,0.9534228515625,1.0061424782512454,-0.0234375,-0.34228515625,0.0302734375,40.15352941176471,171.46199812131204
-0.3223662109375,0.0444599609375,0.9963916015625,1.0481855206713402,0.01123046875,0.10498046875,0.0205078125,40.059411764705885,171.46199812131204
-0.3067412109375,0.0327412109375,0.9675830078125,1.0155683307333596,0.02197265625,0.4443359375,0.0595703125,40.01235294117648,171.46199812131204
-0.2925810546875,0.0361591796875,0.9392626953125,0.984441755841058,0.029296875,0.3212890625,0.10791015625,40.24764705882353,171.42295183754237
-0.2891630859375,0.0366474609375,0.9324267578125,0.9769227120641604,0.01904296875,0.173828125,0.15283203125,40.15352941176471,171.42295183754237
-0.2916044921875,0.0371357421875,0.9334033203125,0.9785979775076924,0.02880859375,0.076171875,0.232421875,39.73,171.42295183754237
-0.2867216796875,0.0395771484375,0.9319384765625,0.9758509088886984,0.0419921875,-0.0263671875,0.25732421875,39.82411764705883,171.42295183754237
-0.2842802734375,0.0434833984375,0.9216845703125,0.965509464975622,0.04150390625,-0.1982421875,0.2646484375,40.059411764705885,171.36166284710296
-0.2881865234375,0.0410419921875,0.9334033203125,0.9777411087727216,0.01806640625,-0.33837890625,0.248046875,39.91823529411765,171.36166284710296
-0.2911162109375,0.0405537109375,0.9465869140625,0.9911710435720852,0.0390625,-0.43896484375,0.216796875,40.15352941176471,171.36166284710296
-0.2969755859375,0.0371357421875,0.9592822265625,1.0048860394041932,0.04443359375,-0.361328125,0.1123046875,39.91823529411765,171.36166284710296
-0.3013701171875,0.0400654296875,0.9519580078125,0.9993263905391448,0.0224609375,-0.25537109375,0.0966796875,40.059411764705885,171.36166284710296
-0.3023466796875,0.0395771484375,0.9548876953125,1.0023923264150207,0.02197265625,-0.11669921875,0.05810546875,40.20058823529412,171.56505594563302
-0.2935576171875,0.0473896484375,0.9646533203125,1.009444343080768,0.0380859375,-0.12353515625,0.0087890625,40.01235294117648,171.56505594563302
-0.2925810546875,0.0444599609375,0.9651416015625,1.0094942658357409,0.0419921875,0.09033203125,-0.03515625,39.73,171.56505594563302
-0.2964873046875,0.0405537109375,0.9421923828125,0.9885726131860813,0.03662109375,0.14208984375,-0.04345703125,39.91823529411765,171.56505594563302
-0.2916044921875,0.0469013671875,0.9465869140625,0.9915945259945486,0.04443359375,0.13232421875,-0.0439453125,39.63588235294118,171.38118544982265
-0.2906279296875,0.0469013671875,0.9436572265625,0.9885106438486784,0.06201171875,0.13525390625,-0.00244140625,40.01235294117648,171.38118544982265
-0.2872099609375,0.0454365234375,0.9465869140625,0.9902428112327673,0.0791015625,0.14990234375,0.00634765625,39.91823529411765,171.38118544982265
-0.2867216796875,0.0444599609375,0.9431689453125,0.9867895769267524,0.09326171875,0.1630859375,0.0341796875,39.91823529411765,171.38118544982265
-0.2901396484375,0.0429951171875,0.9451220703125,0.989588461679495,0.1298828125,0.189453125,0.05517578125,40.01235294117648,171.38118544982265
-0.2857451171875,0.0488544921875,0.9421923828125,0.9857806650737746,0.1279296875,0.1728515625,0.07177734375,39.91823529411765,171.49808379104348
-0.2842802734375,0.0459248046875,0.9475634765625,0.990353928485416,0.13916015625,0.2177734375,0.060546875,40.01235294117648,171.49808379104348
-0.2852568359375,0.0478779296875,0.9480517578125,0.9911941757756682,0.0,0.208984375,0.0166015625,40.01235294117648,171.49808379104348
-0.2867216796875,0.0449482421875,0.9539111328125,0.9970838055961968,0.111328125,0.20458984375,0.03564453125,39.91823529411765,171.49808379104348
-0.2872099609375,0.0483662109375,0.9460986328125,0.9899148827206574,0.08251953125,0.20849609375,0.02978515625,40.24764705882353,171.4007082951791
-0.2886748046875,0.0478779296875,0.9495166015625,0.9935830190051193,0.068359375,0.18310546875,0.03955078125,39.91823529411765,171.4007082951791
-0.2847685546875,0.0429951171875,0.9553759765625,0.9978401507423548,0.07080078125,0.1669921875,0.0419921875,40.059411764705885,171.4007082951791
-0.2876982421875,0.0420185546875,0.9514697265625,0.994902245479787,0.0712890625,0.18408203125,0.03857421875,40.15352941176471,171.4007082951791
-0.2876982421875,0.0390888671875,0.9500048828125,0.993381847762164,0.05712890625,0.17724609375,0.04541015625,39.87117647058824,171.4007082951791
-0.2862333984375,0.0386005859375,0.9568408203125,0.9994818252635196,0.05810546875,0.1884765625,0.07470703125,39.87117647058824,171.07226016644796
-0.2852568359375,0.0371357421875,0.9563525390625,0.9986794804982132,0.06640625,0.1962890625,0.0712890625,39.82411764705883,171.07226016644796
-0.2876982421875,0.0366474609375,0.9548876953125,0.997959831661656,0.06103515625,0.201171875,0.06640625,40.24764705882353,171.07226016644796
-0.2847685546875,0.0410419921875,0.9553759765625,0.9977579022259244,0.05126953125,0.2236328125,0.08642578125,40.059411764705885,171.07226016644796
-0.2911162109375,0.0400654296875,0.9534228515625,0.9976818234328118,0.05859375,0.23583984375,0.0732421875,39.91823529411765,171.2002784065681
-0.2872099609375,0.0405537109375,0.9480517578125,0.9914314402034534,0.0703125,0.2587890625,0.0830078125,39.82411764705883,171.2002784065681
-0.2881865234375,0.0420185546875,0.9539111328125,0.9973783036203696,0.07666015625,0.2705078125,0.10546875,40.059411764705885,171.2002784065681
-0.2862333984375,0.0405537109375,0.9470751953125,0.9902149198169522,0.0888671875,0.3134765625,0.1162109375,40.57705882352941,171.2002784065681
-0.2852568359375,0.0381123046875,0.9543994140625,0.9968461525132702,0.099609375,0.33984375,0.10205078125,40.059411764705885,171.2002784065681
-0.2779326171875,0.0371357421875,0.9504931640625,0.9909908465642115,0.08447265625,0.3212890625,0.09814453125,40.059411764705885,171.23932362579583
-0.2784208984375,0.0390888671875,0.9495166015625,0.9902665867671928,0.0859375,0.27734375,0.09375,40.059411764705885,171.23932362579583
-0.2808623046875,0.0376240234375,0.9412158203125,0.9829478224913732,0.10400390625,0.24609375,0.1064453125,39.91823529411765,171.23932362579583
-0.2833037109375,0.0376240234375,0.9539111328125,0.9958026958560672,0.1083984375,0.2431640625,0.0986328125,39.82411764705883,171.23932362579583
-0.2837919921875,0.0410419921875,0.9514697265625,0.9937388895063872,0.11328125,0.26220703125,0.09814453125,40.15352941176471,171.38414644060325
-0.2828154296875,0.0449482421875,0.9553759765625,0.997370627368694,0.083984375,0.25634765625,0.111328125,40.059411764705885,171.38414644060325
-0.2774443359375,0.0400654296875,0.9470751953125,0.9876902468770532,0.07861328125,0.2802734375,0.11376953125,40.01235294117648,171.38414644060325
-0.2803740234375,0.0415302734375,0.9465869140625,0.9881098838209706,0.08447265625,0.30126953125,0.248046875,40.15352941176471,171.38414644060325
-0.2833037109375,0.0454365234375,0.9548876953125,0.997063679487054,0.09423828125,0.3056640625,0.10009765625,39.91823529411765,171.38414644060325
-0.2862333984375,0.0410419921875,0.9524462890625,0.995373265188857,0.11376953125,0.29052734375,0.05419921875,39.87117647058824,171.44247485810885
-0.2989287109375,0.0420185546875,0.9539111328125,1.000535048093973,0.0634765625,0.2490234375,0.11376953125,39.91823529411765,171.44247485810885
-0.3042998046875,0.0493427734375,0.9753955078125,1.0229513561671248,0.00341796875,0.3603515625,0.224609375,40.059411764705885,171.44247485810885
-0.2994169921875,0.0552021484375,0.9929736328125,1.038602160532886,0.0322265625,0.78173828125,0.19384765625,40.01235294117648,171.44247485810885
-0.3077177734375,0.0434833984375,0.9700244140625,1.0185913792617252,0.177734375,1.177734375,0.1455078125,40.059411764705885,171.39798796436304
-0.2974638671875,0.0327412109375,0.9309619140625,0.9778787371707752,0.181640625,0.97021484375,0.10400390625,40.01235294117648,171.39798796436304
-0.2842802734375,0.0420185546875,0.9495166015625,0.9920497010969388,0.14013671875,0.59375,0.0947265625,39.91823529411765,171.39798796436304
-0.2876982421875,0.0444599609375,0.9724658203125,1.0151042992522517,0.08251953125,0.71875,0.109375,40.059411764705885,171.39798796436304
-0.3033232421875,0.0420185546875,0.9690478515625,1.0162796302234245,0.13330078125,1.001953125,0.1826171875,40.059411764705885,171.39798796436304
-0.2984404296875,0.0522724609375,0.9534228515625,1.0004070342246156,0.150390625,1.33447265625,0.373046875,40.15352941176471,171.3562213788446
-0.2852568359375,0.0459248046875,0.9275439453125,0.971503124349344,0.15380859375,1.18603515625,0.3134765625,40.24764705882353,171.3562213788446
-0.2847685546875,0.0508076171875,0.9055712890625,0.9506492009555352,0.15478515625,0.9951171875,0.35009765625,40.15352941176471,171.3562213788446
-0.2945341796875,0.0532490234375,0.9158251953125,0.9634944887597514,0.1845703125,0.82763671875,0.33203125,40.059411764705885,171.3562213788446
-0.3067412109375,0.0508076171875,0.9221728515625,0.9731774517582024,0.1826171875,0.7373046875,0.2998046875,40.15352941176471,171.2504453030194
-0.3106474609375,0.0517841796875,0.9255908203125,0.977702313027636,0.15673828125,0.59423828125,0.28369140625,40.15352941176471,171.2504453030194
-0.3174833984375,0.0483662109375,0.9426806640625,0.9958824393678156,0.13818359375,0.50634765625,0.25048828125,39.91823529411765,171.2504453030194
-0.3238310546875,0.0483662109375,0.9583056640625,1.0126971848063655,0.0009765625,0.55224609375,0.17919921875,39.73,171.2504453030194
-0.3248076171875,0.0444599609375,0.9627001953125,1.0169898437862157,0.10888671875,0.63232421875,0.1015625,39.91823529411765,171.2504453030194
-0.3238310546875,0.0532490234375,0.9817431640625,1.035143299577655,0.12841796875,0.83642578125,0.04833984375,40.15352941176471,171.12242658694765
-0.3243193359375,0.0503193359375,0.9734423828125,1.027280458242933,0.12109375,1.06494140625,0.02392578125,39.91823529411765,171.12242658694765
-0.3218779296875,0.0517841796875,0.9627001953125,1.016404776130329,0.1298828125,1.2392578125,-0.033203125,40.059411764705885,171.12242658694765
-0.3223662109375,0.0469013671875,0.9417041015625,0.9964568867231,0.111328125,1.30517578125,-0.04638671875,40.01235294117648,171.12242658694765
-0.3160185546875,0.0400654296875,0.9153369140625,0.9691824553758084,0.08984375,1.16748046875,-0.0048828125,40.81235294117647,171.25612663806004
-0.3204130859375,0.0542255859375,0.9231494140625,0.978677577394207,0.11767578125,1.12646484375,0.0263671875,40.01235294117648,171.25612663806004
-0.3209013671875,0.0454365234375,0.9265673828125,0.9816156478056466,0.09521484375,1.07470703125,0.0869140625,39.87117647058824,171.25612663806004
-0.3209013671875,0.0439716796875,0.9265673828125,0.9815489345770556,0.14453125,1.10693359375,0.0966796875,40.059411764705885,171.25612663806004
-0.3209013671875,0.0420185546875,0.9241259765625,0.9791588568554276,0.1337890625,1.08447265625,0.09130859375,40.059411764705885,171.25612663806004
-0.3213896484375,0.0361591796875,0.9192431640625,0.974477699628929,0.11328125,1.009765625,0.08154296875,40.059411764705885,171.20867919795856
-0.3209013671875,0.0351826171875,0.9207080078125,0.9756632306616004,0.08349609375,0.9189453125,0.0712890625,39.91823529411765,171.20867919795856
-0.3228544921875,0.0381123046875,0.9192431640625,0.9750361868002017,0.0673828125,0.82275390625,0.0693359375,40.01235294117648,171.20867919795856
-0.3262724609375,0.0410419921875,0.9211962890625,0.9781312625979462,0.04150390625,0.79248046875,0.04443359375,39.73,171.20867919795856
-0.3287138671875,0.0420185546875,0.9231494140625,0.980827816746306,0.02880859375,0.7236328125,0.0556640625,40.01235294117648,171.39798796436304
-0.3306669921875,0.0488544921875,0.9211962890625,0.979964297365852,0.03369140625,0.6240234375,0.05517578125,39.87117647058824,171.39798796436304
-0.3331083984375,0.0488544921875,0.9231494140625,0.9826254663911536,0.021484375,0.5810546875,0.0478515625,40.20058823529412,171.39798796436304
-0.3375029296875,0.0503193359375,0.9207080078125,0.9819080907940922,0.03759765625,0.57958984375,0.05810546875,39.82411764705883,171.39798796436304
-0.3428740234375,0.0488544921875,0.9231494140625,0.9859788020231748,0.04541015625,0.57080078125,0.0537109375,39.87117647058824,171.39798796436304
-0.3438505859375,0.0469013671875,0.9246142578125,0.9875953065116192,0.05712890625,0.54541015625,0.0576171875,39.82411764705883,171.5568997930558
-0.3467802734375,0.0473896484375,0.9373095703125,1.000525645560283,0.0615234375,0.59228515625,0.05908203125,40.24764705882353,171.5568997930558
-0.3506865234375,0.0439716796875,0.9314501953125,0.9962499749976984,0.0693359375,0.68701171875,0.07470703125,40.24764705882353,171.5568997930558
-0.3536162109375,0.0439716796875,0.9304736328125,0.996372979667567,0.0703125,0.791015625,0.07177734375,39.91823529411765,171.5568997930558
-0.3438505859375,0.0434833984375,0.9334033203125,0.9956735357332924,0.06884765625,0.81103515625,0.0439453125,40.15352941176471,171.48448586126605
-0.3409208984375,0.0420185546875,0.9382861328125,0.9991864115157366,0.0537109375,0.82275390625,0.0908203125,39.73,171.48448586126605
-0.3448271484375,0.0429951171875,0.9270556640625,0.9900437094754287,0.08984375,0.85205078125,0.1201171875,39.82411764705883,171.48448586126605
-0.3448271484375,0.0405537109375,0.9309619140625,0.9935997439639634,0.05859375,0.8720703125,0.15625,40.15352941176471,171.48448586126605
-0.3340849609375,0.0371357421875,0.9168017578125,0.9764820979416456,0.0166015625,0.734375,0.154296875,39.63588235294118,171.48448586126605
-0.3331083984375,0.0415302734375,0.9182666015625,0.977701140567266,0.03173828125,0.5546875,0.1572265625,39.87117647058824,171.2450050703612
-0.3438505859375,0.0444599609375,0.9211962890625,0.9842827421826756,0.06640625,0.53466796875,0.1884765625,40.20058823529412,171.2450050703612
-0.3477568359375,0.0498310546875,0.9348681640625,0.998697369141483,0.05712890625,0.61083984375,0.1962890625,40.15352941176471,171.2450050703612
-0.3438505859375,0.0469013671875,0.9265673828125,0.9894241146169952,0.0703125,0.64697265625,0.19775390625,40.059411764705885,171.2450050703612
-0.3409208984375,0.0522724609375,0.9246142578125,0.9868490233637844,0.06396484375,0.61376953125,0.20361328125,40.059411764705885,171.45112138610293
-0.3399443359375,0.0449482421875,0.9192431640625,0.9811169607581812,0.06298828125,0.57421875,0.22314453125,40.01235294117648,171.45112138610293
-0.3472685546875,0.0434833984375,0.9138720703125,0.9785951235887468,0.048828125,0.572265625,0.21826171875,40.15352941176471,171.45112138610293
-0.3526396484375,0.0488544921875,0.9202197265625,0.9866842596351604,0.064453125,0.57470703125,0.21240234375,40.059411764705885,171.45112138610293
-0.3580107421875,0.0522724609375,0.9216845703125,0.9901548105454242,0.0732421875,0.59912109375,0.17041015625,40.01235294117648,171.45112138610293
-0.3560576171875,0.0488544921875,0.9158251953125,0.983818873844834,0.0908203125,0.568359375,0.1650390625,40.15352941176471,171.1725938571505
-0.3609404296875,0.0517841796875,0.9294970703125,0.9984610151470236,0.015625,0.53955078125,0.21337890625,40.01235294117648,171.1725938571505
-0.3667998046875,0.0615498046875,0.9465869140625,1.0170335594513211,-0.0166015625,0.6650390625,0.26025390625,40.01235294117648,171.1725938571505
-0.3741240234375,0.0659443359375,0.9607470703125,1.033127472033027,0.15771484375,1.06884765625,0.2626953125,39.91823529411765,171.1725938571505
-0.3667998046875,0.0386005859375,0.9026416015625,0.9750866437526572,0.216796875,1.177734375,0.12939453125,39.73,171.15035071320335
-0.3536162109375,0.0439716796875,0.8914111328125001,0.9599956984041124,0.193359375,0.85791015625,0.1044921875,40.01235294117648,171.15035071320335
-0.3511748046875,0.0483662109375,0.9065478515625,0.9733920284142146,0.1181640625,0.5966796875,0.12890625,39.73,171.15035071320335
-0.3609404296875,0.0581318359375,0.9343798828125,1.00335590372368,0.06640625,0.71923828125,0.16455078125,40.059411764705885,171.15035071320335
-0.3526396484375,0.0488544921875,0.9314501953125,0.99716646022854,0.03173828125,0.87353515625,0.23583984375,40.059411764705885,171.15035071320335
-0.3506865234375,0.0556904296875,0.9055712890625,0.9726982169479784,0.044921875,0.84912109375,0.3232421875,40.01235294117648,171.39254860360816
-0.3526396484375,0.0566669921875,0.8865283203125001,0.9557710669243992,0.0546875,0.578125,0.3701171875,40.01235294117648,171.39254860360816
-0.3580107421875,0.0571552734375,0.8879931640625001,0.959150809948618,0.0361328125,0.25732421875,0.431640625,39.82411764705883,171.39254860360816
-0.3751005859375,0.0552021484375,0.9089892578125,0.984890449532988,0.08203125,0.146484375,0.40673828125,39.73,171.39254860360816
-0.3775419921875,0.0517841796875,0.9255908203125,1.000968492899542,0.0751953125,0.09912109375,0.39404296875,40.059411764705885,171.46224286378637
-0.3804716796875,0.0498310546875,0.9358447265625,1.01145795033226,0.09912109375,0.19091796875,0.353515625,39.87117647058824,171.46224286378637
-0.3741240234375,0.0469013671875,0.9412158203125,1.013930837662832,0.08984375,0.33203125,0.2880859375,40.059411764705885,171.46224286378637
-0.3614287109375,0.0473896484375,0.9382861328125,1.0066068541874773,0.083984375,0.43994140625,0.2021484375,40.01235294117648,171.46224286378637
-0.3619169921875,0.0532490234375,0.9324267578125,1.0016182039159558,0.04833984375,0.5546875,0.24951171875,39.82411764705883,171.46224286378637
-0.3765654296875,0.0674091796875,0.9470751953125,1.0214190843713873,0.1103515625,0.77587890625,0.09716796875,39.73,171.23116411258812
-0.3760771484375,0.0630146484375,0.9148486328125,0.9911371693431156,0.06982421875,0.8798828125,0.1103515625,40.01235294117648,171.23116411258812
-0.3794951171875,0.0630146484375,0.8977587890625001,0.9767078545941068,0.0595703125,0.8310546875,0.11865234375,40.059411764705885,171.23116411258812
-0.3760771484375,0.0674091796875,0.8904345703125001,0.9689436222457062,0.08935546875,0.64013671875,0.1103515625,40.20058823529412,171.23116411258812
-0.3794951171875,0.0635029296875,0.8914111328125001,0.9709083240708748,0.10205078125,0.50732421875,0.11572265625,39.91823529411765,171.75461980351778
-0.3897490234375,0.0620380859375,0.9041064453125,0.9864894778115366,0.103515625,0.46728515625,0.16943359375,40.01235294117648,171.75461980351778
-0.3843779296875,0.0561787109375,0.9016650390625,0.981785253026866,0.12939453125,0.51611328125,0.154296875,39.82411764705883,171.75461980351778
-0.3887724609375,0.0527607421875,0.9114306640625,0.9922870440013744,0.1337890625,0.5107421875,0.12109375,39.82411764705883,171.75461980351778
-0.3829130859375,0.0503193359375,0.9065478515625,0.9853849370291566,0.1328125,0.51513671875,0.10498046875,39.82411764705883,171.75461980351778
-0.3755888671875,0.0473896484375,0.9094775390625,0.9851203835031536,0.1015625,0.517578125,0.09814453125,40.15352941176471,171.22276197706643
-0.3716826171875,0.0503193359375,0.9036181640625,0.9783689436568518,0.2490234375,0.5419921875,0.09033203125,40.059411764705885,171.22276197706643
-0.3677763671875,0.0503193359375,0.8962939453125001,0.9701207802303138,0.12646484375,0.505859375,0.076171875,39.91823529411765,171.22276197706643
-0.3663115234375,0.0542255859375,0.8992236328125001,0.972485315149734,0.11083984375,0.4296875,0.0654296875,39.87117647058824,171.22276197706643
-0.3726591796875,0.0517841796875,0.8884814453125001,0.9648604791035108,0.09912109375,0.361328125,0.0654296875,40.059411764705885,171.4288784728242
-0.3736357421875,0.0503193359375,0.8884814453125001,0.9651605991096942,0.0732421875,0.2255859375,0.06787109375,39.82411764705883,171.4288784728242
-0.3726591796875,0.0478779296875,0.8962939453125001,0.9718590416106486,0.0634765625,0.06103515625,0.01953125,39.82411764705883,171.4288784728242
-0.3726591796875,0.0444599609375,0.9002001953125001,0.97530095046226,0.0244140625,-0.052734375,-0.01416015625,40.15352941176471,171.4288784728242
-0.3794951171875,0.0483662109375,0.9080126953125,0.9853135994079631,0.00341796875,-0.052734375,-0.01123046875,39.73,171.4288784728242
-0.3790068359375,0.0483662109375,0.9158251953125,0.9923312251546782,-0.02294921875,-0.07763671875,-0.03857421875,39.91823529411765,171.31197934727558
-0.3863310546875,0.0400654296875,0.8997119140625001,0.979968596832576,-0.041015625,-0.04052734375,-0.05224609375,39.87117647058824,171.31197934727558
-0.3917021484375,0.0478779296875,0.9148486328125,0.9963287059001236,-0.01220703125,-0.04345703125,-0.06396484375,40.01235294117648,171.31197934727558
-0.3873076171875,0.0464130859375,0.9021533203125,0.9828743450861708,-0.0146484375,-0.02099609375,-0.0458984375,40.01235294117648,171.31197934727558
-0.3863310546875,0.0488544921875,0.9104541015625,0.9902348793467304,-0.0029296875,-0.017578125,-0.04931640625,40.15352941176471,171.62388001990962
-0.3824248046875,0.0439716796875,0.9060595703125,0.9844420677773196,-0.0048828125,0.00537109375,-0.0576171875,39.73,171.62388001990962
-0.3809599609375,0.0488544921875,0.9075244140625,0.985453101554754,0.01171875,0.00537109375,-0.01318359375,40.059411764705885,171.62388001990962
-0.3760771484375,0.0439716796875,0.9011767578125,0.9774901938192888,0.00439453125,-0.02001953125,0.001953125,39.91823529411765,171.62388001990962
-0.3663115234375,0.0503193359375,0.9065478515625,0.9790532033270092,0.0205078125,-0.08544921875,0.03466796875,39.87117647058824,171.62388001990962
-0.3633818359375,0.0469013671875,0.9055712890625,0.9768855902856194,0.0126953125,-0.13671875,0.03369140625,40.24764705882353,171.74349836535475
-0.3658232421875,0.0488544921875,0.9050830078125,0.9774398482578838,0.01806640625,-0.15234375,0.03759765625,40.20058823529412,171.74349836535475
-0.3667998046875,0.0459248046875,0.9138720703125,0.985805936937706,0.0390625,-0.099609375,0.0283203125,40.059411764705885,171.74349836535475
-0.3638701171875,0.0469013671875,0.9192431640625,0.98975208769759,0.01806640625,-0.08251953125,0.015625,40.20058823529412,171.74349836535475
-0.3594755859375,0.0449482421875,0.9153369140625,0.984421001201374,0.015625,-0.0732421875,-0.01220703125,39.68294117647059,171.15059552428005
-0.3653349609375,0.0469013671875,0.9143603515625,0.9857607338683968,0.01611328125,-0.07177734375,-0.03955078125,39.68294117647059,171.15059552428005
-0.3638701171875,0.0439716796875,0.9163134765625,0.986896832564904,-0.00048828125,-0.0703125,-0.0322265625,39.91823529411765,171.15059552428005
-0.3682646484375,0.0469013671875,0.9153369140625,0.9877551598338088,0.05224609375,-0.083984375,-0.06103515625,39.82411764705883,171.15059552428005
-0.3614287109375,0.0410419921875,0.9070361328125,0.9772562122801354,0.04345703125,-0.14892578125,-0.0888671875,40.059411764705885,171.15059552428005
-0.3760771484375,0.0473896484375,0.9260791015625,1.000650939492248,-0.05908203125,-0.19189453125,-0.0078125,40.059411764705885,171.33150391151827
-0.3663115234375,0.0552021484375,0.9573291015625,1.0265039786058705,-0.091796875,-0.00537109375,0.02294921875,39.87117647058824,171.33150391151827
-0.3462919921875,0.0571552734375,0.9426806640625,1.0058984558752533,0.01953125,0.2158203125,-0.005859375,39.87117647058824,171.33150391151827
-0.3482451171875,0.0449482421875,0.8894580078125001,0.9562586228539136,0.11181640625,0.0810546875,-0.087890625,40.059411764705885,171.33150391151827
-0.3663115234375,0.0400654296875,0.8918994140625001,0.9650253549333184,0.14013671875,-0.3203125,-0.0634765625,39.91823529411765,170.8888752539189
-0.3536162109375,0.0405537109375,0.9216845703125,0.988024025649546,0.02783203125,-0.666015625,-0.12451171875,39.87117647058824,170.8888752539189
-0.3702177734375,0.0493427734375,0.9602587890625,1.030336280556646,0.0341796875,-0.31201171875,-0.0126953125,39.82411764705883,170.8888752539189
-0.3604521484375,0.0439716796875,0.9397509765625,1.0074676956994315,0.12255859375,0.0927734375,0.01513671875,39.73,170.8888752539189
-0.3506865234375,0.0547138671875,0.9163134765625,0.982652040303864,0.021484375,0.09521484375,0.0966796875,40.24764705882353,170.8888752539189
-0.3604521484375,0.0586201171875,0.9114306640625,0.981869606844868,0.06494140625,0.0078125,0.17626953125,40.20058823529412,171.32606863755774
-0.3633818359375,0.0527607421875,0.9168017578125,0.9876008899011656,0.080078125,-0.0888671875,0.24658203125,39.87117647058824,171.32606863755774
-0.3545927734375,0.0420185546875,0.8997119140625001,0.9679788852129638,0.083984375,-0.2900390625,0.2724609375,39.87117647058824,171.32606863755774
-0.3462919921875,0.0449482421875,0.9075244140625,0.9723883228671648,0.08740234375,-0.51806640625,0.21826171875,39.63588235294118,171.32606863755774
-0.3521513671875,0.0439716796875,0.9373095703125,1.0022441442213414,0.09033203125,-0.57958984375,0.17822265625,40.059411764705885,171.49585788213125
-0.3560576171875,0.0439716796875,0.9553759765625,1.020516433951228,0.10791015625,-0.38427734375,0.06591796875,39.87117647058824,171.49585788213125
-0.3521513671875,0.0395771484375,0.9412158203125,1.0057157433872663,0.07177734375,-0.23388671875,-0.0458984375,39.82411764705883,171.49585788213125
-0.3448271484375,0.0420185546875,0.9475634765625,1.0092313230140926,0.0556640625,-0.20263671875,-0.1015625,39.91823529411765,171.49585788213125
-0.3355498046875,0.0439716796875,0.9299853515625,0.989646368235233,0.0283203125,-0.2412109375,-0.0732421875,39.91823529411765,171.49585788213125
-0.3257841796875,0.0464130859375,0.9187548828125,0.975909852892525,0.02294921875,-0.3720703125,-0.03466796875,40.01235294117648,171.44568562025765
-0.3321318359375,0.0449482421875,0.9192431640625,0.9784374765893816,0.0224609375,-0.474609375,0.01025390625,40.15352941176471,171.44568562025765
-0.3375029296875,0.0473896484375,0.9241259765625,0.984968439537161,0.03125,-0.5458984375,-0.001953125,39.91823529411765,171.44568562025765
-0.3560576171875,0.0444599609375,0.9358447265625,1.0022769413284158,0.0625,-0.39990234375,-0.0166015625,40.15352941176471,171.44568562025765
-0.3624052734375,0.0469013671875,0.9397509765625,1.0083001628530754,0.05419921875,-0.375,0.04150390625,40.15352941176471,171.1812412722382
-0.3511748046875,0.0459248046875,0.9407275390625,1.0051871138666055,0.06982421875,-0.1015625,0.04296875,40.15352941176471,171.1812412722382
-0.3462919921875,0.0459248046875,0.9343798828125,0.997543481229502,0.11083984375,-0.0107421875,0.04052734375,39.91823529411765,171.1812412722382
-0.3316435546875,0.0469013671875,0.9377978515625,0.995817250305024,0.1435546875,-0.0341796875,0.0234375,40.01235294117648,171.1812412722382
-0.3165068359375,0.0581318359375,0.9548876953125,1.007653907948483,0.1708984375,-0.05224609375,0.03125,40.059411764705885,171.1812412722382
-0.3145537109375,0.0693623046875,0.9470751953125,1.0003532335891776,0.166015625,0.03076171875,0.02099609375,39.91823529411765,171.38167508560704
-0.3150419921875,0.0664326171875,0.9334033203125,0.987373540175272,0.14208984375,0.09716796875,0.0,40.01235294117648,171.38167508560704
-0.3145537109375,0.0605732421875,0.9148486328125,0.9693096387081676,0.13525390625,-0.05712890625,-0.0341796875,40.01235294117648,171.38167508560704
-0.3209013671875,0.0527607421875,0.9138720703125,0.970012136148944,0.13330078125,-0.2333984375,-0.0478515625,40.15352941176471,171.38167508560704
-0.3252958984375,0.0395771484375,0.9314501953125,0.9874123953882687,0.16015625,-0.24609375,-0.0625,39.87117647058824,171.49585788213125
-0.3350615234375,0.0273701171875,0.9407275390625,0.9989913165557064,0.1611328125,-0.23681640625,-0.10009765625,40.15352941176471,171.49585788213125
-0.3433623046875,0.0244404296875,0.9490283203125,1.0095294743784289,0.25439453125,-0.162109375,-0.14697265625,40.059411764705885,171.49585788213125
-0.3365263671875,0.0205341796875,0.9504931640625,1.00851817201149,0.20068359375,0.0654296875,-0.1875,40.15352941176471,171.49585788213125
-0.3213896484375,0.0322529296875,0.9407275390625,0.994635541465714,0.1416015625,0.1962890625,-0.28466796875,40.059411764705885,171.49585788213125
-0.3086943359375,0.0429951171875,0.9480517578125,0.9979693926334776,0.10693359375,0.09716796875,-0.3154296875,39.91823529411765,171.590516067371
-0.3135771484375,0.0400654296875,0.9407275390625,0.9924233821453552,0.14404296875,-0.041015625,-0.306640625,40.20058823529412,171.590516067371
-0.3111357421875,0.0366474609375,0.9421923828125,0.992912369088848,0.166015625,-0.064453125,-0.3291015625,40.01235294117648,171.590516067371
-0.3257841796875,0.0259052734375,0.9329150390625,0.9885023444764888,0.1611328125,0.015625,-0.29052734375,40.15352941176471,171.590516067371
-0.3213896484375,0.0249287109375,0.9216845703125,0.9764298202656058,0.11669921875,0.0498046875,-0.28369140625,39.87117647058824,171.53762624805967
-0.3116240234375,0.0283466796875,0.9080126953125,0.9604166393192864,0.03173828125,0.02294921875,-0.2734375,40.01235294117648,171.53762624805967
-0.3008818359375,0.0464130859375,0.9050830078125,0.9549132446323512,-0.07275390625,-0.2216796875,-0.20361328125,40.059411764705885,171.53762624805967
-0.3101591796875,0.0586201171875,0.9138720703125,0.966849107038298,-0.06787109375,-0.28271484375,-0.1923828125,40.059411764705885,171.53762624805967
-0.3223662109375,0.0610615234375,0.9207080078125,0.9774209529413476,-0.123046875,-0.24658203125,-0.1220703125,39.91823529411765,171.53762624805967
-0.3282255859375,0.0713154296875,0.9275439453125,0.986486541348338,-0.14111328125,-0.2412109375,-0.0732421875,39.82411764705883,171.52650496699928
-0.3370146484375,0.0635029296875,0.9392626953125,0.9999129492841112,-0.18798828125,-0.2197265625,0.04248046875,40.24764705882353,171.52650496699928
-0.3379912109375,0.0742451171875,0.9568408203125,1.0174943496223856,-0.20458984375,0.02685546875,0.029296875,40.15352941176471,171.52650496699928
-0.3418974609375,0.0742451171875,0.9602587890625,1.022009370403948,-0.2080078125,0.20947265625,0.02734375,39.91823529411765,171.52650496699928
-0.3379912109375,0.0595966796875,0.9563525390625,1.0160708645916694,-0.20947265625,0.24853515625,0.1064453125,40.059411764705885,171.3038261565684
-0.3316435546875,0.0581318359375,0.9500048828125,1.0079067591215058,-0.15625,0.17724609375,0.22705078125,40.01235294117648,171.3038261565684
-0.3360380859375,0.0532490234375,0.9397509765625,0.9994443214345452,-0.0771484375,0.19140625,0.1904296875,40.059411764705885,171.3038261565684
-0.3287138671875,0.0488544921875,0.9451220703125,1.0018459440852403,-0.09228515625,0.13232421875,0.2216796875,40.01235294117648,171.3038261565684
-0.3355498046875,0.0503193359375,0.9631884765625,1.0212040679402918,-0.1337890625,0.23876953125,0.28857421875,40.059411764705885,171.3038261565684
-0.3209013671875,0.0498310546875,0.9661181640625,1.019237523056118,-0.10302734375,0.548828125,0.384765625,40.059411764705885,171.9886826819817
-0.3067412109375,0.0390888671875,0.9241259765625,0.9744880351153626,0.04736328125,0.6962890625,0.44287109375,40.01235294117648,171.9886826819817
-0.3033232421875,0.0307880859375,0.8660205078125001,0.9181200441329294,0.06005859375,0.365234375,0.41748046875,39.87117647058824,171.9886826819817
-0.2989287109375,0.0395771484375,0.8723681640625001,0.923011884306468,-0.041015625,-0.4609375,0.30615234375,39.73,171.9886826819817
-0.3189482421875,0.0488544921875,0.9602587890625,1.0130210681783345,-0.12353515625,-0.3408203125,0.28662109375,40.01235294117648,171.37624092837066
-0.3140654296875,0.0415302734375,0.9724658203125,1.0227666544293723,-0.00732421875,0.3837890625,0.17333984375,40.01235294117648,171.37624092837066
-0.2916044921875,0.0307880859375,0.9417041015625,0.9863000055760216,-0.01318359375,0.59423828125,0.22998046875,40.059411764705885,171.37624092837066
-0.2745146484375,0.0351826171875,0.9216845703125,0.9623401456403368,0.02490234375,0.5537109375,0.2421875,40.24764705882353,171.37624092837066
-0.2837919921875,0.0381123046875,0.9148486328125,0.95861278082302,0.06982421875,0.404296875,0.25927734375,39.91823529411765,171.37624092837066
-0.2774443359375,0.0395771484375,0.9241259765625,0.9656865592829998,0.10400390625,0.1982421875,0.3056640625,40.15352941176471,171.67974323026542
-0.2906279296875,0.0361591796875,0.9255908203125,0.9708194715995772,0.15625,0.126953125,0.298828125,40.15352941176471,171.67974323026542
-0.2945341796875,0.0351826171875,0.9412158203125,0.98685126537026,0.20263671875,0.04833984375,0.26171875,39.73,171.67974323026542
-0.2930693359375,0.0254169921875,0.9475634765625,0.9921754891519536,0.232421875,-0.1123046875,0.2587890625,40.059411764705885,171.67974323026542
