AccX,AccY,AccZ,Magnitude,GyroX,GyroY,GyroZ,Temperature,Altitude
-0.1094755859375,0.1362568359375,1.1091845703125005,1.1228718717090491,0.77099609375,-1.40380859375,4.61083984375,40.15352941176471,155.0596074937109
-0.0406279296875,0.0927998046875,1.0891650390625005,1.0938660405811802,1.09765625,-1.7724609375,3.8994140625,39.82411764705883,155.0596074937109
-0.0406279296875,0.0093037109375,1.0789111328125005,1.0797158979169723,0.93212890625,-2.052734375,3.0751953125,40.01235294117648,155.0596074937109
-0.0757841796875,-0.0737041015625,1.0437548828125005,1.049094748758652,0.48681640625,-2.17724609375,2.80322265625,39.73,155.0596074937109
-0.0943388671875,-0.0566142578125,1.0559619140625005,1.0616781809947966,0.32470703125,-2.42138671875,3.00732421875,39.87117647058824,154.53682040083493
-0.0967802734375,-0.0634501953125,1.0100634765625005,1.0166713211738374,0.14013671875,-2.80224609375,2.8681640625,40.20058823529412,154.53682040083493
-0.1626982421875,-0.0600322265625,0.9998095703125,1.014738273214044,-0.12646484375,-3.0126953125,2.5556640625,39.82411764705883,154.53682040083493
-0.1783232421875,-0.0629619140625,0.9651416015625,0.9834946326204852,-0.9423828125,-3.13916015625,2.22021484375,39.82411764705883,154.53682040083493
-0.2037138671875,-0.0268291015625,0.9241259765625,0.9466931714831008,-1.6337890625,-2.94384765625,1.7431640625,40.01235294117648,154.53682040083493
-0.2413115234375,0.0107685546875,0.8743212890625001,0.907074930544162,-2.09326171875,-2.7080078125,1.41162109375,40.57705882352941,154.8123255814211
-0.2242216796875,0.0405537109375,0.8157275390625001,0.8469541800461515,-2.2626953125,-2.212890625,1.12109375,39.87117647058824,154.8123255814211
-0.2125029296875,0.0371357421875,0.7473681640625001,0.777878995170675,-2.3173828125,-1.55712890625,0.6328125,39.73,154.8123255814211
-0.1670927734375,0.0434833984375,0.6882861328125001,0.7096115849510185,-2.1064453125,-0.763671875,0.33935546875,40.01235294117648,154.8123255814211
-0.1084990234375,0.0307880859375,0.5994189453125001,0.6099368953606069,-1.67626953125,0.0771484375,0.11328125,39.91823529411765,154.53972863336548
-0.0333037109375,-0.0058330078124999,0.4944384765625,0.4955931479023849,-1.2900390625,0.6650390625,-0.0380859375,39.82411764705883,154.53972863336548
0.0228486328125,-0.0414775390625,0.4251025390625,0.4277319429098861,-0.72607421875,0.81396484375,0.0693359375,39.91823529411765,154.53972863336548
0.0843720703125,-0.0229228515625,0.3601611328125,0.3706212958821405,0.21240234375,0.51708984375,0.21142578125,39.91823529411765,154.53972863336548
0.1610322265625,0.0034443359375,0.3176806640625,0.3561800749072268,0.99609375,0.33837890625,0.15625,40.059411764705885,154.53972863336548
0.1165986328125,0.0386005859375,0.2839892578125,0.3094109645137954,1.37744140625,0.4375,-0.38427734375,40.059411764705885,154.78462716310986
0.3543916015625,0.1006123046875,0.2703173828125,0.4569329606880683,1.5625,0.4033203125,-1.107421875,40.01235294117648,154.78462716310986
0.5438447265625,0.1631123046875,0.3127978515625,0.648240083990819,1.73583984375,-0.0234375,-2.447265625,40.059411764705885,154.78462716310986
0.6375947265625,0.1557880859375,0.4128955078125,0.775422248476352,1.72216796875,-0.36279296875,-3.9560546875,40.01235294117648,154.78462716310986
0.5877900390625,0.1406513671875,0.5671923828125001,0.8288468714022692,1.57470703125,-0.41650390625,-4.45556640625,39.91823529411765,154.8653518663494
0.5467744140625,0.1206318359375,0.7156298828125001,0.9086475823383204,1.3623046875,-0.91552734375,-4.13916015625,39.73,154.8653518663494
0.6175751953125,0.1308857421875,0.9260791015625,1.1207821829972373,0.94140625,-2.3466796875,-4.0869140625,39.87117647058824,154.8653518663494
0.6688447265625,0.1279560546875,1.2297900390625005,1.4057416406861547,0.57421875,-3.90576171875,-4.41455078125,40.01235294117648,154.8653518663494
0.6082978515625,0.1147724609375,1.5823291015625005,1.699106935909801,0.16748046875,-5.54541015625,-4.025390625,40.059411764705885,154.8653518663494
0.4735322265625,0.1499287109375,1.7957080078125005,1.8631367736370184,-0.2900390625,-5.71484375,-3.00732421875,40.059411764705885,154.94334701780517
0.4798798828125,0.1101337890624999,1.8490527343750005,2.052577952569927,-0.17529296875,-4.86669921875,-0.94384765625,39.91823529411765,154.94334701780517
0.4862275390625,0.0703388671874999,1.9023974609375005,2.02450605711098,0.70263671875,-2.04833984375,-0.275390625,40.15352941176471,154.94334701780517
0.4925751953125,0.0305439453124999,1.9557421875000005,1.925413312846933,0.70166015625,1.84326171875,-1.4599609375,40.15352941176471,154.94334701780517
0.3381155598958333,0.0146748046874999,1.882215169270833,2.070130387351434,0.13623046875,4.12451171875,-2.90625,40.24764705882353,154.71247003626573
0.1836559244791666,-0.0011943359375,1.808688151041667,1.988838586269998,0.771484375,6.25927734375,-3.6982421875,40.059411764705885,154.71247003626573
0.0291962890625,-0.0170634765625,1.7351611328125005,1.7354906344750407,1.42138671875,9.89794921875,-2.80859375,39.91823529411765,154.71247003626573
-0.0425810546875,-0.1327861328125,1.4612353515625005,1.4678739918472503,1.08642578125,8.68603515625,-1.3876953125,39.82411764705883,154.71247003626573
0.0404267578125,-0.0600322265625,1.3030322265625005,1.305040679225636,1.62353515625,6.9375,-2.04833984375,39.73,154.71247003626573
0.0492158203125,-0.0717509765625,1.1135791015625005,1.1169730592290263,0.861328125,6.181640625,-2.7041015625,40.15352941176471,154.31468600017035
0.0130830078125,-0.0605205078125,1.0276416015625005,1.02950529781116,0.2392578125,5.412109375,-2.87451171875,39.82411764705883,154.31468600017035
-0.0640654296875,-0.0732158203125,0.9807666015625,0.9855800639042634,-0.14794921875,4.81982421875,-2.51416015625,40.24764705882353,154.31468600017035
-0.0542998046875,-0.0478251953125,0.9797900390625,0.982458263104278,-0.34423828125,4.42529296875,-2.1650390625,40.059411764705885,154.31468600017035
-0.0137724609375,-0.0370830078125,0.9397509765625,0.940583185103194,-0.83837890625,3.7529296875,-2.36865234375,39.91823529411765,154.32853505335717
0.0633759765625,0.0063740234375,0.9163134765625,0.918524648504376,-1.265625,2.7431640625,-3.15576171875,40.01235294117648,154.32853505335717
0.0780244140625,-0.0238994140625,0.9006884765625001,0.9043775334420932,-1.6806640625,1.50927734375,-3.9833984375,39.87117647058824,154.32853505335717
0.0711884765625,-0.0287822265625,0.8972705078125001,0.9005501540454515,-1.9775390625,0.64306640625,-4.546875,40.059411764705885,154.32853505335717
0.0858369140625,-0.0160869140625,0.8616259765625001,0.8660404656291235,-1.88818359375,-0.15869140625,-5.1025390625,40.24764705882353,154.32853505335717
0.0423798828125,-0.0473369140625,0.7756884765625001,0.7782862266364566,-1.57177734375,-0.7041015625,-5.13134765625,40.059411764705885,153.99198697113104
0.0184541015625,-0.0419658203125,0.7429736328125001,0.7443866622888832,-1.16650390625,-1.16552734375,-4.759765625,40.059411764705885,153.99198697113104
-0.0074248046875,-0.0234111328125,0.6897509765625001,0.6901881037319715,-0.61181640625,-1.57958984375,-4.560546875,39.82411764705883,153.99198697113104
-0.0557646484375,-0.0190166015625,0.6375048828125001,0.6402216825132716,-0.11181640625,-1.931640625,-4.24462890625,40.01235294117648,153.99198697113104
-0.0831083984375,0.0058857421875,0.5847705078125001,0.5906760488281484,0.24609375,-2.04150390625,-3.5390625,39.91823529411765,153.6804138796177
-0.0752958984375,-0.0072978515624999,0.5461962890625001,0.5514101170132669,0.431640625,-1.96728515625,-2.94921875,40.059411764705885,153.6804138796177
-0.0909208984375,0.0005146484375,0.5530322265625001,0.5604565266391077,0.61767578125,-1.796875,-2.3076171875,40.01235294117648,153.6804138796177
-0.1221708984375,-0.0082744140624999,0.5154345703125001,0.5297801342314896,1.1240234375,-1.0185546875,-1.82861328125,39.87117647058824,153.6804138796177
-0.0894560546875,0.0112568359375,0.5256884765625001,0.533364299954711,0.98388671875,0.35205078125,-1.2099609375,39.91823529411765,153.6804138796177
-0.0450224609375,0.0019794921875,0.4929736328125,0.4950292345170563,0.81494140625,1.5732421875,-0.58056640625,40.67117647058824,154.4537175478177
0.0423798828125,0.0161396484375,0.4607470703125,0.4629734393250213,0.61279296875,2.10986328125,-0.54150390625,40.059411764705885,154.4537175478177
0.0213837890625,0.0097919921875,0.4246142578125,0.4252651143502484,0.15478515625,2.24755859375,-0.55126953125,39.91823529411765,154.4537175478177
0.0096650390625,-0.0190166015625,0.4168017578125,0.4173472767739793,-0.13818359375,2.24072265625,-0.65966796875,39.91823529411765,154.4537175478177
0.0067353515625,-0.0658916015625,0.4397509765625,0.4447111304035623,-0.25390625,2.40771484375,-0.888671875,39.91823529411765,154.59839930042327
0.0482392578125,-0.1347392578125,0.5227587890625001,0.5419948755590366,-0.5927734375,2.98974609375,-0.4375,40.20058823529412,154.59839930042327
0.1180634765625,-0.2675517578125,0.5408251953125001,0.614829097791725,-0.48193359375,3.34423828125,0.2421875,40.76529411764706,154.59839930042327
0.2489228515625,-0.3871806640625,0.6130908203125001,0.7666497287584071,0.0166015625,3.8056640625,1.69921875,39.91823529411765,154.59839930042327
0.3207001953125,-0.5209697265625,0.6545947265625001,0.8959644676612548,0.37939453125,4.36572265625,3.77734375,39.87117647058824,154.59839930042327
0.2611298828125,-0.5229228515625,0.7190478515625001,0.9266428315271064,0.3828125,4.72412109375,6.07666015625,40.059411764705885,154.82927386241343
0.1820283203125,-0.4613994140625,0.8005908203125001,0.9417905235569374,0.53076171875,4.57421875,7.30712890625,40.01235294117648,154.82927386241343
0.2249970703125,-0.2626689453125,0.9348681640625,0.9967934292813024,0.603515625,3.9951171875,7.12060546875,40.01235294117648,154.82927386241343
0.4232392578125,-0.1313212890625,1.1521533203125005,1.2344367232960267,1.56494140625,2.52734375,5.1728515625,39.91823529411765,154.82927386241343
0.5501923828125,-0.1200908203125,1.2722705078125005,1.3913323500435484,2.328125,-0.0400390625,3.08935546875,39.91823529411765,155.04630651136247
0.4881806640625,-0.0873759765625,1.4959033203125005,1.57597007134232,2.2783203125,-3.4853515625,1.8662109375,40.01235294117648,155.04630651136247
0.2367158203125,0.0176044921875,1.6487353515625005,1.6657348400100542,1.681640625,-5.017578125,1.4619140625,39.82411764705883,155.04630651136247
-0.0084013671875,0.0884052734375,1.8416064453125005,1.8437462880664253,0.31640625,-3.12939453125,1.1279296875,39.73,155.04630651136247
-0.0873401692708333,0.0626891276041666,1.831678059895833,2.010490306191222,-0.78173828125,0.82568359375,0.60791015625,40.059411764705885,155.04630651136247
-0.1662789713541666,0.0369729817708333,1.821749674479167,1.965358240159823,-1.38427734375,4.43212890625,1.02294921875,39.87117647058824,154.65124304321537
-0.2452177734375,0.0112568359375,1.8118212890625005,1.8283749222369765,-1.7412109375,6.7802734375,1.6806640625,39.73,154.65124304321537
-0.1758818359375,0.1191669921875,1.6482470703125005,1.6618825461005062,-1.78173828125,6.8447265625,1.84619140625,40.15352941176471,154.65124304321537
-0.2291044921875,0.2221943359375,1.5803759765625005,1.6122801923236156,-1.6298828125,5.810546875,1.76025390625,40.01235294117648,154.65124304321537
-0.4092802734375,0.2749287109375,1.3440478515625005,1.4316287108089871,-1.1728515625,5.13623046875,2.29150390625,39.91823529411765,154.91000142195327
-0.4634794921875,0.2676044921875,1.1213916015625005,1.2425556438132748,-0.4306640625,3.205078125,3.00830078125,39.91823529411765,154.91000142195327
-0.3326201171875,0.2700458984375,1.0818408203125005,1.1635894852202673,0.22802734375,0.724609375,3.9931640625,39.63588235294118,154.91000142195327
-0.2344755859375,0.3276630859375,1.0227587890625005,1.0992622248087176,0.85791015625,-0.7587890625,3.87841796875,39.91823529411765,154.91000142195327
-0.1817412109375,0.2163349609375,1.0193408203125005,1.0577742627953377,0.9130859375,-1.76025390625,3.2421875,40.059411764705885,154.91000142195327
-0.2501005859375,-0.0185283203125,1.1360400390625005,1.1633918394474885,1.111328125,-1.72021484375,3.578125,39.91823529411765,154.44260225347222
-0.2247099609375,-0.1069072265625,1.1023486328125005,1.1300868240535356,1.4306640625,-1.25927734375,4.40087890625,39.54176470588236,154.44260225347222
-0.2149443359375,-0.0937236328125,1.0505908203125005,1.0764414794237898,1.15673828125,-1.150390625,5.09130859375,39.87117647058824,154.44260225347222
-0.1421904296875,-0.0038798828124999,1.0159228515625005,1.025832545843734,0.86865234375,-1.21044921875,5.177734375,40.15352941176471,154.44260225347222
-0.1177763671875,0.0342060546875,0.9036181640625,0.911903017468882,0.58740234375,-1.595703125,4.57568359375,39.87117647058824,154.52879132335883
-0.1480498046875,0.0498310546875,0.7961962890625001,0.8113756278051317,-0.10498046875,-2.4521484375,4.0400390625,40.01235294117648,154.52879132335883
-0.1812529296875,0.0786396484375,0.7644580078125001,0.7895776494654163,-0.41748046875,-2.97705078125,3.173828125,39.91823529411765,154.52879132335883
-0.2032255859375,0.0503193359375,0.6589892578125001,0.6914474067209312,-1.07421875,-3.7958984375,2.2529296875,39.91823529411765,154.52879132335883
-0.2647490234375,0.0312763671875,0.6101611328125001,0.6658579912793647,-1.45947265625,-3.84228515625,1.69384765625,40.059411764705885,154.52879132335883
-0.3262724609375,0.1225849609375,0.6755908203125001,0.7601998078826234,-1.29931640625,-3.0078125,1.33056640625,40.059411764705885,154.53444048859228
-0.2276396484375,0.1137958984375,0.6140673828125001,0.6647165310688007,-0.62646484375,-1.34619140625,0.390625,40.059411764705885,154.53444048859228
-0.2129912109375,-0.0072978515624999,0.5002978515625001,0.5437981747414239,-0.88232421875,0.57568359375,-0.1259765625,40.059411764705885,154.53444048859228
-0.0821318359375,-0.0492900390625,0.4163134765625,0.4271908908120613,-0.63623046875,2.04931640625,-0.8720703125,40.01235294117648,154.53444048859228
0.0619111328125,-0.0932353515625,0.2844775390625,0.3057013074524972,-0.49658203125,2.76171875,-0.67724609375,39.87117647058824,154.23123143807445
0.2044892578125,-0.1142314453125,0.1941455078125,0.3042320789506972,0.05224609375,2.8271484375,-0.2998046875,40.059411764705885,154.23123143807445
0.3724580078125,-0.0614970703125,0.1438525390625,0.4039807052761369,0.28515625,1.9130859375,-0.271484375,40.059411764705885,154.23123143807445
0.3885712890625,0.0161396484375,0.1428759765625,0.4143207448512168,0.50244140625,0.83203125,-0.48046875,39.91823529411765,154.23123143807445
0.4515595703125,0.0874287109375,0.1204150390625,0.4754467443041607,0.84326171875,-0.34716796875,-1.091796875,40.059411764705885,154.23123143807445
0.5296845703125,0.1694599609375,0.2078173828125,0.5936922493911421,0.8955078125,-1.49853515625,-2.2900390625,40.20058823529412,155.0351913436948
0.4964814453125,0.2549091796875,0.4124072265625,0.6939396486363323,0.97216796875,-1.904296875,-3.87109375,40.01235294117648,155.0351913436948
0.3495087890625,0.3169208984375,0.5940478515625001,0.7586093193761789,0.91064453125,-1.76806640625,-4.8349609375,39.91823529411765,155.0351913436948
0.2000947265625,0.4458271484375,0.8455126953125001,0.976571279434657,1.07177734375,-2.23876953125,-4.56494140625,39.82411764705883,155.0351913436948
0.1952119140625,0.5010029296875,1.0837939453125005,1.2098433546717682,1.34326171875,-3.97607421875,-3.6005859375,40.15352941176471,155.14088243613227
0.2982392578125,0.4848896484375,1.3972705078125005,1.5087841124776584,1.1572265625,-6.232421875,-2.83984375,39.73,155.14088243613227
0.3934541015625,0.4399677734375,1.7649462890625005,1.8610247647399527,1.255859375,-7.8681640625,-2.59423828125,40.01235294117648,155.14088243613227
0.2962861328125,0.2378193359375,2.0847705078125003,2.1191063161832,1.65380859375,-8.6396484375,-2.20068359375,40.01235294117648,155.14088243613227
0.1576142578125,-0.1381572265625,2.2449267578125003,2.254689739511796,1.72216796875,-7.4189453125,-2.54296875,39.87117647058824,155.14088243613227
-0.0303740234375,-0.2792705078125,2.2898486328125003,2.307015682440609,1.0322265625,-3.3310546875,-3.255859375,40.01235294117648,154.8208905607206
-0.1890654296875,-0.0820048828125,2.1770556640625003,2.1867880331515046,0.23388671875,1.3515625,-2.53564453125,40.01235294117648,154.8208905607206
-0.1377958984375,0.0029560546875,2.0803759765625003,2.084936606169092,0.19970703125,5.7607421875,-2.23388671875,39.87117647058824,154.8208905607206
-0.1910185546875,0.0854755859375,1.8040087890625005,1.816106240020393,0.28857421875,10.02001953125,-2.00390625,39.91823529411765,154.8208905607206
-0.1158232421875,-0.1264384765625,1.3914111328125005,1.4019367504637417,-0.5830078125,7.95166015625,-1.0478515625,40.059411764705885,154.32015391716942
0.1830048828125,-0.0048564453124999,1.2454150390625005,1.2587982331244905,-0.33447265625,3.76953125,-1.4716796875,39.82411764705883,154.32015391716942
0.2235322265625,-0.0302470703125,1.0208056640625005,1.0454308898040847,-0.78466796875,0.84912109375,-2.0712890625,39.87117647058824,154.32015391716942
0.1507783203125,0.0576435546875,1.0569384765625005,1.0691940069564216,-1.03759765625,-1.529296875,-3.02783203125,39.54176470588236,154.32015391716942
0.0638642578125,0.0971943359375,1.0178759765625005,1.0244983582355498,-1.19873046875,-3.126953125,-3.4326171875,39.87117647058824,154.32015391716942
-0.0508818359375,0.0825458984375,1.0735400390625005,1.0779104796074392,-1.06787109375,-3.748046875,-3.48046875,40.01235294117648,154.15324693580544
-0.0923857421875,0.0918232421875,1.0364306640625005,1.044583723104278,-1.0263671875,-3.4140625,-3.45263671875,40.15352941176471,154.15324693580544
-0.0879912109375,0.0429951171875,1.0168994140625005,1.021604351804,-1.0859375,-3.3876953125,-3.845703125,39.91823529411765,154.15324693580544
-0.0821318359375,-0.0258525390625,0.9685595703125,0.9723793670653328,-1.10302734375,-3.45263671875,-4.12744140625,39.87117647058824,154.15324693580544
-0.0704130859375,-0.0937236328125,0.9016650390625,0.9092535205795982,-1.13720703125,-4.00830078125,-4.76220703125,39.91823529411765,154.44533587027334
-0.1548857421875,-0.0976298828125,0.9031298828125,0.9215013686261542,-1.1435546875,-4.32958984375,-4.57470703125,40.15352941176471,154.44533587027334
-0.1290068359375,-0.1181376953125,0.8914111328125001,0.908412398899541,-0.763671875,-4.7216796875,-3.939453125,40.059411764705885,154.44533587027334
-0.2183623046875,-0.0771220703125,0.8611376953125001,0.8917331664381711,-0.51416015625,-4.62451171875,-2.86328125,40.059411764705885,154.44533587027334
-0.1519560546875,-0.0219462890625,0.8186572265625001,0.8329297309874405,-0.09033203125,-4.2138671875,-1.74658203125,40.059411764705885,154.44533587027334
-0.0870146484375,-0.0346416015625,0.7717822265625001,0.7774441425847177,0.30419921875,-3.96630859375,-0.92626953125,40.059411764705885,154.4537175478177
-0.0733427734375,-0.0380595703125,0.7341845703125001,0.7388197862759409,0.43212890625,-2.95166015625,-0.3701171875,39.82411764705883,154.4537175478177
-0.0635771484375,0.0053974609375,0.6502001953125001,0.6533234117743133,0.427734375,-1.8662109375,0.603515625,39.73,154.4537175478177
-0.0572294921875,0.0405537109375,0.4998095703125,0.5047072664652327,0.37451171875,-0.82470703125,1.6455078125,40.24764705882353,154.4537175478177
-0.0035185546874999,0.0737568359375,0.3733447265625,0.3805768462828869,0.11279296875,0.21484375,1.79541015625,40.15352941176471,154.5315250011229
0.0682587890625,0.0708271484375,0.2156298828125,0.2370063155314622,-0.0576171875,0.8828125,1.07373046875,40.059411764705885,154.5315250011229
0.1297822265625,0.0249287109375,0.1409228515625,0.1931945057527049,-0.10595703125,0.958984375,0.298828125,40.01235294117648,154.5315250011229
0.1854462890625,-0.0829814453125,0.1409228515625,0.2472559331658396,-0.24365234375,1.31005859375,-0.115234375,40.059411764705885,154.5315250011229
0.2469697265625,-0.1860087890625,0.1516650390625,0.3443771181723363,-0.29443359375,2.197265625,0.1533203125,40.01235294117648,154.5315250011229
0.3084931640625,-0.2914775390625,0.1736376953125,0.4585599604028467,-0.16015625,3.08203125,0.5048828125,39.91823529411765,155.04338456304166
0.3607392578125,-0.4242900390625,0.1711962890625,0.5826345499226271,0.16943359375,3.18505859375,1.5908203125,39.91823529411765,155.04338456304166
0.4652314453125,-0.5497783203125,0.2444384765625,0.7605568144572682,0.7177734375,1.9599609375,2.75,39.91823529411765,155.04338456304166
0.4549775390625,-0.6220439453125,0.4158251953125,0.8757019036224529,1.23974609375,0.10791015625,4.08203125,39.91823529411765,155.04338456304166
0.3055634765625,-0.6572001953125,0.5789111328125001,0.9275878581687028,1.2666015625,-0.2646484375,4.44482421875,39.82411764705883,155.26041959935895
0.2162080078125,-0.5727275390625,0.7615283203125001,0.9770814291965716,0.84765625,0.16064453125,4.1865234375,39.91823529411765,155.26041959935895
0.7044892578125,-0.3935283203125,1.1658251953125005,1.4178568472474975,0.8271484375,-1.5830078125,2.85693359375,40.01235294117648,155.26041959935895
1.3338837890625,-0.2397197265625,2.0212939453125003,2.433585980273536,2.1650390625,-11.20703125,0.5322265625,40.15352941176471,155.26041959935895
1.2279267578125,-0.0365947265625,2.5217822265625003,2.805089819376667,2.548828125,16.0,1.1142578125,40.01235294117648,155.26041959935895
0.4496064453125,0.3681904296875,2.3591845703125003,2.429704094119402,0.6171875,16.0,2.9423828125,40.20058823529412,154.5816346344027
0.6219697265625,0.6826435546875,2.4636767578125003,2.631074254083706,-2.28173828125,-0.7861328125,2.74267578125,40.01235294117648,154.5816346344027
0.8924775390625,0.3779560546875,2.5593798828125003,2.736748494390985,-2.91845703125,13.40966796875,0.8603515625,40.01235294117648,154.5816346344027
0.5907197265625,0.1943623046875,2.2214892578125003,2.3068899027499867,-1.96728515625,15.99951171875,0.517578125,39.91823529411765,154.5816346344027
0.3377900390625,0.0498310546875,1.7390673828125005,1.7722699022619082,-1.892578125,15.99951171875,0.15185546875,40.01235294117648,155.0322692241091
0.4081025390625,-0.0834697265625,1.0950244140625005,1.1715772893986125,-2.98046875,7.33251953125,0.8173828125,39.87117647058824,155.0322692241091
0.2855439453125,0.0766865234375,1.0920947265625005,1.1314093244123369,-1.0634765625,-0.5546875,-0.67333984375,40.059411764705885,155.0322692241091
0.0648408203125,-0.1156962890625,1.0886767578125005,1.0967256020914111,-0.66650390625,-3.9296875,-0.05078125,40.059411764705885,155.0322692241091
-0.0684599609375,-0.0854228515625,1.3596728515625005,1.36407261283875,-0.18017578125,-4.22216796875,1.509765625,39.73,155.0322692241091
-0.1084990234375,-0.0473369140625,1.4446337890625005,1.4494756313994823,0.57763671875,-2.65234375,3.1904296875,39.87117647058824,154.48979737891025
-0.1500029296875,-0.0854228515625,1.2976611328125005,1.3090921885398763,0.630859375,-0.94287109375,3.39208984375,39.91823529411765,154.48979737891025
-0.1954130859375,-0.0971416015625,1.2048876953125005,1.2244905566092426,0.580078125,0.38720703125,3.5400390625,39.82411764705883,154.48979737891025
-0.0943388671875,-0.1235087890625,1.0090869140625005,1.0209851335695763,0.74755859375,2.1787109375,4.26318359375,40.059411764705885,154.48979737891025
0.0999970703125,-0.1083720703125,0.8782275390625001,0.8905209318498222,0.326171875,2.09814453125,4.82275390625,40.059411764705885,154.37846583967726
0.2176728515625,-0.0815166015625,0.7795947265625001,0.8135074457690653,0.37890625,0.98974609375,4.87841796875,39.87117647058824,154.37846583967726
0.2914033203125,-0.0727275390625,0.7478564453125001,0.8059121867937508,0.43603515625,-1.1259765625,5.0419921875,40.059411764705885,154.37846583967726
0.2694306640625,-0.0253642578125,0.7483447265625001,0.795773873713784,0.43505859375,-3.43115234375,4.7001953125,40.01235294117648,154.37846583967726
0.1678681640625,0.0307880859375,0.7781298828125001,0.7966264753742525,0.1630859375,-4.73876953125,4.29541015625,40.01235294117648,154.37846583967726
0.0536103515625,0.1001240234375,0.8430712890625001,0.8506868332738396,-0.12890625,-5.1376953125,3.8515625,39.91823529411765,154.5537558283578
-0.0630888671875,0.1523701171875,0.8831103515625001,0.898376731005193,-0.82763671875,-4.37158203125,3.17529296875,39.82411764705883,154.5537558283578
-0.1338896484375,0.1650654296875,0.9089892578125,0.9335065639057692,-0.9814453125,-2.58251953125,2.35205078125,40.01235294117648,154.5537558283578
-0.1275419921875,0.1211201171875,0.8328173828125001,0.8511884842226969,-0.99853515625,-0.52294921875,1.3515625,40.01235294117648,154.5537558283578
-0.1143583984375,0.0386005859375,0.6873095703125001,0.6978268366658463,-1.25732421875,1.9951171875,0.513671875,40.15352941176471,154.33400396018618
-0.0875029296875,-0.0595439453125,0.5168994140625001,0.5276241544749724,-1.35595703125,3.83203125,0.2314453125,39.91823529411765,154.33400396018618
-0.0879912109375,-0.1464580078125,0.3333056640625,0.3745464816959279,-1.017578125,4.22705078125,0.81494140625,39.82411764705883,154.33400396018618
0.0482392578125,-0.1015361328125,0.1765673828125,0.2093147222105373,-0.3291015625,3.46240234375,1.37646484375,39.82411764705883,154.33400396018618
0.2308564453125,-0.0400126953125,0.1160205078125,0.2614507073265716,0.4609375,2.9404296875,1.1484375,40.24764705882353,154.33400396018618
0.3553681640625,-0.0014384765624999,0.0691455078125,0.3620354989426054,0.953125,2.79248046875,0.0390625,39.91823529411765,154.1448668450487
0.3866181640625,0.0483662109375,0.0164111328125,0.3899772050052393,0.7919921875,2.79150390625,-1.3076171875,40.15352941176471,154.1448668450487
0.4076142578125,0.1343037109375,-0.0001904296874999,0.4291700201634367,0.41064453125,2.7099609375,-2.64306640625,40.059411764705885,154.1448668450487
0.4989228515625,0.2114521484375,0.0613330078125,0.5453418750998489,0.228515625,2.83056640625,-3.70068359375,40.01235294117648,154.1448668450487
0.6327119140625,0.2685810546875,0.2107470703125,0.7189398283437802,0.40869140625,2.7861328125,-4.23779296875,39.73,155.03773341267333
0.6424775390625,0.2676044921875,0.3474658203125,0.7778959112401701,0.93359375,2.12744140625,-4.21533203125,39.68294117647059,155.03773341267333
0.4906220703125,0.2759052734375,0.4578173828125,0.7255552989218896,1.4521484375,1.70849609375,-3.6357421875,40.059411764705885,155.03773341267333
0.3919892578125,0.2895771484375,0.6609423828125001,0.8211914128480972,1.75244140625,2.0517578125,-3.31201171875,40.01235294117648,155.03773341267333
0.3255830078125,0.2436787109375,0.9793017578125,1.0603846198408615,2.03466796875,2.38037109375,-3.99755859375,39.91823529411765,155.03773341267333
0.3319306640625,0.1841083984375,1.4729541015625005,1.5210745062060522,2.005859375,0.48486328125,-4.24951171875,40.059411764705885,155.32438089714765
0.6830048828125,-0.0297587890625,2.2224658203125003,2.325238821697569,1.87890625,-5.60107421875,-4.3330078125,40.15352941176471,155.32438089714765
0.8089814453125,-0.4037822265625,2.9065478515625003,3.043930268381695,1.8466796875,-13.8330078125,-2.10888671875,40.01235294117648,155.32438089714765
0.3719697265625,-0.4355205078125,2.7507861328125003,2.809780051654896,1.43310546875,-14.193359375,2.6640625,40.01235294117648,155.32438089714765
0.1268525390625,0.0107685546875,2.5198291015625003,2.523043049477741,1.525390625,-0.2626953125,6.78466796875,39.87117647058824,154.77351174261298
0.5243134765625,0.1220966796875,2.3059619140625003,2.367968025544804,1.11962890625,13.2587890625,5.59375,40.059411764705885,154.77351174261298
0.5394501953125,0.2070576171875,2.1589892578125003,2.234975164382779,0.40576171875,15.99951171875,0.6787109375,40.20058823529412,154.77351174261298
0.2166962890625,0.3261982421875,1.8372119140625005,1.878486143699993,0.79541015625,15.99951171875,-2.5029296875,40.059411764705885,154.77351174261298
0.2044892578125,0.1626240234375,1.0857470703125005,1.1167404041458715,0.451171875,13.1611328125,-1.63232421875,40.01235294117648,154.77351174261298
0.1444306640625,0.1968037109375,0.9768603515625,1.0069002253526005,0.806640625,6.30908203125,-2.38427734375,39.87117647058824,154.61771447491049
-0.1299833984375,0.0810810546875,0.7341845703125001,0.749997869719341,0.72509765625,4.5908203125,-3.85009765625,40.059411764705885,154.61771447491049
-0.1680693359375,0.1006123046875,0.8337939453125001,0.8564942969902292,-0.37060546875,2.99755859375,-4.63330078125,40.059411764705885,154.61771447491049
-0.1719755859375,0.1245380859375,0.9758837890625,0.9987164296047726,0.16162109375,2.79248046875,-5.1318359375,39.73,154.61771447491049
-0.1099638671875,0.0010029296875,0.8860400390625001,0.8928381761420514,-0.46630859375,3.32861328125,-5.8408203125,40.01235294117648,154.1058765989888
-0.1143583984375,-0.0697978515625,0.8254931640625001,0.836294533815598,-1.00048828125,3.03857421875,-6.01806640625,39.68294117647059,154.1058765989888
-0.1011748046875,-0.1386455078125,0.7761767578125001,0.7949272151011463,-1.52099609375,2.1162109375,-5.732421875,40.01235294117648,154.1058765989888
-0.0684599609375,-0.1313212890625,0.7639697265625001,0.7781913584180833,-1.896484375,0.33935546875,-5.90576171875,40.01235294117648,154.1058765989888
-0.1309599609375,-0.1479228515625,0.7610400390625001,0.786265618248302,-1.9267578125,-1.31396484375,-5.9052734375,39.73,154.1058765989888
-0.0118193359375,-0.1464580078125,0.8064501953125001,0.8197265167566432,-1.560546875,-2.6357421875,-5.88720703125,39.82411764705883,154.3979618230358
-0.2081083984375,-0.1459697265625,0.8518603515625001,0.8889782478425097,-1.0634765625,-3.19189453125,-5.3408203125,40.20058823529412,154.3979618230358
-0.2203154296875,-0.0947001953125,0.8733447265625001,0.9056699326825096,-0.4833984375,-2.638671875,-4.6787109375,39.91823529411765,154.3979618230358
-0.1675810546875,-0.0356181640625,0.8547900390625001,0.8717901550154304,0.26953125,-1.736328125,-3.98828125,40.01235294117648,154.3979618230358
-0.1216826171875,-0.0204814453125,0.7361376953125001,0.7464079684647584,0.7333984375,-0.83349609375,-3.15576171875,40.059411764705885,154.38684636581752
-0.0503935546875,-0.0170634765625,0.7083056640625001,0.7103010533073002,1.40966796875,-0.11279296875,-2.373046875,40.01235294117648,154.38684636581752
-0.0137724609375,-0.0795634765625,0.5706103515625001,0.5762952375243668,1.0966796875,0.7314453125,-1.015625,39.87117647058824,154.38684636581752
0.0360322265625,0.0293232421875,0.5564501953125001,0.5583860615620322,0.8486328125,2.05224609375,-0.12451171875,40.059411764705885,154.38684636581752
0.0956025390625,0.0630146484375,0.5085986328125001,0.5213283616797026,0.9599609375,2.8740234375,0.61279296875,39.87117647058824,154.38684636581752
0.0531220703125,0.0742451171875,0.5325244140625001,0.5402930161986927,0.69287109375,3.5439453125,1.17138671875,39.91823529411765,154.19770860233209
0.0511689453125,0.0547138671875,0.4680712890625,0.4740280581058841,0.5498046875,3.84375,1.10595703125,40.01235294117648,154.19770860233209
0.0946259765625,0.0532490234375,0.4216845703125,0.435439330765024,0.423828125,3.5986328125,0.50146484375,40.059411764705885,154.19770860233209
0.0707001953125,0.0874287109375,0.4617236328125,0.4752168033760917,0.08544921875,3.33837890625,-0.02294921875,39.82411764705883,154.19770860233209
0.0999970703125,-0.2006572265625,0.4666064453125,0.5176720114609294,-0.119140625,3.11962890625,0.36181640625,40.01235294117648,154.79574259763612
0.1214814453125,-0.3583720703125,0.5173876953125001,0.6409979013975489,0.10693359375,2.8359375,1.6025390625,40.059411764705885,154.79574259763612
0.4071259765625,-0.4477275390625,0.6038134765625001,0.8548697120061189,0.5068359375,2.767578125,2.69140625,39.91823529411765,154.79574259763612
0.2533173828125,-0.5971416015625,0.6672900390625001,0.9306039893443584,1.02978515625,3.17431640625,5.06884765625,40.01235294117648,154.79574259763612
0.1810517578125,-0.6137431640625,0.7595751953125001,0.9931842164344272,0.79931640625,4.05126953125,7.41748046875,39.91823529411765,154.79574259763612
0.2362275390625,-0.4321025390625,0.9114306640625,1.0359642415977466,0.43017578125,4.041015625,8.04345703125,39.91823529411765,155.20192033200323
0.4403291015625,-0.1117900390625,1.1843798828125005,1.2685197820008112,0.98095703125,2.77880859375,6.1416015625,39.87117647058824,155.20192033200323
0.6698212890625,0.0664326171875,1.3894580078125005,1.5439130180751803,1.7216796875,0.1376953125,2.31982421875,39.82411764705883,155.20192033200323
0.6405244140625,0.1938740234375,1.6106494140625005,1.7441474126328396,1.36083984375,-3.49853515625,-0.78125,39.91823529411765,155.20192033200323
0.2035126953125,0.2876240234375,1.8860400390625005,1.918669337055922,0.18212890625,-5.1865234375,-1.74560546875,39.91823529411765,154.90981339648295
-0.1836943359375,0.0991474609375,1.9788134765625005,1.9897931055994844,-0.55859375,-1.33642578125,-1.78955078125,39.87117647058824,154.90981339648295
-0.1617216796875,0.118556640625,1.8781054687500005,2.1715896586660004,-0.5244140625,3.4130859375,-0.181640625,39.87117647058824,154.90981339648295
-0.1397490234375,0.1379658203125,1.7773974609375005,2.0077929742035563,-1.296875,6.33642578125,2.5947265625,39.82411764705883,154.90981339648295
-0.1177763671875,0.157375,1.6766894531250005,1.8606826378023724,-0.92236328125,7.64697265625,3.78662109375,40.059411764705885,154.90981339648295
-0.0958037109375,0.1767841796875,1.5759814453125005,1.5887569081475164,-0.7998046875,6.513671875,2.3056640625,39.73,154.93204424573594
-0.2017607421875,0.1875263671875,1.3289111328125005,1.357158183260741,-0.80859375,3.88818359375,0.05078125,39.82411764705883,154.93204424573594
-0.4063505859375,0.1386982421875,1.2288134765625005,1.3016683760694467,-1.01171875,1.974609375,-0.9287109375,39.82411764705883,154.93204424573594
-0.6216826171875,0.0473896484375,1.2190478515625005,1.3692380069554295,-0.330078125,1.00732421875,0.158203125,39.91823529411765,154.93204424573594
-0.5835966796875,2.6367187500001e-05,0.9768603515625,1.1379109067463562,-0.4052734375,0.53271484375,2.28369140625,39.91823529411765,154.2337907844847
-0.3604521484375,-0.0986064453125,0.9324267578125,1.0045240868466556,-0.7353515625,0.220703125,3.2138671875,39.91823529411765,154.2337907844847
-0.1592802734375,-0.0146220703124999,0.8884814453125001,0.9027642489106098,-1.28662109375,-0.55908203125,3.23388671875,40.15352941176471,154.2337907844847
-0.1783232421875,-0.0107158203124999,0.8850634765625001,0.9029127117579698,-0.7509765625,-1.021484375,3.771484375,39.91823529411765,154.2337907844847
-0.2046904296875,-0.0273173828125,0.9041064453125,0.927390357867162,-0.2880859375,-1.8408203125,5.0234375,40.01235294117648,154.2337907844847
-0.1573271484375,-0.0551494140625,0.8396533203125001,0.8560438001753872,0.32470703125,-2.23046875,5.94091796875,39.87117647058824,154.60095213271268
-0.1631865234375,-0.0375712890625,0.8562548828125001,0.8724757117156235,0.82763671875,-2.55322265625,6.60205078125,39.82411764705883,154.60095213271268
-0.0508818359375,-0.0092509765624999,0.7000048828125001,0.7019126567864925,0.57958984375,-3.44873046875,6.4951171875,39.91823529411765,154.60095213271268
0.0208955078125,0.0400654296875,0.7234423828125001,0.724852220905899,0.3701171875,-4.0498046875,5.60205078125,39.82411764705883,154.60095213271268
-0.0240263671875,0.0478779296875,0.6648486328125001,0.6670031986610262,0.1513671875,-4.68603515625,4.78955078125,40.059411764705885,154.31997934290345
-0.0411162109375,0.0586201171875,0.6462939453125001,0.6502482023723941,-0.36669921875,-4.6279296875,4.15869140625,39.87117647058824,154.31997934290345
-0.0020537109374999,0.0469013671875,0.6140673828125001,0.6158593237151363,-1.35595703125,-5.09619140625,2.86962890625,39.87117647058824,154.31997934290345
-0.0855498046875,0.1479755859375,0.7571337890625001,0.7761875531440543,-1.705078125,-4.4365234375,1.3193359375,39.91823529411765,154.31997934290345
-0.0816435546875,0.0957294921875,0.7332080078125001,0.7439245851676516,-1.45263671875,-3.3203125,0.07861328125,39.87117647058824,154.31997934290345
-0.0459990234375,0.0195576171875,0.6814501953125001,0.6832808933657526,-1.8740234375,-2.3017578125,-1.04345703125,40.01235294117648,153.96394264577177
-0.0420927734375,-0.0463603515625,0.6082080078125001,0.6114229833265261,-2.12109375,-1.54833984375,-1.7666015625,39.82411764705883,153.96394264577177
-0.0542998046875,-0.1215556640625,0.5330126953125001,0.5493876423974897,-2.01318359375,-1.6044921875,-1.63916015625,40.059411764705885,153.96394264577177
-0.0406279296875,-0.1601298828125,0.4783251953125,0.5060505908612091,-1.72216796875,-1.88623046875,-1.3447265625,40.15352941176471,153.96394264577177
-0.0704130859375,-0.1664775390625,0.4294970703125,0.4659833764101125,-1.23095703125,-1.70068359375,-0.8271484375,40.059411764705885,154.50911716695828
-0.0250029296875,-0.1288798828125,0.3904345703125,0.411915433531967,-0.650390625,-1.67724609375,-0.5283203125,39.73,154.50911716695828
0.0663056640625,-0.0424541015625,0.3523486328125,0.3610378801055177,-0.10400390625,-1.7509765625,-0.56201171875,40.15352941176471,154.50911716695828
0.2162080078125,0.0615498046875,0.3352587890625,0.4036492744239401,0.177734375,-1.79736328125,-1.19775390625,40.01235294117648,154.50911716695828
0.3890595703125,0.1699482421875,0.4221728515625,0.5987317186109159,0.36328125,-1.6240234375,-2.32861328125,39.73,154.50911716695828
0.4383759765625,0.2168232421875,0.4832080078125,0.6875142136668521,0.478515625,-0.50732421875,-3.560546875,39.87117647058824,154.74563235934602
0.3675751953125,0.2558857421875,0.5383837890625001,0.7003186000594049,0.515625,0.634765625,-3.78125,39.91823529411765,154.74563235934602
0.3026337890625,0.2881123046875,0.5828173828125001,0.7171276121465975,0.6884765625,1.427734375,-3.1396484375,39.91823529411765,154.74563235934602
0.3460908203125,0.3227802734375,0.6033251953125001,0.7667902269355242,0.89794921875,1.14453125,-2.71044921875,39.82411764705883,154.74563235934602
0.4476533203125,0.2925068359375,0.9592822265625,1.0982605039132023,0.931640625,-0.43115234375,-3.15283203125,40.01235294117648,155.17403747718404
0.4588837890625,0.2563740234375,1.2698291015625005,1.3743245318820865,0.55810546875,-3.51904296875,-3.25390625,40.059411764705885,155.17403747718404
0.3802705078125,0.1904560546875,1.6335986328125005,1.6880532162837685,0.3935546875,-7.11376953125,-2.32275390625,39.82411764705883,155.17403747718404
0.3573212890625,0.0469013671875,2.0256884765625003,2.0574965482205423,0.84228515625,-10.13525390625,-0.95556640625,40.15352941176471,155.17403747718404
0.2640595703125,-0.1332744140625,2.2053759765625003,2.2251230806668487,1.58740234375,-10.80810546875,0.14208984375,39.73,155.17403747718404
0.1375947265625,-0.1625712890625,2.2756884765625003,2.285633342241184,1.9755859375,-6.6435546875,0.3037109375,39.87117647058824,155.14615574017117
0.0150361328125,-0.0155986328124999,2.2927783203125003,2.292880683491966,2.05712890625,-0.1298828125,0.23388671875,39.87117647058824,155.14615574017117
0.1073212890625,0.0097919921875,2.1365283203125003,2.139244494136748,1.29638671875,6.7041015625,-0.228515625,39.82411764705883,155.14615574017117
-0.1275419921875,0.0527607421875,1.9138720703125005,1.918842608764353,0.4990234375,11.95849609375,-0.10107421875,39.91823529411765,155.14615574017117
-0.1817412109375,-0.0092509765624999,1.5222705078125005,1.5331089156599789,-0.1181640625,12.17236328125,0.5361328125,40.01235294117648,154.48962152063484
0.3885712890625,0.1250263671875,1.2234423828125005,1.2897404790258096,0.013671875,6.78271484375,-1.1923828125,39.91823529411765,154.48962152063484
0.3099580078125,0.0849873046875,0.9617236328125,1.0140064864068732,-0.10205078125,2.80078125,-3.22998046875,39.87117647058824,154.48962152063484
0.2103486328125,0.0425068359375,0.8020556640625001,0.8302690327130378,-0.44775390625,-0.4384765625,-4.39306640625,39.73,154.48962152063484
0.0487275390625,0.0376240234375,0.8621142578125001,0.8643095126899338,-0.7197265625,-2.8017578125,-4.9248046875,39.87117647058824,154.48962152063484
-0.1060576171875,0.0796162109375,1.0271533203125005,1.0356789573205245,-0.38134765625,-3.39599609375,-4.2412109375,39.87117647058824,154.6844074278986
-0.1148466796875,0.0298115234375,1.1023486328125005,1.1087159216988345,-0.3427734375,-2.701171875,-4.130859375,39.91823529411765,154.6844074278986
-0.0845732421875,-0.0234111328125,1.0549853515625005,1.0586287387205782,-0.72216796875,-1.76806640625,-4.00146484375,39.73,154.6844074278986
-0.0113310546875,-0.0639384765625,1.0618212890625005,1.0638049499282347,-0.89697265625,-1.49755859375,-4.4423828125,40.01235294117648,154.6844074278986
0.0052705078125,-0.0800517578125,1.0256884765625005,1.028821127861678,-0.77392578125,-2.1787109375,-4.76025390625,39.91823529411765,155.0765461339801
0.0160126953125,-0.1127666015625,0.9827197265625,0.98929812180869,-0.64404296875,-3.3046875,-4.630859375,40.01235294117648,155.0765461339801
-0.0420927734375,-0.1171611328125,0.9460986328125,0.9542542405602664,-0.56005859375,-3.97265625,-4.044921875,40.20058823529412,155.0765461339801
-0.0860380859375,-0.0834697265625,0.8879931640625001,0.8960477704374568,-0.13037109375,-4.07763671875,-3.13427734375,40.01235294117648,155.0765461339801
-0.1187529296875,-0.0365947265625,0.8367236328125001,0.8459006265682134,0.2509765625,-3.91455078125,-2.029296875,39.82411764705883,155.0765461339801
-0.0953154296875,0.0190693359375,0.7571337890625001,0.7633480498761678,0.9619140625,-3.951171875,-1.45849609375,39.91823529411765,154.356062667527
-0.0694365234375,0.0249287109375,0.7058642578125001,0.7097092516469569,1.015625,-3.47607421875,-1.091796875,40.15352941176471,154.356062667527
-0.0259794921875,0.0332294921875,0.7053759765625001,0.706635975221231,1.0947265625,-2.76708984375,-1.0634765625,39.91823529411765,154.356062667527
-0.0245146484375,0.0224873046875,0.6433642578125001,0.6442237306175175,0.81640625,-1.86767578125,-0.99755859375,39.73,154.356062667527
0.0423798828125,0.0693623046875,0.6238330078125001,0.629106354613553,0.55810546875,-0.26171875,-0.5927734375,39.87117647058824,154.49509388951722
0.1034150390625,0.1006123046875,0.5564501953125001,0.5748515686872118,0.4384765625,0.79296875,-0.44189453125,39.73,154.49509388951722
0.1307587890625,0.0805927734375,0.4509814453125,0.4764213681853397,0.25537109375,1.22119140625,-0.259765625,40.059411764705885,154.49509388951722
0.1517548828125,0.0654560546875,0.3767626953125,0.411417267663656,0.18310546875,0.93115234375,-0.39453125,40.059411764705885,154.49509388951722
0.1322236328125,0.0136982421875,0.3704150390625,0.3935454637990834,0.064453125,0.73046875,-0.50439453125,40.01235294117648,154.49509388951722
0.1102509765625,-0.0717509765625,0.3972705078125,0.4184821822351091,0.0869140625,1.017578125,-0.080078125,40.01235294117648,154.7817131393019
0.1229462890625,-0.1928447265625,0.3801806640625,0.4436690386810969,0.189453125,1.7119140625,0.70654296875,40.059411764705885,154.7817131393019
0.1488251953125,-0.2900126953125,0.3645556640625,0.4890369458458891,0.34228515625,2.08642578125,1.83203125,39.87117647058824,154.7817131393019
0.2498994140625,-0.3779033203125,0.3591845703125,0.5781645027174949,0.6845703125,1.8193359375,2.83056640625,39.87117647058824,154.7817131393019
0.3397431640625,-0.4623759765625,0.4382861328125,0.722019179416351,0.98095703125,1.490234375,3.53662109375,39.87117647058824,155.0543149199038
0.3573212890625,-0.5478251953125,0.5540087890625001,0.8571561623152242,1.041015625,1.23828125,3.9560546875,39.91823529411765,155.0543149199038
0.2791962890625,-0.5727275390625,0.6785205078125001,0.930783262284508,1.0947265625,1.11279296875,3.8642578125,40.01235294117648,155.0543149199038
0.2191376953125,-0.5038798828125,0.8406298828125001,1.0042782809995296,0.9765625,0.93896484375,3.58935546875,39.73,155.0543149199038
0.4832978515625,-0.3642314453125,1.1628955078125005,1.3109413873891744,1.17431640625,-0.814453125,2.85986328125,39.91823529411765,155.0543149199038
0.6288056640625,-0.2416728515625,1.5388720703125005,1.6798599879535534,1.69287109375,-5.11181640625,1.16064453125,40.01235294117648,154.95409450835467
0.7538056640625,-0.0004619140624999,1.8694384765625005,2.015694274980616,1.61181640625,-10.1953125,0.20263671875,40.01235294117648,154.95409450835467
0.5267548828125,0.3359638671875,2.0393603515625003,2.132916564272385,0.9091796875,-9.46240234375,0.10888671875,39.73,154.95409450835467
0.4857392578125,0.3432880859375,2.1624072265625003,2.2427203013342067,-0.392578125,-2.0341796875,-0.27294921875,40.01235294117648,154.95409450835467
0.3680634765625,0.1494404296875,2.1428759765625003,2.1793853756812145,-1.92041015625,6.6103515625,0.66796875,40.01235294117648,154.82891055895436
0.3783173828125,0.1011005859375,2.0837939453125003,2.120269458615117,-2.44091796875,12.40087890625,2.49755859375,39.87117647058824,154.82891055895436
0.3148408203125,0.1596943359375,1.8543017578125005,1.8876074888843009,-2.54345703125,15.15478515625,2.50927734375,39.82411764705883,154.82891055895436
0.1102509765625,0.0864521484375,1.2727587890625005,1.2804468700177631,-2.8193359375,9.99609375,2.56689453125,40.01235294117648,154.82891055895436
0.1576142578125,0.2929951171875,1.1545947265625005,1.2015728756789732,-2.2626953125,4.65771484375,0.99365234375,40.15352941176471,154.82891055895436
0.0438447265625,0.1670185546875,1.0784228515625005,1.092159971995603,-1.8359375,1.20654296875,-0.3271484375,40.01235294117648,154.79829863223836
-0.1719755859375,0.0547138671875,1.1467822265625005,1.1608956389705336,-1.5712890625,0.9130859375,0.32763671875,40.01235294117648,154.79829863223836
-0.2320341796875,-0.0727275390625,1.0920947265625005,1.118838704759073,-1.14697265625,1.15185546875,1.92431640625,39.87117647058824,154.79829863223836
-0.2076201171875,-0.0492900390625,1.0549853515625005,1.0763501814108576,-0.61279296875,0.7734375,3.00830078125,39.91823529411765,154.79829863223836
-0.1519560546875,-0.0243876953125,1.0598681640625005,1.070983626126964,0.14306640625,0.755859375,3.74853515625,40.059411764705885,154.01935938602355
-0.1622099609375,-0.0727275390625,1.0115283203125005,1.0270301403365245,0.263671875,2.40771484375,4.17138671875,40.01235294117648,154.01935938602355
-0.1158232421875,-0.0395244140625,0.9895556640625,0.997094586795046,0.373046875,2.7880859375,4.86572265625,39.82411764705883,154.01935938602355
-0.0235380859375,-0.0707744140625,0.9397509765625,0.9427061881231416,0.70263671875,2.3759765625,5.2607421875,40.059411764705885,154.01935938602355
0.0155244140625,-0.1034892578125,0.8699267578125001,0.876198378150025,0.66943359375,1.0078125,5.45654296875,39.87117647058824,154.01935938602355
-0.0215849609375,-0.0810283203125,0.8254931640625001,0.8297412025115157,0.41650390625,-0.92431640625,5.7373046875,39.87117647058824,154.22524451957236
-0.0420927734375,-0.0268291015625,0.8123095703125001,0.8138417784112525,0.275390625,-2.392578125,5.60205078125,40.059411764705885,154.22524451957236
-0.0875029296875,0.0044208984375,0.8147509765625001,0.8194482661257132,-0.29248046875,-3.13330078125,5.19921875,40.059411764705885,154.22524451957236
-0.1534208984375,0.0635029296875,0.8464892578125001,0.8626208076253566,-0.76513671875,-3.22802734375,4.74169921875,39.91823529411765,154.22524451957236
-0.1890654296875,0.1001240234375,0.8772509765625001,0.9029617005455391,-1.00732421875,-2.416015625,4.189453125,39.73,154.21122859859142
-0.1778349609375,0.1240498046875,0.8689501953125001,0.8955936965545711,-0.744140625,-1.05810546875,3.4169921875,39.73,154.21122859859142
-0.0918974609375,0.1323505859375,0.7795947265625001,0.7960714532055638,-0.5380859375,0.2841796875,2.72021484375,40.059411764705885,154.21122859859142
-0.0098662109375,0.0713154296875,0.6775439453125001,0.6813582247682962,-0.72021484375,2.04443359375,1.63623046875,40.20058823529412,154.21122859859142
0.1190400390625,0.0625263671875,0.6292041015625001,0.6434111274424312,-0.763671875,3.8193359375,0.076171875,39.87117647058824,154.21122859859142
0.2030244140625,-0.0146220703124999,0.5095751953125001,0.54872542981296,-0.60107421875,4.86279296875,-1.5283203125,40.15352941176471,154.24747620628972
0.2108369140625,-0.1073955078125,0.3918994140625,0.4577894168416671,-0.3154296875,4.7822265625,-2.185546875,40.01235294117648,154.24747620628972
0.2245087890625,-0.1191142578125,0.3455126953125,0.4289189030605218,0.080078125,3.50439453125,-1.89794921875,39.87117647058824,154.24747620628972
0.2650361328125,-0.0448955078125,0.3630908203125,0.4517684164626292,0.46484375,2.0615234375,-1.2138671875,39.91823529411765,154.24747620628972
0.4090791015625,0.1167255859375,0.4221728515625,0.5993333716255483,0.73974609375,0.92041015625,-1.41357421875,40.15352941176471,154.66200091597008
0.4442353515625,0.1855732421875,0.5115283203125001,0.7024554777888533,1.01416015625,0.51611328125,-2.564453125,40.059411764705885,154.66200091597008
0.4320283203125,0.2031513671875,0.5911181640625001,0.7598286855777501,1.2197265625,1.36376953125,-3.6328125,40.15352941176471,154.66200091597008
0.4002900390625,0.2461201171875,0.6985400390625001,0.8418820663433125,1.279296875,2.39697265625,-4.11181640625,40.01235294117648,154.66200091597008
0.3861298828125,0.2651630859375,0.8035205078125001,0.9300822302463104,1.10888671875,2.74462890625,-4.1171875,39.87117647058824,154.66200091597008
0.4105439453125,0.1914326171875,0.9109423828125,1.0173538237801656,0.583984375,1.8388671875,-4.427734375,40.01235294117648,155.32127259652916
0.3958955078125,0.1572529296875,1.1150439453125005,1.1936434714685475,-0.14794921875,0.125,-4.77001953125,39.91823529411765,155.32127259652916
0.3402314453125,0.1758076171875,1.4148486328125005,1.4657634217062383,-0.39599609375,-1.49951171875,-4.3955078125,40.15352941176471,155.32127259652916
0.2513642578125,0.1484638671875,1.7117236328125005,1.7364398363014826,-0.16650390625,-2.68115234375,-3.3583984375,39.87117647058824,155.32127259652916
0.1165986328125,0.0615498046875,1.8460009765625005,1.8507034406140055,0.2236328125,-2.99609375,-1.8388671875,39.91823529411765,154.9345978005343
0.0052705078125,0.0371357421875,1.9128955078125005,1.913263198153788,-0.0458984375,-0.9931640625,-0.78369140625,39.87117647058824,154.9345978005343
-0.0240263671875,0.0869404296875,1.9861376953125005,1.9881848126810864,0.29345703125,2.107421875,-0.46435546875,40.15352941176471,154.9345978005343
-0.0235380859375,0.0796162109375,1.8831103515625005,1.884939622029175,1.03564453125,5.05810546875,-0.5341796875,40.15352941176471,154.9345978005343
-0.0640654296875,0.0844990234375,1.7161181640625005,1.7193911763377705,1.29052734375,6.92626953125,-0.6484375,40.01235294117648,154.9345978005343
-0.1397490234375,0.1147724609375,1.5198291015625005,1.5305499029099514,1.76904296875,7.59619140625,-0.59716796875,39.87117647058824,154.70099261084053
-0.1641630859375,0.0781513671875,1.2859423828125005,1.2987320612394573,2.041015625,6.76171875,-0.94775390625,39.63588235294118,154.70099261084053
-0.1397490234375,0.0327412109375,1.0671923828125005,1.0768014479830583,1.8134765625,4.609375,-1.77587890625,39.91823529411765,154.70099261084053
-0.0191435546875,-0.0155986328124999,0.9744189453125,0.9747317959395896,1.20361328125,2.6005859375,-3.294921875,39.91823529411765,154.70099261084053
-0.1612333984375,-0.0058330078124999,1.0701220703125005,1.082216003449292,0.50390625,1.58544921875,-3.533203125,39.63588235294118,154.95682929551336
-0.2232451171875,-0.0395244140625,1.0227587890625005,1.0475858448163742,0.126953125,1.3017578125,-3.27392578125,39.82411764705883,154.95682929551336
-0.0650419921875,-0.0004619140624999,0.9241259765625,0.9264121624147182,-0.50390625,1.90283203125,-3.875,40.059411764705885,154.95682929551336
0.0965791015625,0.0381123046875,0.8460009765625001,0.8523483577575053,-0.78076171875,1.353515625,-5.263671875,40.01235294117648,154.95682929551336
0.0335908203125,-0.0702861328125,0.8709033203125001,0.8743803960555956,-1.79052734375,-0.22900390625,-6.1396484375,40.24764705882353,154.95682929551336
-0.1255888671875,-0.0488017578125,0.9680712890625,0.9774027807583524,-1.3896484375,-2.03759765625,-6.0849609375,39.87117647058824,154.68696863585026
-0.1866240234375,-0.0990947265625,0.8088916015625001,0.8360346368631167,-1.60107421875,-2.9892578125,-6.12060546875,40.15352941176471,154.68696863585026
-0.2144560546875,-0.0673564453125,0.8289111328125001,0.8588492045858609,-1.53564453125,-3.3505859375,-6.048828125,39.91823529411765,154.68696863585026
-0.2305693359375,2.6367187500001e-05,0.7649462890625001,0.7989399505096602,-0.8828125,-3.69287109375,-6.12109375,40.01235294117648,154.68696863585026
-0.2374052734375,0.0161396484375,0.7419970703125001,0.7792184574687341,-0.46435546875,-3.3408203125,-5.84033203125,39.73,154.6536212118137
-0.1685576171875,-0.0087626953124999,0.6917041015625001,0.7119993112773726,0.00927734375,-3.056640625,-5.4638671875,39.87117647058824,154.6536212118137
-0.1597685546875,-0.0571025390625,0.6829150390625001,0.7036758071811571,0.46435546875,-2.40087890625,-4.61962890625,40.059411764705885,154.6536212118137
-0.1480498046875,-0.0629619140625,0.6619189453125001,0.6811898688721324,0.544921875,-1.75244140625,-2.8076171875,39.91823529411765,154.6536212118137
-0.1734404296875,0.0063740234375,0.6326220703125001,0.6559976331294498,0.857421875,-1.07373046875,-1.00634765625,39.63588235294118,154.6536212118137
-0.1739287109375,0.0888935546875,0.6213916015625001,0.6513683927285456,1.15185546875,-0.07958984375,0.10693359375,40.24764705882353,154.92895257729535
-0.1714873046875,0.0942646484375,0.5657275390625001,0.5986162109964459,1.15771484375,1.099609375,0.44140625,40.01235294117648,154.92895257729535
-0.1358427734375,0.0586201171875,0.5076220703125001,0.5287435517362051,0.91015625,2.12890625,0.41064453125,39.91823529411765,154.92895257729535
-0.0059599609375,0.0429951171875,0.5017626953125001,0.5036366782151674,0.8154296875,2.77880859375,-0.2275390625,40.24764705882353,154.92895257729535
0.1014619140625,-0.0522197265625,0.4670947265625,0.4808314709230097,0.44970703125,2.43798828125,-0.587890625,39.91823529411765,155.05413637443343
0.1854462890625,-0.1318095703125,0.4431689453125,0.4981594152903384,0.19580078125,2.10986328125,-0.6318359375,39.91823529411765,155.05413637443343
0.2015595703125,-0.2157939453125,0.4329150390625,0.5240312187881365,0.044921875,2.123046875,-0.22705078125,40.01235294117648,155.05413637443343
0.1737275390625,-0.3754619140625,0.3709033203125,0.5556277348720324,-0.119140625,2.28076171875,1.521484375,40.01235294117648,155.05413637443343
0.3153291015625,-0.4711650390625,0.3298876953125,0.6559381280620707,0.18505859375,2.3134765625,2.8798828125,39.91823529411765,155.05413637443343
0.4129853515625,-0.5370830078125,0.3718798828125,0.7728581403639108,0.416015625,1.42138671875,4.04638671875,40.24764705882353,154.99017664321468
0.3675751953125,-0.5214580078125,0.4963916015625,0.808353017080154,0.58447265625,0.2822265625,4.83935546875,39.73,154.99017664321468
0.1668916015625,-0.4906962890625,0.6335986328125001,0.8185859040282053,0.55908203125,-0.56298828125,4.76611328125,39.91823529411765,154.99017664321468
-0.0001005859374999,-0.4047587890625,0.8088916015625001,0.9045083252901648,0.5556640625,-0.80029296875,4.12890625,40.059411764705885,154.99017664321468
0.2220673828125,-0.2167705078125,1.1091845703125005,1.1517785319174032,0.7509765625,-1.85009765625,3.509765625,39.87117647058824,155.0985997908517
0.7582001953125,0.0312763671875,1.4910205078125005,1.6730176036234068,1.71142578125,-5.90966796875,2.33984375,40.01235294117648,155.0985997908517
1.0736298828125,0.2842060546875,1.9290087890625005,2.2258771563294752,1.8564453125,-11.85546875,0.8505859375,40.01235294117648,155.0985997908517
0.6551728515625,0.6142841796875,2.0559619140625003,2.243563217498991,1.0947265625,-13.26806640625,1.06787109375,40.15352941176471,155.0985997908517
0.4442353515625,0.4907490234375,2.1174853515625003,2.218540931708154,-0.42626953125,-6.98046875,0.13427734375,39.73,155.0985997908517
0.3177705078125,0.0166279296875,2.1423876953125003,2.165890029689299,-1.373046875,0.146484375,-2.103515625,39.91823529411765,154.67858939855006
0.1234345703125,-0.1449931640625,2.1101611328125003,2.1187352635960965,-1.5673828125,3.08447265625,-1.65478515625,40.059411764705885,154.67858939855006
-0.0718779296875,-0.1401103515625,1.8762744140625005,1.882870952629709,-1.970703125,3.7060546875,-0.21142578125,40.01235294117648,154.67858939855006
-0.1631865234375,0.0049091796875,1.6565478515625005,1.6645734366477067,-2.16162109375,2.15673828125,0.78466796875,39.63588235294118,154.67858939855006
-0.0938505859375,0.1650654296875,1.5774462890625005,1.5888333214770467,-0.98291015625,0.16064453125,0.25732421875,39.73,154.8788451561
-0.1817412109375,0.1260029296875,1.3098681640625005,1.3284055153707122,-0.6357421875,-1.74462890625,-0.1494140625,39.91823529411765,154.8788451561
-0.1915068359375,0.0454365234375,1.1687548828125005,1.185211931247294,-0.400390625,-2.61572265625,0.35888671875,39.73,154.8788451561
-0.1959013671875,-0.0121806640624999,1.0335009765625005,1.0519743261118957,-0.09375,-2.4697265625,1.888671875,40.059411764705885,154.8788451561
-0.1895537109375,-0.1103251953125,0.8538134765625001,0.881532592029734,-0.1748046875,-2.1083984375,3.5498046875,40.059411764705885,154.8788451561
-0.0967802734375,-0.1191142578125,0.7805712890625001,0.7955162883621888,-0.46630859375,-2.69677734375,4.0537109375,39.73,154.74254795654832
-0.0801787109375,-0.0868876953125,0.7449267578125001,0.7542506027769286,-0.15234375,-1.94677734375,3.93408203125,40.01235294117648,154.74254795654832
-0.0132841796875,-0.0790751953125,0.7639697265625001,0.7681660621556129,-0.361328125,-0.90966796875,3.99365234375,39.87117647058824,154.74254795654832
0.0121064453125,-0.0434306640625,0.7781298828125001,0.7794349896718836,-0.19140625,-0.7646484375,4.06494140625,40.059411764705885,154.74254795654832
0.0404267578125,-0.0199931640625,0.7737353515625001,0.7750486717710096,-0.13818359375,-1.287109375,3.9306640625,39.91823529411765,154.35042107625847
0.0853486328125,0.0449482421875,0.7551806640625001,0.7613163396201265,0.03466796875,-2.2314453125,3.625,39.87117647058824,154.35042107625847
0.1214814453125,0.0395771484375,0.7722705078125001,0.7827680559850629,-0.1337890625,-3.4677734375,3.35205078125,40.20058823529412,154.35042107625847
0.1043916015625,0.0698505859375,0.8074267578125001,0.8171381034220602,-0.34375,-4.60595703125,2.6494140625,40.15352941176471,154.35042107625847
0.0355439453125,0.0776630859375,0.8669970703125001,0.871193920373743,-0.79150390625,-4.60400390625,1.935546875,40.01235294117648,154.35042107625847
-0.0225615234375,0.0718037109375,0.8840869140625001,0.8872848848373173,-1.55859375,-3.9306640625,1.3037109375,39.82411764705883,154.3781288134235
-0.0440458984375,0.1089130859375,0.8831103515625001,0.8908905625801848,-2.30322265625,-2.7587890625,0.5244140625,39.73,154.3781288134235
0.0116181640625,0.0971943359375,0.8674853515625001,0.8729905817647915,-2.52734375,-1.25732421875,-0.55859375,39.73,154.3781288134235
-0.0157255859375,0.0556904296875,0.7795947265625001,0.7817395062908842,-2.55810546875,-0.2021484375,-1.55322265625,39.82411764705883,154.3781288134235
-0.0176787109375,-0.0268291015625,0.6541064453125001,0.6548950903086824,-2.20166015625,0.42041015625,-1.814453125,39.68294117647059,154.5227997897218
-0.0167021484375,-0.0883525390625,0.5515673828125001,0.5588485579330503,-1.44482421875,0.7060546875,-1.34619140625,40.059411764705885,154.5227997897218
0.0204072265625,-0.1064189453125,0.4500048828125,0.4628669802140676,-0.5693359375,0.8173828125,-0.7119140625,39.91823529411765,154.5227997897218
0.1288056640625,-0.0424541015625,0.4031298828125,0.425331579183207,0.09326171875,1.06640625,-0.65234375,40.059411764705885,154.5227997897218
0.2313447265625,0.0166279296875,0.3435595703125,0.414523882191702,0.4462890625,1.39599609375,-1.04931640625,39.82411764705883,154.5227997897218
0.2811494140625,0.0610615234375,0.2844775390625,0.4045997687879365,0.50439453125,1.4521484375,-1.76318359375,39.91823529411765,154.97341606139116
0.3006806640625,0.1011005859375,0.2234423828125,0.3880163510148762,0.41357421875,1.22509765625,-2.544921875,40.059411764705885,154.97341606139116
0.3436494140625,0.1465107421875,0.2083056640625,0.4277283799823794,0.27685546875,0.77685546875,-3.3330078125,39.73,154.97341606139116
0.4085908203125,0.1919208984375,0.2595751953125,0.520729653200412,0.22607421875,0.22412109375,-4.01025390625,39.87117647058824,154.97341606139116
0.4769501953125,0.2583271484375,0.4270556640625,0.6903556653177729,0.3330078125,-0.17041015625,-4.70849609375,40.20058823529412,155.2543978671678
0.3504853515625,0.2695576171875,0.5432666015625001,0.7004569158891646,0.39013671875,0.240234375,-4.79345703125,39.91823529411765,155.2543978671678
0.2787080078125,0.2739521484375,0.7229541015625001,0.8218214929158133,0.54638671875,0.8623046875,-4.10498046875,39.73,155.2543978671678
0.3236298828125,0.2334248046875,0.9241259765625,1.0065943875515224,0.7421875,1.02587890625,-3.5595703125,39.87117647058824,155.2543978671678
0.3958955078125,0.2055927734375,1.2078173828125005,1.2875653272047514,0.50341796875,-0.45361328125,-3.025390625,39.87117647058824,155.2543978671678
0.5609345703125,0.1426044921875,1.6555712890625005,1.753824371632403,0.6416015625,-4.53759765625,-2.2255859375,39.91823529411765,155.38796702950535
0.7083955078125,0.0151630859375,2.1287158203125003,2.2435429923032,1.07080078125,-8.8115234375,-1.197265625,39.87117647058824,155.38796702950535
0.5858369140625,-0.1537822265625,2.5208056640625003,2.5925499144769377,2.134765625,-12.18115234375,-0.365234375,39.87117647058824,155.38796702950535
0.3807587890625,-0.1640361328125,2.5032275390625003,2.5373279686783343,2.658203125,-8.16845703125,-0.25537109375,39.91823529411765,155.38796702950535
0.3446259765625,-0.0473369140625,2.2732470703125003,2.299708696735085,2.3232421875,1.91943359375,-0.47998046875,40.15352941176471,154.9010769768296
0.2440400390625,0.0371357421875,2.0906298828125003,2.105152704893888,1.50927734375,11.14111328125,-1.0986328125,40.01235294117648,154.9010769768296
0.1473603515625,0.1513935546875,1.8718798828125005,1.8837646820374567,1.02978515625,15.99951171875,-1.53271484375,39.73,154.9010769768296
-0.1758818359375,-0.0107158203124999,1.2419970703125005,1.2544345226764724,0.4326171875,12.4326171875,0.3134765625,39.73,154.9010769768296
0.3724580078125,0.1059833984375,1.1228564453125005,1.1877558861600486,0.8232421875,4.3837890625,-0.875,39.91823529411765,154.9010769768296
0.2772431640625,0.0298115234375,1.0222705078125005,1.0596176150349137,0.57421875,-0.884765625,-2.95068359375,40.059411764705885,154.77589571735928
0.0433564453125,-0.0351298828125,1.1160205078125005,1.1174147233120864,-0.56689453125,-2.357421875,-4.62646484375,39.91823529411765,154.77589571735928
-0.1954130859375,-0.0258525390625,1.1482470703125005,1.165043330701839,-1.04541015625,-1.05126953125,-5.814453125,39.91823529411765,154.77589571735928
-0.2657255859375,-0.0507548828125,1.0632861328125005,1.0971615858124546,-1.59716796875,0.40869140625,-6.38671875,40.15352941176471,154.77589571735928
-0.2476591796875,-0.0146220703124999,0.9612353515625,0.992734745698564,-1.716796875,1.3505859375,-6.9619140625,39.73,155.0067638217889
-0.0127958984375,-0.1005595703125,0.8665087890625001,0.8724181587523369,-2.0341796875,2.58154296875,-6.7333984375,40.059411764705885,155.0067638217889
0.0594697265625,-0.1132548828125,0.7810595703125001,0.7914653304062275,-2.12548828125,2.84716796875,-6.24365234375,39.87117647058824,155.0067638217889
0.0916962890625,-0.0741923828125,0.7561572265625001,0.7653015551911038,-2.1982421875,1.79638671875,-6.03076171875,39.91823529411765,155.0067638217889
0.0550751953125,-0.0824931640625,0.7722705078125001,0.7786142411314664,-1.3017578125,0.01220703125,-5.65185546875,40.15352941176471,155.0067638217889
-0.0269560546875,-0.1059306640625,0.8010791015625001,0.80850210972713,-0.8623046875,-1.46240234375,-5.0927734375,40.01235294117648,154.7146742952874
-0.1148466796875,-0.0761455078125,0.8333056640625001,0.8446219438032089,0.0224609375,-1.83154296875,-4.26025390625,40.059411764705885,154.7146742952874
-0.1441435546875,-0.0746806640625,0.7874072265625001,0.8039681003532495,0.64892578125,-1.9951171875,-3.16943359375,39.73,154.7146742952874
-0.1070341796875,-0.1054423828125,0.7795947265625001,0.7939410238793642,1.1953125,-1.99072265625,-2.298828125,39.91823529411765,154.7146742952874
-0.0767607421875,-0.0907939453125,0.6814501953125001,0.6917442596350399,1.345703125,-1.578125,-1.3876953125,39.68294117647059,154.50604382511403
-0.0142607421875,-0.0741923828125,0.6741259765625001,0.6783463058876927,1.099609375,-0.349609375,-0.68017578125,39.73,154.50604382511403
0.0697236328125,0.0166279296875,0.6345751953125001,0.6386106415682112,0.90576171875,0.97021484375,0.06787109375,39.91823529411765,154.50604382511403
0.0716767578125,0.0254169921875,0.5388720703125001,0.5442119892700373,0.48193359375,2.44140625,0.60498046875,39.91823529411765,154.50604382511403
0.1434541015625,0.0605732421875,0.4939501953125,0.517914078176551,0.3662109375,3.3779296875,0.86376953125,40.24764705882353,154.50604382511403
0.2040009765625,0.0761982421875,0.4226611328125,0.4754629362434724,0.21728515625,3.9970703125,0.7236328125,39.82411764705883,154.63122161664276
0.3182587890625,0.0288349609375,0.3660205078125,0.4858920908258504,0.20703125,3.83740234375,0.19482421875,40.01235294117648,154.63122161664276
0.3748994140625,-0.0824931640625,0.3547900390625,0.5227147066989972,0.1943359375,3.02978515625,-0.29296875,39.82411764705883,154.63122161664276
0.3241181640625,-0.1928447265625,0.4207080078125,0.565010531473329,0.29931640625,2.28564453125,0.43798828125,39.87117647058824,154.63122161664276
0.2791962890625,-0.2890361328125,0.5437548828125001,0.6761374316512228,0.65869140625,2.59130859375,1.9931640625,40.059411764705885,155.0985997908517
0.2484345703125,-0.3339580078125,0.6785205078125001,0.7960136721379748,0.97607421875,3.771484375,3.3671875,40.059411764705885,155.0985997908517
0.2835908203125,-0.3925517578125,0.7742236328125001,0.913204724874212,1.00537109375,5.755859375,3.8125,39.87117647058824,155.0985997908517
0.3070283203125,-0.4140361328125,0.9094775390625,1.0453906938592032,0.7353515625,6.9990234375,3.53466796875,39.68294117647059,155.0985997908517
0.2787080078125,-0.3876689453125,1.0110400390625005,1.1181088164244215,0.39013671875,7.30810546875,2.88623046875,39.87117647058824,155.0985997908517
0.2440400390625,-0.3217509765625,1.0784228515625005,1.1515533328321117,-0.03173828125,5.64013671875,2.03125,40.01235294117648,155.0484915511503
0.2508759765625,-0.2182353515625,1.2522509765625005,1.2956457589131112,-0.0947265625,2.00830078125,0.9404296875,39.82411764705883,155.0484915511503
0.1473603515625,-0.1059306640625,1.5315478515625005,1.5422630127274193,0.4453125,-0.65576171875,0.1181640625,39.63588235294118,155.0484915511503
0.0169892578125,0.0019794921875,1.7361376953125005,1.73622194731991,0.3828125,-0.27783203125,0.1953125,40.059411764705885,155.0484915511503
-0.0245146484375,0.0512958984375,1.9070361328125005,1.9078833950315155,-0.48681640625,2.59814453125,0.61767578125,40.24764705882353,154.4085785151308
0.0121064453125,-0.0517314453125,1.9363330078125005,1.937061750589389,-0.8046875,5.4453125,0.92333984375,39.73,154.4085785151308
0.0912080078125,-0.0204814453125,1.7244189453125005,1.7269508068395838,-0.89111328125,5.94482421875,2.203125,40.01235294117648,154.4085785151308
0.1371064453125,0.0273701171875,1.4700244140625005,1.476658077755607,-0.82421875,4.857421875,3.13525390625,40.01235294117648,154.4085785151308
0.0604462890625,0.0864521484375,1.3040087890625005,1.3082685694394462,-0.53173828125,3.2763671875,3.2021484375,39.54176470588236,154.4085785151308
-0.0630888671875,0.1294208984375,1.2273486328125005,1.2357647998636654,-0.48583984375,1.6689453125,2.73046875,39.87117647058824,154.8732024940964
-0.2208037109375,0.1328388671875,1.1414111328125005,1.170136666166711,-0.3798828125,0.84814453125,2.20849609375,39.87117647058824,154.8732024940964
-0.3072294921875,0.1050068359375,1.1062548828125005,1.1529164159686047,-0.20849609375,0.55419921875,1.81982421875,39.91823529411765,154.8732024940964
-0.3277373046875,-0.0175517578125,1.0413134765625005,1.0918120541360663,0.02490234375,-0.78759765625,1.923828125,40.059411764705885,154.8732024940964
-0.2837919921875,-0.0409892578125,1.0491259765625005,1.0876043990275093,0.03271484375,-1.9716796875,2.87158203125,39.91823529411765,154.5949723450001
-0.2325224609375,0.0473896484375,1.1692431640625005,1.193080906865225,0.07177734375,-1.4287109375,2.80126953125,40.15352941176471,154.5949723450001
-0.3008818359375,-0.0112041015624999,1.1292041015625005,1.168656200118117,-0.046875,-0.4892578125,3.03955078125,40.67117647058824,154.5949723450001
-0.2481474609375,-0.0405009765625,1.1082080078125005,1.1363725093700547,0.03857421875,0.70361328125,3.388671875,40.01235294117648,154.5949723450001
-0.1275419921875,-0.1064189453125,0.9856494140625,0.9995482575315364,0.0830078125,0.9345703125,4.33349609375,39.87117647058824,154.5949723450001
-0.0762724609375,-0.0346416015625,0.9504931640625,0.9541775431154416,0.064453125,-0.1796875,5.21728515625,39.87117647058824,154.65619176065195
-0.1334013671875,-0.0131572265624999,0.8074267578125001,0.8184784704620621,0.24365234375,-1.1328125,5.6201171875,40.01235294117648,154.65619176065195
-0.1900419921875,0.0395771484375,0.7317431640625001,0.7570537415700662,0.2119140625,-2.533203125,5.8974609375,40.01235294117648,154.65619176065195
-0.1910185546875,0.0483662109375,0.6589892578125001,0.6878184502524063,0.091796875,-3.4443359375,6.0185546875,40.01235294117648,154.65619176065195
-0.2447294921875,0.1797138671875,0.5759814453125001,0.651109993587961,-0.17138671875,-3.69921875,6.1689453125,39.87117647058824,154.23620015947608
-0.1363310546875,0.1694599609375,0.6643603515625001,0.6990547271576052,0.11865234375,-4.1376953125,5.484375,39.63588235294118,154.23620015947608
-0.1998076171875,0.1738544921875,0.7009814453125001,0.749348687202641,0.33203125,-3.47607421875,4.0517578125,40.15352941176471,154.23620015947608
-0.2242216796875,0.1552998046875,0.6560595703125001,0.710498100473521,0.03173828125,-2.1640625,3.1904296875,40.059411764705885,154.23620015947608
-0.1915068359375,0.1347919921875,0.6809619140625001,0.7201061572937225,0.2001953125,-0.0146484375,2.0830078125,39.82411764705883,154.23620015947608
-0.1329130859375,0.0420185546875,0.5569384765625001,0.574118379802645,0.26220703125,2.109375,1.2802734375,39.91823529411765,154.3613744832698
-0.0079130859375,-0.0155986328124999,0.4255908203125,0.4259500916879115,0.30908203125,3.25048828125,0.341796875,40.01235294117648,154.3613744832698
0.0116181640625,-0.1113017578125,0.3552783203125,0.3724859029713835,0.4345703125,3.7568359375,-0.3720703125,39.82411764705883,154.3613744832698
0.0785126953125,-0.1215556640625,0.3367236328125,0.3665007881101433,0.68994140625,3.63720703125,-0.501953125,40.059411764705885,154.3613744832698
0.1229462890625,-0.0365947265625,0.3264697265625,0.3507669402441135,0.857421875,3.1083984375,-0.81591796875,40.059411764705885,154.61446586398117
0.1361298828125,0.0630146484375,0.3464892578125,0.3775672081784961,0.95556640625,2.873046875,-0.91943359375,40.15352941176471,154.61446586398117
0.2801728515625,0.2099873046875,0.3792041015625,0.5161271602274061,1.1513671875,2.70654296875,-2.05712890625,40.15352941176471,154.61446586398117
0.5331025390625,0.3159443359375,0.4802783203125,0.7840193910408522,1.2744140625,3.09814453125,-3.77734375,39.91823529411765,154.61446586398117
0.7000947265625,0.3476826171875,0.5916064453125001,0.9803132226947996,1.6845703125,3.693359375,-6.03369140625,39.73,154.61446586398117
0.5028291015625,0.3491474609375,0.6331103515625001,0.8806643924406428,1.58251953125,4.30078125,-6.57666015625,40.059411764705885,155.39616989163153
0.2328095703125,0.3613544921875,0.7083056640625001,0.8285374335515542,1.15283203125,2.7822265625,-4.8701171875,39.82411764705883,155.39616989163153
0.2933564453125,0.3125263671875,1.0232470703125005,1.1093986213696665,1.154296875,-0.244140625,-3.271484375,40.15352941176471,155.39616989163153
0.4510712890625,0.0805927734375,1.4465869140625005,1.5174235410338544,1.07373046875,-4.43896484375,-2.666015625,40.15352941176471,155.39616989163153
0.6371064453125,-0.2592509765625,1.9578173828125005,2.0751300190470303,-0.15576171875,-9.20263671875,-2.3486328125,39.82411764705883,155.21249552191952
0.6795869140625,-0.5131572265625,2.1931689453125003,2.3526918063404425,-0.40234375,-10.93994140625,-1.5673828125,39.68294117647059,155.21249552191952
0.5877900390625,-0.3295634765625,2.5012744140625003,2.590459980302487,-0.8095703125,-10.21875,1.50390625,39.87117647058824,155.21249552191952
0.2093720703125,0.0639912109375,2.4080126953125003,2.4179447222156183,0.31787109375,-4.1669921875,3.609375,39.73,155.21249552191952
0.1561494140625,0.2256123046875,2.2996142578125003,2.3159251469494877,1.27099609375,4.880859375,1.4541015625,40.67117647058824,155.21249552191952
-0.1221708984375,0.1826435546875,2.1946337890625003,2.20560691524776,1.23046875,11.75,-0.89208984375,39.91823529411765,154.99000482103202
-0.4844755859375,0.1596943359375,1.6472705078125005,1.7244474477956282,0.615234375,12.7548828125,-0.48828125,40.01235294117648,154.99000482103202
-0.1221708984375,0.1972919921875,1.3474658203125005,1.3673017207320328,0.1982421875,6.76416015625,-1.0478515625,39.73,154.99000482103202
-0.2271513671875,0.1797138671875,1.0491259765625005,1.0883749962089615,0.55810546875,2.3076171875,-2.1396484375,40.15352941176471,154.99000482103202
-0.3829130859375,0.0986591796875,0.9959033203125,1.0715313754287608,0.01806640625,0.46435546875,-3.10693359375,39.87117647058824,154.69791782084982
-0.3731474609375,0.0898701171875,0.9836962890625,1.0559233185618793,-0.22412109375,-0.76708984375,-3.58447265625,39.73,154.69791782084982
-0.2559599609375,0.0322529296875,0.9504931640625,0.9848822305261152,-0.060546875,-1.56103515625,-3.91650390625,40.01235294117648,154.69791782084982
-0.1797880859375,-0.0287822265625,0.9475634765625,0.9648982923221372,-0.05419921875,-1.078125,-4.8193359375,39.82411764705883,154.69791782084982
-0.1133818359375,-0.0693095703125,0.9866259765625,0.9955350696411296,-0.5791015625,0.0869140625,-5.033203125,39.87117647058824,154.69791782084982
-0.1626982421875,-0.1088603515625,0.9241259765625,0.9446322642757912,-0.90576171875,0.36474609375,-4.796875,39.54176470588236,154.65619176065195
-0.1358427734375,-0.1928447265625,0.7600634765625001,0.7958258830060955,-1.1796875,-0.72314453125,-5.19482421875,39.73,154.65619176065195
0.0174775390625,-0.2035869140625,0.6677783203125001,0.6983415933685727,-1.5322265625,-1.82763671875,-6.109375,39.87117647058824,154.65619176065195
0.0545869140625,-0.1327861328125,0.6594775390625001,0.6749240792726964,-1.55517578125,-2.96630859375,-5.82275390625,40.01235294117648,154.65619176065195
-0.0035185546874999,-0.1005595703125,0.6521533203125001,0.6598701088874551,-1.1279296875,-4.6904296875,-4.607421875,40.059411764705885,154.92604555960125
-0.0660185546875,-0.0668681640625,0.6692431640625001,0.6758078229589402,-0.33740234375,-5.90771484375,-2.93603515625,39.82411764705883,154.92604555960125
-0.1690458984375,0.0010029296875,0.7034228515625001,0.7234509173031842,0.5693359375,-6.533203125,-1.58837890625,39.91823529411765,154.92604555960125
-0.2388701171875,0.0151630859375,0.7297900390625001,0.7680379894088335,1.27880859375,-6.154296875,-0.5966796875,39.82411764705883,154.92604555960125
-0.2291044921875,0.0366474609375,0.7444384765625001,0.7797567249600056,1.64794921875,-5.33740234375,0.02099609375,40.24764705882353,154.92604555960125
-0.1983427734375,0.0581318359375,0.7659228515625001,0.7933202258041675,1.693359375,-4.0185546875,0.24072265625,39.73,154.55324678665318
-0.1065458984375,0.0522724609375,0.7766650390625001,0.7856799740023105,1.52685546875,-2.494140625,0.220703125,39.82411764705883,154.55324678665318
-0.0645537109375,0.0898701171875,0.7561572265625001,0.764210423143907,1.197265625,-0.966796875,0.6220703125,39.91823529411765,154.55324678665318
-0.0381865234375,0.0786396484375,0.6292041015625001,0.635248145453168,0.84912109375,-0.072265625,1.14306640625,39.87117647058824,154.55324678665318
0.0570283203125,0.1240498046875,0.5632861328125001,0.5795962825791185,0.65966796875,0.39111328125,1.1328125,39.87117647058824,154.85918322956422
0.1107392578125,0.2114521484375,0.4475634765625,0.5072359015807235,0.32666015625,0.41748046875,0.80908203125,39.91823529411765,154.85918322956422
0.1498017578125,0.0542255859375,0.3997119140625,0.4302912909384613,0.05615234375,0.2314453125,0.3359375,39.87117647058824,154.85918322956422
0.1703095703125,-0.0136455078124999,0.3801806640625,0.4168079737127073,-0.22607421875,-0.20166015625,0.3740234375,39.91823529411765,154.85918322956422
0.1834931640625,-0.0927470703125,0.4138720703125,0.4621275266568465,-0.2431640625,-0.201171875,0.48046875,40.01235294117648,154.85918322956422
0.1976533203125,-0.2089580078125,0.4353564453125,0.521790684599352,-0.02392578125,0.39306640625,1.06787109375,39.87117647058824,154.76461453020858
0.2596650390625,-0.3246806640625,0.4480517578125,0.61122323565639,0.27685546875,0.87646484375,1.78662109375,39.87117647058824,154.76461453020858
0.3314423828125,-0.4184306640625,0.4812548828125,0.7187103282846892,0.67041015625,1.08056640625,2.55126953125,40.01235294117648,154.76461453020858
0.3290009765625,-0.4643291015625,0.5706103515625001,0.8058779873201631,1.056640625,0.57421875,3.2099609375,39.82411764705883,154.76461453020858
0.2777314453125,-0.4897197265625,0.6731494140625001,0.8775478904039979,1.19775390625,0.0654296875,3.4560546875,39.82411764705883,155.2542235163293
0.2459931640625,-0.4399150390625,0.8357470703125001,0.9759667227394424,1.18701171875,-0.44091796875,3.40234375,40.059411764705885,155.2542235163293
0.4437470703125,-0.3320048828125,1.1506884765625005,1.277193280093501,1.6064453125,-1.50830078125,3.24267578125,39.73,155.2542235163293
0.7972626953125,-0.2763408203125,1.5496142578125005,1.7644535704641604,2.0048828125,-5.1220703125,2.8759765625,40.059411764705885,155.2542235163293
0.8353486328125,-0.1498759765625,1.8787158203125005,2.061514802320068,2.10693359375,-8.63720703125,2.693359375,39.87117647058824,155.2542235163293
0.5623994140625,0.0405537109375,2.0144580078125003,2.0918840239479226,1.5068359375,-7.93115234375,2.87158203125,39.91823529411765,155.0873125199412
0.3031220703125,0.0805927734375,2.0564501953125003,2.080232100137315,-0.41943359375,-2.54296875,2.7802734375,40.15352941176471,155.0873125199412
0.1839814453125,-0.0693095703125,2.1506884765625003,2.159655970745088,-1.9013671875,2.87646484375,2.2216796875,39.91823529411765,155.0873125199412
0.1888642578125,-0.1230205078125,2.0212939453125003,2.03382225540446,-2.0302734375,5.78271484375,2.39794921875,40.01235294117648,155.0873125199412
0.1473603515625,-0.0634501953125,1.7957080078125005,1.8028611288226712,-2.64453125,6.20703125,2.8134765625,39.91823529411765,154.9621309898098
0.1834931640625,0.0542255859375,1.6355517578125005,1.646705713815159,-2.73291015625,3.35009765625,2.56396484375,39.73,154.9621309898098
0.0760712890625,0.1089130859375,1.5051806640625005,1.511032009183025,-1.9912109375,0.755859375,2.12646484375,39.63588235294118,154.9621309898098
-0.0357451171875,0.0029560546875,1.4329150390625005,1.4333638619811615,-0.9423828125,-0.51806640625,2.8662109375,39.73,154.9621309898098
-0.2139677734375,-0.1435283203125,1.2942431640625005,1.3196393274391458,-0.34033203125,-0.16162109375,4.5859375,39.82411764705883,154.9621309898098
-0.2164091796875,-0.2182353515625,1.1746142578125005,1.2141574265230335,-0.06884765625,0.06103515625,6.82421875,40.059411764705885,154.4085785151308
-0.2535185546875,-0.1757548828125,1.0076220703125005,1.0537854017702672,0.2431640625,-0.55615234375,8.154296875,40.059411764705885,154.4085785151308
-0.0250029296875,-0.0536845703125,0.9148486328125,0.9167634376116318,0.375,-0.87890625,8.06982421875,39.82411764705883,154.4085785151308
0.0501923828125,-0.0131572265624999,0.8513720703125001,0.852951809899836,0.2158203125,-0.75634765625,7.25439453125,40.059411764705885,154.4085785151308
0.0716767578125,0.0102802734375,0.8230517578125001,0.8262308622114692,0.18017578125,-1.43408203125,6.41748046875,39.87117647058824,154.2972617533572
0.0409150390625,0.0044208984375,0.8694384765625001,0.8704118848521093,0.53076171875,-1.29541015625,5.99560546875,39.68294117647059,154.2972617533572
0.1654267578125,-0.0199931640625,0.8601611328125001,0.8761523344777831,0.31591796875,-1.3515625,5.40625,40.059411764705885,154.2972617533572
0.1722626953125,-0.0014384765624999,0.8523486328125001,0.8695830594419869,-0.47607421875,-1.853515625,4.97119140625,39.91823529411765,154.2972617533572
0.1048798828125,0.0688740234375,0.8352587890625001,0.8446304905870892,-1.1103515625,-2.2578125,4.8896484375,39.87117647058824,154.2972617533572
0.0511689453125,0.1186787109375,0.8328173828125001,0.8427856729375759,-1.61865234375,-2.40966796875,4.751953125,39.82411764705883,154.34736162506036
0.0238251953125,0.1992451171875,0.8196337890625001,0.8438399165882651,-2.15234375,-2.6796875,4.22021484375,40.01235294117648,154.34736162506036
0.0072236328125,0.2246357421875,0.8108447265625001,0.841417000145204,-2.29443359375,-2.83056640625,3.1591796875,39.91823529411765,154.34736162506036
-0.0626005859375,0.2480732421875,0.8084033203125001,0.8479239913703415,-2.1669921875,-2.4501953125,2.14794921875,40.01235294117648,154.34736162506036
-0.0469755859375,0.1787373046875,0.7810595703125001,0.8026255553730338,-1.90771484375,-1.4306640625,1.26025390625,40.059411764705885,154.0274295034708
-0.0176787109375,0.0566669921875,0.6995166015625001,0.7020307405559526,-1.544921875,0.015625,0.5302734375,40.059411764705885,154.0274295034708
0.0169892578125,-0.1005595703125,0.5676806640625001,0.5767687564465461,-1.271484375,1.453125,0.12158203125,40.01235294117648,154.0274295034708
0.0038056640625,-0.2177470703125,0.4187548828125,0.4719999169363741,-0.6962890625,2.0244140625,0.49853515625,40.059411764705885,154.0274295034708
-0.0025419921874999,-0.2621806640625,0.3001025390625,0.3985055787367275,0.06640625,1.640625,1.369140625,39.91823529411765,154.0274295034708
0.0404267578125,-0.1806376953125,0.2468798828125,0.3085676202270028,0.69970703125,1.0361328125,1.9072265625,39.91823529411765,154.56984197111277
0.1488251953125,-0.0517314453125,0.2278369140625,0.2770103619062777,1.2265625,0.0048828125,1.677734375,39.87117647058824,154.56984197111277
0.2362275390625,0.0576435546875,0.2576220703125,0.3542532437686838,1.52490234375,-0.26708984375,0.6884765625,39.91823529411765,154.56984197111277
0.3490205078125,0.1596943359375,0.3596728515625,0.526005851636001,1.58935546875,0.42431640625,-0.5029296875,40.20058823529412,154.56984197111277
0.4520478515625,0.2417255859375,0.4768603515625,0.7001244988510336,1.658203125,1.798828125,-1.83642578125,39.91823529411765,154.99547940723284
0.4940400390625,0.2646748046875,0.5193408203125001,0.7640963290555082,1.5595703125,3.11083984375,-2.20458984375,39.91823529411765,154.99547940723284
0.5687470703125,0.2910419921875,0.6062548828125001,0.8807517551157754,1.5732421875,3.22998046875,-1.93017578125,39.73,154.99547940723284
0.7606416015625,0.2788349609375,0.7468798828125001,1.1018866279334711,1.4052734375,1.67529296875,-2.4677734375,39.87117647058824,154.99547940723284
0.9662080078125,0.2866474609375,1.1023486328125005,1.493618823357052,0.9833984375,-1.931640625,-4.22021484375,40.01235294117648,154.99547940723284
1.0077119140625,0.1665302734375,1.4866259765625005,1.8036830175796088,0.3505859375,-7.59619140625,-5.40234375,39.54176470588236,155.20411602388015
0.8895478515625,-0.0087626953124999,1.8435595703125005,2.04696948055886,0.3291015625,-11.8740234375,-4.96826171875,39.73,155.20411602388015
0.6527314453125,-0.1396220703125,2.1995166015625003,2.2985704128364537,0.3466796875,-14.060546875,-1.67138671875,40.15352941176471,155.20411602388015
0.2821259765625,-0.1410869140625,2.3860400390625003,2.40680029333146,0.87109375,-10.28857421875,1.6416015625,40.059411764705885,155.20411602388015
0.1581025390625,-0.0678447265625,2.3103564453125003,2.316753380094084,1.95263671875,-0.62109375,2.740234375,39.87117647058824,155.1651255719492
0.2557587890625,-0.0385478515625,2.1731494140625003,2.188487347663447,1.92236328125,8.8232421875,1.00732421875,39.73,155.1651255719492
0.1961884765625,-0.0121806640624999,1.9768603515625005,1.9866089540955791,1.173828125,14.29638671875,-0.96533203125,40.01235294117648,155.1651255719492
0.0384736328125,0.0395771484375,1.7380908203125005,1.7389670125551016,1.43505859375,15.99951171875,-1.81689453125,40.15352941176471,155.1651255719492
0.1073212890625,-0.0361064453125,1.2527392578125005,1.2578462475770855,1.35498046875,10.3740234375,-0.77490234375,40.01235294117648,155.1651255719492
0.2162080078125,0.0620380859375,1.1384814453125005,1.1604889607703637,1.6083984375,5.56787109375,-1.34912109375,40.059411764705885,154.68390176293468
0.0711884765625,0.0566669921875,1.1038134765625005,1.1075572844055792,1.115234375,3.666015625,-2.19580078125,39.82411764705883,154.68390176293468
-0.1128935546875,0.1264912109375,1.1760791015625005,1.1882369436549567,0.52197265625,3.87060546875,-2.28955078125,40.059411764705885,154.68390176293468
-0.0865263671875,0.0732685546875,1.1316455078125005,1.137311148576709,0.1591796875,4.25,-2.416015625,39.91823529411765,154.68390176293468
-0.0884794921875,0.0190693359375,1.2092822265625005,1.2126647366815009,-0.20703125,4.69140625,-3.1240234375,39.73,154.78958575220858
-0.0088896484375,-0.0209697265625,1.0852587890625005,1.0854977634794338,-0.64794921875,4.49951171875,-4.07666015625,39.82411764705883,154.78958575220858
0.0492158203125,-0.0751689453125,0.8806689453125001,0.8852402829437085,-1.43505859375,4.486328125,-5.06689453125,39.91823529411765,154.78958575220858
0.0233369140625,-0.1469462890625,0.8723681640625001,0.8849655570116711,-1.8671875,4.1669921875,-5.189453125,39.73,154.78958575220858
-0.0499052734375,-0.1191142578125,0.7864306640625001,0.7969641975075663,-1.919921875,2.91162109375,-5.29150390625,39.91823529411765,154.78958575220858
0.0550751953125,-0.1308330078125,0.7512744140625001,0.7645677198894343,-1.6884765625,1.08349609375,-5.1787109375,39.82411764705883,154.5809582424541
0.1707978515625,-0.0546611328125,0.8259814453125001,0.8452248774966565,-0.47412109375,-0.556640625,-5.05517578125,39.87117647058824,154.5809582424541
0.1698212890625,-0.0546611328125,0.6736376953125001,0.6968607136330269,-0.240234375,-2.37109375,-4.54638671875,39.91823529411765,154.5809582424541
0.0326142578125,-0.0424541015625,0.6585009765625001,0.660673578014064,0.0146484375,-3.5263671875,-3.30810546875,40.059411764705885,154.5809582424541
-0.0372099609375,0.0219990234375,0.6853564453125001,0.6867182794687788,0.39208984375,-3.27197265625,-2.47998046875,39.91823529411765,154.60045089999488
-0.1001982421875,-0.0234111328125,0.6453173828125001,0.6534694280813786,0.88525390625,-2.3583984375,-1.361328125,40.01235294117648,154.60045089999488
-0.1084990234375,0.0117451171875,0.6160205078125001,0.6256127012059536,1.083984375,-0.78466796875,-0.017578125,39.73,154.60045089999488
-0.1548857421875,0.0249287109375,0.5950244140625001,0.6153576903658552,1.16552734375,0.560546875,0.88671875,39.91823529411765,154.60045089999488
-0.0899443359375,0.0586201171875,0.5315478515625001,0.5422816797634082,0.98193359375,1.8359375,1.0009765625,39.91823529411765,154.60045089999488
-0.0635771484375,0.0459248046875,0.4670947265625,0.4736334290055186,0.806640625,2.8876953125,0.83349609375,40.15352941176471,154.45578369881406
-0.0093779296875,-0.0326884765625,0.3757861328125,0.3773217455691823,0.22216796875,3.515625,0.39697265625,39.82411764705883,154.45578369881406
0.0233369140625,-0.0834697265625,0.4006884765625,0.4099549512572767,0.216796875,3.68701171875,0.23828125,39.91823529411765,154.45578369881406
0.0477509765625,-0.1762431640625,0.4045947265625,0.4438904159853171,0.30615234375,3.91845703125,0.6259765625,39.82411764705883,154.45578369881406
0.0960908203125,-0.2670634765625,0.3840869140625,0.4775762806254436,-0.0693359375,4.64306640625,1.7333984375,39.87117647058824,154.85080545108502
0.2249970703125,-0.2968486328125,0.3904345703125,0.5396127742622158,-0.04638671875,5.21435546875,2.15576171875,39.91823529411765,154.85080545108502
0.3856416015625,-0.4501689453125,0.3865283203125,0.7076550477337538,0.40673828125,5.30078125,2.63330078125,40.059411764705885,154.85080545108502
0.5462861328125,-0.5610087890625,0.4358447265625,0.8961696412961943,1.1123046875,4.7958984375,4.0751953125,39.82411764705883,154.85080545108502
0.4618134765625,-0.6308330078125,0.5115283203125001,0.9342821808009806,1.17529296875,4.18212890625,6.0859375,39.87117647058824,154.85080545108502
0.3304658203125,-0.5903056640625,0.5774462890625001,0.8894451372463256,0.82568359375,3.4931640625,7.78125,39.87117647058824,155.37376452889347
0.2914033203125,-0.4111064453125,0.7493212890625001,0.902998781122608,0.52978515625,1.94921875,7.98828125,39.73,155.37376452889347
0.3817353515625,-0.1679423828125,1.0950244140625005,1.1717529560322038,1.1787109375,-0.20166015625,5.76513671875,40.01235294117648,155.37376452889347
0.4510712890625,-0.0483134765625,1.5374072265625005,1.602941196713298,1.9873046875,-3.1015625,3.04931640625,40.059411764705885,155.37376452889347
0.6424775390625,0.1001240234375,1.9807666015625005,2.0847634249800566,1.38525390625,-8.0908203125,1.3515625,39.68294117647059,155.07055493028474
0.3138642578125,0.3481708984375,2.2283251953125003,2.277096160225883,-0.00244140625,-9.97802734375,0.77734375,39.91823529411765,155.07055493028474
0.0804658203125,0.2553974609375,2.2752001953125003,2.290903433155122,-1.17333984375,-2.392578125,-0.18408203125,39.82411764705883,155.07055493028474
0.1805634765625,0.0635029296875,2.5584033203125003,2.5655532230950224,-0.37890625,5.93310546875,-0.87109375,39.73,155.07055493028474
0.0179658203125,-0.0629619140625,2.3206103515625003,2.3215338414722595,-0.3759765625,13.2099609375,1.34375,39.73,155.07055493028474
-0.1460966796875,-0.0820048828125,1.7566455078125005,1.7646168084710745,-0.9951171875,15.052734375,4.1728515625,39.82411764705883,155.24858066410243
0.1703095703125,0.0561787109375,1.3396533203125005,1.35160364601718,-1.60791015625,9.02978515625,4.53369140625,39.91823529411765,155.24858066410243
0.0501923828125,0.2090107421875,1.0525439453125005,1.074268831557618,-1.5478515625,3.59765625,1.63671875,39.82411764705883,155.24858066410243
-0.2339873046875,0.1279560546875,0.9104541015625,0.9487093768578924,-1.88134765625,-0.5908203125,0.0966796875,39.73,155.24858066410243
-0.4146513671875,0.1821552734375,1.0862353515625005,1.1768702302869514,-1.57275390625,-2.04052734375,0.439453125,40.01235294117648,154.3861923631657
-0.4068388671875,0.1587177734375,1.1418994140625005,1.2225561203051774,-0.64306640625,-2.4296875,1.220703125,39.73,154.3861923631657
-0.3296904296875,-0.0234111328125,1.0066455078125005,1.0595183051586128,-0.66259765625,-2.0595703125,2.96142578125,39.73,154.3861923631657
-0.2725615234375,-0.0800517578125,1.0129931640625005,1.0520709189141184,-0.83056640625,-1.63720703125,4.3017578125,39.91823529411765,154.3861923631657
-0.2129912109375,-0.0971416015625,0.9871142578125,1.0144931269690658,-0.275390625,-1.650390625,5.21923828125,39.91823529411765,154.3861923631657
-0.1368193359375,-0.1430400390625,0.9290087890625,0.9498617339469744,-0.00927734375,-1.4697265625,6.041015625,39.82411764705883,154.58369847929504
-0.1182646484375,-0.1220439453125,0.9602587890625,0.9751811081174948,-0.04931640625,-1.38037109375,7.099609375,39.87117647058824,154.58369847929504
-0.1192412109375,-0.0717509765625,0.8621142578125001,0.8732741050478433,0.4501953125,-1.69775390625,7.30078125,39.82411764705883,154.58369847929504
0.0008759765625,-0.0512431640625,0.7136767578125001,0.715514600717439,0.42822265625,-2.28515625,6.2314453125,39.91823529411765,154.58369847929504
0.0316376953125,-0.0063212890624999,0.6731494140625001,0.6739221291164027,-0.05517578125,-3.31982421875,5.4873046875,39.73,154.7172505261981
-0.0372099609375,0.0381123046875,0.6619189453125001,0.6640585961533633,-0.54443359375,-4.9892578125,5.1650390625,39.73,154.7172505261981
-0.1382841796875,0.1108662109375,0.7419970703125001,0.7628718656706487,-0.79443359375,-5.84228515625,4.85400390625,40.01235294117648,154.7172505261981
-0.2403349609375,0.1391865234375,0.8543017578125001,0.898312459646962,-0.921875,-5.4306640625,4.21337890625,39.87117647058824,154.7172505261981
-0.3018583984375,0.1343037109375,0.8982470703125001,0.95708086325233,-1.2333984375,-3.65234375,3.0888671875,39.68294117647059,154.7172505261981
-0.2613310546875,0.1167255859375,0.9329150390625,0.97583259459065,-1.0068359375,-1.1044921875,1.84228515625,40.059411764705885,153.74923303891364
-0.1905302734375,0.0620380859375,0.8328173828125001,0.8565835057468825,-0.67138671875,1.966796875,0.71826171875,40.059411764705885,153.74923303891364
-0.0245146484375,-0.0214580078125,0.7000048828125001,0.7007626203277665,-0.74169921875,4.46044921875,-0.59716796875,39.82411764705883,153.74923303891364
0.0726533203125,-0.0639384765625,0.6199267578125001,0.627435908112918,-0.2216796875,6.22607421875,-1.49560546875,39.87117647058824,153.74923303891364
0.1014619140625,-0.1000712890625,0.5139697265625001,0.5333607247656952,0.38671875,7.00732421875,-1.4404296875,39.82411764705883,154.19143305936933
0.1703095703125,-0.0629619140625,0.4158251953125,0.4537401739091667,0.9833984375,6.54833984375,-0.85546875,39.91823529411765,154.19143305936933
0.2303681640625,0.0136982421875,0.2756884765625,0.3595292324163732,1.2900390625,5.373046875,-0.69482421875,39.87117647058824,154.19143305936933
0.3788056640625,0.1411396484375,0.2107470703125,0.4558820671316153,1.11376953125,3.5087890625,-1.447265625,40.24764705882353,154.19143305936933
0.6512666015625,0.3003193359375,0.3582080078125,0.8016563270564945,0.99560546875,2.10400390625,-3.25732421875,40.01235294117648,154.19143305936933
0.6488251953125,0.3305927734375,0.5310595703125001,0.9012713149445616,1.02880859375,2.5771484375,-5.46630859375,39.87117647058824,155.37923836434456
0.3592744140625,0.3037373046875,0.6160205078125001,0.775123035978386,0.705078125,4.1552734375,-5.5107421875,39.58882352941177,155.37923836434456
0.1400361328125,0.3008076171875,0.7903369140625001,0.8571626326321845,0.62109375,4.83544921875,-3.791015625,40.20058823529412,155.37923836434456
0.2230439453125,0.2177998046875,1.0408251953125005,1.0865092929468128,1.14697265625,3.888671875,-2.08642578125,39.91823529411765,155.37923836434456
0.4530244140625,0.1059833984375,1.2551806640625005,1.3386344160813335,0.88818359375,0.896484375,-1.03271484375,40.20058823529412,155.39035466609602
0.5931611328125,-0.0317119140625,1.5081103515625005,1.620877110537034,-0.1689453125,-4.0341796875,-0.88427734375,39.73,155.39035466609602
0.3832001953125,-0.2104228515625,1.8635791015625005,1.9141701162456088,-0.935546875,-7.140625,-0.771484375,40.01235294117648,155.39035466609602
0.0775361328125,-0.3144267578125,2.1399462890625003,2.164311936388182,-0.849609375,-6.5576171875,-0.12646484375,39.91823529411765,155.39035466609602
0.0218720703125,-0.1728251953125,2.1106494140625003,2.1178262168263324,-0.66357421875,-3.4580078125,0.3828125,39.82411764705883,155.39035466609602
0.0697236328125,0.0693623046875,2.0115283203125003,2.0139311551548533,-0.390625,1.4853515625,0.00830078125,40.059411764705885,154.9340981899678
-0.0630888671875,0.1943623046875,1.8669970703125005,1.87814668521974,0.5673828125,6.8095703125,-0.8525390625,39.63588235294118,154.9340981899678
-0.3628935546875,0.1777607421875,1.4880908203125005,1.541980837427985,0.05029296875,7.06103515625,-0.0830078125,39.82411764705883,154.9340981899678
-0.1807646484375,0.1982685546875,1.2107470703125005,1.2401188435681905,0.09228515625,4.21533203125,-0.35693359375,39.82411764705883,154.9340981899678
-0.2662138671875,0.1430927734375,0.9949267578125,1.0398195123694558,-0.3173828125,1.3427734375,-1.41259765625,39.73,154.44451642131213
-0.3780302734375,0.0967060546875,0.9841845703125,1.0587153616953204,-0.13671875,-0.259765625,-2.22412109375,39.87117647058824,154.44451642131213
-0.3780302734375,-0.0087626953124999,0.9802783203125,1.050680378487705,0.10302734375,-0.89453125,-2.78662109375,39.87117647058824,154.44451642131213
-0.3052763671875,-0.0458720703125,1.0349658203125005,1.0800241462176108,0.11669921875,-0.67919921875,-3.3466796875,39.91823529411765,154.44451642131213
-0.2159208984375,-0.0951884765625,0.9924853515625,1.0201518776723817,0.16455078125,-0.4931640625,-3.95068359375,39.87117647058824,154.44451642131213
-0.1368193359375,-0.0990947265625,0.9475634765625,0.9625049805762496,0.10498046875,-0.228515625,-4.6484375,40.01235294117648,154.6587725347305
-0.0640654296875,-0.0966533203125,0.8411181640625001,0.8490736184362022,-0.3291015625,-0.65478515625,-5.35009765625,39.87117647058824,154.6587725347305
-0.0889677734375,-0.1674541015625,0.7893603515625001,0.8118164234969653,-1.04931640625,-1.0625,-5.6904296875,40.01235294117648,154.6587725347305
-0.0489287109375,-0.1786845703125,0.8040087890625001,0.8250771644588862,-1.50927734375,-1.2958984375,-5.67529296875,39.63588235294118,154.6587725347305
0.0194306640625,-0.0732158203125,0.8626025390625001,0.8659221947998642,-1.2763671875,-1.787109375,-6.21533203125,40.01235294117648,154.3138609230751
-0.0762724609375,-0.0956767578125,0.7483447265625001,0.7582818473739676,-1.08984375,-2.06201171875,-6.3642578125,39.82411764705883,154.3138609230751
-0.1890654296875,-0.1127666015625,0.6165087890625001,0.6546335846274501,-1.07763671875,-2.15234375,-5.908203125,40.01235294117648,154.3138609230751
-0.0435576171875,-0.0771220703125,0.6023486328125001,0.608825882494681,-0.7392578125,-2.37939453125,-5.64599609375,39.82411764705883,154.3138609230751
-0.0586943359375,-0.0453837890625,0.5359423828125001,0.541053556568621,-0.44140625,-3.01220703125,-4.62939453125,39.87117647058824,154.3138609230751
-0.1187529296875,-0.0351298828125,0.5461962890625001,0.5600595978656472,-0.056640625,-4.724609375,-3.06005859375,40.01235294117648,154.39730875253693
-0.2598662109375,-0.0136455078124999,0.6379931640625001,0.689022441478472,0.43115234375,-5.36083984375,-1.53564453125,39.91823529411765,154.39730875253693
-0.3472685546875,0.0088154296875,0.7522509765625001,0.8285859597015601,0.8447265625,-4.50390625,-0.31103515625,39.87117647058824,154.39730875253693
-0.3643583984375,0.0805927734375,0.8137744140625001,0.8952547316965453,1.00341796875,-2.69482421875,0.5849609375,39.87117647058824,154.39730875253693
-0.2823271484375,0.1440693359375,0.8084033203125001,0.8683205172023732,0.97265625,-0.57666015625,1.0126953125,40.059411764705885,154.43903291252894
-0.1358427734375,0.1777607421875,0.7146533203125001,0.7488534628296271,0.80615234375,1.322265625,0.7919921875,39.73,154.43903291252894
-0.0059599609375,0.1758076171875,0.6169970703125001,0.6415833727347766,0.6416015625,1.97265625,0.16748046875,39.91823529411765,154.43903291252894
0.0916962890625,0.1196552734375,0.5466845703125001,0.5670887173159057,0.42578125,2.029296875,-0.40869140625,39.91823529411765,154.43903291252894
0.1063447265625,0.0571552734375,0.5085986328125001,0.5227317624251587,0.05810546875,1.763671875,-0.52001953125,40.20058823529412,154.43903291252894
0.0809541015625,0.0117451171875,0.5222705078125001,0.5286378700663303,-0.11767578125,1.7373046875,-0.32373046875,39.91823529411765,154.9118653528843
0.0677705078125,-0.0361064453125,0.5535205078125001,0.5588215007417634,-0.197265625,2.3515625,0.0830078125,40.15352941176471,154.9118653528843
0.0975556640625,-0.1108134765625,0.5437548828125001,0.5634413072902792,-0.1064453125,3.2314453125,0.4765625,40.15352941176471,154.9118653528843
0.1419892578125,-0.1830791015625,0.5042041015625001,0.5548879912158171,0.02099609375,3.8232421875,0.98828125,39.82411764705883,154.9118653528843
0.2337861328125,-0.2822001953125,0.4778369140625,0.6021802243270781,0.1611328125,3.18212890625,1.5556640625,40.059411764705885,154.99805699110456
0.2767548828125,-0.3627666015625,0.5857470703125001,0.7424907425345066,0.5654296875,1.30029296875,2.34912109375,40.059411764705885,154.99805699110456
0.1976533203125,-0.4574931640625,0.7937548828125001,0.9372372400748696,1.01806640625,-0.4716796875,3.25439453125,40.01235294117648,154.99805699110456
0.1214814453125,-0.5068095703125,1.0618212890625005,1.1828263321476675,1.5654296875,-1.40771484375,4.31005859375,39.87117647058824,154.99805699110456
0.1283173828125,-0.4062236328125,1.3855517578125005,1.4495643014935709,1.92822265625,-2.2978515625,5.419921875,40.059411764705885,154.99805699110456
0.4784150390625,-0.2240947265625,1.7376025390625005,1.8161393062842792,2.42724609375,-3.76171875,5.697265625,39.91823529411765,154.88963257192324
0.8670869140625,-0.1293681640625,1.8010791015625005,2.00311301940168,2.34033203125,-5.2568359375,3.57763671875,40.059411764705885,154.88963257192324
0.8841767578125,-0.0302470703125,1.8943408203125005,2.0907440225480856,1.310546875,-5.31201171875,1.029296875,40.059411764705885,154.88963257192324
0.6419892578125,-0.2079814453125,1.9114306640625005,2.027060352396872,0.12060546875,-2.35546875,-0.54833984375,39.91823529411765,154.88963257192324
0.2821259765625,-0.2851298828125,1.8606494140625005,1.9033944306882744,-1.177734375,1.39404296875,0.84228515625,40.24764705882353,154.45014931029226
0.0653291015625,-0.1420634765625,1.8674853515625005,1.874020133612364,-1.8525390625,3.2646484375,2.63916015625,40.01235294117648,154.45014931029226
0.0487275390625,0.0302998046875,1.7971728515625005,1.79808862674243,-2.009765625,2.45703125,2.5263671875,39.73,154.45014931029226
-0.0474638671875,0.1841083984375,1.7971728515625005,1.807201975280268,-1.9853515625,0.68310546875,1.2373046875,39.73,154.45014931029226
-0.2286162109375,0.1645771484375,1.7307666015625005,1.7535404297521755,-1.75927734375,0.076171875,0.3662109375,39.73,154.45014931029226
-0.2706083984375,0.0771748046875,1.5911181640625005,1.6158099726741026,-1.32421875,0.099609375,1.0458984375,40.01235294117648,154.7978049710259
-0.3316435546875,0.0029560546875,1.2883837890625005,1.330386775920492,-1.197265625,-0.62255859375,2.94775390625,39.91823529411765,154.7978049710259
-0.1944365234375,0.1220966796875,1.1648486328125005,1.1872596591320386,-0.77978515625,-0.8125,3.21728515625,39.82411764705883,154.7978049710259
-0.0572294921875,0.0737568359375,1.0212939453125005,1.025551855517566,-0.947265625,-1.03076171875,2.87890625,39.87117647058824,154.7978049710259
-0.0113310546875,0.0210224609375,0.9539111328125,0.9542100324183492,-1.26171875,-1.30029296875,2.96826171875,39.73,154.26650572107883
-0.0337919921875,-0.0121806640624999,0.9158251953125,0.9165293534209268,-0.79052734375,-1.8193359375,3.6806640625,39.73,154.26650572107883
-0.1094755859375,-0.0453837890625,0.8147509765625001,0.8233248119883039,-0.04541015625,-2.5703125,5.1396484375,39.82411764705883,154.26650572107883
-0.0430693359375,-0.0517314453125,0.8264697265625001,0.8292064393481946,0.93310546875,-3.251953125,6.044921875,40.01235294117648,154.26650572107883
-0.0264677734375,-0.0087626953124999,0.7717822265625001,0.7722856551158054,1.41748046875,-3.5771484375,6.60107421875,40.01235294117648,154.26650572107883
-0.0435576171875,-0.0663798828125,0.6365283203125001,0.6414607216479484,1.11376953125,-3.99609375,6.6865234375,40.059411764705885,154.58918025243736
-0.0298857421875,0.0527607421875,0.6848681640625001,0.6875472752099401,0.44091796875,-5.375,6.04052734375,40.01235294117648,154.58918025243736
-0.0010771484374999,0.1582294921875,0.7761767578125001,0.7921414594723564,0.40185546875,-5.16845703125,4.69775390625,39.73,154.58918025243736
0.0443330078125,0.1445576171875,0.8284228515625001,0.8421085091955638,-0.19677734375,-4.359375,3.12158203125,39.82411764705883,154.58918025243736
-0.0240263671875,0.1557880859375,0.8738330078125001,0.8879365515524965,-1.20361328125,-3.05224609375,1.53955078125,40.059411764705885,154.080124788725
-0.1075224609375,0.1689716796875,0.9011767578125,0.9231641549388282,-1.97412109375,-1.33837890625,0.30126953125,40.01235294117648,154.080124788725
-0.0782255859375,0.1001240234375,0.8533251953125001,0.8627328389018785,-2.546875,0.9267578125,-0.97900390625,39.87117647058824,154.080124788725
0.0155244140625,-0.0361064453125,0.7302783203125001,0.7313351543195055,-2.84375,2.96630859375,-2.18115234375,40.01235294117648,154.080124788725
0.0575166015625,-0.0966533203125,0.5642626953125001,0.5753628534273458,-2.79052734375,3.61376953125,-2.7041015625,39.73,154.080124788725
0.1722626953125,-0.1523173828125,0.4251025390625,0.4833085867440814,-2.63232421875,2.953125,-2.8046875,40.059411764705885,153.9549583470264
0.1795869140625,-0.1596416015625,0.3850634765625,0.4538841059503304,-1.78173828125,1.64794921875,-2.22216796875,39.82411764705883,153.9549583470264
0.2967744140625,-0.1601298828125,0.2820361328125,0.4396146180730519,-1.3408203125,0.177734375,-2.1494140625,39.68294117647059,153.9549583470264
0.1610322265625,-0.0990947265625,0.3289111328125,0.3793859197600446,-0.40087890625,-1.48681640625,-1.62353515625,39.73,153.9549583470264
0.2069306640625,-0.0566142578125,0.3171923828125,0.3829314320231222,0.42041015625,-2.46484375,-0.86328125,40.059411764705885,154.42228342080483
0.2528291015625,0.0410419921875,0.3010791015625,0.3952918227301217,0.48681640625,-2.77099609375,-1.54833984375,39.87117647058824,154.42228342080483
0.3182587890625,0.1440693359375,0.3225634765625,0.475491142698881,0.17919921875,-2.85302734375,-2.7802734375,40.059411764705885,154.42228342080483
0.3260712890625,0.2373310546875,0.4187548828125,0.58138125782422,0.0,-2.5322265625,-3.9921875,39.82411764705883,154.42228342080483
0.3270478515625,0.3159443359375,0.5427783203125001,0.7080885718777657,0.2138671875,-1.55712890625,-4.52587890625,39.73,154.42228342080483
0.3304658203125,0.3852802734375,0.6755908203125001,0.8450275167030983,0.466796875,-0.4599609375,-4.37255859375,40.01235294117648,155.25953230090607
0.3846650390625,0.4145771484375,0.8381884765625001,1.0111386287377653,1.03759765625,0.001953125,-3.541015625,39.87117647058824,155.25953230090607
0.6180634765625,0.3374287109375,1.0252001953125005,1.2437427533434138,1.4736328125,-0.740234375,-3.71533203125,39.87117647058824,155.25953230090607
0.7665009765625,0.2627216796875,1.3132861328125005,1.5431354103534465,1.51806640625,-3.57080078125,-4.150390625,39.87117647058824,155.25953230090607
0.7874970703125,0.0176044921875,1.6077197265625005,1.7903140152146917,1.42041015625,-7.4736328125,-4.64892578125,39.87117647058824,155.51827594019483
0.6371064453125,-0.3129619140625,1.8591845703125005,1.9900796589082732,1.21630859375,-9.61328125,-4.3984375,40.01235294117648,155.51827594019483
0.3963837890625,-0.4447978515625,2.0833056640625003,2.166824341496342,0.6396484375,-9.603515625,-2.06689453125,39.87117647058824,155.51827594019483
0.1707978515625,-0.1347392578125,2.1731494140625003,2.184011206366492,0.94140625,-4.7607421875,0.87939453125,39.91823529411765,155.51827594019483
0.3314423828125,-0.0160869140625,1.9729541015625005,2.0006650716201286,1.19091796875,3.3076171875,0.93359375,39.73,155.51827594019483
0.3397431640625,0.0332294921875,1.7561572265625005,1.7890270599088016,-0.02001953125,9.5625,-0.8447265625,39.91823529411765,154.9563310831837
0.2049775390625,0.0503193359375,1.5886767578125005,1.6026358500616873,-1.1171875,11.83984375,-1.892578125,39.91823529411765,154.9563310831837
0.1346650390625,0.0405537109375,1.3953173828125005,1.4023872058013196,-0.818359375,8.005859375,-1.0205078125,40.059411764705885,154.9563310831837
0.3348603515625,0.0566669921875,1.1418994140625005,1.191334073586591,0.2890625,3.04541015625,-1.80517578125,39.73,154.9563310831837
0.2479462890625,-0.0063212890624999,1.0261767578125005,1.0557253711216052,0.25537109375,-0.689453125,-2.80078125,39.91823529411765,154.80328661601965
0.1078095703125,0.0024677734375,1.0256884765625005,1.0313417689155264,-0.158203125,-2.14990234375,-3.572265625,39.82411764705883,154.80328661601965
-0.0552763671875,0.0322529296875,1.0335009765625005,1.035480563216189,-0.236328125,-2.07275390625,-3.6845703125,39.87117647058824,154.80328661601965
-0.0826201171875,0.0547138671875,1.0222705078125005,1.027062160811075,-0.20458984375,-1.44482421875,-3.6611328125,39.82411764705883,154.80328661601965
-0.0455107421875,0.0161396484375,0.9587939453125,0.9600091382242424,-0.43701171875,-0.587890625,-4.1201171875,39.91823529411765,154.80328661601965
0.0189423828125,0.0122333984375,0.9124072265625,0.9126858260033512,-0.69775390625,0.23583984375,-4.8349609375,40.01235294117648,154.83953040529727
0.0248017578125,-0.1117900390625,0.8103564453125001,0.8184068111176104,-1.1689453125,0.3427734375,-5.1357421875,39.87117647058824,154.83953040529727
0.0506806640625,-0.0947001953125,0.8005908203125001,0.8077637762803451,-1.55419921875,0.001953125,-5.0107421875,39.73,154.83953040529727
0.0614228515625,-0.0409892578125,0.8113330078125001,0.8146865259203485,-1.56982421875,-0.2265625,-4.56005859375,39.82411764705883,154.83953040529727
0.0111298828125,-0.0121806640624999,0.7737353515625001,0.7739112592060985,-1.1640625,-0.54736328125,-4.18994140625,39.68294117647059,154.6114132078263
-0.0440458984375,-0.0033916015624999,0.7356494140625001,0.7369746295096087,-0.47265625,-1.1298828125,-3.69482421875,40.059411764705885,154.6114132078263
-0.0337919921875,-0.0087626953124999,0.7478564453125001,0.7486707863678055,0.09375,-1.09912109375,-3.0947265625,39.87117647058824,154.6114132078263
0.0047822265625,-0.0483134765625,0.6965869140625001,0.6982767292066715,0.40576171875,-0.46533203125,-2.41064453125,39.82411764705883,154.6114132078263
0.0438447265625,-0.0605205078125,0.6262744140625001,0.630717633828761,0.63037109375,-0.54931640625,-1.783203125,39.91823529411765,154.6114132078263
0.0516572265625,-0.0614970703125,0.5935595703125001,0.598968548608948,0.8505859375,-0.5908203125,-1.1787109375,39.87117647058824,154.59192178873383
0.0716767578125,-0.0546611328125,0.5501025390625001,0.5574389657477014,0.8359375,-0.27978515625,-0.6533203125,40.059411764705885,154.59192178873383
0.0916962890625,-0.0024150390624999,0.5388720703125001,0.5466234078452796,0.72216796875,0.04931640625,-0.37353515625,39.87117647058824,154.59192178873383
0.0916962890625,0.0586201171875,0.5247119140625001,0.535879762937585,0.66650390625,0.51025390625,-0.04736328125,39.82411764705883,154.59192178873383
0.1092744140625,0.0840107421875,0.5129931640625001,0.5311879975549639,0.63134765625,1.29736328125,-0.13916015625,40.01235294117648,154.7254710467977
0.1581025390625,0.0776630859375,0.4954150390625,0.525798467765591,0.74169921875,1.79052734375,-0.23974609375,40.01235294117648,154.7254710467977
0.1654267578125,0.0195576171875,0.4802783203125,0.5083461198362832,0.6328125,1.84326171875,-0.10791015625,39.91823529411765,154.7254710467977
0.1903291015625,-0.0629619140625,0.5105517578125001,0.5485001977478547,0.744140625,1.45263671875,0.26904296875,39.91823529411765,154.7254710467977
0.2494111328125,-0.2255595703125,0.5510791015625001,0.645578197517006,0.97802734375,1.39697265625,0.728515625,39.73,154.7254710467977
0.3485322265625,-0.4164775390625,0.6140673828125001,0.8197603333477191,1.3994140625,1.58154296875,1.5830078125,39.87117647058824,154.89511272982074
0.2420869140625,-0.5336650390625,0.6995166015625001,0.912539272436772,1.84326171875,1.8408203125,3.47705078125,39.91823529411765,154.89511272982074
0.4173798828125,-0.5859111328125,0.7659228515625001,1.050778585942745,1.99853515625,1.8681640625,5.03076171875,40.059411764705885,154.89511272982074
0.5755830078125,-0.5170634765625,0.8503955078125001,1.1497055959614455,1.90966796875,1.7138671875,4.78955078125,39.91823529411765,154.89511272982074
0.6585908203125,-0.3647197265625,1.0168994140625005,1.2652457333910965,1.53466796875,1.33984375,3.318359375,39.91823529411765,155.07313247378016
0.6659150390625,-0.2153056640625,1.2639697265625005,1.4447902401018242,1.2939453125,0.07177734375,1.71826171875,39.73,155.07313247378016
0.6463837890625,-0.1083720703125,1.4905322265625005,1.628263746082918,1.06982421875,-1.25537109375,0.2763671875,39.87117647058824,155.07313247378016
0.6278291015625,0.0259052734375,1.7029345703125005,1.815165726518124,0.681640625,-2.08251953125,-0.89306640625,39.82411764705883,155.07313247378016
0.4671845703125,2.6367187500001e-05,1.8899462890625005,1.946832915012077,0.0927734375,-1.4091796875,-1.58544921875,39.91823529411765,155.07313247378016
0.3986624348958333,-0.0289449869791666,1.887667643229167,2.0042020531639086,-0.21533203125,0.9677734375,-0.06640625,40.01235294117648,154.68085444123116
0.3301402994791667,-0.0579163411458333,1.885388997395833,1.9740853433072068,-0.63427734375,3.85595703125,2.63134765625,39.91823529411765,154.68085444123116
0.2616181640625,-0.0868876953125,1.8831103515625005,1.9031810558972035,-1.8359375,6.22509765625,3.9208984375,39.73,154.68085444123116
0.2083955078125,0.0205341796875,1.7693408203125005,1.781689445059374,-2.27734375,6.587890625,3.3818359375,39.63588235294118,154.68085444123116
0.1468720703125,0.1362568359375,1.6838916015625005,1.695767748304673,-1.9609375,5.37060546875,2.40771484375,39.73,154.37767165084918
-0.0064482421875,0.0620380859375,1.5671923828125005,1.5684330615871434,-1.3984375,4.5126953125,2.19775390625,39.73,154.37767165084918
-0.1617216796875,0.0410419921875,1.5339892578125005,1.543036418846882,-0.7958984375,4.74267578125,3.61474609375,39.82411764705883,154.37767165084918
-0.2183623046875,-0.0336650390625,1.4265673828125005,1.4435753976388013,-0.0009765625,5.16748046875,4.783203125,40.059411764705885,154.37767165084918
-0.1944365234375,-0.0033916015624999,1.2771533203125005,1.291873704428132,0.58740234375,4.8125,5.39111328125,40.15352941176471,154.37767165084918
-0.1792998046875,0.0063740234375,1.0960009765625005,1.1105886676721095,0.55908203125,4.07373046875,5.20458984375,40.01235294117648,154.23026956003412
-0.2056669921875,0.0879169921875,1.0984423828125005,1.1209834867425803,0.4775390625,3.61376953125,5.13671875,39.87117647058824,154.23026956003412
-0.1460966796875,0.0786396484375,1.0706103515625005,1.0833904923871476,0.927734375,3.5703125,5.38720703125,39.73,154.23026956003412
-0.0191435546875,-0.0238994140625,0.9641650390625,0.9646511702314968,0.9912109375,2.9794921875,5.88720703125,39.82411764705883,154.23026956003412
0.0643525390625,-0.0400126953125,0.8586962890625001,0.8620333995383649,0.66748046875,1.57861328125,5.75146484375,40.059411764705885,154.1606857588844
0.0384736328125,-0.0488017578125,0.7981494140625001,0.8005649999567138,0.31201171875,0.10205078125,5.53271484375,39.82411764705883,154.1606857588844
0.0228486328125,-0.0097392578124999,0.7761767578125001,0.7765740612024479,0.28955078125,-1.74853515625,5.43701171875,40.059411764705885,154.1606857588844
-0.0176787109375,0.0849873046875,0.8074267578125001,0.8120796438835685,0.0546875,-2.244140625,5.15673828125,40.01235294117648,154.1606857588844
-0.0865263671875,0.0971943359375,0.7341845703125001,0.7456276111048652,-0.45849609375,-1.8291015625,4.56884765625,39.87117647058824,154.1606857588844
-0.0914091796875,0.1523701171875,0.7376025390625001,0.758702706186238,-0.78857421875,-1.33642578125,3.30517578125,39.91823529411765,153.79356336555048
-0.0425810546875,0.1181904296875,0.6682666015625001,0.6799723337400639,-1.072265625,0.03173828125,1.53515625,39.91823529411765,153.79356336555048
-0.0230498046875,0.0805927734375,0.5984423828125001,0.6042845142586255,-1.669921875,1.51171875,0.017578125,39.73,153.79356336555048
-0.0567412109375,0.0346943359375,0.5022509765625001,0.5066352785019841,-1.9248046875,2.77294921875,-0.80517578125,39.91823529411765,153.79356336555048
-0.0523466796875,-0.0116923828124999,0.4387744140625,0.4420405785966148,-1.5546875,3.3798828125,-0.69775390625,40.059411764705885,154.1273356047973
-0.0103544921875,-0.0776103515625,0.2991259765625,0.3092037063694178,-0.82275390625,3.04345703125,-0.0712890625,39.91823529411765,154.1273356047973
0.0619111328125,-0.0531962890625,0.2371142578125,0.2507708212574198,-0.24609375,2.23828125,0.3212890625,40.059411764705885,154.1273356047973
0.1913056640625,0.0205341796875,0.2371142578125,0.3053566454096019,0.392578125,1.26318359375,0.119140625,39.82411764705883,154.1273356047973
0.2796845703125,0.1225849609375,0.2634814453125,0.4033274148169203,0.7509765625,0.86767578125,-0.88525390625,39.87117647058824,154.1273356047973
0.3143525390625,0.1933857421875,0.2854541015625,0.4665829060256118,1.0615234375,1.263671875,-2.16748046875,40.059411764705885,154.68085444123116
0.4339814453125,0.2500263671875,0.3181689453125,0.5933671350233123,1.16845703125,2.421875,-3.58251953125,39.25941176470588,154.68085444123116
0.6082978515625,0.2719990234375,0.3660205078125,0.7602504568271087,1.2470703125,3.25048828125,-4.85791015625,39.87117647058824,154.68085444123116
0.6126923828125,0.2715107421875,0.4348681640625,0.798886950196807,1.44384765625,3.728515625,-5.4765625,39.91823529411765,154.68085444123116
0.5287080078125,0.2646748046875,0.4617236328125,0.7501823930611816,1.4814453125,2.81103515625,-4.9931640625,40.01235294117648,155.27338779701898
0.4237275390625,0.2676044921875,0.6106494140625001,0.7899682895495026,1.5888671875,0.44091796875,-3.5966796875,40.059411764705885,155.27338779701898
0.4002900390625,0.2412373046875,0.8928759765625001,1.0077971333894464,1.7529296875,-2.80859375,-3.07666015625,40.01235294117648,155.27338779701898
0.4271455078125,0.1982685546875,1.2922900390625005,1.375418936063637,1.26513671875,-7.333984375,-2.97509765625,39.73,155.27338779701898
