AccX,AccY,AccZ,Magnitude,GyroX,GyroY,GyroZ,Temperature,Altitude
-0.2188505859375,0.0034443359375,0.9797900390625,1.003940218868301,0.0322265625,0.01806640625,-0.28564453125,41.61235294117647,171.33314647538765
-0.2129912109375,0.0049091796875,0.9827197265625,1.0055483165700698,0.025390625,0.06201171875,-0.2744140625,41.42411764705882,171.33314647538765
-0.2105498046875,0.0034443359375,0.9846728515625,1.0069377877049903,0.0244140625,0.04638671875,-0.26611328125,41.42411764705882,171.33314647538765
-0.2037138671875,0.0019794921875,0.9778369140625,0.9988334638852864,0.04345703125,0.0068359375,-0.26513671875,41.04764705882353,171.33314647538765
-0.2037138671875,2.6367187500001e-05,0.9846728515625,1.0055247212196925,0.056640625,-0.00146484375,-0.29248046875,41.61235294117647,170.974712283398
-0.2110380859375,-0.0077861328124999,0.9876025390625,1.009928944403038,0.03173828125,0.01416015625,-0.26611328125,41.37705882352941,170.974712283398
-0.2056669921875,0.0029560546875,0.9900439453125,1.011184782116854,0.0458984375,0.05419921875,-0.22607421875,41.37705882352941,170.974712283398
-0.1993193359375,-0.0033916015624999,0.9773486328125,0.997471829527124,0.0576171875,0.056640625,-0.17626953125,41.47117647058823,170.974712283398
-0.1983427734375,-0.0053447265624999,0.9817431640625,1.001592762583854,0.0654296875,0.0498046875,-0.14501953125,41.37705882352941,170.98213784502363
-0.1978544921875,-0.0019267578124999,0.9783251953125,0.9981334080460802,0.0751953125,0.04248046875,-0.11083984375,41.61235294117647,170.98213784502363
-0.1998076171875,-0.0038798828124999,0.9793017578125,0.9994849024529774,0.07568359375,0.078125,-0.12109375,41.235882352941175,170.98213784502363
-0.1978544921875,-0.0082744140624999,0.9832080078125,1.0029520689611624,0.1044921875,0.111328125,-0.09423828125,41.47117647058823,170.98213784502363
-0.1959013671875,-0.0112041015624999,0.9822314453125,1.0016394010413316,0.091796875,0.1279296875,-0.08642578125,41.42411764705882,170.98213784502363
-0.1968779296875,-0.0087626953124999,0.9812548828125,1.0008490640803682,0.083984375,0.134765625,-0.0673828125,41.42411764705882,171.20390497833463
-0.1915068359375,-0.0131572265624999,0.9802783203125,0.9988961738320484,0.08251953125,0.15771484375,-0.04931640625,41.565294117647056,171.20390497833463
-0.1934599609375,-0.0112041015624999,0.9758837890625,0.9949379167228194,0.10302734375,0.18896484375,-0.015625,41.235882352941175,171.20390497833463
-0.1915068359375,-0.0063212890624999,0.9802783203125,0.9988295210799992,0.083984375,0.2041015625,0.02978515625,41.47117647058823,171.20390497833463
-0.1910185546875,-0.0048564453124999,0.9812548828125,0.9996863599846444,0.0966796875,0.21142578125,0.03369140625,41.42411764705882,171.2100830355391
-0.2022490234375,-0.0048564453124999,0.9827197265625,1.003327620230586,0.0869140625,0.220703125,0.021484375,41.28294117647059,171.2100830355391
-0.2027373046875,-0.0038798828124999,0.9924853515625,1.01298797686287,0.10546875,0.267578125,0.06396484375,41.18882352941176,171.2100830355391
-0.1939482421875,-0.0068095703124999,0.9876025390625,1.006489476377254,0.1005859375,0.2861328125,0.08447265625,41.565294117647056,171.2100830355391
-0.1988310546875,-0.0087626953124999,0.9910205078125,1.0108077067584265,0.0830078125,0.2978515625,0.07568359375,41.47117647058823,171.2100830355391
-0.1944365234375,-0.0121806640624999,0.9944384765625,1.0133419037478963,0.0810546875,0.33837890625,0.115234375,41.61235294117647,171.2581476720455
-0.2002958984375,-0.0126689453124999,0.9910205078125,1.0111382675040848,0.1044921875,0.3154296875,0.173828125,41.75352941176471,171.2581476720455
-0.1978544921875,-0.0107158203124999,0.9807666015625,1.0005820084451844,0.09912109375,0.32470703125,0.20166015625,41.235882352941175,171.2581476720455
-0.1954130859375,-0.0068095703124999,0.9851611328125,1.004377967703327,0.10107421875,0.35498046875,0.23046875,41.61235294117647,171.2581476720455
-0.1959013671875,-0.0072978515624999,0.9807666015625,1.000166851602179,0.0986328125,0.388671875,0.24755859375,41.42411764705882,171.13004081592774
-0.1993193359375,-0.0087626953124999,0.9729541015625,0.9931992077398156,0.115234375,0.42578125,0.283203125,41.565294117647056,171.13004081592774
-0.1973662109375,-0.0024150390624999,0.9739306640625,0.9937304423407394,0.10986328125,0.44482421875,0.3076171875,41.42411764705882,171.13004081592774
-0.1924833984375,-0.0038798828124999,0.9656298828125,0.984634948976102,0.10302734375,0.4228515625,0.3017578125,41.75352941176471,171.13004081592774
-0.1910185546875,-0.0024150390624999,0.9656298828125,0.9843449554038756,0.11474609375,0.29345703125,0.3173828125,41.565294117647056,171.13004081592774
-0.1915068359375,-0.0014384765624999,0.9646533203125,0.9834800281731928,0.138671875,0.24755859375,0.29736328125,41.42411764705882,171.06598768549424
-0.1924833984375,-0.0097392578124999,0.9700244140625,0.988985376885869,0.08251953125,0.20947265625,0.27587890625,41.28294117647059,171.06598768549424
-0.2027373046875,-0.0053447265624999,0.9773486328125,0.998168989136831,0.0146484375,0.15087890625,0.34130859375,41.565294117647056,171.06598768549424
-0.1978544921875,0.0019794921875,0.9812548828125,1.0010052265155598,0.00634765625,0.2431640625,0.39013671875,41.42411764705882,171.06598768549424
-0.1919951171875,0.0024677734375,0.9861376953125,1.00465704050976,0.09521484375,0.50048828125,0.36279296875,41.28294117647059,170.89354564433833
-0.1910185546875,-0.0087626953124999,0.9583056640625,0.9771973285055124,0.11767578125,0.66943359375,0.40625,41.235882352941175,170.89354564433833
-0.1949248046875,-0.0102275390624999,0.9319384765625,0.9521604938955242,0.06103515625,0.25830078125,0.45166015625,41.47117647058823,170.89354564433833
-0.2037138671875,-0.0077861328124999,0.9363330078125,0.9582689941075332,0.044921875,0.0458984375,0.46484375,41.09470588235294,170.89354564433833
-0.2095732421875,-0.0029033203124999,0.9509814453125,0.9738044374711328,-0.0166015625,-0.02685546875,0.45947265625,41.28294117647059,170.89354564433833
-0.2076201171875,-0.0004619140624999,0.9617236328125,0.9838793992840916,-0.0556640625,-0.0234375,0.49267578125,41.565294117647056,171.19537422501944
-0.2002958984375,0.0019794921875,0.9695361328125,0.9900114535444644,-0.0546875,0.0830078125,0.5009765625,41.42411764705882,171.19537422501944
-0.2066435546875,-0.0004619140624999,0.9773486328125,0.998955515585629,-0.06787109375,0.21435546875,0.5400390625,41.61235294117647,171.19537422501944
-0.2095732421875,-0.0014384765624999,0.9631884765625,0.9857256486662964,-0.091796875,0.19921875,0.638671875,41.37705882352941,171.19537422501944
-0.2100615234375,-0.0019267578124999,0.9573291015625,0.980106404796446,-0.109375,0.091796875,0.70849609375,41.565294117647056,171.00193475347928
-0.2149443359375,0.0039326171875,0.9714892578125,0.9949914125632636,-0.10205078125,0.00830078125,0.625,41.37705882352941,171.00193475347928
-0.2193388671875,-0.0043681640624999,0.9744189453125,0.9988097418929682,-0.1064453125,-0.0869140625,0.85791015625,41.235882352941175,171.00193475347928
-0.2183623046875,-0.0004619140624999,0.9812548828125,1.005257904478453,-0.08349609375,-0.23291015625,0.8681640625,41.28294117647059,171.00193475347928
-0.2125029296875,0.0024677734375,0.9973681640625,1.019758226108969,-0.08984375,-0.27685546875,0.83935546875,41.235882352941175,171.00193475347928
-0.2217802734375,-0.0009501953124999,1.0022509765625005,1.0264961824466907,-0.10107421875,-0.15771484375,0.7978515625,41.565294117647056,170.97241271641116
-0.2188505859375,-0.0033916015624999,1.0105517578125005,1.0339835284685537,-0.10400390625,0.0087890625,0.7568359375,41.565294117647056,170.97241271641116
-0.2100615234375,-0.0014384765624999,1.0007861328125005,1.022595128324746,-0.10693359375,0.13818359375,0.77392578125,41.565294117647056,170.97241271641116
-0.1993193359375,0.0014912109375,0.9959033203125,1.0156543923983632,-0.12255859375,0.2333984375,0.7958984375,41.47117647058823,170.97241271641116
-0.1910185546875,0.0029560546875,0.9802783203125,0.998720387179972,-0.1142578125,0.265625,0.830078125,41.42411764705882,171.13750486366297
-0.1934599609375,0.0049091796875,0.9822314453125,1.0011141137212212,-0.10693359375,0.2666015625,0.86767578125,41.28294117647059,171.13750486366297
-0.1954130859375,2.6367187500001e-05,0.9788134765625,0.9981292986137684,-0.06884765625,0.2509765625,0.91650390625,41.235882352941175,171.13750486366297
-0.1885771484375,0.0034443359375,0.9817431640625,0.9996963761794468,-0.0732421875,0.2666015625,0.94287109375,41.42411764705882,171.13750486366297
-0.1939482421875,0.0053974609375,0.9729541015625,0.9921112523197612,-0.06884765625,0.23583984375,0.955078125,41.37705882352941,171.13750486366297
-0.1861357421875,2.6367187500001e-05,0.9846728515625,1.002111341029102,-0.05126953125,0.228515625,0.94482421875,41.37705882352941,171.243444822248
-0.1929716796875,-0.0068095703124999,0.9905322265625,1.0091771555421376,-0.0341796875,0.3154296875,0.98095703125,41.42411764705882,171.243444822248
-0.1890654296875,-0.0072978515624999,0.9851611328125,1.0031657155947644,-0.07470703125,0.341796875,0.99755859375,41.42411764705882,171.243444822248
-0.1871123046875,-0.0004619140624999,0.9919970703125,1.0094896806994371,-0.0908203125,0.298828125,1.02685546875,41.61235294117647,171.243444822248
-0.1851591796875,-0.0024150390624999,0.9944384765625,1.0115323217298433,-0.072265625,0.38623046875,1.02978515625,41.47117647058823,170.87755887555463
-0.1880888671875,-0.0053447265624999,0.9963916015625,1.0140030629767294,-0.05615234375,0.509765625,1.0,41.42411764705882,170.87755887555463
-0.1807646484375,-0.0058330078124999,0.9871142578125,1.0035459332195993,-0.0703125,0.58642578125,1.01708984375,41.61235294117647,170.87755887555463
-0.1792998046875,-0.0097392578124999,0.9846728515625,1.0009115334073933,-0.08544921875,0.6328125,0.99560546875,41.28294117647059,170.87755887555463
-0.1773466796875,-0.0014384765624999,0.9734423828125,0.9894665161927814,-0.08056640625,0.6328125,1.0224609375,41.47117647058823,170.87755887555463
-0.1753935546875,-0.0024150390624999,0.9710009765625,0.98671760292645,-0.07421875,0.5634765625,1.04931640625,41.42411764705882,171.05991827572583
-0.1695341796875,0.0073505859375,0.9675830078125,0.9823506228447269,-0.08251953125,0.47119140625,1.05712890625,41.37705882352941,171.05991827572583
-0.1778349609375,0.0049091796875,0.9695361328125,0.9857229256773244,-0.0634765625,0.421875,1.0654296875,41.37705882352941,171.05991827572583
-0.1861357421875,0.0068623046875,0.9739306640625,0.99158183935898,-0.04833984375,0.4599609375,1.04931640625,41.37705882352941,171.05991827572583
-0.1934599609375,0.0058857421875,0.9749072265625,0.9939343533910188,-0.0400390625,0.45654296875,1.0478515625,41.47117647058823,171.40609529276986
-0.1880888671875,0.0097919921875,0.9724658203125,0.9905367619361436,-0.0419921875,0.4482421875,1.06494140625,41.37705882352941,171.40609529276986
-0.1939482421875,0.0127216796875,0.9753955078125,0.9945723495264168,-0.052734375,0.4541015625,1.01806640625,41.235882352941175,171.40609529276986
-0.1915068359375,0.0141865234375,0.9783251953125,0.996993637613238,-0.04296875,0.46826171875,1.02587890625,41.61235294117647,171.40609529276986
-0.1934599609375,0.0127216796875,0.9729541015625,0.9920827996529836,-0.0556640625,0.46728515625,1.0185546875,41.37705882352941,171.40609529276986
-0.1959013671875,0.0156513671875,0.9724658203125,0.9921250337718696,-0.0615234375,0.4501953125,1.00244140625,41.47117647058823,170.84804060519227
-0.2007841796875,0.0107685546875,0.9749072265625,0.9954267170347728,-0.076171875,0.43896484375,1.01220703125,41.37705882352941,170.84804060519227
-0.2037138671875,0.0127216796875,0.9802783203125,1.001302534748242,-0.0751953125,0.4521484375,1.02294921875,41.61235294117647,170.84804060519227
-0.2051787109375,0.0107685546875,0.9724658203125,0.993933617938389,-0.09326171875,0.482421875,1.0458984375,41.37705882352941,170.84804060519227
-0.2022490234375,0.0093037109375,0.9768603515625,0.9976208563244066,-0.06982421875,0.49365234375,1.0712890625,41.42411764705882,171.24473522433985
-0.2115263671875,0.0146748046875,0.9773486328125,1.0000845484100933,-0.076171875,0.48583984375,1.08154296875,41.42411764705882,171.24473522433985
-0.2164091796875,0.0156513671875,0.9758837890625,0.9997134930082902,-0.06982421875,0.50830078125,1.07763671875,41.37705882352941,171.24473522433985
-0.2120146484375,0.0132099609375,0.9836962890625,1.006371255221144,-0.06884765625,0.533203125,1.0595703125,41.235882352941175,171.24473522433985
-0.2139677734375,0.0156513671875,0.9788134765625,1.002049397617207,-0.080078125,0.591796875,1.080078125,41.47117647058823,171.24473522433985
-0.2129912109375,0.0117451171875,0.9919970703125,1.014673046465192,-0.0751953125,0.67041015625,1.07958984375,41.47117647058823,171.04393753767354
-0.2193388671875,0.0146748046875,0.9895556640625,1.013679091640884,-0.06201171875,0.75390625,1.111328125,41.565294117647056,171.04393753767354
-0.2173857421875,0.0161396484375,0.9822314453125,1.0061290480444245,-0.07275390625,0.7705078125,1.11962890625,41.28294117647059,171.04393753767354
-0.2178740234375,0.0180927734375,0.9778369140625,1.0019787767426904,-0.087890625,0.72412109375,1.1298828125,41.47117647058823,171.04393753767354
-0.2129912109375,0.0190693359375,0.9690478515625,0.9923621486773954,-0.0673828125,0.6435546875,1.1513671875,41.235882352941175,170.9712487297093
-0.2129912109375,0.0161396484375,0.9729541015625,0.996125206957238,-0.08203125,0.62109375,1.166015625,41.28294117647059,170.9712487297093
-0.2090849609375,0.0171162109375,0.9817431640625,1.0039069308210506,-0.0654296875,0.67724609375,1.13916015625,41.28294117647059,170.9712487297093
-0.2066435546875,0.0200458984375,0.9763720703125,0.998201290534314,-0.10595703125,0.68017578125,1.123046875,41.37705882352941,170.9712487297093
-0.2037138671875,0.0132099609375,0.9758837890625,0.9970070273109608,-0.09228515625,0.6826171875,1.08203125,41.42411764705882,170.9712487297093
-0.2081083984375,0.0166279296875,0.9788134765625,1.0008303629718085,-0.115234375,0.73681640625,1.021484375,41.28294117647059,171.21393192425867
-0.2081083984375,0.0146748046875,0.9783251953125,1.000322269659173,-0.10400390625,0.76708984375,0.9814453125,41.37705882352941,171.21393192425867
-0.2100615234375,0.0156513671875,0.9763720703125,0.9988359367834334,-0.11279296875,0.7431640625,0.97119140625,41.235882352941175,171.21393192425867
-0.2198271484375,0.0185810546875,0.9734423828125,0.998127899339128,-0.1201171875,0.767578125,0.96044921875,41.42411764705882,171.21393192425867
-0.2222685546875,0.0224873046875,0.9714892578125,0.9968452073015454,-0.0947265625,0.78955078125,0.9765625,41.37705882352941,171.10554346188172
-0.2222685546875,0.0229755859375,0.9700244140625,0.995428828108438,-0.10693359375,0.75634765625,0.9716796875,41.42411764705882,171.10554346188172
-0.2173857421875,0.0185810546875,0.9734423828125,0.9975930478684122,-0.08154296875,0.79638671875,0.9150390625,41.42411764705882,171.10554346188172
-0.2251982421875,0.0141865234375,0.9817431640625,1.0073406305292325,-0.060546875,1.01708984375,0.85595703125,41.37705882352941,171.10554346188172
-0.2237333984375,0.0141865234375,0.9827197265625,1.0079662454659437,-0.06103515625,1.14013671875,0.8974609375,41.28294117647059,171.10554346188172
-0.2125029296875,0.0195576171875,0.9661181640625,0.9894060351783384,-0.0654296875,1.13134765625,0.94189453125,41.47117647058823,171.25337151869667
-0.2090849609375,0.0293232421875,0.9670947265625,0.9898730138596664,-0.02734375,1.16552734375,0.85693359375,41.235882352941175,171.25337151869667
-0.2046904296875,0.0317646484375,0.9592822265625,0.9813916420546483,-0.0419921875,0.9765625,0.7421875,41.42411764705882,171.25337151869667
-0.2090849609375,0.0268818359375,0.9602587890625,0.9831256765873758,-0.04052734375,0.75146484375,0.671875,41.42411764705882,171.25337151869667
-0.2095732421875,0.0381123046875,0.9753955078125,0.9983836378218436,-0.12451171875,0.599609375,0.580078125,41.37705882352941,170.96261375512896
-0.2134794921875,0.0488544921875,0.9963916015625,1.0201747294732482,-0.1396484375,0.66455078125,0.51318359375,41.47117647058823,170.96261375512896
-0.2056669921875,0.0537373046875,1.0120166015625005,1.0341006776076702,-0.0751953125,0.9345703125,0.4580078125,41.37705882352941,170.96261375512896
-0.2061552734375,0.0434833984375,0.9963916015625,1.018423795072586,0.0078125,1.1376953125,0.34375,41.42411764705882,170.96261375512896
-0.2105498046875,0.0249287109375,0.9446337890625,0.9681351436248586,-0.0283203125,0.82666015625,0.3154296875,41.47117647058823,170.96261375512896
-0.2271513671875,0.0210224609375,0.9329150390625,0.9604010399765324,-0.02587890625,0.4609375,0.2958984375,41.28294117647059,171.30634239488177
-0.2452177734375,0.0161396484375,0.9519580078125,0.9831664626601516,-0.04296875,0.44580078125,0.26171875,41.565294117647056,171.30634239488177
-0.2505888671875,0.0078388671875,0.9480517578125,0.9806418121253392,-0.04736328125,0.513671875,0.32763671875,41.565294117647056,171.30634239488177
-0.2364287109375,0.0097919921875,0.9451220703125,0.9742946916915612,-0.046875,0.47412109375,0.39892578125,41.235882352941175,171.30634239488177
-0.2295927734375,0.0068623046875,0.9592822265625,0.986398663340059,-0.0322265625,0.46630859375,0.4697265625,41.37705882352941,171.40983811711985
-0.2208037109375,0.0078388671875,0.9504931640625,0.9758345051964996,-0.02880859375,0.443359375,0.55126953125,41.42411764705882,171.40983811711985
-0.2193388671875,0.0122333984375,0.9417041015625,0.9669880090239288,0.01025390625,0.3681640625,0.587890625,42.13,171.40983811711985
-0.2183623046875,0.0112568359375,0.9431689453125,0.96818204479615,0.02978515625,0.3095703125,0.5810546875,41.37705882352941,171.40983811711985
-0.2291044921875,0.0034443359375,0.9539111328125,0.9810439241411006,0.0439453125,0.21826171875,0.56787109375,41.42411764705882,171.40983811711985
-0.2437529296875,0.0058857421875,0.9627001953125,0.9930970741811008,0.02099609375,0.17919921875,0.57177734375,41.565294117647056,171.32361622568882
-0.2481474609375,0.0034443359375,0.9734423828125,1.0045790653181343,0.01220703125,0.166015625,0.6005859375,41.7064705882353,171.32361622568882
-0.2378935546875,0.0078388671875,0.9685595703125,0.9973777781986988,-0.0654296875,0.064453125,0.56787109375,41.47117647058823,171.32361622568882
-0.2437529296875,0.0024677734375,0.9719775390625,1.0020787978392578,-0.05517578125,0.10986328125,0.5185546875,41.42411764705882,171.32361622568882
-0.2574248046875,0.0005146484375,0.9695361328125,1.0031291580651165,-0.07763671875,0.193359375,0.5556640625,41.75352941176471,171.38767105022595
-0.2593779296875,0.0107685546875,0.9729541015625,1.0069918350842388,-0.07861328125,0.27001953125,0.61328125,41.42411764705882,171.38767105022595
-0.2525419921875,0.0205341796875,0.9656298828125,0.9983186770435344,-0.10595703125,0.34326171875,0.63623046875,41.61235294117647,171.38767105022595
-0.2486357421875,0.0190693359375,0.9641650390625,0.9958903526074636,-0.10693359375,0.404296875,0.6513671875,41.61235294117647,171.38767105022595
-0.2349638671875,0.0200458984375,0.9480517578125,0.9769401171101753,-0.0849609375,0.39599609375,0.6748046875,41.42411764705882,171.38767105022595
-0.2295927734375,0.0112568359375,0.9412158203125,0.9688791350713356,-0.1083984375,0.49755859375,0.67578125,41.42411764705882,171.20903729503615
-0.2198271484375,0.0224873046875,0.9431689453125,0.9687090964082896,-0.126953125,0.271484375,0.62060546875,41.235882352941175,171.20903729503615
-0.2359404296875,0.0195576171875,0.9407275390625,0.970061178226282,-0.1455078125,0.189453125,0.59765625,41.37705882352941,171.20903729503615
-0.2452177734375,0.0185810546875,0.9631884765625,0.994087045175489,-0.076171875,0.19580078125,0.57373046875,41.42411764705882,171.20903729503615
-0.2437529296875,0.0156513671875,0.9646533203125,0.9950962186723494,-0.1181640625,0.177734375,0.6005859375,41.42411764705882,171.07229280659897
-0.2354521484375,0.0210224609375,0.9714892578125,0.9998355045270124,-0.13037109375,0.15185546875,0.7490234375,41.565294117647056,171.07229280659897
-0.2359404296875,0.0200458984375,0.9695361328125,0.9980330842383464,-0.1357421875,0.22021484375,0.615234375,41.28294117647059,171.07229280659897
-0.2198271484375,0.0219990234375,0.9710009765625,0.9958166642046592,-0.140625,0.2705078125,0.5400390625,41.42411764705882,171.07229280659897
-0.2164091796875,0.0229755859375,0.9641650390625,0.9884204738635176,-0.14990234375,0.25244140625,0.4736328125,41.42411764705882,171.07229280659897
-0.2286162109375,0.0219990234375,0.9622119140625,0.9892426883730014,-0.17529296875,0.22998046875,0.4033203125,41.18882352941176,170.9528217356674
-0.2349638671875,0.0293232421875,0.9578173828125,0.9866519194902929,-0.197265625,0.17822265625,0.37060546875,41.28294117647059,170.9528217356674
-0.2291044921875,0.0288349609375,0.9666064453125,0.9938049825958948,-0.18408203125,0.12158203125,0.2998046875,41.61235294117647,170.9528217356674
-0.2330107421875,0.0263935546875,0.9724658203125,1.0003401408420414,-0.173828125,0.173828125,0.25732421875,41.61235294117647,170.9528217356674
-0.2334990234375,0.0307880859375,0.9724658203125,1.0005795679794909,-0.16650390625,0.1953125,0.21630859375,41.42411764705882,170.95037481546564
-0.2295927734375,0.0239521484375,0.9680712890625,0.9952128253477373,-0.16064453125,0.2060546875,0.18115234375,41.7064705882353,170.95037481546564
-0.2330107421875,0.0229755859375,0.9739306640625,1.00167999976298,-0.13134765625,0.1982421875,0.12841796875,41.28294117647059,170.95037481546564
-0.2344755859375,0.0205341796875,0.9739306640625,1.0019687576653251,-0.1171875,0.20263671875,0.11669921875,41.37705882352941,170.95037481546564
-0.2344755859375,0.0161396484375,0.9797900390625,1.0075851374938574,-0.10693359375,0.30517578125,0.0791015625,41.42411764705882,170.95037481546564
-0.2310576171875,0.0122333984375,0.9729541015625,1.0000884772083856,-0.111328125,0.32666015625,0.12451171875,41.28294117647059,171.1006491974825
-0.2242216796875,0.0156513671875,0.9529345703125,0.979083562436522,-0.11865234375,0.25146484375,0.150390625,41.565294117647056,171.1006491974825
-0.2232451171875,0.0112568359375,0.9514697265625,0.9773738994204332,-0.1103515625,0.103515625,0.1455078125,41.42411764705882,171.1006491974825
-0.2276396484375,0.0073505859375,0.9534228515625,0.9802494450577068,-0.0986328125,0.00732421875,0.14306640625,41.42411764705882,171.1006491974825
-0.2398466796875,0.0024677734375,0.9685595703125,0.9978176992350816,-0.1044921875,0.001953125,0.1806640625,41.37705882352941,170.84688196173715
-0.2364287109375,0.0068623046875,0.9793017578125,1.0074609468539435,-0.09326171875,0.0517578125,0.2001953125,41.37705882352941,170.84688196173715
-0.2378935546875,0.0068623046875,0.9788134765625,1.0073312545969406,-0.07861328125,0.076171875,0.1982421875,41.235882352941175,170.84688196173715
-0.2339873046875,0.0083271484375,0.9729541015625,1.0007292760298925,-0.05908203125,0.076171875,0.2021484375,41.42411764705882,170.84688196173715
-0.2378935546875,0.0146748046875,0.9695361328125,0.9984032282016564,-0.04638671875,0.07275390625,0.18310546875,41.47117647058823,170.84688196173715
-0.2369169921875,0.0136982421875,0.9793017578125,1.0076453919315325,-0.076171875,0.0478515625,0.17431640625,41.61235294117647,170.93065488697192
-0.2305693359375,0.0132099609375,0.9763720703125,1.0033140791541535,-0.0830078125,0.05712890625,0.169921875,41.565294117647056,170.93065488697192
-0.2334990234375,0.0107685546875,0.9749072265625,1.002537708078908,-0.0869140625,0.06689453125,0.1298828125,41.565294117647056,170.93065488697192
-0.2364287109375,0.0097919921875,0.9788134765625,1.0070105463037295,-0.095703125,0.0849609375,0.078125,41.565294117647056,170.93065488697192
-0.2325224609375,0.0083271484375,0.9729541015625,1.0003877848058838,-0.10498046875,0.10595703125,0.05517578125,42.506470588235295,171.1265609117952
-0.2374052734375,0.0073505859375,0.9763720703125,1.0048471100898266,-0.10595703125,0.13330078125,0.0302734375,41.42411764705882,171.1265609117952
-0.2432646484375,0.0122333984375,0.9758837890625,1.0058213136396212,-0.12109375,0.1611328125,0.0693359375,41.565294117647056,171.1265609117952
-0.2544951171875,0.0161396484375,0.9724658203125,1.0053447292347184,-0.0947265625,0.18359375,0.072265625,41.37705882352941,171.1265609117952
-0.2505888671875,0.0093037109375,0.9783251953125,1.0099512499020753,-0.08203125,0.2177734375,0.068359375,41.75352941176471,171.1265609117952
-0.2398466796875,0.0039326171875,0.9705126953125,0.9997183538366168,-0.09521484375,0.23828125,0.0654296875,41.565294117647056,171.0822277972833
-0.2173857421875,-0.0029033203124999,0.9563525390625,0.980752348529708,-0.109375,0.03271484375,0.11865234375,41.42411764705882,171.0822277972833
-0.2144560546875,-0.0029033203124999,0.9627001953125,0.986301928780275,-0.10107421875,-0.10546875,0.15087890625,41.42411764705882,171.0822277972833
-0.2134794921875,-0.0033916015624999,0.9602587890625,0.9837082588438356,-0.0947265625,-0.173828125,0.1875,41.14176470588235,171.0822277972833
-0.2212919921875,-0.0024150390624999,0.9568408203125,0.9820999611222292,-0.083984375,-0.1513671875,0.2294921875,41.42411764705882,171.06495261545825
-0.2247099609375,-0.0009501953124999,0.9627001953125,0.9885783405832794,-0.10498046875,-0.1923828125,0.23046875,41.565294117647056,171.06495261545825
-0.2286162109375,0.0097919921875,0.9719775390625,0.9985497441071292,-0.0830078125,-0.162109375,0.16845703125,41.47117647058823,171.06495261545825
-0.2417998046875,0.0005146484375,0.9812548828125,1.0106080127592996,-0.10498046875,-0.03515625,0.076171875,41.37705882352941,171.06495261545825
-0.2388701171875,0.0097919921875,0.9871142578125,1.01565219143804,-0.12890625,-0.02978515625,0.0751953125,41.565294117647056,171.06495261545825
-0.2305693359375,0.0053974609375,0.9895556640625,1.0160766523926268,-0.123046875,0.0556640625,0.015625,41.42411764705882,170.8727915214702
-0.2237333984375,0.0063740234375,0.9880908203125,1.0131242425966345,-0.10986328125,0.14892578125,0.0,41.565294117647056,170.8727915214702
-0.2305693359375,0.0088154296875,0.9802783203125,1.007067781110056,-0.05126953125,0.189453125,0.02587890625,41.61235294117647,170.8727915214702
-0.2266630859375,0.0019794921875,0.9817431640625,1.0075711950524786,-0.0673828125,0.15234375,-0.0107421875,41.47117647058823,170.8727915214702
-0.2271513671875,-0.0024150390624999,0.9836962890625,1.0095850460184903,-0.05908203125,0.09130859375,-0.11669921875,41.47117647058823,171.093311054909
-0.2378935546875,-0.0014384765624999,0.9885791015625,1.0168008913365465,-0.12939453125,-0.0107421875,-0.11865234375,41.61235294117647,171.093311054909
-0.2481474609375,0.0058857421875,0.9944384765625,1.0249486270046768,-0.10498046875,0.13232421875,-0.02783203125,41.42411764705882,171.093311054909
-0.2369169921875,0.0049091796875,1.0061572265625005,1.033685699715498,-0.00830078125,0.38916015625,0.0908203125,41.42411764705882,171.093311054909
-0.1993193359375,-0.0009501953124999,0.9763720703125,0.9965096689124574,0.02880859375,0.39306640625,0.1396484375,41.37705882352941,171.093311054909
-0.1846708984375,-0.0058330078124999,0.9519580078125,0.9697223382743114,0.10595703125,0.2802734375,0.0625,41.47117647058823,170.97873210006398
-0.2032255859375,-0.0107158203124999,0.9504931640625,0.972035350444701,0.09375,0.13232421875,0.01611328125,41.47117647058823,170.97873210006398
-0.2247099609375,-0.0048564453124999,0.9597705078125,0.985737074108644,0.06201171875,0.0947265625,-0.02099609375,41.61235294117647,170.97873210006398
-0.2095732421875,0.0019794921875,0.9490283203125,0.971894857989004,0.0048828125,0.0107421875,-0.07568359375,41.28294117647059,170.97873210006398
-0.2095732421875,0.0049091796875,0.9553759765625,0.9781044425208052,0.02099609375,0.02685546875,-0.1484375,41.42411764705882,171.27194627036604
-0.2095732421875,0.0024677734375,0.9641650390625,0.9866819428250988,0.03515625,0.14404296875,-0.126953125,41.47117647058823,171.27194627036604
-0.2061552734375,-0.0048564453124999,0.9729541015625,0.9945668733546554,0.052734375,0.2763671875,-0.064453125,41.28294117647059,171.27194627036604
-0.1983427734375,0.0019794921875,0.9695361328125,0.9896181521138432,0.10498046875,0.29150390625,-0.0537109375,41.42411764705882,171.27194627036604
-0.2022490234375,0.0005146484375,0.9597705078125,0.9808487956923336,0.14013671875,0.28515625,-0.091796875,41.37705882352941,171.27194627036604
-0.2076201171875,-0.0053447265624999,0.9558642578125,0.9781672446603498,0.14306640625,0.26416015625,-0.119140625,41.565294117647056,171.41489079401987
-0.2129912109375,-0.0009501953124999,0.9597705078125,0.9831203316351558,0.109375,0.16845703125,-0.15478515625,41.37705882352941,171.41489079401987
-0.2120146484375,0.0005146484375,0.9636767578125,0.986723552755838,0.115234375,0.0966796875,-0.16650390625,41.61235294117647,171.41489079401987
-0.2115263671875,0.0005146484375,0.9734423828125,0.9961594960317516,0.138671875,0.07275390625,-0.19189453125,41.42411764705882,171.41489079401987
-0.1998076171875,-0.0024150390624999,0.9758837890625,0.9961315606157662,0.12548828125,0.009765625,-0.2392578125,41.28294117647059,171.093311054909
-0.2066435546875,0.0010029296875,0.9773486328125,0.9989559122515402,0.13134765625,0.0693359375,-0.29052734375,41.42411764705882,171.093311054909
-0.2076201171875,0.0034443359375,0.9876025390625,1.0091960917847922,0.1171875,0.171875,-0.306640625,41.565294117647056,171.093311054909
-0.2066435546875,0.0049091796875,0.9783251953125,0.9999229202905248,0.10888671875,0.22802734375,-0.318359375,41.42411764705882,171.093311054909
-0.2027373046875,0.0044208984375,0.9724658203125,0.9933839795018896,0.10888671875,0.20703125,-0.34326171875,41.565294117647056,171.093311054909
-0.2076201171875,0.0044208984375,0.9670947265625,0.989139963578938,0.13232421875,0.15576171875,-0.37744140625,41.61235294117647,170.99356224039155
-0.2115263671875,-0.0048564453124999,0.9695361328125,0.99235442353306,0.17041015625,0.146484375,-0.37841796875,41.61235294117647,170.99356224039155
-0.2085966796875,-0.0102275390624999,0.9631884765625,0.9855705041825846,0.173828125,0.2001953125,-0.38916015625,41.61235294117647,170.99356224039155
-0.2159208984375,-0.0097392578124999,0.9617236328125,0.985712449670221,0.1875,0.255859375,-0.3759765625,41.565294117647056,170.99356224039155
-0.2125029296875,0.0010029296875,0.9646533203125,0.987782632659463,0.2236328125,0.25244140625,-0.39990234375,41.42411764705882,171.15492022948018
-0.2164091796875,-0.0033916015624999,0.9646533203125,0.9886356580682828,0.20751953125,0.22265625,-0.42236328125,41.42411764705882,171.15492022948018
-0.2178740234375,-0.0048564453124999,0.9768603515625,1.0008740288391589,0.1767578125,0.1767578125,-0.4248046875,41.37705882352941,171.15492022948018
-0.2110380859375,-0.0014384765624999,0.9710009765625,0.9936709915340758,0.1806640625,0.115234375,-0.4453125,41.565294117647056,171.15492022948018
-0.2032255859375,2.6367187500001e-05,0.9832080078125,1.003991347622824,0.2119140625,0.11181640625,-0.48388671875,41.37705882352941,171.15492022948018
-0.1988310546875,-0.0019267578124999,0.9719775390625,0.9921077749649004,0.23388671875,0.08642578125,-0.52490234375,41.565294117647056,171.4875863459814
-0.1963896484375,0.0029560546875,0.9685595703125,0.9882738858821756,0.2373046875,0.04833984375,-0.56982421875,41.61235294117647,171.4875863459814
-0.2032255859375,0.0093037109375,0.9661181640625,0.9873051730586366,0.21630859375,0.01025390625,-0.6259765625,41.47117647058823,171.4875863459814
-0.2076201171875,0.0141865234375,0.9651416015625,0.9873224810439706,0.271484375,-0.0361328125,-0.64404296875,41.37705882352941,171.4875863459814
-0.2037138671875,0.0171162109375,0.9739306640625,0.9951548838058152,0.28466796875,-0.1357421875,-0.689453125,41.42411764705882,171.04408867574583
-0.2061552734375,0.0215107421875,0.9729541015625,0.9947876117759205,0.31640625,-0.14208984375,-0.7451171875,41.37705882352941,171.04408867574583
-0.2046904296875,0.0283466796875,0.9822314453125,1.0037331908508564,0.32958984375,-0.05419921875,-0.81689453125,41.37705882352941,171.04408867574583
-0.2090849609375,0.0312763671875,0.9749072265625,0.9975664551489636,0.35205078125,-0.02587890625,-0.91162109375,41.42411764705882,171.04408867574583
-0.2046904296875,0.0293232421875,0.9670947265625,0.9889541115153104,0.3525390625,-0.03466796875,-1.05810546875,41.42411764705882,171.04408867574583
-0.1998076171875,0.0166279296875,0.9729541015625,0.9933978335385732,0.33251953125,-0.00634765625,-1.1884765625,41.565294117647056,170.97139599119694
-0.2022490234375,0.0112568359375,0.9817431640625,1.0024225775690585,0.361328125,0.05908203125,-1.23779296875,41.565294117647056,170.97139599119694
-0.1983427734375,0.0083271484375,0.9739306640625,0.9939568077020258,0.37451171875,0.06103515625,-1.2802734375,41.75352941176471,170.97139599119694
-0.1939482421875,0.0112568359375,0.9705126953125,0.9897664011097156,0.3583984375,0.06201171875,-1.32568359375,41.28294117647059,170.97139599119694
-0.2002958984375,0.0136982421875,0.9710009765625,0.9915386957931804,0.3798828125,0.041015625,-1.306640625,41.42411764705882,171.0638106856814
-0.2051787109375,0.0127216796875,0.9783251953125,0.999690118156265,0.41943359375,0.05419921875,-1.2783203125,41.37705882352941,171.0638106856814
-0.1983427734375,0.0166279296875,0.9763720703125,0.9964530914733968,0.45703125,0.07861328125,-1.2763671875,41.47117647058823,171.0638106856814
-0.1934599609375,0.0141865234375,0.9646533203125,0.9839634354604406,0.46337890625,0.0576171875,-1.33935546875,41.18882352941176,171.0638106856814
-0.1929716796875,0.0136982421875,0.9592822265625,0.9785949627906074,0.478515625,0.04345703125,-1.37255859375,41.235882352941175,171.0638106856814
-0.1949248046875,0.0156513671875,0.9729541015625,0.9924113706143182,0.4794921875,0.00439453125,-1.40283203125,41.42411764705882,170.9578684473393
-0.1973662109375,0.0132099609375,0.9753955078125,0.995250883420156,0.47900390625,0.0283203125,-1.42333984375,41.61235294117647,170.9578684473393
-0.1924833984375,0.0083271484375,0.9739306640625,0.9928041793205606,0.47021484375,0.0634765625,-1.47900390625,41.28294117647059,170.9578684473393
-0.1929716796875,0.0097919921875,0.9758837890625,0.9948281871898268,0.45166015625,0.07421875,-1.51611328125,41.7064705882353,170.9578684473393
-0.1880888671875,0.0097919921875,0.9876025390625,1.0054014522734558,0.43212890625,0.11376953125,-1.59814453125,41.61235294117647,170.87653775904616
-0.1846708984375,0.0122333984375,0.9988330078125,1.0158348164257858,0.43310546875,0.1787109375,-1.59521484375,41.18882352941176,170.87653775904616
-0.1758818359375,0.0136982421875,1.0032275390625005,1.0186204185982006,0.40625,0.31884765625,-1.5859375,41.37705882352941,170.87653775904616
-0.1744169921875,0.0180927734375,1.0076220703125005,1.0227662842483831,0.2509765625,0.4208984375,-1.6005859375,41.28294117647059,170.87653775904616
-0.1744169921875,0.0146748046875,1.0447314453125005,1.0592924194390785,0.35693359375,0.39208984375,-1.65234375,41.235882352941175,170.87653775904616
-0.1675810546875,-0.0014384765624999,1.0652392578125005,1.0783413909750112,0.37744140625,0.36328125,-1.7939453125,41.565294117647056,171.33730912862964
-0.1456083984375,-0.0126689453124999,1.0642626953125005,1.074252015359847,0.373046875,0.14599609375,-2.0400390625,41.42411764705882,171.33730912862964
-0.1578154296875,-0.0312236328125,1.0588916015625005,1.071042505670553,0.37890625,0.052734375,-2.19873046875,41.04764705882353,171.33730912862964
-0.1734404296875,-0.0400126953125,1.0320361328125005,1.04727321070814,0.341796875,0.04736328125,-2.1318359375,41.565294117647056,171.33730912862964
-0.2110380859375,-0.0273173828125,1.0188525390625005,1.0408380322960875,0.357421875,0.0810546875,-1.833984375,41.37705882352941,170.7878733445368
-0.2305693359375,-0.0063212890624999,1.0061572265625005,1.0322570135068174,0.453125,0.359375,-1.60595703125,41.42411764705882,170.7878733445368
-0.2608427734375,-0.0092509765624999,0.9812548828125,1.0153746491149462,0.55810546875,0.8037109375,-1.53955078125,41.42411764705882,170.7878733445368
-0.2754912109375,-0.0053447265624999,0.9553759765625,0.9943174694224116,0.5908203125,0.98193359375,-1.5146484375,41.37705882352941,170.7878733445368
-0.3023466796875,-0.0068095703124999,0.9368212890625,0.9844257273185322,0.6328125,0.91015625,-1.44580078125,41.37705882352941,170.7878733445368
-0.3365263671875,-0.0043681640624999,0.9417041015625,1.0000378450685397,0.66650390625,1.15185546875,-1.357421875,41.37705882352941,170.82976087129515
-0.3096708984375,-0.0131572265624999,0.9050830078125,0.9566840800289445,0.548828125,1.50439453125,-1.41357421875,41.61235294117647,170.82976087129515
-0.2779326171875,-0.0136455078124999,0.9138720703125,0.9552983306158394,0.5185546875,1.26025390625,-1.42236328125,41.28294117647059,170.82976087129515
-0.2544951171875,-0.0165751953125,0.9128955078125,0.9478505736434246,0.37548828125,1.171875,-1.37841796875,41.61235294117647,170.82976087129515
-0.2168974609375,-0.0356181640625,0.8977587890625001,0.9242748538780464,0.43701171875,1.140625,-1.4833984375,41.61235294117647,170.9357024054177
-0.1768583984375,-0.0370830078125,0.8977587890625001,0.9157646454768092,0.33544921875,0.5302734375,-1.50927734375,41.7064705882353,170.9357024054177
-0.1978544921875,-0.0278056640625,0.9182666015625,0.9397516196197128,0.23291015625,0.3154296875,-1.43994140625,41.565294117647056,170.9357024054177
-0.2164091796875,-0.0009501953124999,0.9578173828125,0.9819612898388286,0.14111328125,0.5849609375,-1.41455078125,41.47117647058823,170.9357024054177
-0.1949248046875,-0.0092509765624999,0.9500048828125,0.9698404700864014,0.1064453125,0.61279296875,-1.39892578125,41.565294117647056,170.9357024054177
-0.1973662109375,-0.0180400390625,0.9661181640625,0.9862368737583777,0.15673828125,0.328125,-1.271484375,41.7064705882353,171.3102582370219
-0.2022490234375,-0.0243876953125,0.9675830078125,0.9887953803348608,0.17236328125,0.26025390625,-1.158203125,41.42411764705882,171.3102582370219
-0.2178740234375,-0.0238994140625,0.9793017578125,1.003529872468193,0.1455078125,0.3017578125,-1.04345703125,41.42411764705882,171.3102582370219
-0.2300810546875,-0.0312236328125,0.9954150390625,1.0221366381085852,0.1640625,0.4111328125,-0.97802734375,41.235882352941175,171.3102582370219
-0.2291044921875,-0.0409892578125,0.9793017578125,1.006578819790663,0.12890625,0.548828125,-0.9287109375,41.37705882352941,170.98622966657308
-0.2374052734375,-0.0439189453125,0.9807666015625,1.0100461694168996,0.15771484375,0.548828125,-0.76416015625,41.565294117647056,170.98622966657308
-0.2208037109375,-0.0390361328125,0.9876025390625,1.0127373171713498,0.14990234375,0.64794921875,-0.55126953125,41.37705882352941,170.98622966657308
-0.2105498046875,-0.0356181640625,0.9895556640625,1.0123340783275565,0.21630859375,0.845703125,-0.39404296875,41.565294117647056,170.98622966657308
-0.2042021484375,-0.0380595703125,0.9968798828125,1.0182909943012983,0.26220703125,1.08251953125,-0.24072265625,41.37705882352941,170.98622966657308
-0.1778349609375,-0.0512431640625,0.9412158203125,0.959238424794019,0.1513671875,0.83740234375,-0.083984375,41.61235294117647,171.33486637467624
-0.1841826171875,-0.0463603515625,0.9417041015625,0.9606659843934682,0.18701171875,0.58447265625,0.0361328125,41.42411764705882,171.33486637467624
-0.1851591796875,-0.0429423828125,0.9353564453125,0.9544734935302284,0.15673828125,0.27734375,0.0986328125,41.37705882352941,171.33486637467624
-0.1963896484375,-0.0361064453125,0.9358447265625,0.956910613192972,0.087890625,-0.1103515625,0.0908203125,41.37705882352941,171.33486637467624
-0.2251982421875,-0.0385478515625,0.9548876953125,0.9818404635192228,0.05712890625,-0.158203125,0.1123046875,41.47117647058823,171.25972814935653
-0.2437529296875,-0.0390361328125,0.9661181640625,0.9971577695268138,0.03271484375,-0.087890625,0.11279296875,41.565294117647056,171.25972814935653
-0.2525419921875,-0.0365947265625,0.9817431640625,1.0143649599693714,-0.0283203125,-0.0283203125,0.11181640625,41.61235294117647,171.25972814935653
-0.2510771484375,-0.0375712890625,0.9836962890625,1.0159280118909302,-0.09033203125,0.1357421875,0.02490234375,41.7064705882353,171.25972814935653
-0.2471708984375,-0.0468486328125,0.9959033203125,1.0271862882847802,-0.158203125,0.2021484375,0.078125,41.7064705882353,171.25972814935653
-0.2364287109375,-0.0512431640625,0.9827197265625,1.0120585250832974,-0.201171875,0.19580078125,0.119140625,41.565294117647056,171.1956730999211
-0.2295927734375,-0.0585673828125,0.9895556640625,1.0175280793287254,-0.24462890625,0.19140625,0.18994140625,41.565294117647056,171.1956730999211
-0.2330107421875,-0.0595439453125,0.9968798828125,1.025479881886725,-0.25830078125,0.31396484375,0.3466796875,41.37705882352941,171.1956730999211
-0.2237333984375,-0.0444072265625,0.9944384765625,1.0202629656198017,-0.22265625,0.36669921875,0.486328125,41.42411764705882,171.1956730999211
-0.2178740234375,-0.0458720703125,0.9841845703125,1.0090553034223642,-0.1748046875,0.408203125,0.6162109375,41.42411764705882,171.15998218419847
-0.2276396484375,-0.0400126953125,0.9807666015625,1.0076328458656831,-0.13720703125,0.421875,0.69873046875,41.61235294117647,171.15998218419847
-0.2159208984375,-0.0463603515625,0.9495166015625,0.974860448075444,-0.18603515625,0.1884765625,0.802734375,41.37705882352941,171.15998218419847
-0.2291044921875,-0.0492900390625,0.9573291015625,0.9855949396124852,-0.197265625,0.048828125,0.86669921875,41.37705882352941,171.15998218419847
-0.2413115234375,-0.0419658203125,0.9705126953125,1.000943191785109,-0.21240234375,0.1630859375,0.970703125,41.235882352941175,171.15998218419847
-0.2481474609375,-0.0385478515625,0.9959033203125,1.0270766878083033,-0.16748046875,0.43115234375,1.07373046875,41.47117647058823,171.27700961565716
-0.2461943359375,-0.0419658203125,1.0061572265625005,1.0366895126729845,-0.0009765625,0.6943359375,1.1435546875,41.47117647058823,171.27700961565716
-0.2251982421875,-0.0424541015625,0.9773486328125,1.0038560400198238,-0.1513671875,0.6240234375,1.189453125,41.37705882352941,171.27700961565716
-0.2295927734375,-0.0375712890625,0.9812548828125,1.0084570335021292,-0.107421875,0.7099609375,1.2138671875,41.47117647058823,171.27700961565716
-0.2271513671875,-0.0380595703125,0.9539111328125,0.9813219266943696,-0.15966796875,0.59423828125,1.32177734375,41.61235294117647,171.02323218497347
-0.2417998046875,-0.0214580078125,0.9651416015625,0.99520143825902,-0.12109375,0.42578125,1.4130859375,41.42411764705882,171.02323218497347
-0.2491240234375,-0.0185283203125,0.9724658203125,1.004039764841689,-0.115234375,0.34326171875,1.42724609375,41.37705882352941,171.02323218497347
-0.2559599609375,-0.0204814453125,0.9895556640625,1.022328422515676,-0.11181640625,0.4169921875,1.40087890625,41.61235294117647,171.02323218497347
-0.2466826171875,-0.0253642578125,0.9851611328125,1.015892768357597,-0.1630859375,0.4482421875,1.38037109375,41.61235294117647,171.02323218497347
-0.2491240234375,-0.0287822265625,0.9924853515625,1.0236788405968555,-0.1318359375,0.55224609375,1.33642578125,41.28294117647059,171.03675778074722
-0.2442412109375,-0.0229228515625,0.9924853515625,1.0223533632311834,-0.1689453125,0.623046875,1.33740234375,41.565294117647056,171.03675778074722
-0.2437529296875,-0.0097392578124999,0.9797900390625,1.0097023643233054,-0.18701171875,0.60791015625,1.40771484375,41.7064705882353,171.03675778074722
-0.2398466796875,0.0029560546875,0.9739306640625,1.0030334522924227,-0.1787109375,0.5234375,1.4521484375,41.37705882352941,171.03675778074722
-0.2378935546875,0.0136982421875,0.9641650390625,0.9931743088457706,-0.2041015625,0.49560546875,1.41015625,41.04764705882353,171.2524024832887
-0.2330107421875,0.0180927734375,0.9690478515625,0.9968325300888446,-0.22216796875,0.49267578125,1.32373046875,41.37705882352941,171.2524024832887
-0.2286162109375,0.0136982421875,0.9636767578125,0.9905179994782825,-0.23779296875,0.55126953125,1.2783203125,41.47117647058823,171.2524024832887
-0.2266630859375,0.0122333984375,0.9622119140625,0.9886240833238188,-0.244140625,0.57177734375,1.30322265625,41.09470588235294,171.2524024832887
-0.2242216796875,0.0215107421875,0.9500048828125,0.9763438692586404,-0.201171875,0.56005859375,1.29833984375,41.47117647058823,171.2524024832887
-0.2203154296875,0.0273701171875,0.9431689453125,0.9689456492885136,-0.21337890625,0.5185546875,1.26171875,41.61235294117647,171.39779760818317
-0.2276396484375,0.0185810546875,0.9324267578125,0.9599920436226432,-0.22412109375,0.34130859375,1.2158203125,41.565294117647056,171.39779760818317
-0.2330107421875,0.0083271484375,0.9285205078125,0.9573472101616284,-0.26025390625,0.16259765625,1.248046875,41.42411764705882,171.39779760818317
-0.2359404296875,0.0010029296875,0.9216845703125,0.9514049292395,-0.29931640625,0.00927734375,1.21923828125,41.42411764705882,171.39779760818317
-0.2198271484375,-0.0004619140624999,0.9358447265625,0.9613165663763442,-0.35693359375,-0.1494140625,1.17041015625,41.565294117647056,171.06267900041314
-0.2178740234375,-0.0224345703125,0.9324267578125,0.9578058564858964,-0.47314453125,-0.22509765625,1.1982421875,41.47117647058823,171.06267900041314
-0.2183623046875,-0.0331767578125,0.9348681640625,0.9606046416424268,-0.54345703125,-0.310546875,1.3271484375,41.28294117647059,171.06267900041314
-0.2066435546875,-0.0370830078125,0.9334033203125,0.9567227741267098,-0.599609375,-0.45556640625,1.359375,41.7064705882353,171.06267900041314
-0.2222685546875,-0.0395244140625,0.9519580078125,0.9783606381842016,-0.65869140625,-0.53662109375,1.31298828125,41.37705882352941,171.06267900041314
-0.2320341796875,-0.0356181640625,0.9529345703125,0.9814238683928078,-0.73046875,-0.62255859375,1.30322265625,41.28294117647059,171.32265911311734
-0.2276396484375,-0.0317119140625,0.9685595703125,0.9954562251943532,-0.81640625,-0.62255859375,1.3095703125,41.28294117647059,171.32265911311734
-0.2237333984375,-0.0356181640625,0.9666064453125,0.9928007389739611,-0.8544921875,-0.53564453125,1.27978515625,41.7064705882353,171.32265911311734
-0.2125029296875,-0.0488017578125,0.9539111328125,0.9785119089694246,-0.9541015625,-0.572265625,1.353515625,41.565294117647056,171.32265911311734
-0.1890654296875,-0.0678447265625,0.9285205078125,0.9499994616070276,-1.0087890625,-0.6650390625,1.48779296875,41.28294117647059,171.34482449370938
-0.1626982421875,-0.0961650390625,0.8806689453125001,0.9007198365677453,-1.060546875,-0.94189453125,1.70263671875,41.42411764705882,171.34482449370938
-0.1338896484375,-0.1210673828125,0.8435595703125001,0.8626566511686996,-1.11962890625,-1.45263671875,1.91162109375,41.47117647058823,171.34482449370938
-0.1246123046875,-0.1352275390625,0.8289111328125001,0.849063236691433,-1.15673828125,-2.0400390625,2.19775390625,41.47117647058823,171.34482449370938
-0.1309599609375,-0.1376689453125,0.8357470703125001,0.857074334820577,-1.1376953125,-2.53369140625,2.43701171875,41.7064705882353,171.34482449370938
-0.1641630859375,-0.1264384765625,0.8709033203125001,0.8952143879939073,-1.00537109375,-2.88720703125,2.6513671875,41.61235294117647,171.36454953314333
-0.1885771484375,-0.1283916015625,0.9358447265625,0.9632502771862788,-0.8017578125,-2.8857421875,2.66552734375,41.7064705882353,171.36454953314333
-0.2271513671875,-0.1337626953125,0.9924853515625,1.0268969643243446,-0.578125,-2.5126953125,2.57568359375,41.42411764705882,171.36454953314333
-0.2554716796875,-0.1230205078125,1.0442431640625005,1.0820552713036704,-0.44287109375,-1.94287109375,2.46337890625,41.42411764705882,171.36454953314333
-0.2657255859375,-0.1064189453125,1.0852587890625005,1.1223732526128094,-0.2578125,-1.1943359375,2.3603515625,41.565294117647056,171.124292198125
-0.2710966796875,-0.0844462890625,1.1028369140625005,1.138803690059403,-0.05029296875,-0.2822265625,2.2421875,41.42411764705882,171.124292198125
-0.2481474609375,-0.0727275390625,1.1018603515625005,1.1317962235549526,0.12939453125,0.47998046875,2.0771484375,41.75352941176471,171.124292198125
-0.2291044921875,-0.0707744140625,1.0671923828125005,1.0937995556588074,0.27392578125,0.88427734375,1.94140625,41.47117647058823,171.124292198125
-0.2125029296875,-0.0761455078125,1.0408251953125005,1.0650224038409233,0.44580078125,1.0185546875,1.8310546875,41.42411764705882,171.124292198125
-0.2051787109375,-0.0815166015625,1.0227587890625005,1.0463167782067082,0.642578125,1.02099609375,1.82080078125,41.47117647058823,171.2191542568426
-0.1900419921875,-0.0834697265625,1.0110400390625005,1.0321265012751657,0.833984375,0.9765625,1.796875,41.37705882352941,171.2191542568426
-0.1792998046875,-0.0815166015625,1.0066455078125005,1.025733179092088,0.98046875,1.05322265625,1.68310546875,41.42411764705882,171.2191542568426
-0.1792998046875,-0.0634501953125,1.0066455078125005,1.0244557216616326,1.1357421875,1.09375,1.58984375,41.42411764705882,171.2191542568426
-0.1993193359375,-0.0605205078125,1.0042041015625005,1.02558120455642,1.21435546875,1.013671875,1.48681640625,41.565294117647056,171.18590615641506
-0.2178740234375,-0.0580791015625,1.0007861328125005,1.0258728750468795,1.3193359375,0.79638671875,1.3427734375,41.235882352941175,171.18590615641506
-0.2466826171875,-0.0634501953125,1.0085986328125005,1.0402641217589472,1.31689453125,0.548828125,1.20068359375,41.37705882352941,171.18590615641506
-0.1358427734375,-0.0629619140625,1.0369189453125005,1.047672831023881,1.32177734375,0.35693359375,1.09521484375,41.47117647058823,171.18590615641506
-0.2715849609375,-0.0732158203125,1.0642626953125005,1.1008060828253463,1.36669921875,0.40234375,1.01123046875,41.47117647058823,171.18590615641506
-0.2754912109375,-0.0800517578125,1.0779345703125005,1.1154580355654244,1.39794921875,0.63330078125,0.83740234375,41.28294117647059,170.92968691724215
-0.2808623046875,-0.0800517578125,1.0769580078125005,1.1158541431184967,1.41552734375,0.892578125,0.64501953125,41.47117647058823,170.92968691724215
-0.2872099609375,-0.0776103515625,1.0701220703125005,1.1107088609087832,1.4541015625,1.1484375,0.4560546875,41.7064705882353,170.92968691724215
-0.2911162109375,-0.0790751953125,1.0452197265625005,1.0878813407627252,1.4677734375,1.43115234375,0.32421875,41.42411764705882,170.92968691724215
-0.2999052734375,-0.0751689453125,1.0159228515625005,1.0619288034995082,1.4443359375,1.7109375,0.27490234375,41.565294117647056,171.12185104893376
-0.2959990234375,-0.0776103515625,0.9695361328125,1.016680432276842,1.4638671875,1.935546875,0.30029296875,41.565294117647056,171.12185104893376
-0.2828154296875,-0.0829814453125,0.9207080078125,0.9667335326684076,1.45751953125,1.8486328125,0.38232421875,41.61235294117647,171.12185104893376
-0.2637724609375,-0.0859111328125,0.8689501953125001,0.9121573744830352,1.4609375,1.5634765625,0.43310546875,41.42411764705882,171.12185104893376
-0.2623076171875,-0.0849345703125,0.8508837890625001,0.8944397071676269,1.470703125,1.2275390625,0.46142578125,41.98882352941177,171.12185104893376
-0.2647490234375,-0.0893291015625,0.8528369140625001,0.8974422186328886,1.47705078125,0.94970703125,0.42041015625,41.565294117647056,171.17238289471555
-0.2793974609375,-0.1064189453125,0.8845751953125001,0.9337350851616824,1.43603515625,0.94482421875,0.34912109375,41.47117647058823,171.17238289471555
-0.2862333984375,-0.1191142578125,0.9377978515625,0.9877158372682622,1.39794921875,1.13623046875,0.2724609375,41.42411764705882,171.17238289471555
-0.2745146484375,-0.1342509765625,0.9827197265625,1.0291354030883515,1.2900390625,1.498046875,0.1142578125,41.61235294117647,171.17238289471555
-0.2632841796875,-0.1440166015625,1.0154345703125005,1.058851598376781,1.087890625,1.7275390625,0.01611328125,41.42411764705882,171.06887878128055
-0.2383818359375,-0.1445048828125,1.0520556640625005,1.088360547404938,0.86767578125,1.64306640625,0.1162109375,41.61235294117647,171.06887878128055
-0.2271513671875,-0.1181376953125,1.0813525390625005,1.111250454400724,0.7236328125,1.41259765625,0.4013671875,41.565294117647056,171.06887878128055
-0.2125029296875,-0.0722392578125,1.1047900390625005,1.1273584327563229,0.65966796875,1.1728515625,0.6787109375,41.47117647058823,171.06887878128055
-0.1822294921875,-0.0209697265625,1.0960009765625005,1.1112450035347623,0.64990234375,1.0078125,0.8583984375,41.565294117647056,171.06887878128055
-0.1568388671875,0.0239521484375,1.0652392578125005,1.0769896991431054,0.68994140625,0.9013671875,0.89013671875,41.565294117647056,171.24752087529808
-0.1334013671875,0.0512958984375,1.0159228515625005,1.025927109638344,0.7421875,0.79736328125,0.7685546875,41.75352941176471,171.24752087529808
-0.1382841796875,0.0693623046875,0.9539111328125,0.9663747166431008,0.78369140625,0.59228515625,0.720703125,41.37705882352941,171.24752087529808
-0.1583037109375,0.0727802734375,0.9011767578125,0.9178652308044304,0.81396484375,0.35498046875,0.63525390625,41.37705882352941,171.24752087529808
-0.1724638671875,0.0703388671875,0.8684619140625001,0.8882102441987424,0.857421875,0.07177734375,0.60205078125,41.235882352941175,171.04671351255476
-0.1885771484375,0.0635029296875,0.8674853515625001,0.8900139314455863,0.89599609375,-0.21484375,0.6494140625,41.37705882352941,171.04671351255476
-0.1880888671875,0.0674091796875,0.8635791015625001,0.8863917216002829,0.9658203125,-0.4697265625,0.7890625,41.42411764705882,171.04671351255476
-0.1797880859375,0.0825458984375,0.8738330078125001,0.8959473794462288,1.06591796875,-0.64794921875,0.935546875,41.61235294117647,171.04671351255476
-0.1617216796875,0.1050068359375,0.8777392578125001,0.8986693173686247,1.15185546875,-0.8046875,0.95947265625,41.37705882352941,171.04671351255476
-0.1495146484375,0.1274677734375,0.8831103515625001,0.9047024684388484,1.18896484375,-0.93505859375,0.85888671875,41.42411764705882,171.3177792456572
-0.1475615234375,0.1479755859375,0.8992236328125001,0.9231870444505016,1.18212890625,-1.08154296875,0.71875,41.7064705882353,171.3177792456572
-0.1485380859375,0.1626240234375,0.9231494140625,0.9490600490258316,1.15380859375,-1.134765625,0.5146484375,41.42411764705882,171.3177792456572
-0.1626982421875,0.1538349609375,0.9597705078125,0.9855431704822518,1.1064453125,-1.09423828125,0.37939453125,41.42411764705882,171.3177792456572
-0.1763701171875,0.1421162109375,0.9822314453125,1.008008952246282,1.04638671875,-1.04248046875,0.2919921875,41.28294117647059,171.21427301859933
-0.1817412109375,0.1347919921875,0.9998095703125,1.0250941058260796,0.978515625,-1.08251953125,0.310546875,41.7064705882353,171.21427301859933
-0.1846708984375,0.1440693359375,1.0271533203125005,1.053519462428758,0.9697265625,-1.1220703125,0.2509765625,41.37705882352941,171.21427301859933
-0.1890654296875,0.1460224609375,1.0461962890625005,1.0731239308902347,1.00927734375,-1.083984375,0.49853515625,41.61235294117647,171.21427301859933
-0.1959013671875,0.1567646484375,1.0637744140625005,1.092963176268844,1.09033203125,-0.9375,0.64306640625,41.42411764705882,171.21427301859933
-0.1978544921875,0.1621357421875,1.0715869140625005,1.10169547215347,1.23046875,-0.68603515625,0.78076171875,41.565294117647056,170.8742741443578
-0.1959013671875,0.1660419921875,1.0520556640625005,1.0829443241097458,1.359375,-0.482421875,0.89990234375,41.37705882352941,170.8742741443578
-0.1919951171875,0.1777607421875,1.0403369140625005,1.0727357089460474,1.44140625,-0.35107421875,1.03369140625,41.42411764705882,170.8742741443578
-0.1768583984375,0.1933857421875,1.0144580078125005,1.047760463080276,1.45849609375,-0.26806640625,1.1064453125,41.75352941176471,170.8742741443578
-0.1646513671875,0.2119404296875,0.9880908203125,1.0238907596216815,1.43994140625,-0.24658203125,1.115234375,41.14176470588235,171.39912209203004
-0.1475615234375,0.2221943359375,0.9612353515625,0.997556077228436,1.3701171875,-0.3515625,1.08642578125,41.42411764705882,171.39912209203004
-0.1392607421875,0.2358662109375,0.9460986328125,0.9849512915806082,1.28955078125,-0.544921875,1.03466796875,41.37705882352941,171.39912209203004
-0.1280302734375,0.2451435546875,0.9412158203125,0.9810067959641444,1.21728515625,-0.736328125,0.9912109375,41.37705882352941,171.39912209203004
-0.1260771484375,0.2466083984375,0.9495166015625,0.9890869153824852,1.166015625,-0.8076171875,0.93896484375,41.47117647058823,171.39912209203004
-0.1319365234375,0.2485615234375,0.9529345703125,0.9936168136897716,1.162109375,-0.8291015625,0.89599609375,41.37705882352941,171.13425563944935
-0.1446318359375,0.2397724609375,0.9500048828125,0.9904132866426364,1.22021484375,-0.7001953125,0.890625,41.565294117647056,171.13425563944935
-0.1475615234375,0.2231708984375,0.9558642578125,0.9926006913517834,1.298828125,-0.56494140625,0.96630859375,41.75352941176471,171.13425563944935
-0.1446318359375,0.2138935546875,0.9597705078125,0.993895491674135,1.3916015625,-0.47412109375,1.0986328125,41.61235294117647,171.13425563944935
-0.1368193359375,0.2051044921875,0.9519580078125,0.9833673942328038,1.46923828125,-0.466796875,1.228515625,41.37705882352941,171.09236528887672
-0.1348662109375,0.2060810546875,0.9573291015625,0.9885025567251782,1.4482421875,-0.529296875,1.39111328125,41.565294117647056,171.09236528887672
-0.1358427734375,0.2138935546875,0.9661181640625,0.9987932812967568,1.45166015625,-0.52099609375,1.55029296875,41.7064705882353,171.09236528887672
-0.1304716796875,0.2153583984375,0.9670947265625,0.999336934733746,1.50830078125,-0.33203125,1.7236328125,41.61235294117647,171.09236528887672
-0.1089873046875,0.2153583984375,0.9495166015625,0.9797138607794678,1.49609375,-0.228515625,1.8349609375,41.75352941176471,171.09236528887672
-0.1133818359375,0.2158466796875,0.9163134765625,0.9481959803662594,1.451171875,-0.328125,1.84912109375,41.7064705882353,170.860751093842
-0.1260771484375,0.2221943359375,0.8889697265625001,0.9249502392158424,1.35693359375,-0.56494140625,1.84423828125,41.42411764705882,170.860751093842
-0.1338896484375,0.2334248046875,0.8845751953125001,0.9246009158357256,1.25048828125,-0.81640625,1.82666015625,41.47117647058823,170.860751093842
-0.1334013671875,0.2451435546875,0.9045947265625,0.9466693754933672,1.177734375,-0.80859375,1.81787109375,41.47117647058823,170.860751093842
-0.1226591796875,0.2475849609375,0.9085009765625,0.9495881273789444,1.1083984375,-0.55810546875,1.84228515625,41.7064705882353,170.71291857800605
-0.1060576171875,0.2544208984375,0.9089892578125,0.9498629809313314,1.04833984375,-0.31591796875,1.90673828125,41.42411764705882,170.71291857800605
-0.0977568359375,0.2661396484375,0.9124072265625,0.9554442205207068,1.0009765625,-0.25048828125,2.05126953125,41.37705882352941,170.71291857800605
-0.0860380859375,0.2788349609375,0.9085009765625,0.9542146048388812,0.97314453125,-0.25244140625,2.14111328125,41.37705882352941,170.71291857800605
-0.0748076171875,0.2993427734375,0.9119189453125,0.9627037126854704,0.96435546875,-0.37158203125,2.15087890625,41.61235294117647,170.71291857800605
-0.0806669921875,0.2949482421875,0.9211962890625,0.9706205397479468,0.98388671875,-0.4248046875,2.13232421875,41.47117647058823,171.22911926937562
-0.0787138671875,0.2944599609375,0.9392626953125,0.987480102224155,0.9638671875,-0.5048828125,2.158203125,41.565294117647056,171.22911926937562
-0.0704130859375,0.2910419921875,0.9456103515625,0.9918882905195856,0.9150390625,-0.63330078125,2.1875,41.61235294117647,171.22911926937562
-0.0655302734375,0.2846943359375,0.9646533203125,1.0079191981709736,0.89111328125,-0.69140625,2.20947265625,41.42411764705882,171.22911926937562
-0.0611357421875,0.2798115234375,0.9719775390625,1.0132977864691233,0.82958984375,-0.5703125,2.2109375,41.37705882352941,171.1539813176586
-0.0669951171875,0.2886005859375,0.9656298828125,1.010059262870708,0.767578125,-0.353515625,2.25390625,41.37705882352941,171.1539813176586
-0.0596708984375,0.2983662109375,0.9680712890625,1.0147635353404605,0.6884765625,-0.208984375,2.22021484375,41.42411764705882,171.1539813176586
-0.0591826171875,0.3076435546875,0.9539111328125,1.00403863880906,0.6240234375,-0.138671875,2.08447265625,41.565294117647056,171.1539813176586
-0.0709013671875,0.3056904296875,0.9568408203125,1.0069846066787134,0.55615234375,-0.00439453125,1.927734375,41.42411764705882,171.1539813176586
-0.0767607421875,0.3037373046875,0.9587939453125,1.008679528575807,0.470703125,0.06982421875,1.85888671875,41.37705882352941,171.24884526627153
-0.0782255859375,0.3037373046875,0.9509814453125,1.0013697128846788,0.43798828125,0.1708984375,1.806640625,41.37705882352941,171.24884526627153
-0.0743193359375,0.2998310546875,0.9421923828125,0.9915384567827444,0.40234375,0.22314453125,1.775390625,42.03588235294118,171.24884526627153
-0.0684599609375,0.2993427734375,0.9343798828125,0.9835439124235988,0.376953125,0.31201171875,1.78466796875,41.47117647058823,171.24884526627153
-0.0635771484375,0.3056904296875,0.9197314453125,0.9712850375160696,0.34521484375,0.32666015625,1.75390625,41.42411764705882,171.00614541728513
-0.0645537109375,0.3149677734375,0.9124072265625,0.9673979672210666,0.30322265625,0.17138671875,1.71875,41.565294117647056,171.00614541728513
-0.0669951171875,0.3208271484375,0.9050830078125,0.9625973488081226,0.2451171875,-0.01953125,1.68896484375,41.37705882352941,171.00614541728513
-0.0635771484375,0.3354755859375,0.9104541015625,0.9723747187250048,0.14013671875,-0.23828125,1.58984375,41.565294117647056,171.00614541728513
-0.0484404296875,0.3413349609375,0.9231494140625,0.985424208892014,0.0556640625,-0.32275390625,1.38427734375,41.42411764705882,171.00614541728513
-0.0655302734375,0.3232685546875,0.9290087890625,0.985826610181482,0.1064453125,-0.1953125,1.3466796875,41.75352941176471,170.99262386111147
-0.0591826171875,0.3237568359375,0.9441455078125,0.9998658964660948,0.1220703125,0.08740234375,1.31982421875,41.42411764705882,170.99262386111147
-0.0528349609375,0.3164326171875,0.9309619140625,0.9846883871318436,0.07958984375,0.27001953125,1.2607421875,41.28294117647059,170.99262386111147
-0.0430693359375,0.3115498046875,0.9290087890625,0.9808035372358164,0.0302734375,0.34326171875,1.14990234375,41.47117647058823,170.99262386111147
-0.0474638671875,0.3105732421875,0.9343798828125,0.985786144585097,0.01123046875,0.33447265625,1.12353515625,41.47117647058823,171.24153113007446
-0.0459990234375,0.3091083984375,0.9358447265625,0.9866454603233324,0.0,0.36474609375,1.10107421875,41.61235294117647,171.24153113007446
-0.0489287109375,0.3130146484375,0.9358447265625,0.9880169741078833,-0.005859375,0.359375,1.12744140625,41.7064705882353,171.24153113007446
-0.0416044921875,0.3076435546875,0.9382861328125,0.9883098489538475,-0.01123046875,0.29248046875,1.1025390625,41.42411764705882,171.24153113007446
-0.0411162109375,0.3159443359375,0.9377978515625,0.9904424145845562,-0.03369140625,0.2412109375,1.05126953125,41.61235294117647,171.24153113007446
-0.0386748046875,0.3154560546875,0.9417041015625,0.9938887653335532,-0.09033203125,0.224609375,0.921875,41.61235294117647,171.07640482825937
-0.0391630859375,0.3081318359375,0.9436572265625,0.9934625996291918,-0.109375,0.169921875,0.84912109375,41.7064705882353,171.07640482825937
-0.0420927734375,0.3061787109375,0.9456103515625,0.9948347307915848,-0.11962890625,0.2197265625,0.873046875,41.61235294117647,171.07640482825937
-0.0435576171875,0.3076435546875,0.9490283203125,0.9985973039774236,-0.15478515625,0.2421875,0.67333984375,41.47117647058823,171.07640482825937
-0.0425810546875,0.3003193359375,0.9529345703125,1.000044571533144,-0.1767578125,0.28515625,0.6162109375,41.28294117647059,171.25992768067744
-0.0445341796875,0.3012958984375,0.9578173828125,1.005075445125134,-0.1875,0.3154296875,0.50537109375,41.61235294117647,171.25992768067744
-0.0455107421875,0.3042255859375,0.9700244140625,1.017630482380893,-0.197265625,0.32421875,0.412109375,41.04764705882353,171.25992768067744
-0.0450224609375,0.3003193359375,0.9587939453125,1.005735827687728,-0.2275390625,0.3310546875,0.34619140625,41.42411764705882,171.25992768067744
-0.0455107421875,0.3008076171875,0.9710009765625,1.0175457467346654,-0.21923828125,0.2880859375,0.3076171875,41.42411764705882,171.25992768067744
-0.0352568359375,0.2959248046875,0.9646533203125,1.0096388279476922,-0.26220703125,0.24267578125,0.27294921875,41.7064705882353,171.21559810705804
-0.0313505859375,0.2949482421875,0.9578173828125,1.00269210808997,-0.27294921875,0.23388671875,0.21484375,41.37705882352941,171.21559810705804
-0.0328154296875,0.2939716796875,0.9553759765625,1.0001197215716806,-0.25244140625,0.25830078125,0.15625,41.47117647058823,171.21559810705804
-0.0342802734375,0.2915302734375,0.9519580078125,0.9961872746205088,-0.2646484375,0.283203125,0.14111328125,41.565294117647056,171.21559810705804
-0.0303740234375,0.2895771484375,0.9353564453125,0.979627064746892,-0.2734375,0.29345703125,0.09765625,41.47117647058823,171.17370723926214
-0.0264677734375,0.2856708984375,0.9358447265625,0.9788328547201854,-0.2841796875,0.30029296875,0.0390625,41.42411764705882,171.17370723926214
-0.0289091796875,0.2886005859375,0.9368212890625,0.9806937169750792,-0.2744140625,0.33740234375,-0.0029296875,41.7064705882353,171.17370723926214
-0.0269560546875,0.2939716796875,0.9319384765625,0.9775762381728798,-0.3125,0.3505859375,-0.03662109375,41.28294117647059,171.17370723926214
-0.0284208984375,0.2973896484375,0.9324267578125,0.979115932436249,-0.34228515625,0.33447265625,-0.09765625,41.61235294117647,171.17370723926214
-0.0298857421875,0.3061787109375,0.9221728515625,0.9721323617575746,-0.3369140625,0.27734375,-0.1962890625,41.61235294117647,171.4201806388636
-0.0313505859375,0.3154560546875,0.9363330078125,0.9885417963833552,-0.32177734375,0.19873046875,-0.33251953125,41.61235294117647,171.4201806388636
-0.0372099609375,0.3169208984375,0.9392626953125,0.9919868183928175,-0.3486328125,0.12744140625,-0.46533203125,41.47117647058823,171.4201806388636
-0.0484404296875,0.3242451171875,0.9524462890625,1.0072910725292727,-0.384765625,0.16015625,-0.51953125,41.42411764705882,171.4201806388636
-0.0420927734375,0.3257099609375,0.9592822265625,1.0139433763422276,-0.36572265625,0.244140625,-0.57470703125,41.42411764705882,170.99882902495267
-0.0347685546875,0.3266865234375,0.9729541015625,1.026923863165147,-0.3017578125,0.4130859375,-0.64794921875,41.565294117647056,170.99882902495267
-0.0293974609375,0.3174091796875,0.9680712890625,1.019203031180046,-0.2646484375,0.62109375,-0.79248046875,41.42411764705882,170.99882902495267
-0.0210966796875,0.3095966796875,0.9446337890625,0.9942978273163112,-0.31005859375,0.57080078125,-0.92822265625,41.235882352941175,170.99882902495267
-0.0235380859375,0.3100849609375,0.9529345703125,1.0023926475118825,-0.29833984375,0.3974609375,-0.99658203125,41.61235294117647,170.99882902495267
-0.0362333984375,0.3003193359375,0.9573291015625,1.0039838501682858,-0.32470703125,0.37841796875,-1.05517578125,41.565294117647056,171.27234049818892
-0.0406279296875,0.3003193359375,0.9587939453125,1.0055486869249757,-0.34033203125,0.47412109375,-1.03564453125,41.565294117647056,171.27234049818892
-0.0293974609375,0.2944599609375,0.9622119140625,1.0066889523922995,-0.31201171875,0.57666015625,-1.046875,41.28294117647059,171.27234049818892
-0.0167021484375,0.2920185546875,0.9500048828125,0.99401361932913,-0.28271484375,0.64013671875,-1.10009765625,41.28294117647059,171.27234049818892
-0.0108427734375,0.2861591796875,0.9456103515625,0.9880200295729812,-0.2685546875,0.583984375,-1.1845703125,41.565294117647056,171.34991626167024
-0.0201201171875,0.2734638671875,0.9377978515625,0.9770630052192244,-0.28466796875,0.46484375,-1.28466796875,41.7064705882353,171.34991626167024
-0.0230498046875,0.2671162109375,0.9451220703125,0.98241441939414,-0.31298828125,0.32275390625,-1.35400390625,41.37705882352941,171.34991626167024
-0.0254912109375,0.2666279296875,0.9470751953125,0.9842213573687134,-0.34326171875,0.2197265625,-1.46533203125,41.61235294117647,171.34991626167024
-0.0284208984375,0.2617451171875,0.9504931640625,0.9862836857461628,-0.3623046875,0.1416015625,-1.57666015625,41.7064705882353,171.34991626167024
-0.0381865234375,0.2490498046875,0.9568408203125,0.9894586253115502,-0.37646484375,0.12451171875,-1.71923828125,41.42411764705882,170.59101266447036
-0.0425810546875,0.2451435546875,0.9622119140625,0.9938612962516165,-0.40771484375,-0.087890625,-1.849609375,41.47117647058823,170.59101266447036
-0.0547880859375,0.2466083984375,0.9714892578125,1.0037971979367577,-0.4736328125,-0.1220703125,-1.9384765625,41.75352941176471,170.59101266447036
-0.0572294921875,0.2490498046875,0.9680712890625,1.0012307629602937,-0.51123046875,-0.16845703125,-2.05712890625,41.7064705882353,170.59101266447036
-0.0635771484375,0.2558857421875,0.9763720703125,1.0113466203753336,-0.5478515625,-0.13232421875,-2.1923828125,41.61235294117647,171.21072195211931
-0.0665068359375,0.2534443359375,0.9724658203125,1.0071479346755776,-0.56494140625,-0.0478515625,-2.30419921875,41.42411764705882,171.21072195211931
-0.0728544921875,0.2544208984375,0.9631884765625,0.9988842835766478,-0.59423828125,0.03369140625,-2.4013671875,41.42411764705882,171.21072195211931
-0.0694365234375,0.2617451171875,0.9563525390625,0.9939527735913188,-0.638671875,0.03369140625,-2.48388671875,41.7064705882353,171.21072195211931
-0.0665068359375,0.2578388671875,0.9622119140625,0.9983765863754872,-0.5986328125,0.0927734375,-2.5849609375,41.28294117647059,171.21072195211931
-0.0752958984375,0.2593037109375,0.9641650390625,1.0012602605605905,-0.59912109375,0.2451171875,-2.67529296875,41.42411764705882,171.19720235194444
-0.0733427734375,0.2573505859375,0.9666064453125,1.0029638610725444,-0.55224609375,0.4384765625,-2.73046875,41.42411764705882,171.19720235194444
-0.0640654296875,0.2573505859375,0.8386767578125001,0.8796092356599636,-0.53271484375,0.46044921875,-2.7587890625,41.7064705882353,171.19720235194444
-0.0621123046875,0.2549091796875,0.9524462890625,0.9879223460533092,-0.52294921875,0.43212890625,-2.7783203125,41.28294117647059,171.19720235194444
-0.0640654296875,0.2553974609375,0.9519580078125,0.9877025316221022,-0.4970703125,0.3447265625,-2.77685546875,41.47117647058823,171.00747324923836
-0.0601591796875,0.2661396484375,0.9539111328125,0.9921672684959608,-0.47509765625,0.279296875,-2.8720703125,41.42411764705882,171.00747324923836
-0.0596708984375,0.2666279296875,0.9592822265625,0.9974334359788068,-0.44189453125,0.25048828125,-3.03369140625,41.47117647058823,171.00747324923836
-0.0640654296875,0.2593037109375,0.9587939453125,0.9953032820979302,-0.41455078125,0.55078125,-3.21826171875,41.42411764705882,171.00747324923836
-0.0660185546875,0.2461201171875,0.9573291015625,0.9906626925174272,-0.40966796875,0.6123046875,-3.3427734375,41.47117647058823,171.00747324923836
-0.0694365234375,0.2407490234375,0.9514697265625,0.983908615491355,-0.3701171875,0.67236328125,-3.43115234375,41.42411764705882,171.05800893196144
-0.0733427734375,0.2383076171875,0.9558642578125,0.9878492608634832,-0.36083984375,0.65283203125,-3.5302734375,41.61235294117647,171.05800893196144
-0.0743193359375,0.2329365234375,0.9529345703125,0.983802359695284,-0.33203125,0.63330078125,-3.61376953125,41.42411764705882,171.05800893196144
-0.0748076171875,0.2270771484375,0.9607470703125,0.99004805138227,-0.31005859375,0.63232421875,-3.6845703125,41.565294117647056,171.05800893196144
-0.0801787109375,0.2197529296875,0.8386767578125001,0.8706886239573395,-0.29296875,0.591796875,-3.7734375,41.565294117647056,171.04936420126967
-0.0792021484375,0.2226826171875,0.9690478515625,0.99745389213361,-0.265625,0.55419921875,-3.869140625,41.37705882352941,171.04936420126967
-0.0840849609375,0.2138935546875,0.9651416015625,0.9921285423065618,-0.2373046875,0.52197265625,-3.92822265625,41.565294117647056,171.04936420126967
-0.0909208984375,0.2109638671875,0.9670947265625,0.9940043124536152,-0.1943359375,0.4619140625,-3.9873046875,41.61235294117647,171.04936420126967
-0.0879912109375,0.2016865234375,0.9739306640625,0.9984792663544771,-0.18505859375,0.474609375,-4.09716796875,41.28294117647059,171.04936420126967
-0.0982451171875,0.1953388671875,0.9719775390625,0.9962678919483832,-0.14404296875,0.51171875,-4.14208984375,41.42411764705882,171.1639559153678
-0.1011748046875,0.1880146484375,0.9675830078125,0.99085958951716,-0.12109375,0.537109375,-4.21044921875,41.75352941176471,171.1639559153678
-0.1080107421875,0.1875263671875,0.9675830078125,0.9914884446255136,-0.08544921875,0.57470703125,-4.25634765625,41.42411764705882,171.1639559153678
-0.1128935546875,0.1845966796875,0.9710009765625,0.994818468529288,-0.04736328125,0.69873046875,-4.2587890625,41.37705882352941,171.1639559153678
-0.1104521484375,0.1670185546875,0.9700244140625,0.9904757637527823,-0.015625,0.79248046875,-4.31103515625,41.565294117647056,171.2761130390269
-0.1163115234375,0.1611591796875,0.9627001953125,0.9830016875553296,0.005859375,0.81884765625,-4.32470703125,41.28294117647059,171.2761130390269
-0.1143583984375,0.1538349609375,0.9612353515625,0.9801614354754604,0.01806640625,0.82568359375,-4.3212890625,41.61235294117647,171.2761130390269
-0.1167998046875,0.1533466796875,0.9646533203125,0.9837242636715584,0.03125,0.83349609375,-4.33935546875,41.28294117647059,171.2761130390269
-0.1163115234375,0.1484638671875,0.9622119140625,0.9805211154832107,0.04248046875,0.72607421875,-4.35302734375,41.47117647058823,171.2761130390269
-0.1275419921875,0.1386982421875,0.9646533203125,0.982883609867918,0.0556640625,0.6787109375,-4.35498046875,41.75352941176471,171.12583691586465
-0.1377958984375,0.1401630859375,0.9714892578125,0.991173435040913,0.05078125,0.64697265625,-4.3544921875,41.37705882352941,171.12583691586465
-0.1475615234375,0.1338154296875,0.9783251953125,0.9983992989805668,0.06640625,0.6845703125,-4.314453125,41.61235294117647,171.12583691586465
-0.1460966796875,0.1308857421875,0.9739306640625,0.9934869177422052,0.05126953125,0.68359375,-4.2900390625,41.75352941176471,171.12583691586465
-0.1500029296875,0.1284443359375,0.9968798828125,1.016252098204733,0.10205078125,0.75146484375,-4.27490234375,41.42411764705882,171.05313537021772
-0.1607451171875,0.1260029296875,0.9915087890625,1.0123267307434105,0.0888671875,0.82080078125,-4.1953125,41.61235294117647,171.05313537021772
-0.1622099609375,0.1177021484375,0.9807666015625,1.001033962418161,0.14208984375,0.88232421875,-4.20458984375,41.28294117647059,171.05313537021772
-0.1729521484375,0.1172138671875,0.9836962890625,1.0056390631959011,0.16845703125,0.89404296875,-4.1845703125,41.565294117647056,171.05313537021772
-0.1724638671875,0.1181904296875,0.9832080078125,1.0051918969936082,0.11767578125,0.96630859375,-4.1904296875,41.42411764705882,171.05313537021772
-0.1792998046875,0.1201435546875,0.9841845703125,1.0075724103681702,0.0615234375,0.97705078125,-4.0732421875,41.42411764705882,171.0025985682273
-0.1856474609375,0.1264912109375,0.9827197265625,1.0080689793719726,0.14013671875,1.0400390625,-3.9775390625,41.42411764705882,171.0025985682273
-0.1885771484375,0.1094013671875,0.9744189453125,0.998510030515086,0.2294921875,1.28759765625,-3.83447265625,41.7064705882353,171.0025985682273
-0.1807646484375,0.1001240234375,0.9612353515625,0.9831958499137032,0.2529296875,1.25390625,-3.85107421875,41.565294117647056,171.0025985682273
-0.1739287109375,0.0840107421875,0.9299853515625,0.9498324880799256,0.17236328125,1.0322265625,-3.88134765625,41.7064705882353,171.03097142921777
-0.1846708984375,0.0859638671875,0.9363330078125,0.9582341199888192,0.1279296875,0.609375,-3.81982421875,41.37705882352941,171.03097142921777
-0.2061552734375,0.0859638671875,0.9529345703125,0.9787615023715376,0.1435546875,0.49658203125,-3.6533203125,41.61235294117647,171.03097142921777
-0.2007841796875,0.0805927734375,0.9583056640625,0.9824251766508224,0.11767578125,0.427734375,-3.41162109375,41.28294117647059,171.03097142921777
-0.1944365234375,0.0801044921875,0.9636767578125,0.9863544924939972,0.16357421875,0.40869140625,-3.19580078125,41.47117647058823,171.03097142921777
-0.1944365234375,0.0761982421875,0.9627001953125,0.9850905541185806,0.1611328125,0.42822265625,-3.0478515625,41.565294117647056,171.2736773504335
-0.1885771484375,0.0693623046875,0.9573291015625,0.9781878546183468,0.14306640625,0.404296875,-2.923828125,41.42411764705882,171.2736773504335
-0.1959013671875,0.0722919921875,0.9558642578125,0.9784068464416072,0.1220703125,0.3330078125,-2.7919921875,41.37705882352941,171.2736773504335
-0.2090849609375,0.0722919921875,0.9519580078125,0.9773263025535625,0.13232421875,0.32373046875,-2.66015625,42.13,171.2736773504335
-0.2085966796875,0.0698505859375,0.9485400390625,0.9737144780874682,0.15771484375,0.2138671875,-2.50390625,41.565294117647056,171.20718577987418
-0.2115263671875,0.0869404296875,0.9617236328125,0.9885415460363112,0.21337890625,0.1171875,-2.337890625,41.42411764705882,171.20718577987418
-0.2100615234375,0.0820576171875,0.9558642578125,0.9821078227622542,0.19873046875,0.12939453125,-2.36474609375,41.75352941176471,171.20718577987418
-0.2198271484375,0.0776630859375,0.9670947265625,0.9948003519563584,0.18603515625,0.19921875,-2.40185546875,41.75352941176471,171.20718577987418
-0.2349638671875,0.0683857421875,0.9636767578125,0.9942623004852654,0.2001953125,0.26611328125,-2.31103515625,41.47117647058823,171.20718577987418
-0.2442412109375,0.0581318359375,0.9670947265625,0.9991522854974,0.1796875,0.44970703125,-2.24658203125,41.37705882352941,171.36610952511674
-0.2388701171875,0.0532490234375,0.9548876953125,0.9857509330664797,0.15380859375,0.45458984375,-2.1015625,41.42411764705882,171.36610952511674
-0.2432646484375,0.0595966796875,0.9465869140625,0.9791609874191076,0.126953125,0.43408203125,-2.07421875,41.42411764705882,171.36610952511674
-0.2496123046875,0.0439716796875,0.9456103515625,0.9789886354029348,0.12158203125,0.46630859375,-1.9130859375,41.61235294117647,171.36610952511674
-0.2549833984375,0.0420185546875,0.9495166015625,0.9840548099875144,0.09228515625,0.458984375,-1.82421875,41.565294117647056,171.00637166065368
-0.2569365234375,0.0439716796875,0.9539111328125,0.988886411573299,0.0791015625,0.443359375,-1.6767578125,41.28294117647059,171.00637166065368
-0.2535185546875,0.0469013671875,0.9529345703125,0.9871958727180562,0.05419921875,0.42529296875,-1.583984375,41.42411764705882,171.00637166065368
-0.2647490234375,0.0542255859375,0.9700244140625,1.00696565157838,0.0634765625,0.470703125,-1.5048828125,41.28294117647059,171.00637166065368
-0.2676787109375,0.0522724609375,0.9700244140625,1.0076366737762776,0.05078125,0.56591796875,-1.5234375,41.7064705882353,171.00637166065368
-0.2740263671875,0.0508076171875,0.9729541015625,1.0120827770620058,0.04736328125,0.61474609375,-1.392578125,41.7064705882353,171.03097142921777
-0.2784208984375,0.0605732421875,0.9753955078125,1.0161612623086236,0.00244140625,0.7470703125,-1.392578125,41.47117647058823,171.03097142921777
-0.2847685546875,0.0576435546875,0.9778369140625,1.0200886920454963,0.01318359375,0.71875,-1.1796875,41.61235294117647,171.03097142921777
-0.2818388671875,0.0703388671875,0.9919970703125,1.0336531772327395,0.0791015625,0.77490234375,-1.09814453125,41.37705882352941,171.03097142921777
-0.2867216796875,0.0639912109375,0.9949267578125,1.0373926209933064,0.083984375,0.93310546875,-1.13818359375,41.61235294117647,170.96447994223468
-0.3062529296875,0.0517841796875,0.9915087890625,1.0390197962484975,0.10009765625,0.9775390625,-0.94970703125,41.565294117647056,170.96447994223468
-0.3047880859375,0.0469013671875,0.9836962890625,1.0308995609121363,0.14794921875,0.9833984375,-0.69482421875,41.565294117647056,170.96447994223468
-0.2837919921875,0.0576435546875,0.9793017578125,1.021221135250056,0.14892578125,1.072265625,-0.63818359375,41.42411764705882,170.96447994223468
-0.2681669921875,0.0703388671875,0.9675830078125,1.0065177439785131,0.10986328125,1.09814453125,-0.841796875,41.42411764705882,170.96447994223468
-0.2857451171875,0.0537373046875,0.9719775390625,1.0145335412659204,0.11962890625,1.09423828125,-0.83447265625,41.42411764705882,171.07907374362844
-0.2857451171875,0.0420185546875,0.9734423828125,1.0153846087026348,0.10205078125,1.05517578125,-0.619140625,41.75352941176471,171.07907374362844
-0.2706083984375,0.0483662109375,0.9622119140625,1.0007097297564262,0.130859375,0.9912109375,-0.4765625,41.565294117647056,171.07907374362844
-0.2691435546875,0.0556904296875,0.9583056640625,0.996940029672232,0.11767578125,0.90576171875,-0.42138671875,42.13,171.07907374362844
-0.2715849609375,0.0503193359375,0.9436572265625,0.9832494026544047,0.1455078125,0.80029296875,-0.21337890625,41.61235294117647,171.01988947971515
-0.2618193359375,0.0605732421875,0.9417041015625,0.9792982677608976,0.13134765625,0.7529296875,-0.18994140625,42.03588235294118,171.01988947971515
-0.2569365234375,0.0664326171875,0.9334033203125,0.9703975618646872,0.12841796875,0.7724609375,-0.36181640625,41.42411764705882,171.01988947971515
-0.2691435546875,0.0635029296875,0.9500048828125,0.9894342587945452,0.0966796875,0.7783203125,-0.39697265625,41.47117647058823,171.01988947971515
-0.2686552734375,0.0600849609375,0.9363330078125,0.9759638108023484,0.10400390625,0.7998046875,-0.330078125,41.42411764705882,171.01988947971515
-0.2706083984375,0.0615498046875,0.9343798828125,0.9747220368734256,0.09716796875,0.72998046875,-0.22900390625,42.506470588235295,171.14556504552385
-0.2671904296875,0.0630146484375,0.9324267578125,0.9719985752659432,0.11572265625,0.70263671875,-0.1865234375,41.42411764705882,171.14556504552385
-0.2618193359375,0.0713154296875,0.9368212890625,0.9753303967492198,0.1181640625,0.6435546875,-0.1630859375,42.224117647058826,171.14556504552385
-0.2642607421875,0.0674091796875,0.9348681640625,0.973835828846536,0.13916015625,0.62158203125,-0.13623046875,41.42411764705882,171.14556504552385
-0.2588896484375,0.0688740234375,0.9446337890625,0.9818861831246724,0.12646484375,0.63525390625,-0.146484375,41.61235294117647,171.01501802322193
-0.2613310546875,0.0664326171875,0.9446337890625,0.9823646004458008,0.13134765625,0.60791015625,-0.1337890625,41.47117647058823,171.01501802322193
-0.2647490234375,0.0654560546875,0.9451220703125,0.9836830121020436,0.15478515625,0.54833984375,-0.130859375,41.47117647058823,171.01501802322193
-0.2662138671875,0.0512958984375,0.9353564453125,0.9738545949304086,0.10986328125,0.5419921875,-0.1640625,41.7064705882353,171.01501802322193
-0.2691435546875,0.0512958984375,0.9348681640625,0.9741909496622944,0.078125,0.48779296875,-0.11083984375,41.7064705882353,171.01501802322193
-0.2613310546875,0.0542255859375,0.9397509765625,0.976916696686324,0.10009765625,0.4599609375,-0.00927734375,41.7064705882353,171.0482635439968
-0.2593779296875,0.0581318359375,0.9343798828125,0.9714535429772952,0.099609375,0.45361328125,0.02978515625,41.42411764705882,171.0482635439968
-0.2535185546875,0.0527607421875,0.9441455078125,0.9790128157534704,0.1044921875,0.4111328125,0.05810546875,41.61235294117647,171.0482635439968
-0.2559599609375,0.0488544921875,0.9368212890625,0.9723869552039196,0.09619140625,0.337890625,0.06787109375,41.47117647058823,171.0482635439968
-0.2657255859375,0.0527607421875,0.9421923828125,0.9803674153948102,0.03369140625,0.31884765625,0.10791015625,41.42411764705882,171.28853648709637
-0.2725615234375,0.0537373046875,0.9607470703125,1.0001062019044278,0.02587890625,0.30517578125,0.18017578125,41.37705882352941,171.28853648709637
-0.2627958984375,0.0508076171875,0.9651416015625,1.0015694730104707,0.0595703125,0.38134765625,0.24072265625,41.42411764705882,171.28853648709637
-0.2667021484375,0.0493427734375,0.9758837890625,1.012874086462214,0.14013671875,0.6484375,0.2666015625,41.42411764705882,171.28853648709637
-0.2613310546875,0.0459248046875,0.9666064453125,1.0023627227452812,0.1015625,0.66015625,0.3251953125,41.7064705882353,171.28853648709637
-0.2608427734375,0.0454365234375,0.9412158203125,0.9777477438087934,0.0419921875,0.55224609375,0.35888671875,41.37705882352941,170.97556182172315
-0.2671904296875,0.0527607421875,0.9343798828125,0.9732626505920527,0.015625,0.41064453125,0.3984375,41.42411764705882,170.97556182172315
-0.2671904296875,0.0395771484375,0.9329150390625,0.9712299143374964,-0.0087890625,0.41455078125,0.44775390625,41.7064705882353,170.97556182172315
-0.2549833984375,0.0473896484375,0.9500048828125,0.9847698155535428,-0.052734375,0.41650390625,0.48876953125,41.28294117647059,170.97556182172315
-0.2593779296875,0.0527607421875,0.9548876953125,0.990894099782801,-0.08642578125,0.451171875,0.5751953125,41.18882352941176,171.46719144887837
-0.2657255859375,0.0517841796875,0.9587939453125,0.9962818465954524,-0.11328125,0.4619140625,0.6318359375,41.47117647058823,171.46719144887837
-0.2642607421875,0.0429951171875,0.9431689453125,0.9804335670331514,-0.13916015625,0.31201171875,0.6845703125,41.565294117647056,171.46719144887837
-0.2735380859375,0.0454365234375,0.9275439453125,0.968103988529288,-0.1884765625,0.14013671875,0.68994140625,41.565294117647056,171.46719144887837
-0.2813505859375,0.0469013671875,0.9285205078125,0.9713435148699012,-0.189453125,-0.044921875,0.71923828125,41.565294117647056,171.46719144887837
-0.2862333984375,0.0576435546875,0.9500048828125,0.993861969865878,-0.1826171875,-0.181640625,0.716796875,41.47117647058823,171.2725870850664
-0.2881865234375,0.0517841796875,0.9553759765625,0.9992378746573064,-0.2109375,-0.16845703125,0.73828125,41.47117647058823,171.2725870850664
-0.2818388671875,0.0537373046875,0.9539111328125,0.9961261437570232,-0.22509765625,-0.2490234375,0.72607421875,41.7064705882353,171.2725870850664
-0.2789091796875,0.0498310546875,0.9500048828125,0.9913539942385944,-0.2412109375,-0.03662109375,0.693359375,41.42411764705882,171.2725870850664
-0.2784208984375,0.0498310546875,0.9514697265625,0.9926207590328402,-0.27783203125,0.03076171875,0.6767578125,41.47117647058823,171.17150548351356
-0.2686552734375,0.0552021484375,0.9460986328125,0.9850510424072324,-0.2763671875,0.09619140625,0.63720703125,41.37705882352941,171.17150548351356
-0.2647490234375,0.0571552734375,0.9368212890625,0.9751886475618704,-0.302734375,0.10791015625,0.64013671875,41.7064705882353,171.17150548351356
-0.2603544921875,0.0654560546875,0.9402392578125,0.977813284134177,-0.30615234375,0.072265625,0.5986328125,41.565294117647056,171.17150548351356
-0.2642607421875,0.0659443359375,0.9397509765625,0.9784243932230526,-0.31494140625,0.02197265625,0.591796875,41.98882352941177,171.17150548351356
-0.2657255859375,0.0674091796875,0.9475634765625,0.9864231478646376,-0.31298828125,-0.01220703125,0.59912109375,41.75352941176471,171.44746156560868
-0.2671904296875,0.0674091796875,0.9480517578125,0.9872876271452528,-0.328125,0.01123046875,0.57373046875,41.42411764705882,171.44746156560868
-0.2808623046875,0.0635029296875,0.9607470703125,1.0029711807361774,-0.3076171875,0.1513671875,0.53125,41.04764705882353,171.44746156560868
-0.2784208984375,0.0581318359375,0.9656298828125,1.0066471961996872,-0.2890625,0.228515625,0.5322265625,41.7064705882353,171.44746156560868
-0.2837919921875,0.0512958984375,0.9670947265625,1.0091785640664674,-0.24365234375,0.39306640625,0.48486328125,41.61235294117647,170.9374456314687
-0.2750029296875,0.0522724609375,0.9646533203125,1.0044476342244535,-0.29833984375,0.43896484375,0.44140625,41.37705882352941,170.9374456314687
-0.2740263671875,0.0581318359375,0.9573291015625,0.9974711870334434,-0.30419921875,0.396484375,0.416015625,41.565294117647056,170.9374456314687
-0.2735380859375,0.0478779296875,0.9470751953125,0.986948228726169,-0.33349609375,0.32275390625,0.4208984375,41.61235294117647,170.9374456314687
-0.2657255859375,0.0439716796875,0.9514697265625,0.9888570352691468,-0.33544921875,0.232421875,0.41162109375,41.61235294117647,170.9374456314687
-0.2745146484375,0.0429951171875,0.9710009765625,1.0099751327602378,-0.30712890625,0.31201171875,0.35595703125,41.61235294117647,170.97069085821167
-0.2891630859375,0.0454365234375,0.9719775390625,1.01509610597863,-0.2978515625,0.47509765625,0.353515625,41.61235294117647,170.97069085821167
-0.2813505859375,0.0415302734375,0.9563525390625,0.99774400263317,-0.3486328125,0.54541015625,0.380859375,41.75352941176471,170.97069085821167
-0.2896513671875,0.0449482421875,0.9617236328125,1.0054007185691716,-0.33837890625,0.45947265625,0.36181640625,41.565294117647056,170.97069085821167
-0.2984404296875,0.0405537109375,0.9592822265625,1.0054519798287582,-0.36328125,0.39404296875,0.41455078125,41.42411764705882,171.09393334699007
-0.2969755859375,0.0410419921875,0.9583056640625,1.0041059154989127,-0.359375,0.30224609375,0.43603515625,41.42411764705882,171.09393334699007
-0.3072294921875,0.0542255859375,0.9758837890625,1.0245386985346314,-0.29931640625,0.42041015625,0.38720703125,41.565294117647056,171.09393334699007
-0.3052763671875,0.0517841796875,0.9763720703125,1.0242937475721612,-0.34033203125,0.4609375,0.40380859375,41.47117647058823,171.09393334699007
-0.3067412109375,0.0542255859375,0.9846728515625,1.0327687104390286,-0.251953125,0.64892578125,0.40234375,41.42411764705882,171.09393334699007
-0.3106474609375,0.0556904296875,0.9763720703125,1.0261119279259996,-0.22998046875,0.875,0.3896484375,41.61235294117647,171.15798950310966
-0.2876982421875,0.0610615234375,0.9480517578125,0.992623253653498,-0.2314453125,0.72412109375,0.42822265625,41.37705882352941,171.15798950310966
-0.2828154296875,0.0644794921875,0.9363330078125,0.9802355195060451,-0.1962890625,0.591796875,0.4990234375,41.42411764705882,171.15798950310966
-0.2740263671875,0.0664326171875,0.9304736328125,0.9722576427571298,-0.2109375,0.33837890625,0.3916015625,41.42411764705882,171.15798950310966
-0.2691435546875,0.0688740234375,0.9290087890625,0.969659328986044,-0.1796875,0.1806640625,0.39599609375,41.37705882352941,171.14690780294364
-0.2701201171875,0.0683857421875,0.9338916015625,0.9745742716247414,-0.17138671875,0.12353515625,0.37939453125,42.36529411764706,171.14690780294364
-0.2681669921875,0.0600849609375,0.9358447265625,0.9753610051999168,-0.1962890625,0.1455078125,0.333984375,41.565294117647056,171.14690780294364
-0.2657255859375,0.0591083984375,0.9421923828125,0.98072951215795,-0.21826171875,0.13330078125,0.27685546875,41.565294117647056,171.14690780294364
-0.2598662109375,0.0537373046875,0.9412158203125,0.9779086695129678,-0.24267578125,0.1669921875,0.22265625,41.565294117647056,171.14690780294364
-0.2618193359375,0.0444599609375,0.9446337890625,0.9812538143803028,-0.27587890625,0.16552734375,0.2099609375,41.61235294117647,171.18636721034127
-0.2603544921875,0.0386005859375,0.9392626953125,0.97544291357446,-0.28857421875,0.13427734375,0.20703125,41.37705882352941,171.18636721034127
-0.2554716796875,0.0381123046875,0.9358447265625,0.9708365872410176,-0.3095703125,0.09912109375,0.205078125,41.42411764705882,171.18636721034127
-0.2593779296875,0.0395771484375,0.9407275390625,0.9766327681570004,-0.3251953125,0.0576171875,0.16796875,41.37705882352941,171.18636721034127
-0.1358427734375,0.0410419921875,0.9436572265625,0.9542676068386374,-0.3515625,0.04638671875,0.1318359375,41.565294117647056,171.28123555987028
-0.2647490234375,0.0410419921875,0.9446337890625,0.9818907708968472,-0.29248046875,0.0263671875,0.07763671875,42.13,171.28123555987028
-0.2710966796875,0.0395771484375,0.9451220703125,0.984030227283602,-0.31787109375,0.005859375,0.03125,41.61235294117647,171.28123555987028
-0.2833037109375,0.0381123046875,0.9553759765625,0.9972245469262688,-0.37939453125,-0.0185546875,0.03857421875,41.42411764705882,171.28123555987028
-0.2974638671875,0.0473896484375,0.9636767578125,1.00965510180912,-0.3701171875,0.021484375,0.099609375,41.565294117647056,171.28123555987028
-0.2955107421875,0.0449482421875,0.9744189453125,1.0192346266723271,-0.33154296875,0.22314453125,0.16162109375,41.42411764705882,171.15312239554703
-0.2837919921875,0.0376240234375,0.9783251953125,1.019349620960648,-0.2373046875,0.572265625,0.150390625,41.42411764705882,171.15312239554703
-0.2696318359375,0.0307880859375,0.9324267578125,0.9711173419682364,-0.2783203125,0.43017578125,0.1318359375,41.61235294117647,171.15312239554703
-0.2759794921875,0.0405537109375,0.9329150390625,0.9737246806401996,-0.29931640625,0.1806640625,0.025390625,41.565294117647056,171.15312239554703
-0.2916044921875,0.0405537109375,0.9412158203125,0.9861871038201953,-0.36669921875,0.0224609375,-0.02880859375,41.75352941176471,171.29231719557586
-0.3033232421875,0.0371357421875,0.9597705078125,1.007245491558844,-0.3603515625,0.1435546875,-0.029296875,41.61235294117647,171.29231719557586
-0.2974638671875,0.0268818359375,0.9690478515625,1.014032111919248,-0.36669921875,0.39599609375,0.11279296875,41.7064705882353,171.29231719557586
-0.2715849609375,0.0371357421875,0.9646533203125,1.0028427008983865,-0.37646484375,0.41552734375,0.18115234375,41.7064705882353,171.29231719557586
-0.2793974609375,0.0190693359375,0.9539111328125,0.9941695177659824,-0.328125,0.51220703125,0.22265625,41.61235294117647,171.29231719557586
-0.2784208984375,0.0219990234375,0.9670947265625,1.0066153008294405,-0.322265625,0.3994140625,0.24755859375,41.47117647058823,171.3206965783561
-0.2691435546875,0.0010029296875,0.9485400390625,0.9859855296110944,-0.38916015625,0.1884765625,0.23388671875,41.42411764705882,171.3206965783561
-0.2691435546875,-0.0116923828124999,0.9407275390625,0.9785413979981864,-0.416015625,0.02783203125,0.26220703125,41.47117647058823,171.3206965783561
-0.2740263671875,-0.0209697265625,0.9417041015625,0.980987662636855,-0.4658203125,-0.146484375,0.3193359375,41.47117647058823,171.3206965783561
-0.2779326171875,-0.0160869140625,0.9397509765625,0.980121026430369,-0.474609375,-0.39599609375,0.50732421875,41.565294117647056,170.91906146547691
-0.2637724609375,0.0014912109375,0.9417041015625,0.9779492572514796,-0.45458984375,-0.525390625,0.529296875,41.42411764705882,170.91906146547691
-0.2662138671875,0.0190693359375,0.9587939453125,0.9952483570566346,-0.40625,-0.52392578125,0.4443359375,41.42411764705882,170.91906146547691
-0.2584013671875,0.0273701171875,0.9739306640625,1.007998674741415,-0.5,-0.4326171875,0.34130859375,41.75352941176471,170.91906146547691
-0.2593779296875,0.0327412109375,0.9856494140625,1.019732153432644,-0.3076171875,-0.306640625,0.2421875,41.42411764705882,170.91906146547691
-0.2662138671875,0.0239521484375,0.9827197265625,1.0184211257985425,-0.30224609375,-0.177734375,0.24169921875,41.7064705882353,171.20366450196724
-0.2564482421875,0.0254169921875,0.9758837890625,1.0093368586195095,-0.2998046875,-0.2177734375,0.28466796875,41.75352941176471,171.20366450196724
-0.2486357421875,0.0136982421875,0.9739306640625,1.0052603207793387,-0.271484375,-0.27001953125,0.37353515625,41.565294117647056,171.20366450196724
-0.2530302734375,0.0068623046875,0.9700244140625,1.0025062465534949,-0.3056640625,-0.2666015625,0.14111328125,41.75352941176471,171.20366450196724
-0.2540068359375,-0.0082744140624999,0.9710009765625,1.0037085409203144,-0.32958984375,-0.15478515625,0.087890625,41.565294117647056,170.8131135766187
-0.2427763671875,-0.0170634765625,0.9641650390625,0.994407235114242,-0.3603515625,-0.25537109375,0.17138671875,41.565294117647056,170.8131135766187
-0.2393583984375,-0.0248759765625,0.9700244140625,0.9994291475586448,-0.30712890625,-0.38037109375,0.328125,41.47117647058823,170.8131135766187
-0.2442412109375,-0.0341533203125,0.9602587890625,0.9914217873238228,-0.30029296875,-0.49658203125,0.4912109375,41.61235294117647,170.8131135766187
-0.2393583984375,-0.0199931640625,0.9514697265625,0.9813189135427453,-0.3017578125,-0.60888671875,0.51123046875,41.42411764705882,170.8131135766187
-0.2330107421875,0.0024677734375,0.9700244140625,0.9976208998200694,-0.30908203125,-0.7373046875,0.47021484375,41.47117647058823,170.98068398056188
-0.2403349609375,0.0068623046875,0.9807666015625,1.0098074625466529,-0.2509765625,-0.6279296875,0.453125,41.47117647058823,170.98068398056188
-0.2413115234375,0.0083271484375,0.9827197265625,1.011947950104106,-0.216796875,-0.5966796875,0.48046875,41.7064705882353,170.98068398056188
-0.2378935546875,0.0044208984375,0.9832080078125,1.011588292899574,-0.16552734375,-0.44189453125,0.43994140625,41.75352941176471,170.98068398056188
-0.2334990234375,0.0044208984375,0.9778369140625,1.0053389322972297,-0.15625,-0.3154296875,0.349609375,41.235882352941175,171.3071829321691
-0.2300810546875,0.0088154296875,0.9670947265625,0.9941263569947656,-0.1416015625,-0.32177734375,0.31591796875,41.565294117647056,171.3071829321691
-0.2320341796875,0.0132099609375,0.9627001953125,0.99035651644544,-0.10498046875,-0.34716796875,0.306640625,41.565294117647056,171.3071829321691
-0.2281279296875,0.0097919921875,0.9607470703125,0.987508566306418,-0.09375,-0.40185546875,0.3125,41.61235294117647,171.3071829321691
-0.2149443359375,0.0161396484375,0.9622119140625,0.9860594928132476,-0.072265625,-0.486328125,0.29443359375,41.565294117647056,171.3071829321691
-0.2110380859375,0.0127216796875,0.9749072265625,0.9975685516564868,-0.0703125,-0.5068359375,0.23974609375,41.75352941176471,171.20745012659384
-0.2129912109375,0.0117451171875,0.9719775390625,0.9951098131142936,-0.0654296875,-0.48779296875,0.1982421875,42.13,171.20745012659384
-0.2242216796875,0.0068623046875,0.9851611328125,1.01037859759197,-0.0244140625,-0.38671875,0.173828125,41.61235294117647,171.20745012659384
-0.2315458984375,0.0053974609375,0.9890673828125,1.0158232737102304,-0.01416015625,-0.24169921875,0.171875,41.565294117647056,171.20745012659384
-0.2266630859375,0.0024677734375,0.9895556640625,1.0151860207423191,-0.0205078125,-0.16259765625,0.1591796875,41.37705882352941,171.10636351536624
-0.2227568359375,0.0097919921875,0.9778369140625,1.0029364494179875,0.01708984375,-0.15771484375,0.16162109375,41.47117647058823,171.10636351536624
-0.2173857421875,0.0107685546875,0.9768603515625,1.000814003264982,0.01513671875,-0.17333984375,0.142578125,41.61235294117647,171.10636351536624
-0.2154326171875,0.0171162109375,0.9749072265625,0.9985731208223556,0.0546875,-0.1767578125,0.1376953125,41.47117647058823,171.10636351536624
-0.2159208984375,0.0171162109375,0.9680712890625,0.9920064615545832,0.04052734375,-0.23681640625,0.19384765625,41.47117647058823,171.10636351536624
-0.2144560546875,0.0293232421875,0.9675830078125,0.9914979217991328,0.0791015625,-0.3271484375,0.20263671875,41.42411764705882,171.2123136347557
-0.2115263671875,0.0395771484375,0.9656298828125,0.9893183639630204,0.08984375,-0.35009765625,0.1533203125,41.42411764705882,171.2123136347557
-0.2056669921875,0.0473896484375,0.9558642578125,0.9788877207412118,0.1162109375,-0.38671875,0.0830078125,41.28294117647059,171.2123136347557
-0.2032255859375,0.0478779296875,0.9607470703125,0.9831723491051064,0.11865234375,-0.35986328125,-0.0087890625,41.7064705882353,171.2123136347557
-0.1973662109375,0.0552021484375,0.9656298828125,0.9871381711758612,0.1181640625,-0.3125,-0.06884765625,41.75352941176471,171.35529594029953
-0.2042021484375,0.0532490234375,0.9636767578125,0.9865124781124414,0.126953125,-0.24951171875,-0.08740234375,41.04764705882353,171.35529594029953
-0.2027373046875,0.0478779296875,0.9690478515625,0.9911853759418622,0.16064453125,-0.2099609375,-0.0693359375,41.42411764705882,171.35529594029953
-0.2046904296875,0.0444599609375,0.9714892578125,0.9938139857022036,0.1689453125,-0.16259765625,-0.048828125,41.61235294117647,171.35529594029953
-0.1988310546875,0.0376240234375,0.9753955078125,0.9961655244529264,0.2138671875,-0.09326171875,-0.05419921875,41.42411764705882,171.35529594029953
-0.1954130859375,0.0268818359375,0.9729541015625,0.9927479997493216,0.19140625,-0.1005859375,-0.06103515625,41.42411764705882,170.9474395941266
-0.2046904296875,0.0263935546875,0.9797900390625,1.0012908230782858,0.13134765625,-0.1044921875,-0.0732421875,41.7064705882353,170.9474395941266
-0.2115263671875,0.0234638671875,1.0007861328125005,1.0231651092119654,0.111328125,-0.00927734375,0.01953125,41.47117647058823,170.9474395941266
-0.1983427734375,0.0342060546875,1.0105517578125005,1.0304002936578085,0.14990234375,0.20361328125,0.06103515625,41.565294117647056,170.9474395941266
-0.1934599609375,0.0219990234375,1.0105517578125005,1.0291382651209102,0.20068359375,0.47412109375,0.07568359375,41.235882352941175,170.97581884485243
-0.1880888671875,0.0171162109375,0.9802783203125,0.998306552072774,0.20263671875,0.34521484375,0.076171875,41.565294117647056,170.97581884485243
-0.1954130859375,0.0205341796875,0.9631884765625,0.9830259244159562,0.16259765625,0.068359375,0.046875,41.61235294117647,170.97581884485243
-0.2100615234375,0.0254169921875,0.9705126953125,0.9933110081356576,0.1435546875,-0.1494140625,-0.03271484375,41.565294117647056,170.97581884485243
-0.2154326171875,0.0259052734375,0.9885791015625,1.0121121162135385,0.12158203125,-0.08837890625,-0.06103515625,41.7064705882353,170.97581884485243
-0.2125029296875,0.0229755859375,0.9954150390625,1.018104352542872,0.107421875,0.16796875,-0.0458984375,41.42411764705882,171.24069426910853
-0.2090849609375,0.0219990234375,0.9905322265625,1.012597930958435,0.12744140625,0.42138671875,-0.00244140625,41.61235294117647,171.24069426910853
-0.2002958984375,0.0234638671875,0.9705126953125,0.9912436086840668,0.08740234375,0.47998046875,0.03759765625,41.7064705882353,171.24069426910853
-0.1978544921875,0.0273701171875,0.9553759765625,0.9760321613483756,0.10205078125,0.400390625,0.05712890625,41.37705882352941,171.24069426910853
-0.1978544921875,0.0249287109375,0.9460986328125,0.9668869963534832,0.11767578125,0.2783203125,0.10107421875,41.37705882352941,171.29988926033934
-0.2007841796875,0.0244404296875,0.9368212890625,0.9584079241412898,0.146484375,0.083984375,0.12109375,41.42411764705882,171.29988926033934
-0.2090849609375,0.0263935546875,0.9500048828125,0.9730993875174672,0.146484375,0.1220703125,0.1181640625,41.75352941176471,171.29988926033934
-0.2046904296875,0.0234638671875,0.9627001953125,0.984500071672812,0.15380859375,-0.07861328125,0.12255859375,41.42411764705882,171.29988926033934
-0.2071318359375,0.0283466796875,0.9788134765625,1.000891079792658,0.13037109375,-0.03564453125,0.05615234375,41.7064705882353,171.29988926033934
-0.2095732421875,0.0351826171875,0.9773486328125,1.0001845381996293,0.13134765625,0.037109375,-0.0146484375,41.7064705882353,171.22961287426878
-0.2090849609375,0.0317646484375,0.9812548828125,1.003786161901013,0.11962890625,0.12890625,-0.0458984375,41.47117647058823,171.22961287426878
-0.1993193359375,0.0386005859375,0.9856494140625,1.0063413786360142,0.126953125,0.19482421875,-0.05712890625,41.565294117647056,171.22961287426878
-0.1973662109375,0.0366474609375,0.9773486328125,0.9977508745540916,0.1279296875,0.2119140625,-0.11865234375,41.04764705882353,171.22961287426878
-0.1978544921875,0.0386005859375,0.9744189453125,0.995052102302898,0.08935546875,0.2080078125,-0.1728515625,41.47117647058823,170.99798159267002
-0.2022490234375,0.0390888671875,0.9714892578125,0.9930881053886944,0.10400390625,0.21337890625,-0.22998046875,41.61235294117647,170.99798159267002
-0.2042021484375,0.0425068359375,0.9778369140625,0.999835175932104,0.1162109375,0.216796875,-0.236328125,41.565294117647056,170.99798159267002
-0.2017607421875,0.0337177734375,0.9744189453125,0.9956588604123192,0.107421875,0.18798828125,-0.2509765625,41.61235294117647,170.99798159267002
-0.2017607421875,0.0288349609375,0.9788134765625,0.9998073184172468,0.10986328125,0.1494140625,-0.248046875,41.28294117647059,170.99798159267002
-0.2012724609375,0.0224873046875,0.9861376953125,1.0067193434717518,0.00390625,0.13427734375,-0.26025390625,41.42411764705882,171.14339338701964
-0.2037138671875,0.0185810546875,0.9851611328125,1.0061744644355644,0.12646484375,0.1728515625,-0.2353515625,41.42411764705882,171.14339338701964
-0.2056669921875,0.0234638671875,0.9788134765625,1.0004625363496695,0.11376953125,0.19091796875,-0.22900390625,41.28294117647059,171.14339338701964
-0.2027373046875,0.0278583984375,0.9841845703125,1.0052351831868278,0.1025390625,0.12060546875,-0.1865234375,41.42411764705882,171.14339338701964
-0.1988310546875,0.0302998046875,0.9866259765625,1.0069174167230155,0.111328125,0.1376953125,-0.22705078125,41.565294117647056,171.26042568943328
-0.1988310546875,0.0210224609375,0.9851611328125,1.0052453381023063,0.1025390625,0.20263671875,-0.28076171875,41.565294117647056,171.26042568943328
-0.1983427734375,0.0210224609375,0.9861376953125,1.0061060350455102,0.1123046875,0.28369140625,-0.3017578125,41.09470588235294,171.26042568943328
-0.2042021484375,0.0205341796875,0.9739306640625,0.9953196011147132,0.083984375,0.28173828125,-0.2822265625,41.61235294117647,171.26042568943328
-0.2037138671875,0.0185810546875,0.9705126953125,0.9918364215134066,0.0986328125,0.2607421875,-0.26025390625,41.37705882352941,171.26042568943328
-0.2100615234375,0.0210224609375,0.9685595703125,0.9912998682218648,0.0888671875,0.25146484375,-0.26025390625,41.42411764705882,171.33070268529062
-0.2061552734375,0.0166279296875,0.9719775390625,0.9937388093728536,0.07763671875,0.19287109375,-0.26123046875,41.565294117647056,171.33070268529062
-0.2105498046875,0.0166279296875,0.9724658203125,0.99513691519092,0.05859375,0.18603515625,-0.28662109375,42.13,171.33070268529062
-0.2154326171875,0.0171162109375,0.9739306640625,0.9976197249585312,0.0546875,0.21875,-0.27734375,41.565294117647056,171.33070268529062
-0.2198271484375,0.0141865234375,0.9832080078125,1.0075828597510137,0.0439453125,0.232421875,-0.26171875,41.7064705882353,171.05474313547032
-0.2129912109375,0.0219990234375,0.9856494140625,1.0086396682713683,0.0771484375,0.24609375,-0.24169921875,41.75352941176471,171.05474313547032
-0.2032255859375,0.0244404296875,0.9812548828125,1.0023767347790566,0.041015625,0.28076171875,-0.3115234375,41.61235294117647,171.05474313547032
-0.2066435546875,0.0263935546875,0.9710009765625,0.9930967097459624,0.04248046875,0.3193359375,-0.31884765625,41.7064705882353,171.05474313547032
-0.2090849609375,0.0327412109375,0.9749072265625,0.997613456298418,0.048828125,0.31640625,-0.2939453125,41.37705882352941,171.05474313547032
-0.2066435546875,0.0317646484375,0.9744189453125,0.9965956213872148,0.06884765625,0.30224609375,-0.298828125,41.565294117647056,171.31719136541057
-0.2066435546875,0.0259052734375,0.9836962890625,1.0055003883644655,0.0673828125,0.3193359375,-0.31103515625,41.61235294117647,171.31719136541057
-0.2066435546875,0.0190693359375,0.9900439453125,1.0115592972816392,0.08544921875,0.32080078125,-0.2890625,41.61235294117647,171.31719136541057
-0.2095732421875,0.0132099609375,0.9954150390625,1.0173232263645362,0.08056640625,0.3369140625,-0.2822265625,41.7064705882353,171.31719136541057
-0.2042021484375,0.0029560546875,0.9973681640625,1.018062134828326,0.08642578125,0.384765625,-0.259765625,41.7064705882353,171.19150712437855
-0.2037138671875,0.0010029296875,0.9910205078125,1.011742058262574,0.08935546875,0.4541015625,-0.208984375,41.565294117647056,171.19150712437855
-0.2007841796875,0.0029560546875,0.9905322265625,1.0106815111255183,0.083984375,0.521484375,-0.16650390625,41.565294117647056,171.19150712437855
-0.1998076171875,-0.0043681640624999,0.9876025390625,1.0076214268792223,0.05810546875,0.50830078125,-0.10986328125,41.04764705882353,171.19150712437855
-0.1973662109375,0.0063740234375,0.9714892578125,0.9913553487219856,0.0556640625,0.44921875,-0.099609375,41.75352941176471,171.19150712437855
-0.2095732421875,0.0034443359375,0.9793017578125,1.0014812729880092,0.06494140625,0.43115234375,-0.0400390625,41.61235294117647,171.01041834572231
-0.2076201171875,0.0053974609375,0.9739306640625,0.9958293950505506,0.06591796875,0.37841796875,-0.02587890625,41.37705882352941,171.01041834572231
-0.2061552734375,0.0073505859375,0.9661181640625,0.9878959129438742,0.0478515625,0.3623046875,-0.04248046875,41.565294117647056,171.01041834572231
-0.2105498046875,0.0053974609375,0.9670947265625,0.9897638925438292,0.0126953125,0.3134765625,-0.087890625,41.75352941176471,171.01041834572231
-0.2183623046875,0.0102802734375,0.9783251953125,1.0024509803045871,-0.0380859375,0.314453125,-0.06982421875,41.75352941176471,171.18907695052312
-0.2217802734375,0.0117451171875,0.9856494140625,1.0103609280378525,-0.00830078125,0.44873046875,0.01318359375,41.37705882352941,171.18907695052312
-0.2100615234375,0.0078388671875,0.9783251953125,1.000653526077287,0.02294921875,0.63818359375,0.03271484375,41.7064705882353,171.18907695052312
-0.1983427734375,-0.0038798828124999,0.9666064453125,0.986753732896504,0.0693359375,0.7177734375,0.03125,41.14176470588235,171.18907695052312
-0.2051787109375,-0.0033916015624999,0.9675830078125,0.9891039800701528,0.02880859375,0.564453125,0.03466796875,41.47117647058823,171.18907695052312
-0.2168974609375,0.0049091796875,0.9627001953125,0.9868435917920652,-0.015625,0.38671875,0.05615234375,41.565294117647056,170.80960002137255
-0.2325224609375,-0.0019267578124999,0.9758837890625,1.0032046535932144,-0.0009765625,0.3291015625,0.08740234375,41.565294117647056,170.80960002137255
-0.2178740234375,-0.0014384765624999,0.9876025390625,1.011350549743442,-0.02880859375,0.43017578125,0.12841796875,41.7064705882353,170.80960002137255
-0.2129912109375,0.0034443359375,0.9846728515625,1.0074511124570251,-0.04931640625,0.54443359375,0.17333984375,41.565294117647056,170.80960002137255
-0.2115263671875,0.0019794921875,0.9856494140625,1.0080932942176588,-0.033203125,0.5966796875,0.26220703125,41.42411764705882,171.33449476909612
-0.2056669921875,0.0102802734375,0.9710009765625,0.9925963389932142,-0.0068359375,0.57763671875,0.34716796875,41.37705882352941,171.33449476909612
-0.2105498046875,0.0073505859375,0.9636767578125,0.9864370962791196,0.01953125,0.498046875,0.4033203125,41.61235294117647,171.33449476909612
-0.2076201171875,0.0097919921875,0.9558642578125,0.978201653819596,0.0263671875,0.41064453125,0.4072265625,41.47117647058823,171.33449476909612
-0.2095732421875,0.0171162109375,0.9641650390625,0.9868273055951734,0.03857421875,0.34423828125,0.39013671875,41.7064705882353,171.33449476909612
-0.2066435546875,0.0073505859375,0.9539111328125,0.9760645670810604,0.02685546875,0.25341796875,0.36279296875,41.42411764705882,171.20258835397448
-0.2081083984375,0.0176044921875,0.9690478515625,0.991298523283122,0.0009765625,0.23388671875,0.29736328125,41.37705882352941,171.20258835397448
-0.2120146484375,0.0146748046875,0.9666064453125,0.9896936804710638,-0.0302734375,0.25537109375,0.20947265625,41.37705882352941,171.20258835397448
-0.2100615234375,0.0127216796875,0.9651416015625,0.9878188071856004,-0.05615234375,0.31005859375,0.181640625,41.37705882352941,171.20258835397448
-0.2105498046875,0.0151630859375,0.9646533203125,0.9874802113556622,-0.05615234375,0.33154296875,0.16162109375,41.61235294117647,171.30368061666266
-0.2007841796875,0.0141865234375,0.9710009765625,0.9916443116084284,-0.04833984375,0.36962890625,0.16162109375,41.565294117647056,171.30368061666266
-0.1959013671875,0.0127216796875,0.9661181640625,0.9858618025522132,-0.06103515625,0.39111328125,0.185546875,41.42411764705882,171.30368061666266
-0.1929716796875,0.0132099609375,0.9666064453125,0.9857690360064332,-0.08447265625,0.35986328125,0.1826171875,41.61235294117647,171.30368061666266
-0.2002958984375,0.0107685546875,0.9700244140625,0.9905461991135192,-0.0849609375,0.3623046875,0.18115234375,41.47117647058823,171.30368061666266
-0.2051787109375,0.0063740234375,0.9778369140625,0.9991516211767006,-0.083984375,0.34765625,0.1787109375,41.565294117647056,171.0917766880593
-0.2085966796875,0.0102802734375,0.9846728515625,1.006577807922877,-0.06982421875,0.44921875,0.1796875,41.565294117647056,171.0917766880593
-0.2144560546875,0.0019794921875,0.9905322265625,1.0134837984103704,-0.07763671875,0.5087890625,0.26123046875,41.75352941176471,171.0917766880593
-0.2173857421875,-0.0009501953124999,0.9856494140625,1.009337520960799,-0.05078125,0.5732421875,0.31201171875,41.61235294117647,171.0917766880593
-0.2173857421875,-0.0033916015624999,0.9734423828125,0.9974257548926873,-0.0947265625,0.58837890625,0.365234375,42.36529411764706,171.2371940878903
-0.2212919921875,0.0039326171875,0.9734423828125,0.9982863737124402,-0.1015625,0.56103515625,0.41259765625,41.37705882352941,171.2371940878903
-0.2188505859375,-0.0009501953124999,0.9749072265625,0.9991699466257504,-0.10791015625,0.55517578125,0.43017578125,41.61235294117647,171.2371940878903
-0.2198271484375,-0.0014384765624999,0.9763720703125,1.0008139008283714,-0.1123046875,0.6318359375,0.421875,41.42411764705882,171.2371940878903
-0.2183623046875,0.0005146484375,0.9661181640625,0.9904880957906292,-0.15234375,0.65283203125,0.35986328125,41.75352941176471,171.2371940878903
-0.2217802734375,0.0029560546875,0.9617236328125,0.9869688819083406,-0.14208984375,0.60595703125,0.34814453125,41.80058823529412,171.34071846312227
-0.2305693359375,0.0024677734375,0.9534228515625,0.9809094975898478,-0.1572265625,0.576171875,0.37841796875,41.37705882352941,171.34071846312227
-0.2388701171875,0.0083271484375,0.9592822265625,0.9886104715634858,-0.15185546875,0.5078125,0.36328125,41.7064705882353,171.34071846312227
-0.2378935546875,0.0122333984375,0.9587939453125,0.9879417133450203,-0.14697265625,0.470703125,0.3466796875,41.61235294117647,171.34071846312227
-0.2393583984375,0.0073505859375,0.9710009765625,1.0000946807685351,-0.158203125,0.45068359375,0.34619140625,41.7064705882353,171.12502004082037
-0.2461943359375,0.0044208984375,0.9675830078125,0.9984227924071976,-0.15087890625,0.4697265625,0.36328125,41.7064705882353,171.12502004082037
-0.2505888671875,0.0097919921875,0.9690478515625,1.0009717289150637,-0.13623046875,0.4951171875,0.3935546875,41.565294117647056,171.12502004082037
-0.2496123046875,0.0088154296875,0.9714892578125,1.0030829439767497,-0.12744140625,0.537109375,0.3955078125,41.42411764705882,171.12502004082037
-0.2481474609375,0.0044208984375,0.9783251953125,1.0093150620574154,-0.12841796875,0.58740234375,0.4072265625,41.7064705882353,171.12502004082037
-0.2432646484375,0.0039326171875,0.9822314453125,1.0119149009763848,-0.11376953125,0.63623046875,0.4287109375,41.37705882352941,170.98339585923284
-0.2427763671875,0.0078388671875,0.9919970703125,1.0213030891033896,-0.080078125,0.7216796875,0.46240234375,41.75352941176471,170.98339585923284
-0.2354521484375,0.0078388671875,0.9783251953125,1.006289893532604,-0.08154296875,0.73681640625,0.51171875,41.565294117647056,170.98339585923284
-0.2369169921875,0.0078388671875,0.9817431640625,1.0099558154738275,-0.07763671875,0.779296875,0.50634765625,41.47117647058823,170.98339585923284
-0.2349638671875,0.0039326171875,0.9788134765625,1.006627689993682,-0.0712890625,0.8046875,0.53466796875,41.565294117647056,171.173136873727
-0.2354521484375,0.0078388671875,0.9832080078125,1.0110376593724109,-0.03125,0.923828125,0.51416015625,41.565294117647056,171.173136873727
-0.2349638671875,0.0053974609375,0.9685595703125,0.9966668413829226,-0.03125,1.05126953125,0.466796875,42.17705882352941,171.173136873727
-0.2330107421875,0.0029560546875,0.9778369140625,1.0052202618020385,-0.01806640625,1.0986328125,0.43505859375,41.75352941176471,171.173136873727
-0.2393583984375,-0.0024150390624999,0.9719775390625,1.0010187869157263,0.01806640625,1.193359375,0.44189453125,41.42411764705882,171.173136873727
-0.2291044921875,-0.0029033203124999,0.9495166015625,0.9767697140330104,-0.0068359375,1.09130859375,0.49169921875,41.42411764705882,171.0474524137243
-0.2286162109375,0.0034443359375,0.9475634765625,0.974758317465761,-0.0146484375,0.92236328125,0.453125,41.42411764705882,171.0474524137243
-0.2359404296875,0.0083271484375,0.9602587890625,0.9888549791218132,-0.02880859375,0.9169921875,0.392578125,41.28294117647059,171.0474524137243
-0.2378935546875,0.0136982421875,0.9729541015625,1.0017088743483178,-0.0166015625,0.91064453125,0.37646484375,41.47117647058823,171.0474524137243
-0.2457060546875,0.0176044921875,0.9729541015625,1.0036538582611876,0.0244140625,0.9599609375,0.359375,41.7064705882353,170.9920473858238
-0.2339873046875,0.0161396484375,0.9509814453125,0.9794775425374788,-0.12255859375,0.84765625,0.31201171875,41.7064705882353,170.9920473858238
-0.2413115234375,0.0185810546875,0.9690478515625,0.9988144199774672,0.03857421875,0.8720703125,0.23876953125,41.565294117647056,170.9920473858238
-0.2486357421875,0.0132099609375,0.9509814453125,0.9830360851412072,-0.04443359375,0.796875,0.26318359375,41.565294117647056,170.9920473858238
-0.2471708984375,0.0219990234375,0.9724658203125,1.0036270132587446,-0.1240234375,0.8232421875,0.2783203125,41.565294117647056,170.9920473858238
-0.2388701171875,0.0044208984375,0.9700244140625,0.9990124329083504,0.04833984375,0.96728515625,0.28271484375,41.61235294117647,171.0031283634071
-0.2364287109375,0.0034443359375,0.9631884765625,0.9917874974955108,0.00439453125,1.1103515625,0.2763671875,41.565294117647056,171.0031283634071
-0.2505888671875,-0.0068095703124999,0.9368212890625,0.9697810465496218,0.0634765625,1.0263671875,0.3046875,41.565294117647056,171.0031283634071
-0.2471708984375,0.0068623046875,0.9251025390625,0.9575778046926052,-0.01025390625,0.5283203125,0.2236328125,41.61235294117647,171.0031283634071
