AccX,AccY,AccZ,Magnitude,GyroX,GyroY,GyroZ,Temperature,Altitude
-0.1812529296875,-0.1117900390625,0.9329150390625,0.9569117553164884,-0.39990234375,0.70654296875,2.46484375,43.25941176470588,169.03093878700523
-0.1983427734375,-0.1122783203125,0.9241259765625,0.9518167352724316,-0.4619140625,0.4130859375,2.4814453125,42.69470588235294,169.03093878700523
-0.1993193359375,-0.1069072265625,0.9431689453125,0.9699097958943116,-0.41552734375,0.2939453125,2.357421875,42.60058823529412,169.03093878700523
-0.2144560546875,-0.1181376953125,0.9617236328125,0.9924012597512912,-0.3369140625,0.3271484375,2.3955078125,43.25941176470588,169.03093878700523
-0.2178740234375,-0.1210673828125,0.9788134765625,1.0100506042621231,-0.26025390625,0.5263671875,2.482421875,43.16529411764706,169.1374124303658
-0.2085966796875,-0.1088603515625,0.9866259765625,1.0142948134279637,-0.20068359375,0.55322265625,2.60205078125,43.16529411764706,169.1374124303658
-0.1949248046875,-0.0932353515625,0.9963916015625,1.0195512414428844,-0.091796875,0.5185546875,2.56005859375,44.01235294117648,169.1374124303658
-0.2012724609375,-0.0981181640625,0.9836962890625,1.0088588438261157,-0.02587890625,0.7802734375,2.4111328125,42.60058823529412,169.1374124303658
-0.2227568359375,-0.0947001953125,0.9675830078125,0.9973994244817852,0.04833984375,1.1201171875,2.375,43.02411764705882,169.1862021511336
-0.2168974609375,-0.0829814453125,0.9627001953125,0.9903141394941362,0.17578125,1.109375,2.64013671875,42.60058823529412,169.1862021511336
-0.1915068359375,-0.0834697265625,0.9402392578125,0.963167651759034,0.2783203125,0.70556640625,2.65087890625,43.777058823529416,169.1862021511336
-0.1993193359375,-0.0780986328125,0.9246142578125,0.9490727684829589,0.35302734375,0.38427734375,2.5263671875,43.118235294117646,169.1862021511336
-0.2017607421875,-0.0751689453125,0.9207080078125,0.9455479908907358,0.37109375,0.1767578125,2.32177734375,43.118235294117646,169.1862021511336
-0.2056669921875,-0.0629619140625,0.9436572265625,0.9678595329599726,0.44482421875,0.16357421875,2.095703125,43.25941176470588,169.05160008553918
-0.2227568359375,-0.0639384765625,0.9627001953125,0.9902022029852012,0.55712890625,0.4306640625,1.99365234375,43.87117647058824,169.05160008553918
-0.2295927734375,-0.0507548828125,0.9797900390625,1.0076097560018606,0.685546875,0.74072265625,1.857421875,43.87117647058824,169.05160008553918
-0.2408232421875,-0.0439189453125,0.9915087890625,1.0212807579325318,0.82177734375,1.05810546875,1.68798828125,43.25941176470588,169.05160008553918
-0.2427763671875,-0.0434306640625,1.0149462890625005,1.0444819561521443,0.90283203125,1.484375,1.47314453125,42.60058823529412,169.36570211467924
-0.2398466796875,-0.0409892578125,1.0203173828125005,1.048929983689325,0.94873046875,1.97509765625,1.36328125,43.25941176470588,169.36570211467924
-0.2232451171875,-0.0375712890625,1.0095751953125005,1.034645861684157,0.94384765625,2.3623046875,1.35400390625,43.87117647058824,169.36570211467924
-0.1709990234375,-0.0224345703125,0.9553759765625,0.970817816356105,0.86474609375,2.330078125,1.44189453125,43.16529411764706,169.36570211467924
-0.1612333984375,-0.0263408203125,0.9065478515625,0.9211509402693056,0.85205078125,1.8583984375,1.3154296875,42.97705882352941,169.36570211467924
-0.1714873046875,-0.0361064453125,0.8811572265625001,0.8984150649813287,0.8251953125,1.1142578125,1.0693359375,43.353529411764704,169.3504002112399
-0.1998076171875,-0.0302470703125,0.9011767578125,0.9235569922696084,0.66259765625,0.34716796875,0.970703125,42.97705882352941,169.3504002112399
-0.2422880859375,-0.0492900390625,0.9377978515625,0.969844232303972,0.65673828125,0.10986328125,0.8974609375,43.87117647058824,169.3504002112399
-0.2627958984375,-0.0605205078125,0.9719775390625,1.0086945784247328,0.61083984375,0.21533203125,0.93798828125,43.25941176470588,169.3504002112399
-0.2745146484375,-0.0737041015625,1.0100634765625005,1.0492944360280505,0.5859375,0.552734375,1.03466796875,42.97705882352941,169.50745696313416
-0.2632841796875,-0.1088603515625,1.0237353515625005,1.0626397345548615,0.5693359375,0.82666015625,1.09716796875,44.01235294117648,169.50745696313416
-0.2554716796875,-0.1454814453125,1.0164111328125005,1.0580747709674192,0.53076171875,1.0048828125,1.232421875,43.58882352941177,169.50745696313416
-0.2471708984375,-0.1689189453125,0.9968798828125,1.040863374260115,0.359375,0.82568359375,1.57568359375,43.118235294117646,169.50745696313416
-0.2227568359375,-0.1620830078125,0.9832080078125,1.021072718274785,0.3193359375,0.4013671875,1.86181640625,42.69470588235294,169.50745696313416
-0.1622099609375,-0.1464580078125,0.9275439453125,0.952942700253079,0.09033203125,-0.49169921875,2.27685546875,43.447647058823534,169.47434115748075
-0.1172880859375,-0.1020244140625,0.8962939453125001,0.9096748389240662,-0.044921875,-1.18798828125,2.5009765625,42.69470588235294,169.47434115748075
-0.0875029296875,-0.0678447265625,0.9099658203125,0.9166774044140268,-0.21240234375,-1.45654296875,2.654296875,43.25941176470588,169.47434115748075
-0.0816435546875,-0.0365947265625,0.9207080078125,0.9250449068473692,-0.44580078125,-1.5283203125,2.4873046875,44.01235294117648,169.47434115748075
-0.1021513671875,-0.0185283203125,0.9055712890625,0.9115029128018166,-0.646484375,-1.35400390625,2.322265625,43.118235294117646,169.3019848001936
-0.0674833984375,0.0024677734375,0.9099658203125,0.9124680230602136,-0.7509765625,-1.0810546875,2.0751953125,43.30647058823529,169.3019848001936
-0.0210966796875,0.0073505859375,0.9304736328125,0.9307417914581642,-0.72900390625,-0.79296875,1.7587890625,43.87117647058824,169.3019848001936
0.0228486328125,-0.0014384765624999,0.9495166015625,0.9497925593933766,-0.74267578125,-0.62060546875,1.54736328125,44.01235294117648,169.3019848001936
0.0213837890625,0.0122333984375,0.9519580078125,0.952276730320732,-0.81884765625,-0.4921875,1.5048828125,42.93,169.3019848001936
0.0204072265625,0.0307880859375,0.9778369140625,0.9785343078476816,-0.83544921875,-0.3056640625,1.525390625,42.60058823529412,169.7863347454236
-0.0240263671875,0.0644794921875,0.9744189453125,0.9768455109263242,-0.85009765625,-0.33984375,1.5419921875,42.97705882352941,169.7863347454236
-0.0450224609375,0.0942646484375,0.9836962890625,0.989227595171732,-0.8369140625,-0.65380859375,1.49853515625,43.25941176470588,169.7863347454236
-0.0772490234375,0.1123310546875,0.9705126953125,0.980041105888925,-0.86474609375,-1.18603515625,1.083984375,43.02411764705882,169.7863347454236
-0.1490263671875,0.1318623046875,1.0261767578125005,1.0452919514610153,-0.7958984375,-1.751953125,0.6650390625,42.60058823529412,169.75321946761883
-0.2276396484375,0.0781513671875,1.0281298828125005,1.0559254242919192,-0.58642578125,-1.38427734375,0.4638671875,43.25941176470588,169.75321946761883
-0.2388701171875,0.0581318359375,1.0095751953125005,1.039076666192109,-0.72705078125,-1.55517578125,0.2890625,44.01235294117648,169.75321946761883
-0.2291044921875,0.0073505859375,0.9788134765625,1.0052953403624652,-0.5703125,-1.7353515625,0.3466796875,43.25941176470588,169.75321946761883
-0.2544951171875,-0.0077861328124999,0.9939501953125,1.0260435562383354,-0.4150390625,-1.6494140625,0.6220703125,43.25941176470588,169.75321946761883
-0.1817412109375,-0.0204814453125,0.9104541015625,0.9286420345898072,-0.5732421875,-2.0185546875,0.7802734375,43.16529411764706,169.52101598484282
-0.2300810546875,0.0576435546875,1.0056689453125005,1.033261873238861,-0.1875,-1.8974609375,0.9033203125,43.30647058823529,169.52101598484282
-0.1861357421875,0.0835224609375,0.9377978515625,0.959732945353023,-0.16162109375,-1.5478515625,0.88232421875,42.93,169.52101598484282
-0.1075224609375,0.1328388671875,0.9070361328125,0.9229960945037468,-0.11279296875,-1.57421875,0.52490234375,42.93,169.52101598484282
-0.0977568359375,0.1552998046875,0.9280322265625,0.9460011849078406,0.0029296875,-1.484375,0.1201171875,43.49470588235295,169.78420690220705
-0.0914091796875,0.1264912109375,0.9587939453125,0.9714121134428406,0.0712890625,-1.12890625,-0.44287109375,42.93,169.78420690220705
-0.0884794921875,0.0825458984375,0.9607470703125,0.9683374303416468,0.10791015625,-0.8916015625,-0.82763671875,42.93,169.78420690220705
-0.1011748046875,0.0224873046875,0.9680712890625,0.9736036363340026,0.11962890625,-0.75830078125,-0.9873046875,43.777058823529416,169.78420690220705
-0.0982451171875,-0.0151103515624999,0.9978564453125,1.0027950494628632,0.11962890625,-0.81005859375,-0.990234375,43.16529411764706,169.78420690220705
-0.0440458984375,-0.0370830078125,1.0393603515625005,1.0409539524098617,0.255859375,-1.23388671875,-0.95166015625,43.25941176470588,169.50997758687322
0.0018525390625,-0.0512431640625,1.0686572265625005,1.0698867050526282,0.318359375,-1.2353515625,-1.10498046875,43.30647058823529,169.50997758687322
-0.0328154296875,-0.0815166015625,1.0588916015625005,1.062531520763253,0.044921875,-1.1005859375,-1.095703125,43.353529411764704,169.50997758687322
0.0125947265625,-0.0654033203125,1.0813525390625005,1.0834018345849337,-0.1337890625,-1.49609375,-1.017578125,43.91823529411765,169.50997758687322
0.0282197265625,-0.0468486328125,1.0901416015625005,1.0915126471190866,-0.181640625,-1.986328125,-0.96923828125,43.87117647058824,169.45691434956504
0.0663056640625,-0.0497783203125,1.1008837890625005,1.10400155764406,-0.26611328125,-2.53515625,-0.931640625,42.55352941176471,169.45691434956504
0.0785126953125,-0.0541728515625,1.0916064453125005,1.0957662034482716,-0.4306640625,-2.3369140625,-1.22412109375,43.777058823529416,169.45691434956504
0.0409150390625,-0.0737041015625,1.0920947265625005,1.095343428699074,-0.63134765625,-1.90869140625,-1.33642578125,42.55352941176471,169.45691434956504
-0.0162138671875,-0.0707744140625,1.0696337890625005,1.0720953082069082,-0.783203125,-1.16064453125,-1.17822265625,43.16529411764706,169.45691434956504
-0.0752958984375,-0.0551494140625,1.0349658203125005,1.0391656169293102,-0.8193359375,-0.5751953125,-0.83984375,43.118235294117646,169.56304099297688
-0.1084990234375,-0.0209697265625,1.0115283203125005,1.0175467116124082,-0.7373046875,-0.30419921875,-0.572265625,42.69470588235294,169.56304099297688
-0.1197294921875,0.0058857421875,0.9851611328125,0.9924274537037872,-0.6259765625,-0.1826171875,-0.48583984375,42.97705882352941,169.56304099297688
-0.1280302734375,0.0283466796875,0.9959033203125,1.0044992327400002,-0.54296875,0.0244140625,-0.47705078125,43.353529411764704,169.56304099297688
-0.1016630859375,0.0537373046875,1.0271533203125005,1.033570038452357,-0.4541015625,0.38134765625,-0.49365234375,43.25941176470588,169.3618267541777
-0.0503935546875,0.0591083984375,1.0295947265625005,1.0325205150916847,-0.3603515625,0.802734375,-0.58154296875,42.97705882352941,169.3618267541777
-0.0108427734375,0.0659443359375,1.0110400390625005,1.0132463578841806,-0.24609375,1.12890625,-0.64453125,43.25941176470588,169.3618267541777
0.0101533203125,0.0625263671875,0.9788134765625,0.980861080075768,-0.2529296875,1.076171875,-0.64892578125,43.87117647058824,169.3618267541777
0.0282197265625,0.0737568359375,0.9690478515625,0.972260336757944,-0.3134765625,0.63037109375,-0.76904296875,43.353529411764704,169.3618267541777
0.0189423828125,0.0605732421875,0.9851611328125,0.9872033170224508,-0.37744140625,0.18701171875,-0.953125,42.55352941176471,169.47008177778957
0.0028291015625,0.0293232421875,1.0022509765625005,1.00268383669456,-0.43212890625,0.060546875,-0.97998046875,43.118235294117646,169.47008177778957
-0.0098662109375,-0.0063212890624999,0.9998095703125,0.999878231437279,-0.45068359375,0.234375,-0.99609375,43.118235294117646,169.47008177778957
-0.0430693359375,-0.0424541015625,0.9768603515625,0.9787305374271243,-0.48486328125,0.46923828125,-1.09130859375,43.118235294117646,169.47008177778957
-0.0718779296875,-0.0634501953125,0.9617236328125,0.9664909259643508,-0.658203125,0.19775390625,-1.06591796875,43.25941176470588,169.39494195642936
-0.0923857421875,-0.0624736328125,0.9602587890625,0.966713516057423,-0.81396484375,-0.3076171875,-0.9912109375,43.25941176470588,169.39494195642936
-0.1216826171875,-0.0561259765625,0.9788134765625,0.987943625148248,-0.9013671875,-0.7138671875,-0.81787109375,42.55352941176471,169.39494195642936
-0.1334013671875,-0.0678447265625,1.0100634765625005,1.0210911116914885,-0.90673828125,-1.0546875,-0.61572265625,43.118235294117646,169.39494195642936
-0.1187529296875,-0.0903056640625,1.0491259765625005,1.0596804640878086,-0.8564453125,-1.001953125,-0.470703125,43.02411764705882,169.39494195642936
-0.0928740234375,-0.0986064453125,1.0710986328125005,1.0796300739139513,-0.767578125,-0.63525390625,-0.3662109375,43.02411764705882,169.38177456056297
-0.0684599609375,-0.0912822265625,1.0559619140625005,1.0621086456141438,-0.63623046875,0.01416015625,-0.388671875,43.118235294117646,169.38177456056297
-0.0523466796875,-0.0780986328125,1.0378955078125005,1.0421452185078888,-0.546875,0.33349609375,-0.3369140625,42.97705882352941,169.38177456056297
-0.0245146484375,-0.0693095703125,1.0183642578125005,1.021014469101649,-0.4951171875,0.2158203125,-0.23046875,42.97705882352941,169.38177456056297
0.0067353515625,-0.0483134765625,1.0276416015625005,1.028798725815777,-0.4501953125,-0.01416015625,-0.1904296875,43.91823529411765,169.49002956023335
0.0277314453125,-0.0468486328125,1.0339892578125005,1.0354214662286878,-0.47705078125,-0.29248046875,-0.18798828125,44.01235294117648,169.49002956023335
0.0233369140625,-0.0473369140625,1.0378955078125005,1.0392364890285026,-0.45947265625,-0.48486328125,-0.1513671875,43.30647058823529,169.49002956023335
0.0345673828125,-0.0595439453125,1.0603564453125005,1.062589373414606,-0.4365234375,-0.638671875,-0.1064453125,43.25941176470588,169.49002956023335
0.0389619140625,-0.0780986328125,1.0754931640625005,1.079028717476863,-0.3818359375,-0.68896484375,0.00439453125,43.16529411764706,169.49002956023335
0.0096650390625,-0.0986064453125,1.0549853515625005,1.059627640281575,-0.2509765625,-0.53271484375,0.109375,43.30647058823529,169.42379926460544
0.0003876953125,-0.1205791015625,1.0310595703125005,1.0380863680707269,-0.3740234375,-0.4345703125,0.294921875,43.16529411764706,169.42379926460544
-0.0044951171875,-0.1366923828125,1.0095751953125005,1.018796882890678,-0.29296875,-0.58349609375,0.3466796875,42.69470588235294,169.42379926460544
-0.0279326171875,-0.1606181640625,0.9959033203125,1.0091589811021917,-0.2421875,-0.6806640625,0.4208984375,44.01235294117648,169.42379926460544
-0.0459990234375,-0.1738017578125,0.9793017578125,0.9956680641813168,-0.21142578125,-0.58251953125,0.541015625,43.777058823529416,169.44587597394312
-0.0557646484375,-0.1781962890625,0.9714892578125,0.98926992853118,-0.24609375,-0.392578125,0.73095703125,43.91823529411765,169.44587597394312
-0.0484404296875,-0.1796611328125,0.9812548828125,0.9987420802765616,-0.2998046875,-0.20703125,0.89697265625,42.69470588235294,169.44587597394312
-0.0459990234375,-0.1674541015625,0.9710009765625,0.9864074628532756,-0.3359375,0.01220703125,1.123046875,43.353529411764704,169.44587597394312
-0.0367216796875,-0.1366923828125,0.9509814453125,0.9614567065690904,-0.39306640625,0.142578125,1.3046875,43.118235294117646,169.44587597394312
-0.0210966796875,-0.1069072265625,0.9392626953125,0.9455626027877928,-0.416015625,0.041015625,1.3388671875,43.16529411764706,169.4747342449381
-0.0035185546874999,-0.1176494140625,0.9260791015625,0.9335289321746518,-0.486328125,-0.07958984375,1.25927734375,42.55352941176471,169.4747342449381
-0.0215849609375,-0.1103251953125,0.9465869140625,0.9532388709729483,-0.50537109375,-0.2900390625,1.26220703125,43.353529411764704,169.4747342449381
-0.0372099609375,-0.1259501953125,0.9915087890625,1.0001688415864656,-0.505859375,-0.423828125,1.2861328125,43.16529411764706,169.4747342449381
-0.0464873046875,-0.1532939453125,1.0320361328125005,1.044393930754656,-0.4658203125,-0.3525390625,1.38134765625,43.02411764705882,169.2977256504674
-0.0469755859375,-0.1718486328125,1.0803759765625005,1.0949661679737293,-0.42724609375,0.029296875,1.501953125,43.30647058823529,169.2977256504674
-0.0582060546875,-0.2001689453125,1.0867236328125005,1.106536852338412,-0.35498046875,0.44970703125,2.0087890625,42.69470588235294,169.2977256504674
-0.0391630859375,-0.2187236328125,1.0872119140625005,1.1096862263407126,-0.26611328125,0.6787109375,2.3388671875,43.353529411764704,169.2977256504674
-0.0274443359375,-0.2236064453125,1.0696337890625005,1.0931008538394542,-0.1455078125,0.7822265625,2.6005859375,43.68294117647059,169.2977256504674
-0.0474638671875,-0.2187236328125,1.0354541015625005,1.0593668121485091,-0.150390625,0.7060546875,2.92626953125,43.118235294117646,169.2777781983982
-0.0660185546875,-0.1845439453125,1.0315478515625005,1.0500028035094666,-0.1826171875,0.400390625,3.1240234375,43.91823529411765,169.2777781983982
-0.0674833984375,-0.1352275390625,1.0335009765625005,1.0444925873079312,-0.16943359375,0.1982421875,3.1123046875,43.87117647058824,169.2777781983982
-0.0709013671875,-0.1030009765625,1.0388720703125005,1.0463705765727866,-0.15966796875,0.36474609375,2.9521484375,42.60058823529412,169.2777781983982
-0.0586943359375,-0.0741923828125,1.0383837890625005,1.0426842418135682,-0.2265625,0.57421875,2.89111328125,42.69470588235294,169.3618267541777
-0.0264677734375,-0.0566142578125,1.0271533203125005,1.0290527977938706,-0.31201171875,0.6474609375,2.8046875,42.69470588235294,169.3618267541777
0.0428681640625,-0.0453837890625,1.0276416015625005,1.0295361232427445,-0.34423828125,0.662109375,2.62109375,43.118235294117646,169.3618267541777
0.1190400390625,-0.0434306640625,1.0022509765625005,1.0102295647531787,-0.45751953125,0.6669921875,2.07421875,43.25941176470588,169.3618267541777
0.1268525390625,0.0166279296875,0.9563525390625,0.9648721333335244,-0.6005859375,0.82568359375,2.015625,43.16529411764706,169.3618267541777
0.1063447265625,0.1855732421875,0.8728564453125001,0.8986795887340531,-0.65576171875,0.26708984375,2.38818359375,43.118235294117646,169.2225864181795
0.1488251953125,0.3926044921875,0.8503955078125001,0.948398516317528,-0.47900390625,-1.70654296875,1.91259765625,42.55352941176471,169.2225864181795
0.2508759765625,0.4927021484375,0.9031298828125,1.058932362297062,-0.4296875,-3.978515625,0.35205078125,42.55352941176471,169.2225864181795
0.2962861328125,0.4658466796875,1.0754931640625005,1.2089185859345628,-0.3330078125,-5.0390625,-1.83837890625,42.60058823529412,169.2225864181795
0.2386689453125,0.3218037109375,1.2014697265625005,1.2665109544239626,-0.31591796875,-4.67626953125,-3.2373046875,43.16529411764706,169.22045749054772
0.0877900390625,0.1240498046875,1.2380908203125005,1.2473829902414422,-0.19873046875,-2.62841796875,-3.564453125,42.60058823529412,169.22045749054772
-0.0147490234375,-0.0185283203125,1.1931689453125005,1.1934039401661565,-0.05322265625,0.412109375,-3.33984375,43.25941176470588,169.22045749054772
-0.0201201171875,-0.1113017578125,1.0935595703125005,1.099393211835443,-0.04296875,3.0458984375,-3.2294921875,43.353529411764704,169.22045749054772
0.0160126953125,-0.1630595703125,1.0071337890625005,1.0203740975510194,-0.11083984375,3.99365234375,-3.43310546875,43.30647058823529,169.22045749054772
0.0282197265625,-0.1537822265625,0.9475634765625,0.9603758994732188,-0.1220703125,3.69775390625,-3.4970703125,43.16529411764706,169.6097213830828
0.0013642578125,-0.1679423828125,0.9309619140625,0.9459897412652174,-0.08056640625,2.93603515625,-3.44189453125,43.118235294117646,169.6097213830828
-0.0586943359375,-0.1894267578125,0.9504931640625,0.9709607492458396,-0.125,2.41650390625,-3.2890625,43.02411764705882,169.6097213830828
-0.1099638671875,-0.2026103515625,0.9934619140625,1.0198576279755112,-0.01416015625,2.17822265625,-2.8583984375,43.25941176470588,169.6097213830828
-0.1285185546875,-0.1669658203125,1.0627978515625005,1.0834822921199296,0.2294921875,2.02490234375,-2.48046875,44.01235294117648,169.54774657904568
-0.0972685546875,-0.1371806640625,1.1038134765625005,1.1165499977003346,0.568359375,1.89990234375,-2.24365234375,43.25941176470588,169.54774657904568
-0.0450224609375,-0.1132548828125,1.1160205078125005,1.1226555412626853,0.84814453125,1.70556640625,-2.30859375,43.25941176470588,169.54774657904568
0.0052705078125,-0.1166728515625,1.2122119140625005,1.2178251340563626,0.9541015625,1.23388671875,-2.3427734375,44.01235294117648,169.54774657904568
0.0370087890625,-0.1078837890625,1.0476611328125005,1.0538512284076562,0.87939453125,0.5146484375,-2.1689453125,42.60058823529412,169.54774657904568
0.0726533203125,-0.0649150390625,1.0037158203125005,1.0084333965089178,0.80078125,-0.33154296875,-2.17724609375,42.74176470588235,169.16061516307275
0.0936494140625,-0.0361064453125,0.9773486328125,0.982488798006276,0.626953125,-1.1513671875,-2.4970703125,42.55352941176471,169.16061516307275
0.0570283203125,-0.0043681640624999,0.9788134765625,0.9804831115706736,0.478515625,-1.689453125,-2.95068359375,42.60058823529412,169.16061516307275
-0.0269560546875,-0.0341533203125,1.0022509765625005,1.0031949452589808,0.4326171875,-1.52978515625,-3.0869140625,43.91823529411765,169.16061516307275
-0.0694365234375,-0.0595439453125,1.0212939453125005,1.0253819946451357,0.5205078125,-0.94970703125,-2.96875,42.60058823529412,169.2136774043529
-0.0557646484375,-0.0771220703125,1.0388720703125005,1.0432222621378555,0.50048828125,0.03515625,-2.8232421875,43.02411764705882,169.2136774043529
-0.0284208984375,-0.0756572265625,1.0530322265625005,1.0561290799794791,0.71826171875,1.27490234375,-2.703125,44.01235294117648,169.2136774043529
-0.0059599609375,-0.0697978515625,1.0569384765625005,1.0592573834792829,0.82177734375,2.53564453125,-2.59521484375,43.16529411764706,169.2136774043529
0.0189423828125,-0.0541728515625,1.0339892578125005,1.0355806569189447,0.90576171875,3.5478515625,-2.54345703125,43.25941176470588,169.2136774043529
0.0335908203125,-0.0414775390625,0.9900439453125,0.991481589897608,0.90625,4.30029296875,-2.69580078125,43.447647058823534,169.57195104859431
0.0345673828125,-0.0483134765625,1.0872119140625005,1.0888337072535488,0.78369140625,4.75634765625,-2.88232421875,43.777058823529416,169.57195104859431
0.0311494140625,-0.0453837890625,0.9509814453125,0.9525731906970498,0.64501953125,4.82763671875,-2.97021484375,43.16529411764706,169.57195104859431
0.0448212890625,-0.0492900390625,0.9500048828125,0.952338035191076,0.5556640625,4.494140625,-2.9951171875,42.55352941176471,169.57195104859431
0.0755830078125,-0.0541728515625,0.9680712890625,0.9725273824543592,0.494140625,3.90966796875,-3.0498046875,43.16529411764706,169.43270919214805
0.0887666015625,-0.0531962890625,0.9827197265625,0.988153538524278,0.4267578125,3.19482421875,-2.9775390625,42.69470588235294,169.43270919214805
0.0521455078125,-0.0458720703125,0.9905322265625,0.9929639936466188,0.3837890625,2.5859375,-2.6455078125,42.55352941176471,169.43270919214805
0.0350556640625,-0.0258525390625,0.9729541015625,0.973928609861181,0.33837890625,2.11767578125,-2.287109375,43.25941176470588,169.43270919214805
0.0272431640625,-0.0033916015624999,0.9607470703125,0.9611392334429736,0.1298828125,1.376953125,-2.1904296875,43.447647058823534,169.43270919214805
-0.0044951171875,0.0029560546875,0.9876025390625,0.9876171927931094,0.1572265625,0.671875,-1.8544921875,42.60058823529412,169.53883605577516
-0.0084013671875,-0.0058330078124999,1.0154345703125005,1.0154860774705343,0.1513671875,0.36181640625,-1.4677734375,43.353529411764704,169.53883605577516
-0.0171904296875,-0.0053447265624999,1.0159228515625005,1.0160823378554271,0.10498046875,0.3701171875,-1.1923828125,43.30647058823529,169.53883605577516
-0.0303740234375,-0.0165751953125,1.0095751953125005,1.0101680025568531,0.08984375,0.42822265625,-1.02880859375,43.02411764705882,169.53883605577516
-0.0284208984375,-0.0282939453125,1.0037158203125005,1.004516671218023,0.0712890625,0.33984375,-0.91943359375,42.60058823529412,169.4437474923497
-0.0474638671875,-0.0151103515624999,1.0061572265625005,1.0073894509953325,0.05029296875,0.42236328125,-0.765625,42.69470588235294,169.4437474923497
-0.0538115234375,0.0132099609375,1.0037158203125005,1.0052440654230346,0.08642578125,0.45947265625,-0.55126953125,43.02411764705882,169.4437474923497
-0.0621123046875,0.0429951171875,1.0022509765625005,1.00509379587979,0.13330078125,0.73193359375,-0.61181640625,43.30647058823529,169.4437474923497
-0.0665068359375,0.0683857421875,1.0017626953125005,1.006294324082531,0.01708984375,0.86083984375,-0.81982421875,43.30647058823529,169.4437474923497
-0.0577177734375,0.0976826171875,0.9978564453125,1.0042861746150251,-0.11474609375,0.92529296875,-1.06494140625,43.02411764705882,169.5609127036875
-0.0572294921875,0.1118427734375,0.9983447265625,1.0062187703483692,-0.18359375,1.076171875,-1.34814453125,42.60058823529412,169.5609127036875
-0.0381865234375,0.0996357421875,1.0017626953125005,1.0074293967386807,-0.22412109375,1.33251953125,-1.55322265625,42.55352941176471,169.5609127036875
-0.0323271484375,0.0742451171875,0.9880908203125,0.9914034754519044,-0.2763671875,1.474609375,-1.6787109375,43.16529411764706,169.5609127036875
-0.0401396484375,0.0688740234375,0.9910205078125,0.9942215393895372,-0.2626953125,1.529296875,-1.5966796875,43.87117647058824,169.32871167763474
-0.0210966796875,0.0825458984375,0.9973681640625,1.001000574389492,-0.1787109375,1.45556640625,-1.55859375,42.93,169.32871167763474
-0.0210966796875,0.0898701171875,0.9851611328125,0.9894767129455552,-0.0712890625,1.52978515625,-1.58642578125,43.777058823529416,169.32871167763474
-0.0337919921875,0.0942646484375,0.9778369140625,0.9829510431269296,-0.02099609375,1.705078125,-1.572265625,42.55352941176471,169.32871167763474
-0.0230498046875,0.0844990234375,0.9719775390625,0.9759158339221764,0.03955078125,1.82470703125,-1.51220703125,43.16529411764706,169.32871167763474
-0.0074248046875,0.0674091796875,0.9392626953125,0.9417077763491664,0.115234375,1.99365234375,-1.529296875,44.01235294117648,169.67595097493387
0.0062470703125,0.0478779296875,0.9260791015625,0.9273369529946802,0.12158203125,1.88916015625,-1.52099609375,43.16529411764706,169.67595097493387
0.0116181640625,0.0444599609375,0.9070361328125,0.9081994362970076,0.15234375,1.69287109375,-1.509765625,43.25941176470588,169.67595097493387
0.0145478515625,0.0395771484375,0.8943408203125001,0.8953342915027682,0.13818359375,1.3212890625,-1.4287109375,44.01235294117648,169.67595097493387
0.0101533203125,0.0542255859375,0.8723681640625001,0.8741108154881797,0.2060546875,0.85546875,-1.34765625,42.60058823529412,169.59189974080405
0.0023408203125,0.0815693359375,0.8884814453125001,0.8922210010247512,0.20947265625,0.423828125,-1.39453125,42.60058823529412,169.59189974080405
0.0023408203125,0.0996357421875,0.9055712890625,0.9110390332665816,0.19970703125,0.16015625,-1.57373046875,42.93,169.59189974080405
-0.0010771484374999,0.1059833984375,0.9280322265625,0.934065016222998,0.1884765625,0.09130859375,-1.71728515625,42.97705882352941,169.59189974080405
0.0023408203125,0.1054951171875,0.9485400390625,0.954391379306639,0.20849609375,0.11083984375,-1.79150390625,42.60058823529412,169.59189974080405
0.0150361328125,0.0869404296875,0.8406298828125001,0.8452474924432251,0.26806640625,0.06640625,-1.7734375,42.97705882352941,169.52779775276963
0.0204072265625,0.0674091796875,0.9773486328125,0.9798830555033484,0.38623046875,-0.08837890625,-1.73046875,43.30647058823529,169.52779775276963
0.0379853515625,0.0478779296875,0.9929736328125,0.9948526617270226,0.5224609375,-0.4033203125,-1.7109375,42.60058823529412,169.52779775276963
0.0433564453125,0.0268818359375,1.0364306640625005,1.0376853742163574,0.68310546875,-0.609375,-1.5703125,43.87117647058824,169.52779775276963
0.0404267578125,0.0010029296875,1.0779345703125005,1.0786928508569913,0.82373046875,-0.6875,-1.28173828125,43.30647058823529,169.68486199897805
0.0282197265625,-0.0317119140625,1.0896533203125005,1.0904798746097175,0.8984375,-0.7314453125,-0.94921875,43.91823529411765,169.68486199897805
0.0013642578125,-0.0697978515625,1.1082080078125005,1.1104046964336338,0.91064453125,-0.69970703125,-0.65869140625,43.777058823529416,169.68486199897805
-0.0240263671875,-0.1039775390625,1.0994189453125005,1.1045861724020325,0.83740234375,-0.70458984375,-0.4580078125,43.777058823529416,169.68486199897805
-0.0381865234375,-0.1322978515625,1.0911181640625005,1.0997726037901732,0.779296875,-1.14013671875,-0.3720703125,43.777058823529416,169.68486199897805
-0.0411162109375,-0.1723369140625,1.0906298828125005,1.104927190376837,0.6796875,-1.93701171875,-0.31689453125,43.25941176470588,169.5078491706995
-0.0767607421875,-0.1991923828125,1.0989306640625005,1.1194723852460788,0.63916015625,-2.50634765625,-0.28271484375,42.93,169.5078491706995
-0.1153349609375,-0.2348369140625,1.0969775390625005,1.127745649793637,0.509765625,-3.2626953125,0.0595703125,43.49470588235295,169.5078491706995
-0.1480498046875,-0.2465556640625,1.1072314453125005,1.1439711157359331,0.52099609375,-3.63818359375,0.42822265625,43.25941176470588,169.5078491706995
-0.1607451171875,-0.2509501953125,1.1165087890625005,1.1555980569734512,0.51806640625,-3.9208984375,0.62451171875,43.91823529411765,169.3618267541777
-0.1539091796875,-0.2553447265625,1.1389697265625005,1.1773448955175427,0.57861328125,-3.94580078125,0.666015625,43.118235294117646,169.3618267541777
-0.1460966796875,-0.2626689453125,1.1399462890625005,1.178904897179861,0.49755859375,-3.73583984375,0.65966796875,43.353529411764704,169.3618267541777
-0.1534208984375,-0.2543681640625,1.1467822265625005,1.1846310016733237,0.43701171875,-3.23486328125,0.7470703125,43.25941176470588,169.3618267541777
-0.1417021484375,-0.2504619140625,1.1487353515625005,1.1842312177936687,0.39453125,-2.7412109375,0.8291015625,43.25941176470588,169.3618267541777
-0.1309599609375,-0.2568095703125,1.1321337890625005,1.168258782594788,0.3662109375,-2.36474609375,0.80859375,43.16529411764706,169.54987437275108
-0.1207060546875,-0.2568095703125,1.1209033203125005,1.1562635342039893,0.22119140625,-2.0595703125,0.703125,43.118235294117646,169.54987437275108
-0.1207060546875,-0.2563212890625,1.1023486328125005,1.138175321788551,-0.0302734375,-1.837890625,0.548828125,43.118235294117646,169.54987437275108
-0.1226591796875,-0.2250712890625,1.0925830078125005,1.1222477393528023,-0.24560546875,-1.5791015625,0.3271484375,43.02411764705882,169.54987437275108
-0.1167998046875,-0.2060283203125,1.0872119140625005,1.112708231849335,-0.35546875,-1.20703125,0.052734375,43.25941176470588,169.25570144440945
-0.1124052734375,-0.2040751953125,1.0637744140625005,1.0889892721475314,-0.38818359375,-0.56982421875,-0.1787109375,42.69470588235294,169.25570144440945
-0.1124052734375,-0.2192119140625,1.0344775390625005,1.0634061254235423,-0.423828125,0.14501953125,-0.2490234375,43.16529411764706,169.25570144440945
-0.1084990234375,-0.2231181640625,0.9944384765625,1.0249203075797932,-0.36669921875,0.5302734375,0.15966796875,44.01235294117648,169.25570144440945
-0.0948271484375,-0.2436259765625,0.9509814453125,0.9862613821221384,-0.33154296875,0.4111328125,0.32080078125,44.01235294117648,169.25570144440945
-0.0787138671875,-0.2616923828125,0.9270556640625,0.9664941698634598,-0.298828125,-0.05615234375,0.2373046875,43.118235294117646,169.69802761728758
-0.0748076171875,-0.2724345703125,0.9260791015625,0.9682144788431102,-0.2802734375,-0.55322265625,0.1162109375,43.87117647058824,169.69802761728758
-0.0850615234375,-0.2753642578125,0.9587939453125,1.0011726958013023,-0.2470703125,-0.81103515625,0.12158203125,42.60058823529412,169.69802761728758
-0.1158232421875,-0.2626689453125,0.9973681640625,1.0378599389839689,-0.1884765625,-0.6435546875,0.091796875,43.25941176470588,169.69802761728758
-0.1539091796875,-0.2367900390625,1.0256884765625005,1.063858265533714,-0.16259765625,-0.14990234375,-0.06787109375,42.60058823529412,169.54096422216466
-0.1626982421875,-0.2177470703125,1.0398486328125005,1.0747882041605243,-0.16845703125,0.3623046875,-0.22802734375,42.69470588235294,169.54096422216466
-0.1553740234375,-0.2094462890625,1.0496142578125005,1.0815262018853242,-0.1728515625,0.81689453125,-0.291015625,42.60058823529412,169.54096422216466
-0.1363310546875,-0.2001689453125,1.0378955078125005,1.0657771100361897,-0.19921875,1.17236328125,-0.1923828125,43.91823529411765,169.54096422216466
-0.1084990234375,-0.1899150390625,1.0242236328125005,1.0473174352414063,-0.21142578125,1.3046875,-0.0517578125,43.777058823529416,169.54096422216466
-0.1001982421875,-0.1821025390625,0.9885791015625,1.010192883818033,-0.3134765625,1.169921875,-0.009765625,43.118235294117646,168.95727622349403
-0.0845732421875,-0.1757548828125,0.9656298828125,0.9851312007580634,-0.349609375,0.8134765625,-0.1025390625,43.02411764705882,168.95727622349403
-0.0850615234375,-0.1786845703125,0.9734423828125,0.9933547760457736,-0.38623046875,0.51904296875,-0.2998046875,43.118235294117646,168.95727622349403
-0.0909208984375,-0.1689189453125,0.9817431640625,1.00030988200738,-0.3837890625,0.25048828125,-0.57763671875,43.25941176470588,168.95727622349403
-0.1089873046875,-0.1601298828125,0.9827197265625,1.0016276119035783,-0.251953125,0.49462890625,-0.79296875,43.68294117647059,169.37964601354005
-0.1285185546875,-0.1401103515625,0.9968798828125,1.0148484765077963,-0.3544921875,0.87060546875,-0.8662109375,43.16529411764706,169.37964601354005
-0.1377958984375,-0.1322978515625,0.9949267578125,1.0130990497308463,-0.20263671875,1.44384765625,-0.92724609375,43.118235294117646,169.37964601354005
-0.1363310546875,-0.1386455078125,0.9666064453125,0.9859699556418844,-0.1357421875,2.05908203125,-0.88671875,43.118235294117646,169.37964601354005
-0.1348662109375,-0.1357158203125,0.9392626953125,0.9585520797230764,-0.10009765625,2.32666015625,-0.86083984375,42.55352941176471,169.37964601354005
-0.1285185546875,-0.1410869140625,0.9163134765625,0.9359769887922984,-0.041015625,2.2109375,-0.83251953125,44.01235294117648,169.2446630883657
-0.1231474609375,-0.1464580078125,0.8875048828125001,0.9078987620895784,-0.052734375,2.12353515625,-0.86279296875,43.16529411764706,169.2446630883657
-0.0987333984375,-0.1430400390625,0.9006884765625001,0.9173050030139904,0.0595703125,1.55810546875,-0.81298828125,42.60058823529412,169.2446630883657
-0.0894560546875,-0.1479228515625,0.8884814453125001,0.9051424387350444,0.1298828125,1.31005859375,-0.78662109375,43.16529411764706,169.2446630883657
-0.0767607421875,-0.1449931640625,0.9006884765625001,0.9155080343604354,0.17919921875,1.1923828125,-0.7412109375,42.60058823529412,169.0965147457403
-0.0733427734375,-0.1557353515625,0.9094775390625,0.92562522448396,0.3193359375,1.234375,-0.70849609375,43.25941176470588,169.0965147457403
-0.0777373046875,-0.1738017578125,0.8987353515625001,0.918681322171602,0.38623046875,1.2900390625,-0.599609375,42.55352941176471,169.0965147457403
-0.0904326171875,-0.1821025390625,0.9089892578125,0.9314509454624595,0.42822265625,1.35546875,-0.45458984375,42.60058823529412,169.0965147457403
-0.0977568359375,-0.1830791015625,0.9055712890625,0.9290498996156028,0.52294921875,1.40234375,-0.30517578125,44.01235294117648,169.0965147457403
-0.0958037109375,-0.1747783203125,0.9099658203125,0.9315383011007418,0.58837890625,1.41064453125,-0.244140625,43.02411764705882,169.5256700819739
-0.0928740234375,-0.1547587890625,0.9070361328125,0.924819124612492,0.65869140625,1.478515625,-0.31689453125,43.16529411764706,169.5256700819739
-0.1001982421875,-0.1469462890625,0.8914111328125001,0.9089811369378186,0.66552734375,1.71435546875,-0.37255859375,43.30647058823529,169.5256700819739
-0.1006865234375,-0.1288798828125,0.8767626953125001,0.8918859927632757,0.64111328125,1.7451171875,-0.35205078125,43.25941176470588,169.5256700819739
-0.0782255859375,-0.1225322265625,0.8601611328125001,0.8723591939349941,0.703125,1.5244140625,-0.4404296875,42.97705882352941,169.65387438844687
-0.0606474609375,-0.1244853515625,0.8513720703125001,0.8625596323617268,0.7666015625,1.2001953125,-0.65478515625,42.60058823529412,169.65387438844687
-0.0738310546875,-0.1445048828125,0.8674853515625001,0.882532447544246,0.8125,0.87548828125,-0.7099609375,42.55352941176471,169.65387438844687
-0.0630888671875,-0.1552470703125,0.8752978515625001,0.8911948086437357,0.85205078125,0.8349609375,-0.73291015625,43.16529411764706,169.65387438844687
-0.0835966796875,-0.1371806640625,0.8826220703125001,0.8971224322522131,0.9306640625,0.99072265625,-0.79345703125,43.16529411764706,169.65387438844687
-0.1006865234375,-0.0976298828125,0.8845751953125001,0.8956241656979006,1.03564453125,1.2470703125,-0.87158203125,43.68294117647059,169.5078491706995
-0.0972685546875,-0.0595439453125,0.9280322265625,0.9350136184531884,1.23583984375,1.26318359375,-1.14697265625,42.60058823529412,169.5078491706995
-0.1163115234375,-0.0644267578125,0.9832080078125,0.9921578323196404,1.33447265625,1.4423828125,-1.705078125,43.25941176470588,169.5078491706995
-0.1485380859375,-0.0507548828125,1.0544970703125005,1.0661161720942671,1.33349609375,2.02685546875,-2.04638671875,43.30647058823529,169.5078491706995
-0.1709990234375,0.0010029296875,1.1091845703125005,1.12228876983772,1.3330078125,2.97412109375,-1.96337890625,43.30647058823529,169.64496359463826
-0.1753935546875,0.0493427734375,1.1043017578125005,1.1192318708043476,1.30859375,3.91455078125,-1.8076171875,42.55352941176471,169.64496359463826
-0.1675810546875,0.0874287109375,1.0569384765625005,1.0737067256120856,1.2490234375,4.228515625,-1.74072265625,43.777058823529416,169.64496359463826
-0.1407255859375,0.1079365234375,0.9822314453125,0.9981145203782528,1.17822265625,3.29345703125,-1.5634765625,43.25941176470588,169.64496359463826
-0.0567412109375,0.1172138671875,0.9670947265625,0.9758231734411208,1.17041015625,1.6103515625,-1.376953125,42.55352941176471,169.64496359463826
-0.0059599609375,0.0967060546875,0.9807666015625,0.9855408205082395,1.16796875,0.29541015625,-1.4013671875,43.16529411764706,169.8109406435201
-0.0113310546875,0.0434833984375,1.0227587890625005,1.0237454465562217,1.087890625,-0.169921875,-1.44775390625,43.118235294117646,169.8109406435201
-0.0445341796875,-0.0273173828125,1.0588916015625005,1.0601796811973714,1.11474609375,-0.2197265625,-1.35107421875,42.55352941176471,169.8109406435201
-0.0767607421875,-0.0834697265625,1.0818408203125005,1.0877678830007889,1.1201171875,-0.0673828125,-1.06103515625,42.60058823529412,169.8109406435201
-0.1094755859375,-0.1161845703125,1.0906298828125005,1.1022510147777898,1.01611328125,0.3818359375,-0.765625,43.02411764705882,169.60081039934116
-0.1358427734375,-0.1244853515625,1.0750048828125005,1.0906811449362956,0.8427734375,0.845703125,-0.56298828125,43.777058823529416,169.60081039934116
-0.1255888671875,-0.1293681640625,1.0491259765625005,1.0645064584738608,0.72607421875,1.10498046875,-0.47607421875,43.87117647058824,169.60081039934116
-0.0953154296875,-0.1230205078125,1.0320361328125005,1.0437038161804042,0.5947265625,1.0,-0.59375,42.60058823529412,169.60081039934116
-0.0552763671875,-0.1034892578125,1.0291064453125005,1.0357729379722949,0.4306640625,0.69580078125,-0.90185546875,42.55352941176471,169.60081039934116
-0.0479521484375,-0.0859111328125,1.0198291015625005,1.024564067140106,0.26025390625,0.50146484375,-1.10693359375,43.118235294117646,169.74683779346984
-0.0650419921875,-0.0385478515625,1.0667041015625005,1.0693802120378253,0.13134765625,0.591796875,-1.177734375,43.02411764705882,169.74683779346984
-0.0728544921875,-0.0053447265624999,1.0623095703125005,1.0648182785393268,-0.11279296875,0.64501953125,-1.04150390625,43.447647058823534,169.74683779346984
-0.0865263671875,0.0376240234375,1.0696337890625005,1.073787140015419,-0.14599609375,0.7080078125,-0.8828125,44.01235294117648,169.74683779346984
-0.0884794921875,0.0659443359375,1.0925830078125005,1.0981415687153482,-0.14453125,0.6181640625,-0.99951171875,42.60058823529412,169.60081039934116
-0.0850615234375,0.0542255859375,1.1033251953125005,1.1079270569632012,-0.10009765625,0.4482421875,-1.33837890625,43.25941176470588,169.60081039934116
-0.1207060546875,0.0249287109375,1.1169970703125005,1.1237766002875909,-0.03662109375,0.5810546875,-1.5283203125,43.777058823529416,169.60081039934116
-0.1534208984375,0.0083271484375,1.0896533203125005,1.100432493134643,0.02880859375,0.91796875,-1.4287109375,42.60058823529412,169.60081039934116
-0.1607451171875,0.0239521484375,1.0510791015625005,1.0635694504148885,0.09326171875,1.060546875,-1.18896484375,43.353529411764704,169.60081039934116
-0.1431669921875,0.0298115234375,0.9900439453125,1.0007859552529808,0.076171875,0.90283203125,-1.00244140625,43.91823529411765,169.211548104037
-0.1089873046875,0.0322529296875,0.9421923828125,0.9490231663591618,0.05615234375,0.56982421875,-0.85693359375,43.02411764705882,169.211548104037
-0.0855498046875,0.0278583984375,0.9226611328125,0.9270374455481384,0.064453125,0.3310546875,-0.66796875,43.16529411764706,169.211548104037
-0.0782255859375,0.0229755859375,0.9099658203125,0.9136109204587244,0.09521484375,0.0546875,-0.35107421875,43.91823529411765,169.211548104037
-0.0743193359375,0.0298115234375,0.8987353515625001,0.9022955850340986,0.09375,-0.13134765625,-0.15869140625,43.91823529411765,169.34187919199346
-0.0782255859375,0.0429951171875,0.8860400390625001,0.8905249986491725,0.08349609375,-0.298828125,-0.1845703125,43.25941176470588,169.34187919199346
-0.0987333984375,0.0449482421875,0.8835986328125001,0.8902332123387015,0.04345703125,-0.455078125,-0.34765625,42.97705882352941,169.34187919199346
-0.1138701171875,0.0361591796875,0.8762744140625001,0.884381557137272,0.03857421875,-0.64306640625,-0.47119140625,43.25941176470588,169.34187919199346
-0.1055693359375,0.0307880859375,0.8699267578125001,0.8768496763323504,0.01416015625,-0.8701171875,-0.61962890625,43.777058823529416,169.34187919199346
-0.1041044921875,0.0083271484375,0.8787158203125001,0.8849003218228522,-0.06103515625,-1.04638671875,-0.76025390625,43.16529411764706,169.5078491706995
-0.1236357421875,-0.0053447265624999,0.8962939453125001,0.9047967723484256,-0.00048828125,-1.15576171875,-0.80029296875,42.55352941176471,169.5078491706995
-0.1421904296875,-0.0141337890624999,0.9168017578125,0.9278703279101392,-0.296875,-1.2041015625,-0.7509765625,43.73,169.5078491706995
-0.1299833984375,-0.0053447265624999,0.9480517578125,0.95693593592401,-0.42138671875,-1.13037109375,-0.65478515625,43.16529411764706,169.5078491706995
-0.1055693359375,-0.0170634765625,0.9793017578125,0.9851233322672528,-0.5322265625,-0.80029296875,-0.59912109375,43.30647058823529,169.4437474923497
-0.0748076171875,-0.0190166015625,0.9993212890625,1.002297784841309,-0.6494140625,-0.4052734375,-0.5732421875,42.60058823529412,169.4437474923497
-0.0469755859375,-0.0141337890624999,0.9954150390625,0.996623083045558,-0.6259765625,-0.18896484375,-0.47900390625,43.777058823529416,169.4437474923497
-0.0323271484375,-0.0048564453124999,0.9978564453125,0.998391764308416,-0.7666015625,-0.302734375,-0.4365234375,42.97705882352941,169.4437474923497
-0.0293974609375,0.0161396484375,0.9739306640625,0.9745078949718572,-0.79443359375,-0.47998046875,-0.51171875,42.55352941176471,169.4437474923497
-0.0347685546875,0.0434833984375,0.9963916015625,0.9979458311947678,-0.80078125,-0.54150390625,-0.55029296875,42.97705882352941,169.24253403782424
-0.0752958984375,0.0791279296875,1.0007861328125005,1.0067291518615815,-0.84326171875,-0.3330078125,-0.49462890625,42.55352941176471,169.24253403782424
-0.1114287109375,0.1269794921875,1.0149462890625005,1.0289101606744528,-0.83935546875,-0.005859375,-0.3505859375,43.118235294117646,169.24253403782424
-0.1368193359375,0.1792255859375,1.0212939453125005,1.045888456802632,-0.7099609375,0.11865234375,-0.17822265625,44.01235294117648,169.24253403782424
-0.1431669921875,0.2007099609375,1.0071337890625005,1.03687016792988,-0.63916015625,0.3388671875,-0.2392578125,43.25941176470588,169.25357233241806
-0.1075224609375,0.1797138671875,0.9680712890625,0.9904646255029368,-0.52001953125,0.30126953125,-0.35400390625,43.87117647058824,169.25357233241806
-0.0723662109375,0.0942646484375,0.9016650390625,0.9094627727939588,-0.44677734375,-0.21923828125,-0.169921875,43.25941176470588,169.25357233241806
-0.0035185546874999,0.0200458984375,0.8733447265625001,0.8735818391460434,-0.37353515625,-1.27392578125,0.1279296875,42.69470588235294,169.25357233241806
0.0389619140625,-0.0160869140625,0.8557666015625001,0.8568041175795659,-0.361328125,-2.40234375,0.6943359375,43.447647058823534,169.25357233241806
0.0389619140625,0.0044208984375,0.8850634765625001,0.8859316749249387,-0.447265625,-2.9814453125,0.91162109375,43.87117647058824,169.46369596428514
-0.0342802734375,0.0151630859375,0.9285205078125,0.9292768100789348,-0.42431640625,-3.37548828125,1.34912109375,42.55352941176471,169.46369596428514
-0.0225615234375,0.0083271484375,0.9431689453125,0.9434755021423792,-0.47705078125,-3.681640625,1.47900390625,43.16529411764706,169.46369596428514
-0.0279326171875,-0.0014384765624999,1.0037158203125005,1.0041054467850274,-0.5244140625,-3.31201171875,1.44873046875,44.01235294117648,169.46369596428514
-0.0318388671875,-0.0507548828125,1.0559619140625005,1.0576603119828376,-0.517578125,-2.73828125,1.73193359375,43.30647058823529,169.65387438844687
-0.0152373046875,-0.0839580078125,1.0862353515625005,1.0895817369587708,-0.40673828125,-2.33447265625,2.2587890625,43.68294117647059,169.65387438844687
0.0331025390625,-0.0971416015625,1.1160205078125005,1.1207292459397065,-0.2998046875,-1.85546875,2.4462890625,43.49470588235295,169.65387438844687
0.0443330078125,-0.0986064453125,1.1414111328125005,1.1465199609022014,-0.22705078125,-1.27783203125,2.53369140625,43.30647058823529,169.65387438844687
0.0760712890625,-0.0966533203125,1.1575244140625005,1.16404101065976,-0.05908203125,-1.0859375,2.91259765625,43.353529411764704,169.65387438844687
0.0897431640625,-0.0795634765625,1.1526416015625005,1.158864463149693,0.18408203125,-0.89013671875,3.43408203125,43.02411764705882,169.62075961347196
0.0980439453125,-0.0473369140625,1.1409228515625005,1.1461057332824525,0.2529296875,-0.70458984375,3.75537109375,43.16529411764706,169.62075961347196
0.0833955078125,-0.0082744140624999,1.1340869140625005,1.1371791438903491,0.33154296875,-0.6396484375,3.98828125,42.97705882352941,169.62075961347196
0.0785126953125,0.0288349609375,1.1121142578125005,1.1152550473893177,0.4306640625,-0.78369140625,4.22998046875,43.25941176470588,169.62075961347196
0.1141572265625,0.0571552734375,1.2122119140625005,1.21891604397236,0.5791015625,-1.240234375,4.212890625,43.25941176470588,169.33762128716955
0.1551728515625,0.0464130859375,1.0881884765625005,1.1001758718185446,0.71875,-2.1171875,3.83349609375,43.25941176470588,169.33762128716955
0.1566376953125,0.0053974609375,1.0920947265625005,1.1032839126729828,0.7783203125,-3.08154296875,3.62109375,43.777058823529416,169.33762128716955
0.1458955078125,-0.0639384765625,1.1179736328125005,1.1292646597007183,0.8056640625,-3.78466796875,3.61083984375,43.25941176470588,169.33762128716955
0.1048798828125,-0.1161845703125,1.1335986328125005,1.1443533127980334,0.830078125,-4.17431640625,3.626953125,43.25941176470588,169.33762128716955
0.0731416015625,-0.1664775390625,1.1682666015625005,1.1823329976017023,0.91357421875,-4.34716796875,3.83056640625,42.55352941176471,169.37964601354005
0.0287080078125,-0.2143291015625,1.1677783203125005,1.187630969148681,0.9375,-4.15576171875,3.7470703125,42.60058823529412,169.37964601354005
-0.0293974609375,-0.2572978515625,1.1570361328125005,1.1856639522908488,0.853515625,-3.5009765625,3.58349609375,42.55352941176471,169.37964601354005
-0.0860380859375,-0.2929423828125,1.1541064453125005,1.19380881174144,0.646484375,-2.69482421875,3.31591796875,43.87117647058824,169.37964601354005
-0.0972685546875,-0.2944072265625,1.1526416015625005,1.1936161227278157,0.47119140625,-1.8984375,3.1240234375,43.777058823529416,169.50572118866472
-0.1031279296875,-0.2958720703125,1.1106494140625005,1.1540007681236657,0.24462890625,-0.8974609375,2.71435546875,43.118235294117646,169.50572118866472
-0.1148466796875,-0.2626689453125,1.0759814453125005,1.1135173125387865,0.05859375,0.0126953125,2.74755859375,43.777058823529416,169.50572118866472
-0.0962919921875,-0.2280009765625,1.0471728515625005,1.076023965403387,0.01025390625,0.49755859375,2.81005859375,42.55352941176471,169.50572118866472
-0.0616240234375,-0.1801494140625,1.0208056640625005,1.038410099832321,0.04248046875,0.74755859375,2.63818359375,42.60058823529412,169.50572118866472
-0.0489287109375,-0.1484111328125,0.9939501953125,1.0061594674098395,0.04833984375,0.91357421875,2.3291015625,42.97705882352941,169.4085047705463
-0.0464873046875,-0.1171611328125,0.9876025390625,0.9956136678961944,0.03125,0.826171875,2.041015625,43.73,169.4085047705463
-0.0342802734375,-0.1005595703125,0.9959033203125,1.0015541861216728,-0.0048828125,0.6396484375,1.796875,43.25941176470588,169.4085047705463
-0.0264677734375,-0.0893291015625,1.0002978515625005,1.0046273056498396,-0.0712890625,0.45849609375,1.5947265625,43.777058823529416,169.4085047705463
-0.0152373046875,-0.0956767578125,1.0232470703125005,1.0278233235059255,-0.111328125,0.185546875,1.41650390625,43.118235294117646,169.4305812061386
0.0003876953125,-0.1147197265625,1.0369189453125005,1.0432457357297074,-0.20166015625,0.17333984375,1.11865234375,43.25941176470588,169.4305812061386
-0.0250029296875,-0.1249736328125,1.0237353515625005,1.0316383210360631,-0.3955078125,0.125,0.875,43.118235294117646,169.4305812061386
-0.0435576171875,-0.1220439453125,1.0237353515625005,1.0319040946915994,-0.51953125,0.4111328125,0.58056640625,42.55352941176471,169.4305812061386
-0.0635771484375,-0.1156962890625,0.9876025390625,0.9963867021738972,-0.60546875,0.5546875,0.50830078125,44.01235294117648,169.4305812061386
-0.0738310546875,-0.0898173828125,0.9612353515625,0.9682414925962628,-0.60595703125,0.99755859375,0.50439453125,43.25941176470588,169.29346823726266
-0.0626005859375,-0.0810283203125,0.9011767578125,0.9069751765477558,-0.60205078125,1.55322265625,0.47509765625,43.118235294117646,169.29346823726266
-0.0489287109375,-0.0571025390625,0.8699267578125001,0.8731708210193226,-0.48974609375,1.9228515625,0.33251953125,43.25941176470588,169.29346823726266
-0.0352568359375,-0.0605205078125,0.8377001953125001,0.8406232173648355,-0.39794921875,1.939453125,0.14013671875,43.447647058823534,169.29346823726266
-0.0323271484375,-0.0600322265625,0.8191455078125001,0.8219782696163872,-0.24462890625,1.69189453125,-0.0703125,43.16529411764706,169.3087640148934
-0.0337919921875,-0.0658916015625,0.8118212890625001,0.8151916383695128,-0.12841796875,1.43896484375,-0.291015625,43.16529411764706,169.3087640148934
-0.0381865234375,-0.0746806640625,0.8044970703125001,0.8088578047459606,-0.03271484375,1.34765625,-0.5625,43.25941176470588,169.3087640148934
-0.0523466796875,-0.0995830078125,0.8005908203125001,0.808456932611708,0.07763671875,1.42919921875,-0.826171875,43.25941176470588,169.3087640148934
-0.0738310546875,-0.1337626953125,0.7869189453125001,0.8016139406131051,0.1474609375,1.68359375,-0.92236328125,43.87117647058824,169.3087640148934
-0.0884794921875,-0.1532939453125,0.7737353515625001,0.7937216441957313,0.166015625,2.0966796875,-0.7451171875,42.97705882352941,169.27139179611171
-0.0767607421875,-0.1630595703125,0.7595751953125001,0.7806632515660613,0.29833984375,2.4580078125,-0.38720703125,43.30647058823529,169.27139179611171
-0.0518583984375,-0.1669658203125,0.7341845703125001,0.7547144240877333,0.3193359375,2.35498046875,-0.1708984375,42.69470588235294,169.27139179611171
-0.0079130859375,-0.1552470703125,0.7400439453125001,0.7561939637178805,0.36474609375,1.6298828125,-0.2607421875,42.55352941176471,169.27139179611171
0.0174775390625,-0.1401103515625,0.7478564453125001,0.7610687470801156,0.3349609375,0.73583984375,-0.4033203125,43.16529411764706,169.15170660968775
0.0233369140625,-0.1093486328125,0.7786181640625001,0.7866053524252055,0.34912109375,0.15087890625,-0.6435546875,43.02411764705882,169.15170660968775
0.0174775390625,-0.0546611328125,0.8054736328125001,0.8075153725893973,0.4443359375,-0.04150390625,-0.99267578125,43.16529411764706,169.15170660968775
0.0062470703125,0.0327412109375,0.8279345703125001,0.8286052531209824,0.59423828125,-0.0810546875,-1.515625,43.16529411764706,169.15170660968775
0.0038056640625,0.0820576171875,0.8503955078125001,0.8543538232635977,0.77294921875,0.0673828125,-2.19873046875,43.16529411764706,169.15170660968775
0.0374970703125,0.1030537109375,0.8928759765625001,0.8995852417322378,0.98046875,0.28662109375,-2.85791015625,43.91823529411765,169.07443809793128
0.1092744140625,0.0820576171875,0.9700244140625,0.9796028348185246,1.2275390625,0.29833984375,-3.64990234375,43.25941176470588,169.07443809793128
0.1029267578125,-0.0092509765624999,1.0247119140625005,1.0299097071407697,1.2080078125,0.71875,-4.37158203125,42.55352941176471,169.07443809793128
0.0707001953125,-0.0732158203125,1.1184619140625005,1.1230833126574402,1.08251953125,0.93896484375,-4.55859375,43.777058823529416,169.07443809793128
0.0755830078125,-0.1113017578125,1.2356494140625005,1.242952270537826,1.02392578125,0.39794921875,-4.52490234375,42.60058823529412,169.4747342449381
0.0882783203125,-0.1381572265625,1.3792041015625005,1.388914840749951,0.83642578125,-0.32763671875,-4.48388671875,42.55352941176471,169.4747342449381
0.0819306640625,-0.1557353515625,1.4871142578125005,1.4974895489549305,0.560546875,-0.45166015625,-4.38037109375,44.01235294117648,169.4747342449381
0.0946259765625,-0.1469462890625,1.5623095703125005,1.572055495457993,0.2705078125,0.26318359375,-3.9189453125,43.16529411764706,169.4747342449381
0.1439423828125,-0.0956767578125,1.5017626953125005,1.511676104391254,0.0634765625,1.80322265625,-2.8798828125,43.25941176470588,169.4747342449381
0.1781220703125,0.0097919921875,1.3689501953125005,1.3805245352001332,0.17919921875,2.61669921875,-1.4970703125,43.16529411764706,169.46369596428514
0.1966767578125,0.0659443359375,1.1448291015625005,1.1634707019475292,0.36669921875,2.1435546875,-0.26513671875,42.60058823529412,169.46369596428514
0.1566376953125,0.0752216796875,0.9783251953125,0.993636682329644,0.18212890625,0.45849609375,-0.20751953125,43.353529411764704,169.46369596428514
0.1112275390625,0.0141865234375,0.9172900390625,0.9241178705427276,-0.06005859375,-1.9140625,-1.5283203125,44.01235294117648,169.46369596428514
0.0316376953125,-0.0859111328125,0.9861376953125,0.9903783219669456,-0.29931640625,-3.5087890625,-2.97509765625,42.69470588235294,169.8219788934825
0.0033173828125,-0.1845439453125,1.0569384765625005,1.0729335561993047,-0.6318359375,-3.935546875,-3.33251953125,43.25941176470588,169.8219788934825
0.0086884765625,-0.2426494140625,1.1306689453125005,1.1564456284944542,-0.703125,-2.85400390625,-2.73486328125,43.02411764705882,169.8219788934825
-0.0328154296875,-0.2455791015625,1.1672900390625005,1.1932945918105693,-0.677734375,-1.1318359375,-1.6796875,43.118235294117646,169.8219788934825
-0.0499052734375,-0.2221416015625,1.1824267578125005,1.2041471940973851,-0.6640625,0.09521484375,-0.98876953125,42.60058823529412,169.8219788934825
-0.0274443359375,-0.1786845703125,1.1868212890625005,1.200510782714919,-0.50341796875,0.7431640625,-0.91455078125,43.118235294117646,169.56769564952765
0.0301728515625,-0.1376689453125,1.1692431640625005,1.1777065492650347,-0.34228515625,1.36083984375,-0.998046875,43.777058823529416,169.56769564952765
0.0404267578125,-0.1078837890625,1.1404345703125005,1.1462391739308029,-0.27197265625,1.82080078125,-0.720703125,43.25941176470588,169.56769564952765
0.0414033203125,-0.1518291015625,1.1213916015625005,1.132380428596805,-0.2900390625,2.00634765625,-0.154296875,42.69470588235294,169.56769564952765
0.0838837890625,0.0552021484375,1.1194384765625005,1.123933392184861,-0.375,1.87353515625,0.037109375,42.55352941176471,169.43949183156496
0.1004853515625,0.0840107421875,1.0657275390625005,1.0737459188270504,-0.20556640625,2.01318359375,-0.2177734375,42.69470588235294,169.43949183156496
0.0848603515625,0.0718037109375,1.0339892578125005,1.039947516677333,-0.18310546875,2.33154296875,-0.189453125,42.83588235294118,169.43949183156496
0.0765595703125,0.0571552734375,0.9900439453125,0.9946432057467092,-0.03759765625,2.68603515625,-0.07177734375,43.02411764705882,169.43949183156496
0.0623994140625,0.0493427734375,0.9368212890625,0.940192812037282,0.1044921875,2.94287109375,0.11865234375,43.16529411764706,169.43949183156496
0.0653291015625,0.0508076171875,0.8748095703125001,0.878715590953965,0.24462890625,3.06396484375,0.2177734375,42.55352941176471,169.37751790066096
0.0604462890625,0.0561787109375,0.8308642578125001,0.834952223983111,0.36181640625,3.0185546875,0.0908203125,44.01235294117648,169.37751790066096
0.0462861328125,0.0630146484375,0.8044970703125001,0.8082875652574607,0.38818359375,2.947265625,-0.013671875,42.55352941176471,169.37751790066096
0.0560517578125,0.0566669921875,0.7854541015625001,0.7894878676830971,0.38427734375,2.9130859375,-0.0009765625,43.30647058823529,169.37751790066096
0.0589814453125,0.0381123046875,0.7502978515625001,0.7535769534155404,0.30810546875,2.810546875,-0.30419921875,43.25941176470588,169.60081039934116
0.0428681640625,0.0259052734375,0.7283251953125001,0.7300454457148216,0.1669921875,2.72802734375,-0.39794921875,42.97705882352941,169.60081039934116
0.0272431640625,0.0210224609375,0.7127001953125001,0.7135304494206822,-0.02783203125,2.5625,-0.447265625,43.30647058823529,169.60081039934116
0.0121064453125,0.0171162109375,0.7190478515625001,0.7193534204628548,-0.20068359375,2.3076171875,-0.4375,43.02411764705882,169.60081039934116
-0.0103544921875,0.0156513671875,0.7268603515625001,0.7271025728718474,-0.35498046875,1.8447265625,-0.37939453125,43.777058823529416,169.60081039934116
-0.1343779296875,0.0058857421875,0.7556689453125001,0.7675464968703216,-0.4453125,1.1650390625,-0.3759765625,44.01235294117648,169.66278550746
-0.0250029296875,-0.0029033203124999,0.8152392578125001,0.8156277479588779,-0.51025390625,0.431640625,-0.34033203125,43.118235294117646,169.66278550746
-0.0533232421875,-0.0190166015625,0.8987353515625001,0.9005166469535942,-0.50244140625,-0.0283203125,-0.19873046875,42.60058823529412,169.66278550746
-0.0557646484375,-0.0009501953124999,0.9836962890625,0.985276097346233,-0.45556640625,-0.13427734375,-0.0419921875,42.60058823529412,169.66278550746
-0.0538115234375,0.0244404296875,1.0466845703125005,1.0483518514259595,-0.353515625,0.16455078125,0.1611328125,43.118235294117646,169.17843324541698
-0.0230498046875,0.0801044921875,1.0940478515625005,1.0972186312095105,-0.19482421875,0.748046875,0.27392578125,43.353529411764704,169.17843324541698
-0.0084013671875,0.1230732421875,1.0984423828125005,1.1053475807509443,-0.03173828125,1.32958984375,0.15087890625,42.97705882352941,169.17843324541698
-0.0025419921874999,0.1499287109375,1.0662158203125005,1.0767085286057316,0.04052734375,1.85693359375,-0.0859375,42.97705882352941,169.17843324541698
-0.0059599609375,0.1518818359375,1.0159228515625005,1.0272306720250346,-0.00927734375,2.1103515625,-0.26318359375,43.30647058823529,169.17843324541698
0.0003876953125,0.1655537109375,0.9714892578125,0.9854945761179584,-0.0693359375,2.0693359375,-0.41552734375,43.30647058823529,169.5035936407738
0.0096650390625,0.1806904296875,0.9509814453125,0.9680434668388526,-0.13916015625,1.9482421875,-0.552734375,43.91823529411765,169.5035936407738
0.0082001953125,0.1948505859375,0.9465869140625,0.96646819912386,-0.18798828125,1.81787109375,-0.689453125,43.25941176470588,169.5035936407738
-0.0015654296874999,0.2026630859375,0.9548876953125,0.9761584336730564,-0.16259765625,1.7353515625,-0.83203125,43.353529411764704,169.5035936407738
-0.0044951171875,0.1894794921875,0.9456103515625,0.9644177627046888,-0.1728515625,1.7509765625,-0.98828125,42.97705882352941,169.4836446804314
0.0052705078125,0.1865498046875,0.9612353515625,0.9791843590330828,-0.04296875,1.61962890625,-1.06689453125,42.55352941176471,169.4836446804314
0.0106416015625,0.1684833984375,0.9675830078125,0.9821999675424292,0.1298828125,1.4951171875,-1.14404296875,42.60058823529412,169.4836446804314
-0.0030302734374999,0.1543232421875,0.9768603515625,0.9889797733478572,0.26220703125,1.45947265625,-1.087890625,43.02411764705882,169.4836446804314
-0.0118193359375,0.1450458984375,1.0066455078125005,1.0171102141629649,0.44921875,1.390625,-1.0625,43.91823529411765,169.4836446804314
-0.0210966796875,0.1206318359375,1.0237353515625005,1.0310340342463409,0.62939453125,1.46533203125,-1.1142578125,43.777058823529416,169.3134165559717
-0.0601591796875,0.0903583984375,1.0398486328125005,1.0454993764851743,0.76171875,1.9853515625,-1.0224609375,43.118235294117646,169.3134165559717
-0.0987333984375,0.0527607421875,1.0544970703125005,1.0604225814178234,0.80126953125,2.4970703125,-0.68115234375,43.16529411764706,169.3134165559717
-0.1143583984375,0.0420185546875,1.0627978515625005,1.0697582322735746,0.8505859375,2.61669921875,-0.34765625,42.60058823529412,169.3134165559717
-0.1319365234375,0.0068623046875,1.0691455078125005,1.0772773339851012,0.9169921875,2.49755859375,-0.31884765625,43.02411764705882,169.30450647878382
-0.1470732421875,-0.0488017578125,1.0613330078125005,1.0725856159791916,0.82568359375,2.09228515625,-0.4296875,43.91823529411765,169.30450647878382
-0.0972685546875,-0.1259501953125,1.0476611328125005,1.0596784760653692,0.57421875,1.234375,-0.58935546875,43.91823529411765,169.30450647878382
0.0052705078125,-0.1674541015625,1.0383837890625005,1.0518125059964352,0.349609375,-0.412109375,-0.7490234375,42.55352941176471,169.30450647878382
-0.0044951171875,-0.1982158203125,1.0710986328125005,1.0892942663548235,0.23876953125,-1.666015625,-0.24755859375,43.02411764705882,169.30450647878382
-0.0728544921875,-0.2255595703125,1.0886767578125005,1.1141822022418937,0.2216796875,-2.27880859375,0.99267578125,43.25941176470588,169.25144365456066
-0.1041044921875,-0.2255595703125,1.1150439453125005,1.1423825388333118,0.34033203125,-2.62890625,1.66845703125,43.16529411764706,169.25144365456066
-0.1026396484375,-0.2348369140625,1.1292041015625005,1.157922785259598,0.40087890625,-3.19140625,1.6650390625,44.01235294117648,169.25144365456066
-0.0840849609375,-0.2529033203125,1.1648486328125005,1.1949488304718738,0.41650390625,-3.6328125,1.34033203125,42.60058823529412,169.25144365456066
-0.0552763671875,-0.2602275390625,1.2219775390625005,1.250601037433288,0.427734375,-3.92822265625,1.15234375,43.777058823529416,169.51888750721915
-0.0411162109375,-0.2397197265625,1.2571337890625005,1.28044580272173,0.4501953125,-3.6474609375,1.23193359375,43.02411764705882,169.51888750721915
-0.0406279296875,-0.2026103515625,1.2517626953125005,1.268704626225895,0.34814453125,-2.88525390625,1.3740234375,44.01235294117648,169.51888750721915
-0.0455107421875,-0.1562236328125,1.2102587890625005,1.2211483888564163,0.09130859375,-1.97265625,1.07763671875,43.118235294117646,169.51888750721915
-0.0669951171875,-0.1381572265625,1.1370166015625005,1.147337141910409,-0.3095703125,-1.412109375,0.482421875,42.60058823529412,169.51888750721915
-0.0762724609375,-0.1401103515625,1.0696337890625005,1.081464211898217,-0.62255859375,-1.24072265625,0.0400390625,42.69470588235294,169.37964601354005
-0.0909208984375,-0.1684306640625,0.9915087890625,1.009814427089157,-0.80078125,-1.314453125,-0.09033203125,44.01235294117648,169.37964601354005
-0.1001982421875,-0.1952861328125,0.9480517578125,0.9731282016762732,-0.94384765625,-1.5166015625,0.07421875,43.87117647058824,169.37964601354005
-0.1167998046875,-0.2074931640625,0.9299853515625,0.9599835215401004,-1.02734375,-1.85498046875,0.3095703125,43.16529411764706,169.37964601354005
-0.1309599609375,-0.2197001953125,0.9387744140625,0.972993364667762,-0.98974609375,-2.11181640625,0.33349609375,43.118235294117646,169.41063263364606
-0.1626982421875,-0.2314189453125,0.9558642578125,0.9968459889189972,-0.892578125,-2.052734375,0.337890625,42.74176470588235,169.41063263364606
-0.1792998046875,-0.2529033203125,0.9773486328125,1.0253384121579203,-0.78466796875,-1.8623046875,0.4091796875,42.60058823529412,169.41063263364606
-0.1666044921875,-0.2577861328125,0.9866259765625,1.033267421684912,-0.6220703125,-1.63232421875,0.43359375,43.777058823529416,169.41063263364606
-0.1670927734375,-0.2753642578125,0.9934619140625,1.0443716024999872,-0.58642578125,-1.25244140625,0.412109375,42.60058823529412,169.41063263364606
-0.1675810546875,-0.2773173828125,0.9827197265625,1.034759103209643,-0.5615234375,-0.91845703125,0.40185546875,42.60058823529412,169.64283611615645
-0.1651396484375,-0.2753642578125,0.9597705078125,1.0120553372387076,-0.53662109375,-0.5087890625,0.32861328125,44.01235294117648,169.64283611615645
-0.2593779296875,-0.2372783203125,0.9329150390625,0.9969495382456832,-0.50341796875,-0.0810546875,0.41650390625,43.25941176470588,169.64283611615645
-0.1001982421875,-0.2026103515625,0.9114306640625,0.9390402002529789,-0.4560546875,0.142578125,0.564453125,42.69470588235294,169.64283611615645
-0.0591826171875,-0.1679423828125,0.8816455078125001,0.8994476235823093,-0.51953125,-0.0029296875,0.54541015625,42.69470588235294,169.72263514662595
-0.0572294921875,-0.1449931640625,0.8713916015625001,0.8852240144023167,-0.67138671875,-0.22216796875,0.32568359375,43.16529411764706,169.72263514662595
-0.0689482421875,-0.1352275390625,0.8679736328125001,0.8811461710064765,-0.8125,-0.38427734375,0.0927734375,43.02411764705882,169.72263514662595
-0.0650419921875,-0.1200908203125,0.8694384765625001,0.8800997275299935,-0.990234375,-0.70947265625,0.00830078125,43.02411764705882,169.72263514662595
-0.0733427734375,-0.1039775390625,0.8806689453125001,0.8898136222169389,-1.07080078125,-0.89697265625,-0.1259765625,43.16529411764706,169.72263514662595
-0.0806669921875,-0.0917705078125,0.9094775390625,0.9176482898103846,-1.06201171875,-0.9267578125,-0.2490234375,43.25941176470588,169.5125046791819
-0.0948271484375,-0.0995830078125,0.9255908203125,0.935749608694836,-0.99658203125,-0.86669921875,-0.34521484375,43.68294117647059,169.5125046791819
-0.0948271484375,-0.1171611328125,0.9426806640625,0.95465478237948,-0.853515625,-0.74755859375,-0.43115234375,43.91823529411765,169.5125046791819
-0.1001982421875,-0.1327861328125,0.9631884765625,0.9774476385912206,-0.65966796875,-0.583984375,-0.44482421875,43.02411764705882,169.5125046791819
-0.1041044921875,-0.1474345703125,0.9719775390625,0.988592451042816,-0.47998046875,-0.197265625,-0.45166015625,43.16529411764706,169.31554473428028
-0.1011748046875,-0.1713603515625,0.9592822265625,0.9797056197602856,-0.29638671875,0.40869140625,-0.38671875,43.16529411764706,169.31554473428028
-0.1036162109375,-0.1879619140625,0.9470751953125,0.9710908432702337,-0.13330078125,0.89111328125,-0.14501953125,43.02411764705882,169.31554473428028
-0.0967802734375,-0.1943095703125,0.9099658203125,0.935500093307674,-0.12353515625,0.9560546875,0.20556640625,42.55352941176471,169.31554473428028
-0.0733427734375,-0.1962626953125,0.8679736328125001,0.8929033739686285,0.021484375,0.708984375,0.44921875,43.87117647058824,169.31554473428028
-0.0386748046875,-0.1908916015625,0.8552783203125001,0.8771752101269643,0.01123046875,0.18310546875,0.4453125,43.49470588235295,169.47047908372184
-0.0167021484375,-0.1777080078125,0.8494189453125001,0.8679698396021118,-0.09228515625,-0.52783203125,0.44921875,43.02411764705882,169.47047908372184
-0.0181669921875,-0.1572001953125,0.8709033203125001,0.8851635636100065,-0.0693359375,-1.12109375,0.5234375,43.25941176470588,169.47047908372184
-0.0269560546875,-0.1405986328125,0.9002001953125001,0.911512477190369,-0.00634765625,-1.3134765625,0.49755859375,42.55352941176471,169.47047908372184
-0.0469755859375,-0.1288798828125,0.9285205078125,0.9385984569006696,0.00927734375,-1.275390625,0.37158203125,43.73,169.45478580651678
-0.0665068359375,-0.1156962890625,0.9627001953125,0.9719055800765716,0.0458984375,-0.95751953125,0.1953125,43.16529411764706,169.45478580651678
-0.0757841796875,-0.1166728515625,0.9905322265625,1.000254911530804,0.09814453125,-0.52587890625,0.060546875,42.55352941176471,169.45478580651678
-0.0733427734375,-0.1298564453125,0.9924853515625,1.003627934979314,0.1142578125,-0.1005859375,0.044921875,42.60058823529412,169.45478580651678
-0.0586943359375,-0.1391337890625,0.9934619140625,1.0048730322895318,0.1787109375,0.03759765625,0.16015625,43.353529411764704,169.45478580651678
-0.0430693359375,-0.1298564453125,0.9988330078125,1.0081592342398404,0.31640625,0.0185546875,0.26953125,43.25941176470588,169.4416194448903
-0.0430693359375,-0.1132548828125,1.0017626953125005,1.0090639890010622,0.44775390625,0.02880859375,0.36962890625,42.69470588235294,169.4416194448903
-0.0567412109375,-0.0912822265625,1.0120166015625005,1.0177080189047218,0.5732421875,0.15771484375,0.3486328125,42.93,169.4416194448903
-0.0831083984375,-0.0605205078125,1.0300830078125005,1.0352008214548405,0.69677734375,0.52685546875,0.212890625,43.118235294117646,169.4416194448903
-0.0865263671875,-0.0238994140625,1.0291064453125005,1.0330140705696738,0.8330078125,0.84423828125,0.078125,43.02411764705882,169.4836446804314
-0.0811552734375,-0.0141337890624999,1.0295947265625005,1.032884912933328,1.03125,1.12890625,0.01513671875,43.25941176470588,169.4836446804314
-0.0733427734375,-0.0097392578124999,1.0427783203125005,1.0453997517084086,1.22705078125,1.39697265625,-0.04296875,42.97705882352941,169.4836446804314
-0.0713896484375,-0.0102275390624999,1.0505908203125005,1.0530632251599128,1.43310546875,1.6083984375,-0.0234375,43.16529411764706,169.4836446804314
-0.0748076171875,-0.0165751953125,1.0559619140625005,1.0587381548992454,1.587890625,1.8603515625,0.0341796875,43.353529411764704,169.4836446804314
-0.0508818359375,-0.0151103515624999,1.0847705078125005,1.0860682936963506,1.7734375,2.09130859375,-0.0673828125,43.353529411764704,169.3066350297716
-0.0425810546875,-0.0317119140625,1.1077197265625005,1.1089913364528632,1.88232421875,2.34326171875,-0.14306640625,42.97705882352941,169.3066350297716
-0.0572294921875,-0.0595439453125,1.1272509765625005,1.130272294785875,1.939453125,2.73974609375,-0.16064453125,43.30647058823529,169.3066350297716
-0.0503935546875,-0.0644267578125,1.1423876953125005,1.1453121687460055,1.97265625,2.9306640625,-0.06103515625,43.118235294117646,169.3066350297716
-0.0464873046875,-0.0688212890625,1.1746142578125005,1.177546641955954,2.00146484375,3.013671875,0.0107421875,43.25941176470588,169.41063263364606
-0.0391630859375,-0.0727275390625,1.1941455078125005,1.196998970787782,2.07666015625,3.236328125,0.1376953125,42.69470588235294,169.41063263364606
-0.0186552734375,-0.0737041015625,1.2185595703125005,1.2209290479853234,2.01025390625,3.4140625,0.31982421875,42.55352941176471,169.41063263364606
0.0101533203125,-0.0571025390625,1.2629931640625005,1.2643241365841904,2.017578125,3.38720703125,0.513671875,43.25941176470588,169.41063263364606
0.0462861328125,-0.0380595703125,1.2737353515625005,1.27514418118233,2.013671875,3.5703125,0.52490234375,42.60058823529412,169.41063263364606
0.0565400390625,-0.0019267578124999,1.2786181640625005,1.279869094041815,1.88916015625,4.25341796875,0.36767578125,42.60058823529412,169.25822572544763
0.0643525390625,0.0493427734375,1.2864306640625005,1.2889840231804972,1.71240234375,5.13623046875,0.2314453125,43.73,169.25822572544763
0.0457978515625,0.0830341796875,1.2385791015625005,1.242203811389857,1.560546875,6.0693359375,0.234375,42.60058823529412,169.25822572544763
0.0213837890625,0.0942646484375,1.1653369140625005,1.1693387933599169,1.2890625,6.3271484375,0.2421875,43.16529411764706,169.25822572544763
0.0174775390625,0.0537373046875,1.0418017578125005,1.0433331514276607,0.9541015625,5.736328125,0.09521484375,43.353529411764704,169.04345285043826
0.0023408203125,0.0815693359375,0.9641650390625,0.9676121426250356,0.91748046875,4.88818359375,-0.29345703125,43.16529411764706,169.04345285043826
-0.0162138671875,-0.0151103515624999,0.8748095703125001,0.875090279070598,0.720703125,3.1669921875,-0.56201171875,43.02411764705882,169.04345285043826
-0.0342802734375,-0.0693095703125,0.8679736328125001,0.8714110287009121,0.65478515625,1.15283203125,-0.73974609375,42.55352941176471,169.04345285043826
-0.0665068359375,-0.1332744140625,0.8870166015625001,0.8994352006218165,0.5576171875,0.03857421875,-1.00634765625,43.02411764705882,169.04345285043826
-0.0923857421875,-0.2050517578125,0.9211962890625,0.9482531053068336,0.4345703125,-0.50732421875,-0.91796875,43.16529411764706,169.16739498715106
-0.0840849609375,-0.2538798828125,0.9524462890625,0.9892821685958344,0.42333984375,-0.54638671875,-0.67431640625,43.91823529411765,169.16739498715106
-0.0577177734375,-0.2939189453125,0.9529345703125,0.9989013880663415,0.30908203125,-0.3955078125,-0.4794921875,43.87117647058824,169.16739498715106
-0.0142607421875,-0.2968486328125,0.9788134765625,1.0229361179813512,0.25390625,-0.4228515625,-0.16845703125,43.16529411764706,169.16739498715106
0.0433564453125,-0.3046611328125,0.9680712890625,1.0158052017507402,0.1279296875,-0.72021484375,0.10546875,43.16529411764706,169.64496359463826
0.1014619140625,-0.2704814453125,0.9851611328125,1.0266436528162892,-0.0849609375,-1.2001953125,0.21728515625,42.69470588235294,169.64496359463826
0.1165986328125,-0.2265361328125,1.0154345703125005,1.046910324349282,-0.3349609375,-1.7080078125,0.20068359375,43.16529411764706,169.64496359463826
0.0995087890625,-0.1669658203125,1.0569384765625005,1.0746620526898538,-0.56982421875,-2.0205078125,0.20556640625,42.55352941176471,169.64496359463826
0.0736298828125,-0.1044658203125,1.0945361328125005,1.1019726917164006,-0.74560546875,-1.98095703125,0.27490234375,42.55352941176471,169.64496359463826
0.0208955078125,-0.0531962890625,1.1033251953125005,1.1048044867885585,-0.8310546875,-1.3076171875,0.49951171875,43.777058823529416,169.72263514662595
-0.0254912109375,-0.0448955078125,1.0769580078125005,1.0781947686055018,-0.8505859375,-0.16650390625,0.525390625,42.55352941176471,169.72263514662595
-0.0787138671875,-0.0434306640625,1.0325244140625005,1.0364307796971444,-0.8134765625,0.63232421875,0.8505859375,43.777058823529416,169.72263514662595
-0.0855498046875,-0.0458720703125,0.9851611328125,0.9899320550023788,-0.638671875,0.7890625,0.9619140625,42.55352941176471,169.72263514662595
-0.0821318359375,-0.0331767578125,0.9407275390625,0.9448886910551958,-0.5146484375,0.43603515625,0.84814453125,42.69470588235294,169.49468292756535
-0.1104521484375,-0.0224345703125,0.9490283203125,0.9556975147999136,-0.33251953125,-0.16162109375,0.8525390625,43.25941176470588,169.49468292756535
-0.1119169921875,-0.0165751953125,0.9783251953125,0.9848453371079064,-0.00537109375,-0.47998046875,0.806640625,43.25941176470588,169.49468292756535
-0.1163115234375,-0.0448955078125,0.9919970703125,0.999801062519278,0.12109375,0.01806640625,0.7783203125,43.02411764705882,169.49468292756535
-0.1402373046875,-0.0688212890625,0.9919970703125,1.0042216184502413,0.11865234375,0.9853515625,1.068359375,43.02411764705882,169.49468292756535
-0.2559599609375,-0.0732158203125,0.9587939453125,0.995068785318416,0.08837890625,1.86328125,1.45849609375,42.97705882352941,169.7048115674593
-0.0860380859375,-0.0761455078125,0.9221728515625,0.9293026733797364,0.02490234375,2.14111328125,1.66552734375,43.118235294117646,169.7048115674593
-0.0269560546875,-0.0829814453125,0.9060595703125,0.910250786379962,0.005859375,1.892578125,1.7998046875,43.118235294117646,169.7048115674593
0.0091767578125,-0.1034892578125,0.9036181640625,0.909571341781509,-0.08642578125,1.501953125,1.96826171875,43.25941176470588,169.7048115674593
0.0150361328125,-0.1020244140625,0.9231494140625,0.928891762822068,-0.22802734375,1.16796875,2.23583984375,43.02411764705882,169.6097213830828
-0.0054716796875,-0.0927470703125,0.9563525390625,0.960854899192092,-0.31982421875,0.8134765625,2.4560546875,43.02411764705882,169.6097213830828
-0.0279326171875,-0.0707744140625,0.9812548828125,0.9842003829669072,-0.3818359375,0.56103515625,2.5009765625,43.16529411764706,169.6097213830828
-0.0181669921875,-0.0571025390625,0.9963916015625,0.9981918469096052,-0.4755859375,0.44677734375,2.41064453125,43.16529411764706,169.6097213830828
-0.0123076171875,-0.0468486328125,1.0027392578125005,1.0039085072832077,-0.5498046875,0.55419921875,2.36376953125,43.02411764705882,169.6097213830828
-0.0298857421875,-0.0326884765625,1.0042041015625005,1.0051803677355735,-0.65087890625,0.783203125,2.58984375,43.30647058823529,169.54561921948908
-0.0308623046875,-0.0151103515624999,0.9905322265625,0.9911280928486642,-0.6884765625,0.9541015625,2.759765625,43.02411764705882,169.54561921948908
-0.0103544921875,-0.0043681640624999,0.9670947265625,0.9671600211499308,-0.67431640625,0.85302734375,3.111328125,43.25941176470588,169.54561921948908
0.0125947265625,0.0053974609375,0.9368212890625,0.936921494770229,-0.6572265625,0.4814453125,3.2529296875,42.60058823529412,169.54561921948908
0.0169892578125,0.0117451171875,0.9187548828125,0.9189870060836434,-0.6953125,0.1015625,3.16015625,43.87117647058824,169.47047908372184
-0.0113310546875,0.0136982421875,0.9226611328125,0.9228323794938084,-0.73876953125,-0.1376953125,2.9814453125,43.447647058823534,169.47047908372184
-0.0469755859375,0.0073505859375,0.9441455078125,0.9453419892876438,-0.734375,-0.32421875,2.833984375,43.02411764705882,169.47047908372184
-0.0674833984375,-0.0063212890624999,0.9495166015625,0.9519326364837406,-0.7333984375,-0.18359375,2.85009765625,43.02411764705882,169.47047908372184
-0.0611357421875,-0.0082744140624999,0.9558642578125,0.9578530807302004,-0.66455078125,0.08837890625,3.056640625,43.118235294117646,169.47047908372184
-0.0347685546875,-0.0072978515624999,0.9338916015625,0.934567084002779,-0.57763671875,0.43017578125,3.3076171875,43.30647058823529,169.29134018185886
-0.0162138671875,0.0127216796875,0.9294970703125,0.929725515591976,-0.5693359375,0.4248046875,3.54345703125,42.55352941176471,169.29134018185886
-0.0162138671875,0.0268818359375,0.9353564453125,0.9358831136312806,-0.50927734375,0.12646484375,3.59912109375,43.91823529411765,169.29134018185886
-0.0079130859375,0.0395771484375,0.9407275390625,0.9415929430269142,-0.44677734375,-0.04931640625,3.39453125,42.60058823529412,169.29134018185886
-0.0171904296875,0.0527607421875,0.9573291015625,0.9589359809119063,-0.4326171875,-0.00927734375,3.23876953125,43.25941176470588,169.25144365456066
-0.0127958984375,0.0522724609375,0.9661181640625,0.9676158597918808,-0.40478515625,0.13427734375,3.24560546875,43.25941176470588,169.25144365456066
-0.0132841796875,0.0473896484375,0.9607470703125,0.962006850975112,-0.36474609375,0.32470703125,3.28125,42.55352941176471,169.25144365456066
0.0028291015625,0.0610615234375,0.9661181640625,0.96805000924108,-0.30517578125,0.2802734375,3.28515625,42.55352941176471,169.25144365456066
0.0199189453125,0.0757099609375,0.9543994140625,0.9576048267058618,-0.2763671875,0.21142578125,3.2548828125,43.87117647058824,169.25144365456066
0.0311494140625,0.0825458984375,0.9451220703125,0.9492311831883092,-0.2041015625,0.08447265625,3.20947265625,43.16529411764706,169.62754432619442
0.0511689453125,0.0825458984375,0.9597705078125,0.9646717130609314,-0.09130859375,-0.15478515625,3.142578125,42.97705882352941,169.62754432619442
0.0462861328125,0.0825458984375,0.9568408203125,0.9615095354992006,0.0478515625,-0.33984375,3.11181640625,42.69470588235294,169.62754432619442
0.0399384765625,0.0815693359375,0.9500048828125,0.9543363745781726,0.115234375,-0.28662109375,3.1064453125,42.69470588235294,169.62754432619442
0.0350556640625,0.0771748046875,0.9597705078125,0.9635062416653464,0.13427734375,-0.33447265625,3.03857421875,44.01235294117648,169.45478580651678
0.0399384765625,0.0761982421875,0.9680712890625,0.9718864515619758,0.18994140625,-0.6181640625,2.9072265625,43.25941176470588,169.45478580651678
0.0477509765625,0.0669208984375,0.9944384765625,0.997830870477708,0.24951171875,-0.9287109375,2.75927734375,42.69470588235294,169.45478580651678
0.0350556640625,0.0517841796875,1.0095751953125005,1.011510047324812,0.271484375,-1.044921875,2.6630859375,43.777058823529416,169.45478580651678
0.0179658203125,0.0469013671875,1.0134814453125005,1.0147251593097868,0.25,-0.88623046875,2.57958984375,44.01235294117648,169.45478580651678
0.0013642578125,0.0542255859375,1.0110400390625005,1.0124940671219491,0.17578125,-0.626953125,2.36962890625,42.88294117647059,169.6317978578315
-0.0127958984375,0.0635029296875,1.0002978515625005,1.0023932107393148,0.1279296875,-0.49169921875,2.14306640625,43.16529411764706,169.6317978578315
-0.0152373046875,0.0605732421875,0.9851611328125,0.987139174953387,0.13916015625,-0.4658203125,1.98681640625,42.93,169.6317978578315
-0.0171904296875,0.0478779296875,0.9714892578125,0.9728202223787724,0.1396484375,-0.4501953125,1.90087890625,42.60058823529412,169.6317978578315
-0.0147490234375,0.0410419921875,0.9797900390625,0.9807601640876192,0.17236328125,-0.60986328125,1.80712890625,43.25941176470588,169.57660677572275
-0.0259794921875,0.0117451171875,0.9685595703125,0.9689791138285712,0.21435546875,-0.748046875,1.8388671875,43.91823529411765,169.57660677572275
-0.0191435546875,-0.0224345703125,0.9710009765625,0.9714487542410606,0.205078125,-0.8037109375,1.97802734375,42.60058823529412,169.57660677572275
-0.0074248046875,-0.0502666015625,0.9636767578125,0.965015415682725,0.2021484375,-1.087890625,2.1142578125,42.69470588235294,169.57660677572275
-0.0098662109375,-0.0898173828125,0.9490283203125,0.9533201231111802,0.1005859375,-1.5966796875,2.27734375,43.02411764705882,169.57660677572275
-0.0167021484375,-0.1293681640625,0.9470751953125,0.9560159565674312,0.03759765625,-2.27001953125,2.41015625,43.91823529411765,169.5035936407738
-0.0162138671875,-0.1493876953125,0.9685595703125,0.9801465269253822,-0.0263671875,-2.8134765625,2.34814453125,42.97705882352941,169.5035936407738
-0.0386748046875,-0.1552470703125,1.0061572265625005,1.018798192932326,-0.06201171875,-2.97705078125,2.1123046875,43.118235294117646,169.5035936407738
-0.0796904296875,-0.1454814453125,1.0388720703125005,1.0520316506595098,-0.1474609375,-2.78125,2.02490234375,43.16529411764706,169.5035936407738
-0.1119169921875,-0.1288798828125,1.0828173828125005,1.0961883605726588,-0.15380859375,-2.443359375,2.0556640625,43.87117647058824,169.4195429813622
-0.1294951171875,-0.1152080078125,1.1003955078125005,1.113962362045262,-0.1259765625,-1.9208984375,2.1513671875,43.118235294117646,169.4195429813622
-0.1353544921875,-0.1254619140625,1.1033251953125005,1.1186545566201074,-0.0859375,-1.39208984375,2.34521484375,43.118235294117646,169.4195429813622
-0.1128935546875,-0.1401103515625,1.1077197265625005,1.1222383249206236,-0.0107421875,-1.15087890625,2.4541015625,42.69470588235294,169.4195429813622
-0.0909208984375,-0.1435283203125,1.1155322265625005,1.128396710826427,0.00537109375,-1.169921875,2.27197265625,43.02411764705882,169.4195429813622
-0.0669951171875,-0.1425517578125,1.1316455078125005,1.1425545521919782,-0.0263671875,-1.3525390625,1.87353515625,44.01235294117648,169.6186326920388
-0.0313505859375,-0.1391337890625,1.1648486328125005,1.1735473607241695,-0.08544921875,-1.54443359375,1.29638671875,43.91823529411765,169.6186326920388
-0.0093779296875,-0.1362041015625,1.2102587890625005,1.2179350718945166,-0.2490234375,-1.7451171875,1.09619140625,43.30647058823529,169.6186326920388
-0.0059599609375,-0.1503642578125,1.2297900390625005,1.2389626593805103,-0.23193359375,-1.671875,0.9091796875,42.60058823529412,169.6186326920388
0.0003876953125,-0.1669658203125,1.2180712890625005,1.2294614270885698,-0.4150390625,-1.3037109375,0.7763671875,42.55352941176471,169.6407090718136
0.0267548828125,-0.1459697265625,1.1863330078125005,1.195578935182657,-0.64306640625,-0.9931640625,0.8740234375,43.68294117647059,169.6407090718136
0.0282197265625,-0.1249736328125,1.1423876953125005,1.1495496545460844,-0.7470703125,-0.90771484375,1.1953125,43.02411764705882,169.6407090718136
-0.0030302734374999,-0.1010478515625,1.1126025390625005,1.1171858667163783,-0.85302734375,-1.16748046875,1.6103515625,42.69470588235294,169.6407090718136
-0.0337919921875,-0.0771220703125,1.2092822265625005,1.2122100543821783,-0.79296875,-1.6376953125,1.69091796875,43.25941176470588,169.6407090718136
-0.0709013671875,-0.0815166015625,1.0574267578125005,1.062931469257173,-0.67041015625,-1.66015625,1.4072265625,44.01235294117648,169.27139179611171
-0.1041044921875,-0.1073955078125,1.0662158203125005,1.0766558019518495,-0.47998046875,-1.44775390625,1.29833984375,42.788823529411765,169.27139179611171
-0.1094755859375,-0.1293681640625,1.0335009765625005,1.0473038214123458,-0.4169921875,-0.69287109375,1.18212890625,43.353529411764704,169.27139179611171
-0.1133818359375,-0.1371806640625,1.0305712890625005,1.0458255863924588,-0.38671875,-0.017578125,1.2724609375,44.01235294117648,169.27139179611171
-0.0928740234375,-0.1186259765625,1.0134814453125005,1.0246181466954365,-0.34619140625,0.12890625,1.3798828125,43.02411764705882,169.4305812061386
-0.0367216796875,-0.1039775390625,0.9700244140625,0.9762720800401196,-0.349609375,0.96533203125,1.24560546875,43.16529411764706,169.4305812061386
-0.0025419921874999,-0.0951884765625,0.9216845703125,0.9265903922158424,-0.30126953125,1.673828125,1.169921875,43.777058823529416,169.4305812061386
0.0179658203125,-0.0844462890625,0.8635791015625001,0.8678841000337678,-0.24267578125,1.904296875,1.134765625,42.69470588235294,169.4305812061386
0.0438447265625,-0.0590556640625,0.8298876953125001,0.833140755416692,-0.22998046875,1.5078125,0.8505859375,43.30647058823529,169.4305812061386
0.0536103515625,-0.0444072265625,0.8333056640625001,0.8362083480355074,-0.23681640625,0.70654296875,0.50048828125,43.73,169.4437474923497
0.0277314453125,-0.0419658203125,0.8694384765625001,0.8708923169146356,-0.17236328125,0.04736328125,0.23486328125,43.118235294117646,169.4437474923497
0.0067353515625,-0.0463603515625,0.9285205078125,0.9297015545787004,-0.1328125,-0.15283203125,0.01708984375,42.55352941176471,169.4437474923497
-0.0123076171875,-0.0483134765625,0.9944384765625,0.9956874776386088,-0.05810546875,0.07958984375,-0.1455078125,42.55352941176471,169.4437474923497
-0.0230498046875,-0.0517314453125,1.0203173828125005,1.021887957458939,-0.00244140625,0.615234375,-0.2548828125,43.25941176470588,169.5434922940665
-0.0254912109375,-0.0414775390625,1.0330126953125005,1.0341592801684554,0.0146484375,1.2646484375,-0.34228515625,43.25941176470588,169.5434922940665
0.0013642578125,-0.0385478515625,1.0129931640625005,1.0137272554769448,0.0263671875,1.98388671875,-0.39453125,43.25941176470588,169.5434922940665
0.0394501953125,-0.0527080078125,0.9763720703125,0.9785892252033406,0.03173828125,2.22900390625,-0.4833984375,43.777058823529416,169.5434922940665
0.0663056640625,-0.0727275390625,0.9470751953125,0.9521749637545962,0.01953125,2.26025390625,-0.5966796875,43.777058823529416,169.5434922940665
0.0643525390625,-0.0986064453125,0.9216845703125,0.9291754018984228,0.04296875,2.02001953125,-0.5390625,42.97705882352941,169.46156822806483
0.0707001953125,-0.1132548828125,0.9021533203125,0.9119790564749648,0.0703125,1.736328125,-0.60546875,43.30647058823529,169.46156822806483
0.0760712890625,-0.1205791015625,0.8938525390625001,0.9051511047011588,0.107421875,1.458984375,-0.72607421875,42.93,169.46156822806483
0.0589814453125,-0.1254619140625,0.9011767578125,0.9117779617828164,0.09716796875,1.27880859375,-0.845703125,43.73,169.46156822806483
0.0540986328125,-0.1225322265625,0.9182666015625,0.927984030123196,0.056640625,1.19287109375,-0.9716796875,42.60058823529412,169.58764496421065
0.0506806640625,-0.1142314453125,0.9377978515625,0.9460878200268936,0.0478515625,1.10400390625,-1.052734375,42.97705882352941,169.58764496421065
0.0560517578125,-0.0917705078125,0.9666064453125,0.9725696097337724,0.076171875,1.01220703125,-1.1513671875,43.02411764705882,169.58764496421065
0.0526337890625,-0.0907939453125,0.9710009765625,0.9766559029370652,0.0419921875,1.0126953125,-1.2529296875,43.118235294117646,169.58764496421065
0.0443330078125,-0.0820048828125,1.0032275390625005,1.007549359346824,-0.0234375,0.89501953125,-1.24560546875,43.118235294117646,169.58764496421065
0.0462861328125,-0.0756572265625,1.0203173828125005,1.0241650178029007,0.03515625,0.62060546875,-1.30712890625,43.16529411764706,169.49255544112438
0.0394501953125,-0.0707744140625,1.0291064453125005,1.0322913403588228,0.060546875,0.58984375,-1.3525390625,42.97705882352941,169.49255544112438
0.0174775390625,-0.0697978515625,1.0183642578125005,1.0209030150040828,0.09130859375,0.8193359375,-1.224609375,43.25941176470588,169.49255544112438
0.0067353515625,-0.0614970703125,0.9983447265625,1.0002596901169436,0.1630859375,1.07470703125,-1.07861328125,44.01235294117648,169.49255544112438
0.0252900390625,-0.0492900390625,0.9568408203125,0.9584432426820398,0.26416015625,1.3076171875,-1.13330078125,43.02411764705882,169.88182982561074
0.0555634765625,-0.0453837890625,0.9031298828125,0.9059749298221784,0.3662109375,1.33984375,-1.244140625,42.74176470588235,169.88182982561074
0.0692353515625,-0.0492900390625,0.8430712890625001,0.8473442277482459,0.43701171875,1.234375,-1.333984375,44.01235294117648,169.88182982561074
0.0785126953125,-0.0595439453125,0.7996142578125001,0.8056628861041365,0.486328125,0.880859375,-1.369140625,43.353529411764704,169.88182982561074
0.0985322265625,-0.0561259765625,0.7561572265625001,0.7646126314671698,0.46044921875,0.38720703125,-1.39111328125,43.118235294117646,169.88182982561074
0.1239228515625,-0.0492900390625,0.7351611328125001,0.7471601383159587,0.4453125,-0.1376953125,-1.5673828125,42.60058823529412,169.57873388549513
0.1649384765625,-0.0429423828125,0.7483447265625001,0.7675080319229738,0.36083984375,-1.04443359375,-1.99609375,43.16529411764706,169.57873388549513
0.1839814453125,-0.0531962890625,0.7781298828125001,0.8013520648972539,0.275390625,-1.80810546875,-2.4296875,43.91823529411765,169.57873388549513
0.1722626953125,-0.0571025390625,0.8250048828125001,0.8447296566524574,0.14501953125,-2.25537109375,-2.6025390625,43.16529411764706,169.57873388549513
0.1756806640625,-0.0375712890625,0.8938525390625001,0.9117278426568628,0.07177734375,-2.66455078125,-2.62890625,43.118235294117646,169.5235428453172
0.1766572265625,-0.0278056640625,0.9377978515625,0.9546966748899632,-0.09033203125,-2.8525390625,-2.7421875,43.25941176470588,169.5235428453172
0.1498017578125,-0.0268291015625,0.9509814453125,0.9630815524466334,-0.33447265625,-2.9052734375,-2.77197265625,43.777058823529416,169.5235428453172
0.1190400390625,-0.0253642578125,1.0017626953125005,1.0091295130924207,-0.45751953125,-3.515625,-2.70556640625,43.91823529411765,169.5235428453172
0.0985322265625,-0.0610087890625,1.0261767578125005,1.0327000582399577,-0.49560546875,-4.490234375,-2.7626953125,42.60058823529412,169.5235428453172
0.1131806640625,-0.1313212890625,1.0378955078125005,1.0522747876938006,-0.625,-5.0341796875,-3.00439453125,42.55352941176471,169.65174728265407
0.1234345703125,-0.2050517578125,1.0657275390625005,1.0922717171319785,-0.76318359375,-5.24609375,-2.767578125,43.91823529411765,169.65174728265407
0.1209931640625,-0.2568095703125,1.0813525390625005,1.1179954449329663,-0.71875,-5.1943359375,-1.9912109375,43.25941176470588,169.65174728265407
0.1454072265625,-0.2875712890625,1.0593798828125005,1.1073058493196417,-0.66943359375,-4.54052734375,-1.14013671875,42.97705882352941,169.65174728265407
0.1024384765625,-0.2524150390625,1.0574267578125005,1.0919516205231925,-0.85400390625,-4.267578125,-0.80615234375,43.118235294117646,169.72263514662595
0.0604462890625,-0.1147197265625,1.0730517578125005,1.0808581981316971,-1.1328125,-4.54736328125,-1.28076171875,42.55352941176471,169.72263514662595
0.0404267578125,0.0293232421875,1.1067431640625005,1.1078693995587618,-1.38671875,-4.6328125,-2.359375,42.97705882352941,169.72263514662595
0.0355439453125,0.1157490234375,1.1365283203125005,1.14296011800389,-1.50732421875,-3.8896484375,-3.19775390625,42.55352941176471,169.72263514662595
0.0633759765625,0.1543232421875,1.1423876953125005,1.1545050124992609,-1.4873046875,-2.58935546875,-3.33544921875,42.93,169.72263514662595
0.0780244140625,0.1782490234375,1.1614306640625005,1.1776169627560904,-1.40673828125,-1.33984375,-3.00830078125,43.25941176470588,169.27139179611171
0.1278291015625,0.1836201171875,1.1575244140625005,1.1789484279615294,-1.13671875,-0.828125,-2.86181640625,43.87117647058824,169.27139179611171
0.1639619140625,0.1552998046875,1.1541064453125005,1.1759945687420794,-0.98779296875,-0.83056640625,-2.9970703125,42.60058823529412,169.27139179611171
0.1600556640625,0.1142841796875,1.1838916015625005,1.2001158333992408,-0.78955078125,-0.8671875,-3.02197265625,43.25941176470588,169.27139179611171
0.1385712890625,0.0630146484375,1.1912158203125005,1.2009029846881587,-0.6337890625,-0.5810546875,-2.9345703125,43.25941176470588,169.5256700819739
0.1073212890625,0.0386005859375,1.1926806640625005,1.198121459097249,-0.5849609375,-0.3193359375,-2.7958984375,43.30647058823529,169.5256700819739
0.0809541015625,0.0171162109375,1.1863330078125005,1.1892150926817664,-0.4833984375,-0.11962890625,-2.85400390625,43.777058823529416,169.5256700819739
0.0721650390625,-0.0082744140624999,1.1384814453125005,1.1407963271819423,-0.43994140625,0.28125,-2.94189453125,44.01235294117648,169.5256700819739
0.0540986328125,-0.0380595703125,1.0862353515625005,1.0882474130218105,-0.51513671875,0.74560546875,-2.9404296875,43.16529411764706,169.5256700819739
0.0238251953125,-0.0605205078125,1.0374072265625005,1.039444142569316,-0.66357421875,0.970703125,-2.8486328125,42.69470588235294,169.43949183156496
0.0091767578125,-0.0512431640625,1.0173876953125005,1.0187187037256,-0.837890625,0.9013671875,-2.8193359375,42.60058823529412,169.43949183156496
0.0238251953125,-0.0014384765624999,1.0227587890625005,1.0230372670392274,-0.951171875,0.6689453125,-2.95068359375,42.97705882352941,169.43949183156496
0.0057587890625,0.0117451171875,1.0247119140625005,1.024795403117543,-1.0927734375,0.4794921875,-3.1630859375,43.87117647058824,169.43949183156496
-0.0049833984375,0.0224873046875,1.0637744140625005,1.0640237389955691,-1.0927734375,0.17919921875,-3.2724609375,42.55352941176471,169.2404054214217
0.0106416015625,0.0644794921875,1.0833056640625005,1.0852750851219557,-1.0537109375,0.23193359375,-3.42431640625,43.25941176470588,169.2404054214217
0.1087861328125,0.1191669921875,1.0950244140625005,1.1068485271762512,-1.08935546875,0.6171875,-3.97509765625,42.55352941176471,169.2404054214217
0.1385712890625,0.1445576171875,1.0720751953125005,1.090616399676672,-1.1513671875,1.13671875,-4.3583984375,42.60058823529412,169.2404054214217
0.1419892578125,0.1665302734375,1.0520556640625005,1.074576382390429,-1.12646484375,1.24560546875,-4.48193359375,44.01235294117648,169.2404054214217
0.1566376953125,0.1748310546875,0.9880908203125,1.0155908302371504,-1.041015625,1.2265625,-4.564453125,43.777058823529416,169.7048115674593
0.1722626953125,0.1709248046875,0.9387744140625,0.9696324693161722,-0.90478515625,1.09326171875,-4.58984375,42.60058823529412,169.7048115674593
0.2054658203125,0.1694599609375,0.8948291015625001,0.9336230517081175,-0.75439453125,0.60986328125,-4.751953125,42.60058823529412,169.7048115674593
0.2186494140625,0.1440693359375,0.8508837890625001,0.8902621874013879,-0.626953125,-0.447265625,-5.2509765625,43.16529411764706,169.7048115674593
0.2069306640625,0.1372333984375,0.8479541015625001,0.8835606734869539,-0.7939453125,-1.1787109375,-5.74462890625,43.25941176470588,169.4195429813622
0.2103486328125,0.1211201171875,0.8640673828125001,0.8975127142018909,-0.8916015625,-1.28369140625,-6.10546875,43.777058823529416,169.4195429813622
0.2005830078125,0.1177021484375,0.8752978515625001,0.9056675260380276,-1.07861328125,-0.9033203125,-6.416015625,42.55352941176471,169.4195429813622
0.2054658203125,0.1303974609375,0.8977587890625001,0.9301561935904108,-1.1845703125,-0.4794921875,-6.79541015625,44.01235294117648,169.4195429813622
0.2137666015625,0.1450458984375,0.9099658203125,0.9459240279928,-1.3125,-0.107421875,-7.2275390625,43.49470588235295,169.4195429813622
0.2162080078125,0.1611591796875,0.9172900390625,0.9561062700364856,-1.4150390625,0.0517578125,-7.6083984375,44.01235294117648,169.80881435253414
0.2337861328125,0.1679951171875,0.9226611328125,0.9665308486008668,-1.47021484375,0.162109375,-7.95263671875,42.60058823529412,169.80881435253414
0.2411103515625,0.1714130859375,0.9246142578125,0.9707873986673752,-1.3759765625,0.39111328125,-8.130859375,44.01235294117648,169.80881435253414
0.2450166015625,0.1733662109375,0.9148486328125,0.9628276061138688,-1.59619140625,0.69091796875,-8.55322265625,43.777058823529416,169.80881435253414
0.2528291015625,0.1767841796875,0.9065478515625,0.9576033667219784,-1.64501953125,0.830078125,-8.81982421875,42.60058823529412,169.59655636812582
0.2679658203125,0.1762958984375,0.8967822265625001,0.9524202258142316,-1.68994140625,0.53173828125,-9.0498046875,43.25941176470588,169.59655636812582
0.2933564453125,0.1792255859375,0.8948291015625001,0.9585921633646798,-1.693359375,0.240234375,-9.337890625,43.16529411764706,169.59655636812582
0.2977509765625,0.1816669921875,0.9026416015625,0.9676881734141896,-1.7431640625,-0.16162109375,-9.58349609375,43.30647058823529,169.59655636812582
0.2855439453125,0.1816669921875,0.9114306640625,0.972236646166195,-1.796875,-0.24609375,-9.8251953125,43.25941176470588,169.59655636812582
0.2757783203125,0.1689716796875,0.9231494140625,0.9781666275102296,-1.88134765625,-0.16845703125,-10.09033203125,43.25941176470588,169.6186326920388
0.2684541015625,0.1645771484375,0.9290087890625,0.9809233265596862,-1.94970703125,-0.0029296875,-10.3154296875,43.02411764705882,169.6186326920388
0.2752900390625,0.1601826171875,0.9353564453125,0.988096531844792,-2.02099609375,0.046875,-10.55322265625,43.118235294117646,169.6186326920388
0.2733369140625,0.1538349609375,0.9343798828125,0.9856186023003796,-2.05908203125,0.15478515625,-10.759765625,43.87117647058824,169.6186326920388
0.2577119140625,0.1552998046875,0.9348681640625,0.9820956899219764,-2.2001953125,0.2265625,-10.9072265625,42.69470588235294,169.37326297730002
0.2625947265625,0.1577412109375,0.9324267578125,0.981457048846863,-2.23876953125,0.255859375,-11.02685546875,43.25941176470588,169.37326297730002
0.2845673828125,0.1621357421875,0.9309619140625,0.9868924357245632,-2.2412109375,0.34716796875,-11.15380859375,42.60058823529412,169.37326297730002
0.2796845703125,0.1645771484375,0.9163134765625,0.9720799781853148,-2.31689453125,0.57958984375,-11.224609375,43.353529411764704,169.37326297730002
0.2640595703125,0.1694599609375,0.9138720703125,0.9662330443178891,-2.23974609375,0.74658203125,-11.22607421875,42.60058823529412,169.37326297730002
0.2464814453125,0.1772724609375,0.8840869140625001,0.934766441367431,-2.1787109375,0.50048828125,-11.10400390625,42.69470588235294,169.34653122190397
0.2762666015625,0.1831318359375,0.8909228515625001,0.9505808918282488,-2.0146484375,0.20849609375,-11.18115234375,42.60058823529412,169.34653122190397
0.2928681640625,0.1826435546875,0.8865283203125001,0.9513479344100813,-1.85791015625,-0.021484375,-11.32177734375,43.25941176470588,169.34653122190397
0.2953095703125,0.1787373046875,0.8835986328125001,0.9486312825925702,-1.76611328125,-0.15625,-11.4384765625,43.91823529411765,169.34653122190397
0.2718720703125,0.1631123046875,0.8626025390625001,0.9190229523540446,-1.74609375,0.2373046875,-11.466796875,43.91823529411765,169.72263514662595
0.2665009765625,0.1631123046875,0.8381884765625001,0.8945324570362994,-1.71337890625,0.35009765625,-11.39208984375,42.88294117647059,169.72263514662595
0.2591767578125,0.1738544921875,0.8289111328125001,0.8857153280509912,-1.6748046875,0.05859375,-11.34375,43.25941176470588,169.72263514662595
0.2533173828125,0.1728779296875,0.8152392578125001,0.8710175213431053,-1.58251953125,-0.1826171875,-11.37744140625,43.25941176470588,169.72263514662595
0.2557587890625,0.1543232421875,0.8201220703125001,0.8728278361026529,-1.6201171875,-0.27978515625,-11.30517578125,43.777058823529416,169.72263514662595
0.2767548828125,0.1250263671875,0.8347705078125001,0.8882942408719103,-1.28662109375,-0.416015625,-11.076171875,43.02411764705882,169.54561921948908
0.3031220703125,0.0693623046875,0.8176806640625001,0.8748118581751101,-1.0888671875,-0.34130859375,-10.7744140625,42.60058823529412,169.54561921948908
0.3226533203125,0.0302998046875,0.7878955078125001,0.851940475915952,-1.00390625,-0.30615234375,-10.57177734375,43.118235294117646,169.54561921948908
0.3416962890625,-0.0243876953125,0.7532275390625001,0.8274677270104792,-0.86279296875,-0.25927734375,-10.4990234375,43.30647058823529,169.54561921948908
0.3739228515625,-0.0820048828125,0.6946337890625001,0.7931325240040589,-0.8583984375,0.0615234375,-10.1591796875,43.25941176470588,169.73367328485497
0.4051728515625,-0.1186259765625,0.6755908203125001,0.7966555833289636,-0.78173828125,0.03662109375,-9.8828125,43.16529411764706,169.73367328485497
0.4500947265625,-0.1103251953125,0.6687548828125001,0.8136276819809375,-0.7177734375,-0.5986328125,-9.63427734375,43.16529411764706,169.73367328485497
0.4710908203125,-0.0898173828125,0.6834033203125001,0.8348855139790969,-0.65185546875,-1.541015625,-9.65478515625,42.55352941176471,169.73367328485497
0.5028291015625,-0.1064189453125,0.5877001953125001,0.7807391477759563,-0.6337890625,-2.2548828125,-9.86962890625,42.55352941176471,169.73367328485497
0.5135712890625,-0.1396220703125,0.7903369140625001,0.9528285413428286,-0.74951171875,-3.3251953125,-9.88671875,42.55352941176471,169.691646864922
0.5506806640625,-0.2265361328125,0.8655322265625001,1.0505778640634866,-0.51904296875,-4.39013671875,-9.9599609375,42.69470588235294,169.691646864922
0.5096650390625,-0.3407939453125,0.9412158203125,1.1232925645666725,-0.71533203125,-4.9716796875,-9.837890625,43.447647058823534,169.691646864922
0.4417939453125,-0.4535869140625,1.0369189453125005,1.2149583852426855,-0.94091796875,-4.82958984375,-9.02197265625,43.447647058823534,169.691646864922
0.4144501953125,-0.5688212890625,1.1321337890625005,1.3330617163591143,-1.1064453125,-3.83740234375,-7.796875,43.118235294117646,169.43949183156496
0.3783173828125,-0.6249736328125,1.1931689453125005,1.3990597613780111,-1.21044921875,-2.05029296875,-6.52099609375,42.55352941176471,169.43949183156496
0.3319306640625,-0.5893291015625,1.1956103515625005,1.3736705822200754,-1.45263671875,0.078125,-5.32861328125,43.118235294117646,169.43949183156496
0.3368134765625,-0.4443095703125,1.1873095703125005,1.3117005481515398,-1.58447265625,1.36572265625,-4.98779296875,43.25941176470588,169.43949183156496
0.3470673828125,-0.2919658203125,1.1506884765625005,1.2368442822509216,-1.62646484375,1.5556640625,-5.3525390625,43.25941176470588,169.43949183156496
0.3817353515625,-0.2143291015625,1.1521533203125005,1.2325242861364851,-2.2109375,1.17822265625,-5.775390625,42.97705882352941,169.46156822806483
0.3890595703125,-0.1850322265625,1.2151416015625005,1.28925303411173,-2.373046875,0.65380859375,-5.560546875,42.69470588235294,169.46156822806483
0.3807587890625,-0.1943095703125,1.2361376953125005,1.307964015688455,-2.3759765625,0.4619140625,-4.81982421875,43.118235294117646,169.46156822806483
0.3836884765625,-0.1816142578125,1.2781298828125005,1.3467800796811382,-2.54833984375,0.240234375,-4.30078125,43.16529411764706,169.46156822806483
0.3456025390625,-0.1840556640625,1.3049853515625005,1.362462612431122,-2.56591796875,-0.623046875,-4.283203125,43.02411764705882,169.0302849699379
0.3094697265625,-0.2182353515625,1.3377001953125005,1.3902661590031522,-2.6650390625,-1.21533203125,-4.79638671875,43.16529411764706,169.0302849699379
0.2728486328125,-0.2475322265625,1.4085009765625005,1.4558824061689035,-2.73291015625,-1.353515625,-5.22265625,44.01235294117648,169.0302849699379
0.2372041015625,-0.2631572265625,1.4846728515625005,1.5263587349823324,-2.71728515625,-0.91845703125,-4.98974609375,42.97705882352941,169.0302849699379
0.2010712890625,-0.1586650390625,1.5437548828125005,1.564858906136076,-2.7158203125,-0.208984375,-4.26708984375,43.73,169.0302849699379
0.1786103515625,-0.2778056640625,1.5901416015625005,1.624077571327872,-2.7216796875,0.2734375,-3.5576171875,43.16529411764706,168.9131232184546
0.1659150390625,-0.2402080078125,1.5886767578125005,1.6152775390062226,-2.8486328125,0.41796875,-3.17138671875,44.01235294117648,168.9131232184546
0.1566376953125,-0.2050517578125,1.6086962890625005,1.6292591388168634,-2.98583984375,0.22509765625,-3.05224609375,43.30647058823529,168.9131232184546
0.1341767578125,-0.1987041015625,1.6453173828125005,1.6626954058094376,-3.0732421875,0.05322265625,-2.9208984375,43.447647058823534,168.9131232184546
0.1302705078125,-0.2026103515625,1.6711962890625005,1.6884662852252272,-2.97216796875,0.21044921875,-2.47802734375,43.02411764705882,168.87109994136202
0.1512666015625,-0.1864970703125,1.6995166015625005,1.7163972212078311,-2.8955078125,0.9599609375,-2.02001953125,43.30647058823529,168.87109994136202
0.1146455078125,-0.1659892578125,1.7268603515625005,1.738603663854788,-2.4287109375,2.0859375,-1.4873046875,43.16529411764706,168.87109994136202
0.0794892578125,-0.1528056640625,1.6531298828125005,1.6620789760191406,-1.85986328125,3.2021484375,-0.732421875,43.25941176470588,168.87109994136202
0.1126923828125,-0.0888408203125,1.5491259765625005,1.555758193215924,-1.40625,3.6337890625,-0.15478515625,42.60058823529412,168.87109994136202
0.1082978515625,-0.0258525390625,1.4470751953125005,1.451352265756919,-0.798828125,3.73974609375,-0.24658203125,43.353529411764704,169.10116573084454
0.0809541015625,-0.0190166015625,1.3372119140625005,1.3397950965746497,-0.447265625,3.7197265625,-0.443359375,43.118235294117646,169.10116573084454
0.0282197265625,-0.0302470703125,1.2463916015625005,1.2470778895783878,-0.28662109375,3.6044921875,-0.41650390625,42.60058823529412,169.10116573084454
-0.0123076171875,-0.0258525390625,1.1711962890625005,1.1715462341412668,-0.15625,3.3603515625,-0.375,43.87117647058824,169.10116573084454
-0.0127958984375,-0.0165751953125,1.0837939453125005,1.0839962121762718,-0.24951171875,3.3232421875,-0.15771484375,43.02411764705882,168.99717027059972
0.0467744140625,0.0122333984375,0.9592822265625,0.960499813663141,-0.54052734375,3.38525390625,-0.17724609375,43.25941176470588,168.99717027059972
0.1483369140625,0.0722919921875,0.8157275390625001,0.8322507976523577,-1.11865234375,3.3662109375,-0.0791015625,43.87117647058824,168.99717027059972
0.2782197265625,0.1382099609375,0.7195361328125001,0.7837349398703781,-1.51953125,2.88330078125,-0.49462890625,42.55352941176471,168.99717027059972
0.2679658203125,0.1762958984375,0.6555712890625001,0.7298353510927683,-1.580078125,2.23388671875,-1.4384765625,43.91823529411765,168.99717027059972
0.1786103515625,0.1841083984375,0.5657275390625001,0.6211643973331163,-1.4501953125,1.42333984375,-2.00634765625,42.55352941176471,168.9861320654261
0.1180634765625,0.1865498046875,0.4646533203125,0.5144341767460626,-0.98876953125,0.96875,-2.70703125,42.55352941176471,168.9861320654261
0.1239228515625,0.1640888671875,0.3831103515625,0.4348052103512569,-0.58056640625,0.4169921875,-3.283203125,43.02411764705882,168.9861320654261
0.1248994140625,0.1147724609375,0.2825244140625,0.3295339526728085,-0.1162109375,0.2919921875,-3.51806640625,43.16529411764706,168.9861320654261
0.1683564453125,0.1108662109375,0.1931689453125,0.2791942886934521,0.24755859375,0.5771484375,-3.837890625,43.353529411764704,169.34653122190397
0.1971650390625,0.0864521484375,0.0886767578125,0.2328338333965093,0.69482421875,1.36083984375,-4.265625,43.16529411764706,169.34653122190397
0.2318330078125,0.0849873046875,0.0002978515625,0.2469199752652464,0.89501953125,2.3037109375,-4.56396484375,43.118235294117646,169.34653122190397
0.3031220703125,0.0981708984375,-0.0817333984374999,0.3289389962146556,1.025390625,2.88330078125,-5.0166015625,43.353529411764704,169.34653122190397
0.3910126953125,0.1250263671875,-0.1388623046874999,0.4333650424881702,1.08203125,2.90576171875,-5.728515625,43.353529411764704,169.34653122190397
0.4798798828125,0.1367451171875,-0.1105419921874999,0.5110806795795975,1.130859375,2.07373046875,-6.25830078125,42.55352941176471,169.92173166810673
0.5921845703125,0.1186787109375,-0.0377880859374999,0.6051405962128197,1.181640625,0.8203125,-6.78662109375,43.91823529411765,169.92173166810673
0.6165986328125,0.1147724609375,0.1140673828125,0.6374778110629323,0.958984375,-0.203125,-7.39599609375,43.16529411764706,169.92173166810673
0.4715791015625,0.1328388671875,0.2869189453125,0.5677635906302819,0.55859375,-0.84423828125,-7.90087890625,43.16529411764706,169.92173166810673
0.3031220703125,0.1426044921875,0.3518603515625,0.4858237722716716,0.2353515625,-1.71533203125,-8.10595703125,44.01235294117648,169.75362361948288
0.2127900390625,0.1118427734375,0.7278369140625001,0.7665083040427125,0.21484375,-2.9091796875,-8.326171875,43.118235294117646,169.75362361948288
0.2264619140625,0.0727802734375,1.0613330078125005,1.0876625028908633,0.44970703125,-4.6630859375,-8.6015625,43.30647058823529,169.75362361948288
0.2362275390625,0.0635029296875,1.4690478515625005,1.489274206608984,0.77392578125,-7.92578125,-8.50341796875,44.01235294117648,169.75362361948288
0.3978486328125,0.0088154296875,1.7957080078125005,1.8392739044941864,0.9716796875,-11.72900390625,-8.4873046875,44.01235294117648,169.75362361948288
0.7235322265625,-0.1337626953125,2.0535205078125003,2.181361459625218,0.31005859375,-13.5087890625,-9.30859375,42.60058823529412,169.3974665737008
0.6624970703125,-0.1410869140625,2.3079150390625003,2.405260840953261,-1.5283203125,-10.962890625,-8.9658203125,43.16529411764706,169.3974665737008
0.4452119140625,-0.0492900390625,2.5115283203125003,2.5511600616397447,-2.52197265625,-2.87841796875,-6.40234375,43.02411764705882,169.3974665737008
0.4867158203125,-0.0131572265624999,2.5481494140625003,2.594249571406026,-1.7060546875,6.69677734375,-4.384765625,43.16529411764706,169.3974665737008
0.1673798828125,-0.1044658203125,2.1023486328125003,2.111586821959372,-1.20751953125,14.05810546875,-3.67431640625,43.87117647058824,169.53245416145515
0.0941376953125,-0.0844462890625,1.7385791015625005,1.7431725025954967,-1.16015625,15.91357421875,-3.3818359375,43.118235294117646,169.53245416145515
0.1214814453125,-0.1313212890625,1.4578173828125005,1.468752717153755,-0.68408203125,13.34765625,-3.45556640625,43.16529411764706,169.53245416145515
0.2518525390625,-0.0922587890625,1.2971728515625005,1.3246126952518218,-0.7841796875,7.8349609375,-3.71826171875,43.777058823529416,169.53245416145515
0.2474580078125,0.0415302734375,1.2673876953125005,1.2919875384352033,-1.18408203125,2.77392578125,-4.189453125,43.777058823529416,169.53245416145515
0.1297822265625,0.1279560546875,1.3899462890625005,1.4018440943062556,-1.63330078125,0.9404296875,-5.044921875,43.91823529411765,169.25144365456066
0.0824189453125,0.1738544921875,1.4563525390625005,1.4690068022422462,-1.70751953125,1.4189453125,-5.5,42.55352941176471,169.25144365456066
0.0663056640625,0.1513935546875,1.4290087890625005,1.4385348687833603,-1.755859375,2.88232421875,-4.673828125,42.97705882352941,169.25144365456066
0.0897431640625,0.0986591796875,1.3367236328125005,1.3433605397479886,-1.490234375,3.88134765625,-3.52490234375,43.91823529411765,169.25144365456066
0.1205048828125,0.0561787109375,1.1702197265625005,1.1777485651786066,-1.38916015625,4.2001953125,-2.9873046875,42.69470588235294,169.11646183392088
0.1073212890625,0.0049091796875,1.0252001953125005,1.0308139500414368,-1.185546875,2.7021484375,-2.4248046875,43.118235294117646,169.11646183392088
0.0736298828125,0.0024677734375,0.8845751953125001,0.8876377221090083,-0.70068359375,1.17529296875,-2.2421875,42.83588235294118,169.11646183392088
0.0023408203125,-0.0185283203125,0.7766650390625001,0.7768895423387373,-0.27783203125,-0.06298828125,-1.55224609375,42.55352941176471,169.11646183392088
-0.0269560546875,-0.0151103515624999,0.7029345703125001,0.7036135031031432,0.1298828125,-0.51025390625,-0.89306640625,43.30647058823529,169.11646183392088
-0.0225615234375,-0.0395244140625,0.5935595703125001,0.5953017429475278,0.49462890625,-0.21044921875,-0.40673828125,42.55352941176471,169.14531851251058
0.0262666015625,-0.0654033203125,0.5061572265625001,0.5110407681066009,0.50390625,0.3759765625,-0.25830078125,43.25941176470588,169.14531851251058
0.0457978515625,-0.1186259765625,0.4075244140625,0.4269024637784743,0.25,1.310546875,-0.2626953125,43.25941176470588,169.14531851251058
0.0467744140625,-0.1718486328125,0.3040087890625,0.352336688747657,-0.18115234375,2.08984375,-0.19677734375,43.02411764705882,169.14531851251058
0.0663056640625,-0.2294658203125,0.1790087890625,0.2984881075354264,-0.47802734375,2.25390625,0.2197265625,43.118235294117646,169.3002506792153
0.0995087890625,-0.2582744140625,0.0979541015625,0.2936029258589386,-0.69580078125,2.111328125,0.61083984375,42.69470588235294,169.3002506792153
0.1790986328125,-0.2646220703125,-0.0089794921874999,0.3196588676256702,-0.75830078125,1.8779296875,0.830078125,43.16529411764706,169.3002506792153
0.2186494140625,-0.2475322265625,-0.0524365234374999,0.3344089688496331,-1.01611328125,1.68505859375,0.9287109375,43.02411764705882,169.3002506792153
0.2572236328125,-0.2436259765625,-0.0802685546874999,0.363263891138263,-0.943359375,1.935546875,1.34033203125,43.02411764705882,169.3002506792153
0.2826142578125,-0.2377666015625,-0.1110302734374999,0.3856572275442233,-0.8046875,2.39208984375,1.9384765625,43.25941176470588,169.77569987079917
0.2640595703125,-0.2275126953125,-0.1442333984374999,0.3772171210679748,-0.74072265625,2.7412109375,2.3388671875,43.16529411764706,169.77569987079917
0.2601533203125,-0.2065166015625,-0.1256787109374999,0.3551394024512829,-0.69140625,2.36767578125,2.0537109375,43.353529411764704,169.77569987079917
0.2987275390625,-0.2045634765625,-0.0412060546874999,0.3643930535569842,-0.46435546875,1.05029296875,1.1748046875,44.01235294117648,169.77569987079917
0.3514619140625,-0.2387431640625,0.1243212890625,0.4426957853167473,-0.177734375,-0.916015625,0.68701171875,43.02411764705882,169.78673801741533
0.2479462890625,-0.2748759765625,0.3235400390625,0.4916424733763519,0.326171875,-2.294921875,0.96435546875,43.91823529411765,169.78673801741533
0.0277314453125,-0.2416728515625,0.5364306640625001,0.5890098960017609,0.73681640625,-2.3828125,2.20654296875,43.16529411764706,169.78673801741533
-0.0005888671874999,-0.1493876953125,0.8543017578125001,0.867264967398587,1.18408203125,-2.86279296875,2.94189453125,42.60058823529412,169.78673801741533
0.3456025390625,0.2407490234375,1.3723681640625005,1.4355471378623672,1.904296875,-7.220703125,2.0458984375,43.16529411764706,169.78673801741533
0.9007783203125,0.3823505859375,1.8523486328125005,2.094943677141249,2.70458984375,-15.23876953125,-0.2578125,43.16529411764706,169.21832899704015
1.3622041015625,0.1450458984375,2.0002978515625003,2.424423606124308,1.16357421875,16.0,-3.447265625,42.97705882352941,169.21832899704015
0.9447236328125,-0.0434306640625,2.3557666015625003,2.538508468769149,-1.95263671875,-13.18212890625,-4.3798828125,43.02411764705882,169.21832899704015
0.6576142578125,-0.2480205078125,3.1111376953125003,3.189537340049217,-2.552734375,-4.4169921875,-3.58642578125,42.97705882352941,169.21832899704015
0.3665986328125,-0.5722392578125,2.9661181640625003,3.0429770437752715,-1.033203125,2.04931640625,-0.45703125,43.25941176470588,169.05914161264246
0.0716767578125,-0.4340556640625,2.4627001953125003,2.5016862571288745,-2.078125,7.76416015625,3.60205078125,42.69470588235294,169.05914161264246
0.0248017578125,-0.1205791015625,2.2268603515625003,2.230260404590745,-3.115234375,10.46142578125,3.83837890625,42.93,169.05914161264246
0.0355439453125,0.1362568359375,1.9924853515625005,1.9974551743604203,-2.7275390625,8.67724609375,2.49560546875,43.777058823529416,169.05914161264246
0.0189423828125,0.3198505859375,1.8762744140625005,1.9034360740662544,-0.8193359375,4.79638671875,1.41552734375,42.60058823529412,169.05914161264246
0.0111298828125,0.2768818359375,1.7073291015625005,1.7296705138279242,1.24560546875,1.01416015625,1.8466796875,42.60058823529412,168.776015652047
0.1092744140625,0.0884052734375,1.5457080078125005,1.5520855760414598,1.9169921875,-0.2802734375,2.39501953125,42.60058823529412,168.776015652047
0.1009736328125,-0.0634501953125,1.4832080078125005,1.4879944879762403,2.28759765625,-0.22412109375,3.28173828125,42.74176470588235,168.776015652047
0.1092744140625,-0.1894267578125,1.3796923828125005,1.396916055221248,2.07373046875,0.53857421875,3.9443359375,43.16529411764706,168.776015652047
0.0711884765625,-0.2543681640625,1.3250048828125005,1.3510769413918602,1.4443359375,1.20556640625,3.9013671875,43.30647058823529,168.87109994136202
0.0296845703125,-0.2201884765625,1.2766650390625005,1.295854066201132,1.37060546875,1.93212890625,3.93896484375,42.55352941176471,168.87109994136202
0.0951142578125,-0.2187236328125,1.0906298828125005,1.116405074725804,1.24853515625,2.755859375,4.19921875,43.16529411764706,168.87109994136202
0.1952119140625,-0.1904033203125,0.8860400390625001,0.9270534324405718,0.53173828125,2.22900390625,4.39599609375,43.777058823529416,168.87109994136202
0.2196259765625,-0.0771220703125,0.7747119140625001,0.8089264077162399,0.07275390625,0.8134765625,4.1201171875,43.02411764705882,168.87109994136202
0.1498017578125,0.0312763671875,0.6785205078125001,0.6955636975218698,-0.30810546875,-0.61328125,4.072265625,43.118235294117646,169.09012757035148
0.0277314453125,0.1279560546875,0.5212939453125001,0.5374841043321955,-0.67333984375,-1.40966796875,4.44873046875,42.69470588235294,169.09012757035148
-0.0660185546875,0.1518818359375,0.4143603515625,0.4462298091765842,-0.9638671875,-1.787109375,5.12744140625,43.25941176470588,169.09012757035148
0.1170869140625,0.0932880859375,0.4392626953125,0.4640729769290213,0.2236328125,-1.82421875,4.26318359375,42.60058823529412,169.09012757035148
