AccX,AccY,AccZ,Magnitude,GyroX,GyroY,GyroZ,Temperature,Altitude
0.6527314453125,0.2959248046875,0.1101611328125,0.7250967555517082,1.9345703125,1.49462890625,-4.75830078125,38.36529411764706,112.80728205977036
0.4012666015625,0.2705341796875,0.1628955078125,0.5106256695214204,1.853515625,2.59619140625,-3.92333984375,38.31823529411765,112.80728205977036
0.1395478515625,0.2109638671875,0.2156298828125,0.332378703433519,1.2685546875,3.5966796875,-1.337890625,38.08294117647059,112.80728205977036
0.0833955078125,0.1054951171875,0.5554736328125001,0.5715198922379039,-0.0498046875,-0.6533203125,0.88623046875,38.64764705882353,112.80728205977036
0.1332001953125,0.4092060546875,1.5813525390625005,1.6388617208366345,-1.291015625,-13.2890625,2.8154296875,38.45941176470589,113.00429874255774
0.6888642578125,0.5503193359375,2.9387744140625003,3.068188454763926,0.185546875,16.0,2.71337890625,38.64764705882353,113.00429874255774
0.8426728515625,-0.0370830078125,3.0652392578125003,3.1791766845936427,1.78955078125,16.0,-1.4638671875,39.40058823529412,113.00429874255774
0.2870087890625,-0.1171611328125,3.1497119140625003,3.164930633936278,1.88916015625,16.0,-0.3271484375,38.36529411764706,113.00429874255774
0.2850556640625,0.1675068359375,3.3489306640625003,3.36521200883362,1.05712890625,-9.69677734375,2.27587890625,38.27117647058824,112.50221380615892
0.1058564453125,0.2778583984375,2.9573291015625003,2.972239272256679,0.15283203125,9.52978515625,-1.146484375,38.45941176470589,112.50221380615892
0.2010712890625,0.3452412109375,2.6985400390625003,2.7279551864791123,0.7607421875,15.99951171875,-6.3212890625,38.60058823529412,112.50221380615892
-0.0176787109375,0.1684833984375,2.1770556640625003,2.1836370020669817,1.86572265625,15.99951171875,-8.33544921875,38.64764705882353,112.50221380615892
-0.2076201171875,-0.0434306640625,1.5408251953125005,1.555356749479574,1.69775390625,15.99951171875,-7.61328125,38.64764705882353,112.50221380615892
-0.3267607421875,-0.1117900390625,1.1409228515625005,1.1920463701912054,1.23974609375,15.99951171875,-5.75537109375,38.45941176470589,111.93516304283732
-0.0962919921875,-0.0370830078125,0.5154345703125001,0.525661576968577,1.08642578125,15.99951171875,-5.68798828125,38.64764705882353,111.93516304283732
0.2850556640625,0.1084248046875,0.1619189453125,0.3452975741831207,0.03515625,3.57666015625,-6.4052734375,38.03588235294118,111.93516304283732
-0.0054716796875,0.1489521484375,0.3440478515625,0.3749474709442933,0.3115234375,-4.9775390625,-6.8173828125,38.64764705882353,111.93516304283732
-0.1260771484375,0.1035419921875,0.5437548828125001,0.5677021790399641,0.171875,-7.59033203125,-6.517578125,38.64764705882353,111.96992601128154
-0.1314482421875,0.1958271484375,0.7278369140625001,0.7650970434600891,-0.2939453125,-8.5537109375,-6.814453125,38.36529411764706,111.96992601128154
-0.2686552734375,0.2475849609375,0.8430712890625001,0.918827060588502,-0.04736328125,-8.7021484375,-7.365234375,39.44764705882353,111.96992601128154
-0.3042998046875,0.2593037109375,0.9168017578125,1.0001811079833989,0.50634765625,-8.1162109375,-7.50634765625,38.64764705882353,111.96992601128154
-0.2667021484375,0.1963154296875,0.9685595703125,1.0236099966093046,0.90185546875,-6.62646484375,-7.0341796875,38.506470588235295,111.96992601128154
-0.1827177734375,0.1528583984375,0.9641650390625,0.9931594520786816,1.30224609375,-4.80615234375,-6.5458984375,38.45941176470589,111.93639905759186
-0.1563505859375,0.0864521484375,0.9060595703125,0.9235060501411624,1.70361328125,-3.14453125,-5.2587890625,38.45941176470589,111.93639905759186
-0.1265654296875,-0.0019267578124999,0.7918017578125001,0.8018556878033694,1.904296875,-1.72216796875,-3.310546875,38.506470588235295,111.93639905759186
-0.0987333984375,-0.0785869140625,0.6917041015625001,0.7031207230250508,1.841796875,-0.021484375,-0.93212890625,38.64764705882353,111.93639905759186
-0.0308623046875,-0.1269267578125,0.6218798828125001,0.635450605748634,1.6728515625,1.80517578125,1.00927734375,38.64764705882353,111.82340572611588
-0.0040068359375,-0.1000712890625,0.5501025390625001,0.5591449911354567,1.455078125,3.54541015625,2.21728515625,38.36529411764706,111.82340572611588
0.0145478515625,-0.0824931640625,0.4480517578125,0.4558148086460095,1.3369140625,4.93310546875,2.12548828125,38.69470588235294,111.82340572611588
0.0633759765625,-0.0961650390625,0.2913134765625,0.3132535247528317,1.02099609375,5.7490234375,0.904296875,38.60058823529412,111.82340572611588
0.1004853515625,-0.1132548828125,0.1248095703125,0.1962177443584122,0.53662109375,5.091796875,-0.5185546875,38.60058823529412,111.82340572611588
0.1600556640625,-0.1606181640625,0.0291064453125,0.2286114506843994,-0.0986328125,3.74267578125,-1.22900390625,38.788823529411765,111.70710026263666
0.2577119140625,-0.2074931640625,0.0232470703125,0.3316764538832071,-0.732421875,1.96240234375,-0.7958984375,38.31823529411765,111.70710026263666
0.2884736328125,-0.2328837890625,0.0833056640625,0.3799891178718704,-0.95703125,1.64794921875,0.32470703125,38.03588235294118,111.70710026263666
0.2992158203125,-0.3056376953125,0.0710986328125,0.433589118300985,-1.03125,2.6005859375,1.47607421875,38.64764705882353,111.70710026263666
0.2640595703125,-0.3134501953125,0.0374072265625,0.4115553209644661,-0.89599609375,3.97265625,1.9814453125,38.506470588235295,112.2339967312694
0.3211884765625,-0.3085673828125,-0.0236279296874999,0.4460203428921298,-0.658203125,4.2421875,1.484375,38.506470588235295,112.2339967312694
0.4090791015625,-0.3173564453125,-0.0040966796874999,0.5177621147795868,-0.3642578125,2.68310546875,0.70458984375,38.03588235294118,112.2339967312694
0.3973603515625,-0.3739970703125,0.1580126953125,0.5680995242702881,-0.06982421875,-0.60595703125,0.6806640625,38.45941176470589,112.2339967312694
0.1600556640625,-0.4423564453125,0.2620166015625,0.5384698132693797,-0.06201171875,-3.13330078125,0.49609375,38.506470588235295,112.2339967312694
0.0306611328125,-0.3822978515625,0.6067431640625001,0.7177945524390826,0.7578125,-9.00537109375,0.75634765625,38.506470588235295,112.65578333357688
0.5775361328125,-0.2880595703125,1.2556689453125005,1.4118182606039795,2.74560546875,16.0,2.20361328125,39.21235294117647,112.65578333357688
1.0941376953125,-0.3149150390625,2.2415087890625003,2.5140943557424253,4.09716796875,16.0,5.21240234375,38.45941176470589,112.65578333357688
0.6268525390625,-0.0961650390625,2.8132861328125003,2.8838811843663232,1.845703125,16.0,8.37646484375,38.31823529411765,112.65578333357688
0.3285126953125,0.4941669921875,3.3557666015625003,3.4078279139814933,-2.20556640625,16.0,7.560546875,38.64764705882353,112.19715960508752
0.2689423828125,0.8828388671875,3.8606494140625,3.969426705330494,-3.0400390625,-3.078125,4.73046875,38.36529411764706,112.19715960508752
0.5638642578125,0.5166279296875,3.2942431640625003,3.381846439882235,-1.78369140625,14.9599609375,3.11865234375,38.45941176470589,112.19715960508752
0.2704072265625,0.0757099609375,2.7585986328125003,2.7728538517775108,-0.6025390625,15.99951171875,2.81298828125,38.36529411764706,112.19715960508752
-0.0499052734375,-0.2211650390625,2.0051806640625003,2.017957880222112,-0.90869140625,15.99951171875,3.26025390625,38.36529411764706,112.19715960508752
-0.1744169921875,-0.2172587890625,1.4470751953125005,1.4736516852626165,-1.99951171875,15.99951171875,1.654296875,38.69470588235294,112.23855109109644
-0.2081083984375,-0.0673564453125,1.0828173828125005,1.1046897667428035,-2.05908203125,15.99951171875,0.0078125,38.69470588235294,112.23855109109644
-0.1602568359375,0.0654560546875,0.9265673828125,0.9425995244280352,-0.5146484375,10.1943359375,0.29296875,38.64764705882353,112.23855109109644
-0.2178740234375,0.0727802734375,0.8455126953125001,0.8761608164173345,0.59521484375,1.98193359375,3.1337890625,38.36529411764706,112.23855109109644
-0.1705107421875,0.1523701171875,0.8640673828125001,0.8938137433791831,0.32568359375,-2.1845703125,5.615234375,39.40058823529412,111.7484894539146
-0.1324248046875,0.2285419921875,0.8865283203125001,0.9250406660280708,-0.26708984375,-4.533203125,6.787109375,38.506470588235295,111.7484894539146
-0.0611357421875,0.1640888671875,0.9426806640625,0.958806325440654,-0.18408203125,-5.12255859375,6.537109375,38.64764705882353,111.7484894539146
-0.0333037109375,0.0683857421875,0.9758837890625,0.9788436630288444,0.18408203125,-3.85791015625,5.107421875,38.506470588235295,111.7484894539146
-0.0181669921875,-0.0322001953125,0.9426806640625,0.943405388250788,0.474609375,-1.17919921875,3.29541015625,38.506470588235295,111.7484894539146
-0.0450224609375,-0.0776103515625,0.8889697265625001,0.8934861853454309,0.24755859375,0.74658203125,1.97900390625,38.788823529411765,111.73855171491498
-0.0596708984375,-0.0668681640625,0.8025439453125001,0.8075325081030367,-0.2265625,0.7412109375,1.361328125,38.506470588235295,111.73855171491498
-0.0459990234375,-0.0063212890624999,0.6960986328125001,0.6976454511111264,-0.7041015625,-0.81591796875,0.87353515625,38.64764705882353,111.73855171491498
-0.0826201171875,0.0376240234375,0.6126025390625001,0.6192927593388475,-1.2138671875,-1.865234375,0.2001953125,38.03588235294118,111.73855171491498
-0.1055693359375,0.0688740234375,0.5481494140625001,0.5624555946310928,-1.3310546875,-1.87255859375,-0.32470703125,38.60058823529412,111.4264759704092
-0.0689482421875,0.0971943359375,0.4202197265625,0.4367896720749474,-1.53125,-0.7265625,-1.2744140625,38.64764705882353,111.4264759704092
-0.0342802734375,0.1362568359375,0.3264697265625,0.3554202369708878,-1.26416015625,0.8154296875,-1.86767578125,38.13,111.4264759704092
0.0238251953125,0.1557880859375,0.2053759765625,0.2588761468361835,-0.787109375,2.3212890625,-2.3154296875,38.64764705882353,111.4264759704092
0.1297822265625,0.1250263671875,0.0901416015625,0.2014957249071954,-0.31298828125,3.7119140625,-2.4853515625,38.64764705882353,111.4264759704092
0.3343720703125,0.1025654296875,0.0134814453125,0.3500087115198175,0.2099609375,4.46484375,-2.6142578125,38.506470588235295,111.9633012671028
0.5443330078125,0.1269794921875,-0.0587841796874999,0.5620300655765054,0.6640625,4.46875,-3.197265625,38.36529411764706,111.9633012671028
0.6175751953125,0.1816669921875,-0.1808544921874999,0.6686631179152356,0.765625,3.705078125,-4.0458984375,38.08294117647059,111.9633012671028
0.6073212890625,0.2324482421875,-0.2619091796874999,0.7010476102585148,0.650390625,1.779296875,-4.287109375,38.64764705882353,111.9633012671028
0.5980439453125,0.2969013671875,-0.1496044921874999,0.6842430024818865,0.54931640625,-0.74609375,-3.37890625,38.64764705882353,112.83378492451682
0.5609345703125,0.3349873046875,0.1194384765625,0.6641759075403412,1.01416015625,-3.154296875,-1.8515625,38.506470588235295,112.83378492451682
0.3431611328125,0.3642841796875,0.3054736328125,0.5863247112201729,1.41259765625,-4.42578125,0.27880859375,38.64764705882353,112.83378492451682
0.1873994140625,0.4111591796875,0.4426806640625,0.6325635001856195,1.30224609375,-4.5576171875,1.58935546875,38.45941176470589,112.83378492451682
0.3040986328125,0.3974873046875,0.7415087890625001,0.8945990275665966,0.734375,-7.5986328125,0.8056640625,38.36529411764706,112.83378492451682
0.3299775390625,0.6128193359375,1.5471728515625005,1.6965189499079167,-0.35498046875,16.0,-0.248046875,38.506470588235295,112.66365017121304
0.6312470703125,0.8623310546875,3.3630908203125003,3.5288054037204684,-1.32958984375,16.0,0.755859375,38.36529411764706,112.66365017121304
0.8075166015625,0.2212177734375,3.5198291015625003,3.618040528972827,0.71533203125,16.0,-1.91943359375,38.36529411764706,112.66365017121304
0.2279267578125,-0.1449931640625,3.4294970703125003,3.4401197333572267,2.51025390625,16.0,-1.5341796875,38.45941176470589,112.66365017121304
0.4906220703125,-0.2284892578125,3.0999072265625003,3.146798717761885,1.8720703125,2.03173828125,-1.13671875,38.45941176470589,112.38963408741148
0.6986298828125,-0.0253642578125,2.7190478515625003,2.8074807706945446,0.2666015625,15.99951171875,-4.92626953125,38.60058823529412,112.38963408741148
0.5775361328125,0.0898701171875,2.3948291015625003,2.46512292763626,-0.3642578125,15.99951171875,-8.380859375,38.64764705882353,112.38963408741148
0.2220673828125,0.0752216796875,1.8943408203125005,1.9087952658958576,-0.1552734375,15.99951171875,-8.57177734375,38.60058823529412,112.38963408741148
-0.0328154296875,-0.0693095703125,1.2903369140625005,1.2926136393968677,-0.05419921875,15.99951171875,-6.79345703125,38.45941176470589,112.38963408741148
-0.0767607421875,-0.1879619140625,0.7644580078125001,0.7909601370409706,0.0634765625,15.99951171875,-5.1767578125,38.36529411764706,112.06512171356496
0.0843720703125,-0.1171611328125,0.2600634765625,0.297453171327017,-0.0263671875,9.833984375,-4.7958984375,38.17705882352941,112.06512171356496
0.3626923828125,-0.0478251953125,0.5593798828125001,0.6683852685032893,-0.92578125,-2.07275390625,-5.11962890625,38.506470588235295,112.06512171356496
0.0550751953125,-0.0712626953125,0.7888720703125001,0.793996720522851,-0.8330078125,-7.23486328125,-4.39794921875,39.40058823529412,112.06512171356496
0.0165009765625,-0.0175517578125,0.8743212890625001,0.8746531100600607,-0.50244140625,-9.87353515625,-3.96337890625,38.45941176470589,111.99806894873522
0.0062470703125,0.0351826171875,0.9128955078125,0.913594576726402,-0.423828125,-9.037109375,-3.95068359375,38.64764705882353,111.99806894873522
0.0028291015625,0.0473896484375,0.9710009765625,0.972160829842475,-0.97021484375,-5.572265625,-4.31494140625,38.506470588235295,111.99806894873522
-0.0860380859375,0.0044208984375,0.9978564453125,1.0015685608217153,-0.98046875,-2.111328125,-4.86572265625,38.45941176470589,111.99806894873522
-0.1675810546875,-0.0175517578125,0.9207080078125,0.9359993107596534,-0.17236328125,-0.6298828125,-4.9208984375,38.36529411764706,111.99806894873522
-0.1944365234375,-0.0927470703125,0.8132861328125001,0.841333414600374,0.74462890625,-0.900390625,-4.02685546875,38.64764705882353,111.34701254908188
-0.1070341796875,-0.1825908203125,0.7678759765625001,0.7965106645021025,1.234375,-1.77783203125,-2.61279296875,38.45941176470589,111.34701254908188
-0.0699248046875,-0.2299541015625,0.7166064453125001,0.7558393775131187,1.17236328125,-1.99072265625,-0.9931640625,38.64764705882353,111.34701254908188
-0.1475615234375,-0.1445048828125,0.6897509765625001,0.7200086624650933,1.09375,-0.9189453125,0.7138671875,38.45941176470589,111.34701254908188
-0.1949248046875,-0.0307353515625,0.6086962890625001,0.6398839845132781,1.04833984375,1.17041015625,1.94384765625,38.31823529411765,111.67026042662688
-0.1705107421875,0.0635029296875,0.4612353515625,0.4958271723203667,1.0546875,3.53173828125,2.22021484375,38.60058823529412,111.67026042662688
-0.1334013671875,0.1391865234375,0.2786181640625,0.3388169039756873,0.94580078125,5.314453125,1.41552734375,38.45941176470589,111.67026042662688
-0.0562529296875,0.1382099609375,0.0950244140625,0.1769068248222593,0.4560546875,5.97314453125,0.2841796875,38.64764705882353,111.67026042662688
0.0433564453125,0.0649677734375,-0.0426708984374999,0.0890022387865921,-0.060546875,5.4482421875,-0.283203125,38.69470588235294,111.67026042662688
0.1576142578125,-0.0444072265625,-0.0592724609374999,0.1741478701056831,-0.451171875,4.3984375,0.34375,38.08294117647059,111.91197666487356
0.2953095703125,-0.1410869140625,-0.0294873046874999,0.3286073048116339,-0.74169921875,4.01953125,1.57373046875,38.08294117647059,111.91197666487356
0.4359345703125,-0.2494853515625,-0.0080029296874999,0.5023404593713225,-0.7001953125,4.84130859375,2.56982421875,38.45941176470589,111.91197666487356
0.4627900390625,-0.3515361328125,-0.0353466796874999,0.5822384912500792,-0.59326171875,6.47509765625,3.0078125,38.506470588235295,111.91197666487356
0.4813447265625,-0.3969462890625,-0.1105419921874999,0.6336234167285794,-0.5546875,7.16064453125,3.08056640625,38.31823529411765,112.46455261292452
0.3138642578125,-0.3769267578125,-0.1896435546874999,0.5258794832675499,-0.33447265625,5.78759765625,2.74365234375,38.506470588235295,112.46455261292452
0.4071259765625,-0.3681376953125,-0.1212841796874999,0.5621270103316849,-0.03515625,3.04248046875,2.31298828125,38.506470588235295,112.46455261292452
0.3656220703125,-0.3681376953125,0.0759814453125,0.5243834866215509,-0.0146484375,0.82080078125,3.02197265625,39.40058823529412,112.46455261292452
0.2215791015625,-0.4335673828125,0.2063525390625,0.5288282746465683,-0.28515625,0.390625,3.47119140625,38.36529411764706,112.46455261292452
-0.0445341796875,-0.4150126953125,0.3889697265625,0.5705403391637532,-0.34130859375,-1.17919921875,3.73876953125,38.36529411764706,112.4310265658919
0.0980439453125,-0.2470439453125,0.9924853515625,1.0274582712665976,1.44921875,-11.25,4.736328125,38.64764705882353,112.4310265658919
1.0379853515625,-0.2602275390625,2.3987353515625003,2.626606793751308,3.55224609375,16.0,6.69140625,38.64764705882353,112.4310265658919
0.8626923828125,0.1386982421875,3.6809619140625,3.7832467488292743,2.919921875,16.0,10.4375,39.353529411764704,112.4310265658919
0.4998994140625,0.8989521484375,3.6838916015625,3.824796951659415,-0.189453125,16.0,10.66650390625,38.506470588235295,112.09658123292768
1.0404267578125,0.9887958984375,3.9334033203125,4.187107217087289,-2.05615234375,-3.58349609375,3.96533203125,38.64764705882353,112.09658123292768
1.4300751953125,0.5342060546875,3.0676806640625003,3.4265370025400004,-0.8017578125,15.99951171875,0.47607421875,38.69470588235294,112.09658123292768
0.8397431640625,0.1782490234375,2.6008837890625003,2.7388935320954397,-0.22705078125,15.99951171875,0.14306640625,38.64764705882353,112.09658123292768
0.0540986328125,-0.0531962890625,2.0461962890625003,2.047602442031985,-0.9345703125,15.99951171875,1.43359375,38.36529411764706,112.09658123292768
-0.2349638671875,0.0312763671875,1.4812548828125005,1.5001007492445386,-1.9033203125,15.99951171875,0.71875,38.64764705882353,112.16363335423516
-0.2344755859375,0.2158466796875,1.0520556640625005,1.099267806232331,-1.95458984375,15.99951171875,-0.65087890625,38.31823529411765,112.16363335423516
-0.1197294921875,0.3520771484375,0.7688525390625001,0.8540653936170294,-0.53466796875,15.2861328125,-1.04052734375,38.64764705882353,112.16363335423516
-0.1666044921875,0.2002216796875,0.6086962890625001,0.6620853042866888,1.1474609375,3.99609375,1.23486328125,38.506470588235295,112.16363335423516
-0.2984404296875,0.1137958984375,0.7092822265625001,0.7778801151146075,1.7431640625,-3.60693359375,4.33447265625,38.31823529411765,111.33583703261682
-0.2798857421875,0.0820576171875,0.7385791015625001,0.794083478283743,1.3583984375,-7.4580078125,5.48779296875,38.506470588235295,111.33583703261682
-0.2696318359375,0.0869404296875,0.7952197265625001,0.8441767461731052,0.49755859375,-7.7041015625,5.25146484375,38.08294117647059,111.33583703261682
-0.4166044921875,0.0366474609375,0.9353564453125,1.0245945632744722,-0.1767578125,-4.88916015625,5.35791015625,38.69470588235294,111.33583703261682
-0.3384794921875,0.0464130859375,0.9739306640625,1.0321160204061228,-0.09228515625,-1.0966796875,5.72900390625,38.506470588235295,111.33583703261682
-0.2461943359375,0.0205341796875,0.9700244140625,1.0009898438348122,0.03466796875,2.154296875,5.83935546875,38.36529411764706,111.41861377299068
-0.1451201171875,0.0888935546875,0.8953173828125001,0.9113479733031276,0.13330078125,2.564453125,5.228515625,38.31823529411765,111.41861377299068
-0.0601591796875,0.1196552734375,0.7356494140625001,0.7477409790646595,-0.14990234375,1.14013671875,4.0283203125,39.118235294117646,111.41861377299068
0.0047822265625,0.1909443359375,0.6438525390625001,0.671586704137847,-0.3603515625,-0.29833984375,1.921875,38.08294117647059,111.41861377299068
0.0506806640625,0.2304951171875,0.5193408203125001,0.5704484344793628,-0.80419921875,-0.91845703125,-1.15625,38.36529411764706,111.50139115595212
0.0321259765625,0.1958271484375,0.4495166015625,0.4913710670313794,-1.43896484375,-0.19140625,-3.916015625,38.08294117647059,111.50139115595212
0.0116181640625,0.1631123046875,0.4524462890625,0.481090688086018,-1.3583984375,1.640625,-4.94384765625,38.45941176470589,111.50139115595212
0.0311494140625,0.0766865234375,0.4519580078125,0.4594748629677266,-0.73095703125,4.208984375,-4.837890625,38.69470588235294,111.50139115595212
0.2489228515625,0.0478779296875,0.0960009765625,0.2710554734406248,-0.1220703125,6.0009765625,-4.0263671875,38.506470588235295,111.50139115595212
0.3636689453125,-0.0126689453124999,-0.0885693359374999,0.3745131923289845,0.27880859375,6.9873046875,-3.45947265625,38.64764705882353,111.29113510764576
0.5179658203125,0.0517841796875,-0.1647412109374999,0.5459943762156001,0.955078125,6.29541015625,-4.232421875,38.45941176470589,111.29113510764576
0.4994111328125,0.0635029296875,-0.2462841796874999,0.5604462497156215,1.27490234375,5.9345703125,-4.87255859375,38.60058823529412,111.29113510764576
0.4144501953125,0.1201435546875,-0.2887646484374999,0.5192190870092803,1.5830078125,5.34765625,-5.38232421875,38.60058823529412,111.29113510764576
0.2450166015625,0.1074482421875,-0.3419873046874999,0.4342045328619238,1.708984375,4.1943359375,-4.9501953125,38.31823529411765,112.52954650932756
0.2269501953125,0.1596943359375,-0.2770458984374999,0.3921263851412482,1.978515625,2.478515625,-4.35498046875,38.64764705882353,112.52954650932756
0.3763642578125,0.1987568359375,-0.0988232421874999,0.4369443529639553,2.16748046875,0.73876953125,-3.66357421875,38.64764705882353,112.52954650932756
0.4915986328125,0.1728779296875,0.0452197265625,0.5230686551749614,2.34033203125,-0.9931640625,-2.84814453125,38.36529411764706,112.52954650932756
0.1815400390625,0.1235615234375,0.0627978515625,0.2284027276935975,1.42529296875,-2.58203125,-0.966796875,38.64764705882353,112.52954650932756
-0.1236357421875,0.2251240234375,0.3918994140625,0.4685635212193464,-0.0458984375,-7.2568359375,1.404296875,38.506470588235295,112.5755008594515
0.2865205078125,0.5088154296875,1.1165087890625005,1.2599916741546426,-0.34033203125,16.0,2.86474609375,38.69470588235294,112.5755008594515
1.0062470703125,0.8603779296875,2.9270556640625003,3.2125438843580336,-1.45068359375,16.0,1.33447265625,38.64764705882353,112.5755008594515
1.3133759765625,0.3081318359375,3.9128955078125,4.138919296046851,-0.79345703125,16.0,-4.6650390625,38.506470588235295,112.5755008594515
0.4994111328125,0.1030537109375,3.7351611328125,3.7698090448971295,1.34130859375,16.0,-5.13525390625,38.36529411764706,112.5105038348032
0.2860322265625,0.0469013671875,3.4880908203125003,3.5001131044045835,-0.01904296875,-9.59619140625,0.1650390625,38.64764705882353,112.5105038348032
0.5165009765625,0.2744404296875,3.2219775390625003,3.274634341489187,-1.40283203125,15.4931640625,-1.34423828125,38.506470588235295,112.5105038348032
0.4320283203125,0.4887958984375,2.9221728515625003,2.9941048869888105,0.2197265625,15.99951171875,-6.2236328125,38.506470588235295,112.5105038348032
-0.1514677734375,0.3589130859375,2.4216845703125003,2.4528182255799007,1.9697265625,15.99951171875,-6.9892578125,38.27117647058824,112.5105038348032
-0.5406279296875,-0.0048564453124999,1.6301806640625005,1.7174956014215932,2.85888671875,15.99951171875,-4.58642578125,39.40058823529412,112.1301072301835
-0.3438505859375,-0.3593486328125,0.9509814453125,1.0731870175707618,2.8115234375,15.99951171875,-2.06787109375,38.506470588235295,112.1301072301835
-0.0630888671875,-0.3608134765625,0.4158251953125,0.5541454349616161,1.37841796875,12.05615234375,-2.5771484375,38.64764705882353,112.1301072301835
-0.0611357421875,-0.0697978515625,0.5125048828125001,0.5208364176612573,-0.46240234375,-0.56689453125,-4.29541015625,38.45941176470589,112.1301072301835
-0.0103544921875,0.0112568359375,0.7678759765625001,0.7680282854463096,-1.22216796875,-7.19140625,-4.84765625,38.36529411764706,111.69053860502328
-0.0152373046875,0.0317646484375,0.9758837890625,0.9765195021603408,-1.16650390625,-9.64111328125,-4.658203125,38.69470588235294,111.69053860502328
-0.0293974609375,0.0713154296875,1.0354541015625005,1.0383233107581131,-0.94775390625,-8.2119140625,-5.486328125,38.60058823529412,111.69053860502328
-0.1617216796875,0.0903583984375,1.0647509765625005,1.0807465863651544,-0.748046875,-5.4375,-6.2080078125,38.64764705882353,111.69053860502328
-0.4004912109375,0.0893818359375,1.0168994140625005,1.0965704450487437,-0.6572265625,-3.1015625,-5.55078125,38.69470588235294,111.69053860502328
-0.5337919921875,0.0630146484375,0.9319384765625,1.0758317995573636,-0.6611328125,-1.388671875,-3.80419921875,38.60058823529412,111.49145381376994
-0.4390654296875,0.0991474609375,0.8552783203125001,0.9664934949359948,-0.4375,-0.16552734375,-2.2548828125,38.60058823529412,111.49145381376994
-0.3663115234375,0.1582294921875,0.7966845703125001,0.8910258183549056,0.291015625,0.42333984375,-1.162109375,38.36529411764706,111.49145381376994
-0.1353544921875,0.0664326171875,0.6355517578125001,0.6531922902486492,1.0048828125,0.8505859375,-0.21923828125,38.64764705882353,111.49145381376994
-0.0562529296875,0.0127216796875,0.4529345703125,0.4565916755884487,1.478515625,1.57421875,0.7314453125,38.69470588235294,111.85610000167044
0.0228486328125,-0.0160869140625,0.3328173828125,0.3339884116666578,1.50341796875,2.25634765625,1.57470703125,38.69470588235294,111.85610000167044
0.0472626953125,-0.0673564453125,0.1692431640625,0.1881858168811463,1.0947265625,3.22998046875,2.04638671875,38.45941176470589,111.85610000167044
0.1317353515625,-0.0937236328125,0.0784228515625,0.1796899158162797,0.39013671875,3.72998046875,1.8193359375,38.36529411764706,111.85610000167044
0.2562470703125,-0.1098369140625,0.0393603515625,0.2815598444551991,-0.0712890625,3.73974609375,0.97802734375,39.21235294117647,111.85610000167044
0.3827119140625,-0.1498759765625,-0.0021435546874999,0.4110180194865472,-0.3544921875,3.51806640625,-0.0302734375,38.36529411764706,112.24641652101658
0.4715791015625,-0.2060283203125,-0.0368115234374999,0.5159356607747466,-0.8564453125,3.6064453125,-0.548828125,38.69470588235294,112.24641652101658
0.5633759765625,-0.2900126953125,0.0022509765625,0.6336441598449847,-1.3876953125,3.8544921875,-0.12548828125,38.506470588235295,112.24641652101658
0.5746064453125,-0.3949931640625,0.0505908203125,0.699107715413486,-1.3193359375,4.076171875,0.91845703125,38.506470588235295,112.24641652101658
0.5062470703125,-0.5009501953125,0.0300830078125,0.7128409231677627,-0.6845703125,3.39111328125,2.11083984375,38.506470588235295,112.60446553355804
0.4491181640625,-0.6537822265625,-0.0202099609374999,0.7934398323634791,-0.3125,0.76513671875,3.04345703125,38.69470588235294,112.60446553355804
0.3861298828125,-0.4438212890625,0.0320361328125,0.5891518792565075,-0.5185546875,-3.08740234375,3.71533203125,38.31823529411765,112.60446553355804
0.2625947265625,-0.3256572265625,0.2219775390625,0.4735848894116632,-0.62109375,-6.8369140625,4.029296875,38.36529411764706,112.60446553355804
0.0814423828125,-0.2265361328125,0.5095751953125001,0.5635764019772235,0.07666015625,-11.7607421875,4.44482421875,38.64764705882353,112.60446553355804
0.0799775390625,-0.1772197265625,0.9763720703125,0.9955428960741464,0.95458984375,16.0,5.49658203125,38.506470588235295,112.23648908165929
0.1844697265625,-0.1332744140625,1.6301806640625005,1.64598910899951,1.8349609375,16.0,6.4521484375,38.60058823529412,112.23648908165929
0.2498994140625,-0.0746806640625,2.4504931640625003,2.464334325096869,1.09619140625,16.0,5.7958984375,38.60058823529412,112.23648908165929
0.3744111328125,0.3628193359375,3.0842822265625003,3.12803747100213,-1.56689453125,16.0,3.03564453125,38.506470588235295,112.23648908165929
0.4129853515625,0.7729755859375,3.5950244140625003,3.700303865193512,-0.94091796875,-12.86962890625,1.65771484375,38.64764705882353,112.028284403294
0.6566376953125,0.6220966796875,3.2952197265625003,3.417111409964586,1.13623046875,6.390625,6.52490234375,38.69470588235294,112.028284403294
0.6971650390625,0.2124287109375,2.6555712890625003,2.753765407621836,1.43701171875,15.99951171875,8.92236328125,38.36529411764706,112.028284403294
0.4969697265625,-0.0580791015625,2.2419970703125003,2.2971510517264093,1.89111328125,15.99951171875,7.62353515625,38.60058823529412,112.028284403294
0.2469697265625,-0.2089580078125,1.5877001953125005,1.6203238580798212,0.66796875,15.99951171875,3.6875,38.506470588235295,112.028284403294
0.1195283203125,-0.1347392578125,1.1086962890625005,1.1232315648758942,-1.16796875,15.99951171875,0.013671875,38.64764705882353,111.53946739286916
0.0990205078125,-0.0004619140624999,0.9241259765625,0.92941599668267,-1.86376953125,11.58935546875,-0.4716796875,38.64764705882353,111.53946739286916
0.0462861328125,0.0893818359375,0.9675830078125,0.972804397447801,-0.58740234375,1.01123046875,2.73291015625,38.45941176470589,111.53946739286916
0.0965791015625,0.1440693359375,1.0916064453125005,1.1053000171283291,1.02001953125,-5.462890625,6.58349609375,38.36529411764706,111.53946739286916
0.1610322265625,0.1528583984375,1.1013720703125005,1.123529040670065,0.99755859375,-8.40869140625,7.9990234375,38.36529411764706,111.8627219030962
0.0521455078125,0.2407490234375,1.1931689453125005,1.2183313910136593,0.4716796875,-8.69140625,7.37255859375,39.25941176470588,111.8627219030962
0.0038056640625,0.3091083984375,1.2219775390625005,1.260472764892918,0.9306640625,-6.76025390625,5.51806640625,38.506470588235295,111.8627219030962
-0.0181669921875,0.2549091796875,1.1257861328125005,1.1544276271499307,1.0625,-3.9990234375,3.9345703125,38.69470588235294,111.8627219030962
-0.0293974609375,0.2153583984375,0.9993212890625,1.0226859191661306,0.62841796875,-0.9951171875,2.74072265625,38.64764705882353,111.8627219030962
-0.0367216796875,0.2182880859375,0.8499072265625001,0.8782599068524588,-0.0927734375,1.40234375,1.5732421875,38.03588235294118,111.35156103823164
-0.1338896484375,0.2871357421875,0.7615283203125001,0.8248022520812255,-0.74462890625,2.9638671875,0.853515625,38.64764705882353,111.35156103823164
-0.2125029296875,0.3427998046875,0.6633837890625001,0.7763679880124362,-1.01806640625,3.44091796875,0.375,38.64764705882353,111.35156103823164
-0.3160185546875,0.3515888671875,0.5564501953125001,0.7301501751696602,-0.89208984375,2.9755859375,-0.12451171875,38.45941176470589,111.35156103823164
-0.3609404296875,0.3027607421875,0.4172900390625,0.6293433383247222,-0.85498046875,2.4912109375,-0.5537109375,38.64764705882353,110.85159475170266
-0.3047880859375,0.2602802734375,0.3289111328125,0.518482527534098,-0.85498046875,2.09033203125,-1.08203125,38.08294117647059,110.85159475170266
-0.2374052734375,0.1865498046875,0.1936572265625,0.3586993377255637,-0.8779296875,2.15283203125,-1.36328125,38.64764705882353,110.85159475170266
-0.1124052734375,0.1216083984375,0.0212939453125,0.1669640086188177,-0.9130859375,2.81201171875,-1.716796875,38.506470588235295,110.85159475170266
0.0853486328125,0.0923115234375,-0.1164013671874999,0.1713332564490451,-0.6357421875,3.61279296875,-1.6669921875,38.506470588235295,110.85159475170266
0.3075166015625,-0.0258525390625,-0.2121044921874999,0.3744637894625389,-0.0966796875,4.44189453125,-1.45703125,38.506470588235295,111.4645520664469
0.5985322265625,-0.0712626953125,-0.2399365234374999,0.6487593800912169,0.41455078125,4.90869140625,-2.1474609375,38.45941176470589,111.4645520664469
0.6971650390625,-0.0614970703125,-0.2848583984374999,0.7556224510351816,0.744140625,4.4794921875,-3.43798828125,38.64764705882353,111.4645520664469
0.6957001953125,-0.0082744140624999,-0.3336865234374999,0.7716306912051474,0.6474609375,2.9794921875,-4.49560546875,38.506470588235295,111.4645520664469
0.5321259765625,0.0674091796875,-0.2941357421874999,0.6117335100114488,0.599609375,0.130859375,-4.93115234375,38.69470588235294,112.31471581529333
0.3084931640625,0.1191669921875,-0.1364208984374999,0.3577421778750765,0.77978515625,-2.73388671875,-3.6298828125,39.44764705882353,112.31471581529333
0.2225556640625,0.1767841796875,0.0779345703125,0.2947159090444162,1.39794921875,-4.29541015625,-1.71484375,38.31823529411765,112.31471581529333
0.3553681640625,0.1885029296875,0.2747119140625,0.4871206444586442,2.046875,-3.97021484375,-0.86669921875,38.36529411764706,112.31471581529333
0.4437470703125,0.2261005859375,0.3479541015625,0.6075401173308428,2.3583984375,-3.55859375,-0.77587890625,38.36529411764706,112.31471581529333
0.3612275390625,0.2905537109375,0.6003955078125001,0.7585390957084098,2.365234375,-4.86572265625,-0.5380859375,38.64764705882353,112.53741424388087
0.5301728515625,0.2744404296875,1.1077197265625005,1.2583496313015206,1.81884765625,-9.79443359375,-1.36376953125,38.69470588235294,112.53741424388087
0.5277314453125,0.2954365234375,2.0383837890625003,2.1262153440480227,-0.25634765625,16.0,-2.91650390625,38.36529411764706,112.53741424388087
1.0345673828125,0.3545185546875,3.8733447265625,4.024774831712546,-4.0947265625,16.0,-1.50927734375,38.36529411764706,112.53741424388087
1.0775361328125,0.1875263671875,3.6838916015625,3.842825469361025,-1.38916015625,16.0,-0.59521484375,38.60058823529412,112.55976461741466
1.0912080078125,-0.0278056640625,3.1575244140625003,3.340878401957907,1.19189453125,16.0,0.3955078125,38.506470588235295,112.55976461741466
0.8045869140625,0.0844990234375,2.8645556640625003,2.976605338259518,-0.04150390625,3.1650390625,-0.5888671875,38.64764705882353,112.55976461741466
0.6395478515625,0.3579365234375,2.6897509765625003,2.787812821042269,-1.3359375,15.99951171875,-4.29638671875,38.45941176470589,112.55976461741466
0.4373994140625,0.4258076171875,2.4758837890625003,2.550025668737395,-1.04052734375,15.99951171875,-7.8466796875,38.64764705882353,112.55976461741466
-0.0054716796875,0.2715107421875,2.1023486328125003,2.119815509965525,0.42578125,15.99951171875,-9.06787109375,38.60058823529412,112.1524579654612
-0.2955107421875,0.1264912109375,1.5920947265625005,1.624220503361771,1.8740234375,15.99951171875,-8.76513671875,38.506470588235295,112.1524579654612
-0.0972685546875,0.0469013671875,0.8928759765625001,0.8993822432633913,2.15234375,15.99951171875,-8.72119140625,38.506470588235295,112.1524579654612
0.3934541015625,0.0967060546875,0.5696337890625001,0.6990285006287488,0.248046875,10.734375,-8.0849609375,38.36529411764706,112.1524579654612
0.1551728515625,0.1450458984375,0.8821337890625001,0.90734610172819,-1.00634765625,-0.35009765625,-6.9423828125,38.60058823529412,111.76876619117432
-0.1583037109375,0.0615498046875,1.0022509765625005,1.0165409304962287,-0.24951171875,-5.13671875,-5.0498046875,38.45941176470589,111.76876619117432
-0.1915068359375,-0.0151103515624999,1.0198291015625005,1.037764225307903,0.1103515625,-7.2626953125,-4.6328125,39.353529411764704,111.76876619117432
-0.1451201171875,0.0234638671875,0.9993212890625,1.0100759576633052,-0.6279296875,-5.8291015625,-6.22412109375,38.506470588235295,111.76876619117432
-0.0752958984375,0.1367451171875,1.1311572265625005,1.141878001627451,-1.82080078125,-0.46533203125,-7.2900390625,38.45941176470589,111.76876619117432
-0.0992216796875,0.1684833984375,1.1379931640625005,1.1546688004454086,-1.26611328125,3.466796875,-8.0537109375,38.64764705882353,111.4645520664469
-0.2144560546875,0.0571552734375,0.9158251953125,0.9423342894339684,0.2978515625,4.61279296875,-8.61181640625,38.45941176470589,111.4645520664469
-0.1797880859375,-0.0868876953125,0.8230517578125001,0.846928228057156,1.26025390625,3.5869140625,-7.42138671875,38.08294117647059,111.4645520664469
-0.1045927734375,-0.2021220703125,0.7102587890625001,0.7458287517944641,1.7197265625,2.595703125,-5.92431640625,38.45941176470589,111.4645520664469
-0.1314482421875,-0.2436259765625,0.5115283203125001,0.5816300192664948,1.78955078125,1.96142578125,-4.09765625,38.64764705882353,111.62224610648336
-0.0333037109375,-0.1762431640625,0.4773486328125,0.5099338263823384,1.9326171875,2.23681640625,-2.45068359375,38.31823529411765,111.62224610648336
-0.0777373046875,-0.1440166015625,0.3538134765625,0.3898305353136563,1.8349609375,3.525390625,-0.5888671875,38.788823529411765,111.62224610648336
-0.1021513671875,-0.1127666015625,0.1848681640625,0.2394315065526475,1.5830078125,5.28662109375,0.76708984375,38.60058823529412,111.62224610648336
0.0868134765625,-0.0585673828125,0.0422900390625,0.1129387685707677,1.05126953125,6.39697265625,0.8046875,38.45941176470589,111.62224610648336
0.1991181640625,-0.0702861328125,-0.1525341796874999,0.260489653726008,0.55712890625,5.5830078125,-0.04296875,38.506470588235295,111.74641538182908
0.2591767578125,-0.1034892578125,-0.2726513671874999,0.3901555924269115,0.17578125,3.73583984375,-0.837890625,38.36529411764706,111.74641538182908
0.5448212890625,0.1133076171875,0.0061572265625,0.5565130407882417,-0.16015625,-0.3720703125,2.9892578125,38.64764705882353,111.74641538182908
0.4461884765625,-0.3988994140625,-0.4840771484374999,0.7697633303788586,0.8984375,-1.3642578125,3.978515625,38.506470588235295,111.74641538182908
0.2904267578125,-0.5258525390625,-0.6066357421874999,0.8537420677179598,-1.1572265625,4.1259765625,-0.54296875,38.69470588235294,111.96454275652394
0.3504853515625,-0.2914775390625,-0.2272412109374999,0.5093502776932214,-1.515625,4.00244140625,-1.5107421875,38.03588235294118,111.96454275652394
0.5062470703125,-0.2255595703125,-0.0299755859374999,0.5550331086627585,-1.71435546875,3.8359375,-0.54931640625,38.60058823529412,111.96454275652394
0.5194306640625,-0.2465556640625,0.0852587890625,0.5812632547840213,-0.80517578125,3.00927734375,1.18505859375,38.69470588235294,111.96454275652394
0.3143525390625,-0.2343486328125,-0.0456005859374999,0.3947356253924541,-0.3740234375,0.45361328125,2.625,38.506470588235295,111.96454275652394
0.2943330078125,-0.1567119140625,-0.0060498046874999,0.3335073367016721,-0.29296875,-2.8056640625,3.12548828125,38.31823529411765,112.14583863149844
0.3138642578125,-0.0942119140625,0.2825244140625,0.4326738975543479,0.18994140625,-8.3798828125,3.83642578125,38.64764705882353,112.14583863149844
0.1932587890625,-0.1069072265625,0.6423876953125001,0.6792937992725202,1.009765625,16.0,5.5068359375,38.64764705882353,112.14583863149844
0.2884736328125,-0.1069072265625,1.2546923828125005,1.291858803200658,2.36572265625,16.0,8.2353515625,38.506470588235295,112.14583863149844
0.4666962890625,0.0439716796875,2.5383837890625003,2.5813041656136817,4.4404296875,16.0,9.453125,38.31823529411765,112.29236524952438
1.0692353515625,0.3315693359375,3.4524462890625003,3.6294059900246,3.9267578125,16.0,5.9873046875,38.64764705882353,112.29236524952438
1.1214814453125,0.8037373046875,3.7864306640625,4.029984052186724,1.427734375,16.0,0.86962890625,38.64764705882353,112.29236524952438
1.0902314453125,0.6655537109375,3.8020556640625,4.010884393636969,1.53564453125,-0.16552734375,2.8759765625,38.64764705882353,112.29236524952438
1.0956025390625,0.0200458984375,3.1863330078125003,3.36949028761322,0.357421875,15.99951171875,5.3232421875,38.31823529411765,112.29236524952438
0.6786103515625,-0.2099345703125,2.9646533203125003,3.0485658665510256,-0.27685546875,15.99951171875,4.77197265625,39.07117647058824,112.40080942801228
0.0316376953125,-0.2206767578125,2.2864306640625003,2.297273243819422,-1.603515625,15.99951171875,3.11962890625,38.45941176470589,112.40080942801228
-0.2217802734375,-0.0448955078125,1.5012744140625005,1.5182315247110565,-2.83349609375,15.99951171875,1.5595703125,38.60058823529412,112.40080942801228
-0.0743193359375,0.1928974609375,1.1252978515625005,1.1441276366129367,-3.46044921875,15.99951171875,0.68212890625,38.64764705882353,112.40080942801228
-0.0098662109375,0.3564716796875,1.0222705078125005,1.0826848071718371,-1.958984375,8.052734375,0.85400390625,38.60058823529412,111.58871994701391
-0.2046904296875,0.4165302734375,1.1252978515625005,1.217247261416821,-0.24072265625,-3.8447265625,3.29833984375,38.69470588235294,111.58871994701391
-0.2383818359375,0.4248310546875,1.1585009765625005,1.2567544857401916,0.2333984375,-8.23193359375,5.42431640625,39.118235294117646,111.58871994701391
-0.1973662109375,0.4355732421875,1.2830126953125005,1.3692330140858433,-0.22802734375,-7.53564453125,5.69775390625,38.36529411764706,111.58871994701391
-0.1001982421875,0.3843037109375,1.3801806640625005,1.436185118788592,0.27685546875,-4.89404296875,4.93603515625,39.118235294117646,111.58871994701391
-0.0811552734375,0.2602802734375,1.2844775390625005,1.3130935029553197,0.9560546875,-1.66455078125,4.2041015625,38.69470588235294,111.58085666934667
-0.0142607421875,0.0942646484375,1.1423876953125005,1.14635894863441,1.1455078125,0.8935546875,3.72265625,38.60058823529412,111.58085666934667
0.0184541015625,0.0107685546875,0.9324267578125,0.9326715254146378,0.83837890625,2.43505859375,2.9072265625,38.45941176470589,111.58085666934667
-0.1685576171875,0.0049091796875,0.7590869140625001,0.7775916109745921,0.3154296875,3.19970703125,2.65380859375,38.27117647058824,111.58085666934667
-0.2515654296875,-0.0014384765624999,0.6345751953125001,0.6826220866149695,-0.18310546875,3.3740234375,2.6552734375,38.506470588235295,111.23525801843996
-0.2125029296875,0.0259052734375,0.5002978515625001,0.5441750808294106,-0.60693359375,2.30078125,2.35107421875,38.17705882352941,111.23525801843996
-0.1480498046875,0.0635029296875,0.3923876953125,0.4241691527911451,-1.2060546875,1.287109375,1.080078125,38.45941176470589,111.23525801843996
-0.0420927734375,0.0927998046875,0.3137744140625,0.3299060294174147,-1.89013671875,0.86669921875,-0.6044921875,38.64764705882353,111.23525801843996
-0.0962919921875,0.1098896484375,0.2869189453125,0.3219788250372876,-2.3056640625,1.76171875,-1.654296875,38.45941176470589,111.23525801843996
-0.1290068359375,0.1094013671875,0.1843798828125,0.250214635956913,-2.41357421875,3.78271484375,-1.9130859375,38.45941176470589,110.9153325087392
-0.1133818359375,0.0742451171875,0.0125048828125,0.136103454184301,-2.12255859375,5.13427734375,-1.09423828125,38.69470588235294,110.9153325087392
0.0096650390625,0.0532490234375,-0.1891552734374999,0.1967449845519383,-1.4208984375,5.72265625,-0.4189453125,38.36529411764706,110.9153325087392
0.1800751953125,-0.0195048828125,-0.3439404296874999,0.3887190959986227,-0.83056640625,5.640625,0.1328125,38.31823529411765,110.9153325087392
0.3709931640625,-0.0214580078125,-0.3532177734374999,0.5126979318785394,-0.2607421875,5.25341796875,0.11328125,38.27117647058824,111.23070992143931
0.5506806640625,0.0678974609375,-0.3664013671874999,0.6649129423097015,0.1171875,4.81298828125,-0.59033203125,38.36529411764706,111.23070992143931
0.5882783203125,0.1509052734375,-0.3039013671874999,0.6791169447741491,0.76611328125,4.0302734375,-1.453125,38.64764705882353,111.23070992143931
0.5575166015625,0.2588154296875,-0.2404248046874999,0.6600108138289457,1.46435546875,2.61669921875,-2.53662109375,38.69470588235294,111.23070992143931
0.3973603515625,0.2412373046875,-0.2184521484374999,0.5136263499118039,1.435546875,0.63916015625,-3.00439453125,38.45941176470589,111.23070992143931
0.1766572265625,0.1924091796875,-0.1115185546874999,0.2840166476887579,1.4072265625,-0.537109375,-2.9521484375,38.45941176470589,112.83709199683234
0.0116181640625,0.1074482421875,-0.0128857421874999,0.1088400148708623,1.4677734375,-0.94287109375,-2.4765625,38.506470588235295,112.83709199683234
-0.0416044921875,0.0771748046875,0.0974658203125,0.1310971791379283,1.44384765625,-0.72802734375,-2.33447265625,38.45941176470589,112.83709199683234
0.0897431640625,0.1201435546875,0.2673876953125,0.3065688973679937,1.38232421875,-0.4111328125,-2.98046875,38.36529411764706,112.83709199683234
0.1517548828125,0.2275654296875,0.4363330078125,0.5149777305408413,1.2802734375,-0.83349609375,-3.65283203125,38.60058823529412,112.44676035940076
-0.0049833984375,0.3774677734375,0.5784228515625001,0.6907095984953044,0.68994140625,-3.1318359375,-2.62744140625,38.506470588235295,112.44676035940076
0.1117158203125,0.5112568359375,1.0344775390625005,1.1593134846217072,0.25732421875,-10.669921875,-0.24658203125,38.45941176470589,112.44676035940076
1.0936494140625,0.5874287109375,2.1755908203125003,2.504862660654464,0.921875,16.0,0.41162109375,38.69470588235294,112.44676035940076
2.1639619140625,0.3740498046875,3.7605517578125,4.354812733641538,-0.0439453125,16.0,-2.60107421875,38.506470588235295,112.44676035940076
0.7616181640625,0.2788349609375,3.3020556640625003,3.400203342719107,-1.07470703125,16.0,-3.6416015625,38.45941176470589,112.68725261353732
0.7455048828125,0.1045185546875,3.2517626953125003,3.337763066066443,-1.728515625,-15.8525390625,-1.0712890625,38.03588235294118,112.68725261353732
0.4383759765625,0.3125263671875,3.0232470703125003,3.0708091889871074,-2.0185546875,5.99951171875,-1.05419921875,38.36529411764706,112.68725261353732
0.0960908203125,0.5366474609375,3.0042041015625003,3.053271397521672,-0.3984375,15.99951171875,-2.5859375,38.64764705882353,112.68725261353732
-0.0464873046875,0.3594013671875,2.6633837890625003,2.6879255235356267,1.12744140625,15.99951171875,-3.59814453125,38.31823529411765,112.06636518048153
-0.1319365234375,0.0346943359375,2.0769580078125003,2.081433522690405,1.7841796875,15.99951171875,-4.2626953125,38.506470588235295,112.06636518048153
-0.2505888671875,-0.1572001953125,1.6360400390625005,1.662568401955309,1.3701171875,15.99951171875,-4.35986328125,38.64764705882353,112.06636518048153
-0.1392607421875,0.1211201171875,1.3923876953125005,1.4045665278511317,1.486328125,9.87158203125,-4.3291015625,38.64764705882353,112.06636518048153
0.0291962890625,0.2212177734375,1.2219775390625005,1.242183091397122,1.13232421875,3.26611328125,-4.6728515625,38.64764705882353,112.06636518048153
0.0169892578125,0.2221943359375,1.1677783203125005,1.1888503535750874,-0.568359375,-1.173828125,-5.3076171875,38.69470588235294,111.14130643146534
-0.1773466796875,0.1719013671875,1.2288134765625005,1.2533891993386297,-1.9765625,-2.30517578125,-6.46826171875,38.60058823529412,111.14130643146534
-0.2525419921875,0.1201435546875,1.1492236328125005,1.1827623978490946,-1.9072265625,-2.12548828125,-8.11376953125,38.69470588235294,111.14130643146534
-0.2393583984375,-0.0121806640624999,1.0325244140625005,1.0599752247645593,-1.03564453125,-1.63037109375,-8.38671875,38.69470588235294,111.14130643146534
-0.0674833984375,-0.1855205078125,0.8972705078125001,0.9187307723559628,-0.85107421875,-1.423828125,-7.75390625,38.45941176470589,111.88300540980484
-0.1094755859375,-0.2060283203125,0.9045947265625,0.934197084137942,-0.9169921875,-0.40673828125,-6.68896484375,38.506470588235295,111.88300540980484
-0.1285185546875,-0.1913798828125,0.8684619140625001,0.8985373529360876,-1.1552734375,-0.19384765625,-5.9970703125,38.36529411764706,111.88300540980484
-0.2750029296875,-0.2270244140625,0.8386767578125001,0.9113426359015672,-0.56640625,-0.38916015625,-4.849609375,38.506470588235295,111.88300540980484
-0.3448271484375,-0.2304423828125,0.7673876953125001,0.8722919975632419,0.18798828125,-0.66259765625,-3.736328125,38.27117647058824,111.88300540980484
-0.2920927734375,-0.2475322265625,0.7122119140625001,0.8086013863542219,0.5859375,-0.748046875,-1.9677734375,38.36529411764706,111.83706004588748
-0.1109404296875,-0.1655009765625,0.6790087890625001,0.7076378224816074,1.0068359375,0.2666015625,-0.61572265625,38.60058823529412,111.83706004588748
-0.0938505859375,-0.1244853515625,0.5310595703125001,0.5534697845907656,1.11767578125,2.32666015625,1.00537109375,38.506470588235295,111.83706004588748
-0.0411162109375,-0.0834697265625,0.3147509765625,0.3282162630055418,0.9345703125,5.03759765625,2.15771484375,38.45941176470589,111.83706004588748
0.0301728515625,-0.0614970703125,0.1033251953125,0.1239692970650375,0.62841796875,6.93896484375,2.02490234375,38.36529411764706,111.69385007350792
0.1458955078125,-0.0361064453125,-0.0797802734374999,0.1701589451740168,0.326171875,7.298828125,0.9423828125,38.69470588235294,111.69385007350792
0.3309541015625,-0.0253642578125,-0.2038037109374999,0.3894995706124932,-0.0908203125,6.3349609375,0.07177734375,39.40058823529412,111.69385007350792
0.5028291015625,-0.0395244140625,-0.2331005859374999,0.5556394225120647,-0.6318359375,5.23974609375,0.0927734375,38.506470588235295,111.69385007350792
0.5833955078125,-0.0649150390625,-0.2091748046874999,0.6231519716315953,-1.16748046875,4.4658203125,0.90478515625,38.506470588235295,111.69385007350792
0.5433564453125,-0.1069072265625,-0.2252880859374999,0.5978462205444675,-1.1396484375,3.64404296875,1.6767578125,38.506470588235295,112.044014546548
0.3665986328125,-0.0893291015625,-0.3200146484374999,0.4947561229338494,-0.86328125,1.52685546875,1.8427734375,38.36529411764706,112.044014546548
0.2269501953125,-0.0561259765625,-0.3351513671874999,0.4086354797678814,-0.5673828125,-1.3935546875,1.4736328125,38.64764705882353,112.044014546548
0.1668916015625,-0.0317119140625,-0.1906201171874999,0.255332099905554,-0.4111328125,-3.22314453125,1.0126953125,38.64764705882353,112.044014546548
0.1322236328125,-0.0702861328125,0.0129931640625,0.1503065263128193,-0.28076171875,-3.169921875,0.57958984375,38.31823529411765,111.68267469837475
0.1913056640625,-0.1337626953125,0.2463916015625,0.3394099837662301,0.1748046875,-2.37255859375,0.279296875,38.45941176470589,111.68267469837475
0.1776337890625,-0.2289775390625,0.4431689453125,0.5295122194068925,0.8154296875,-2.10546875,0.0009765625,38.64764705882353,111.68267469837475
0.1170869140625,-0.2719462890625,0.7083056640625001,0.7676985367463998,1.93603515625,-5.7919921875,1.1220703125,38.13,111.68267469837475
0.5487275390625,-0.2079814453125,1.1292041015625005,1.2725800944166294,3.03759765625,16.0,4.1982421875,38.03588235294118,111.68267469837475
1.2748017578125,2.6367187500001e-05,2.2966845703125003,2.626762177649241,5.18896484375,16.0,6.6474609375,38.27117647058824,111.96909746281112
1.6576142578125,-0.0209697265625,3.9465869140625,4.280615963548326,5.9306640625,16.0,4.54248046875,38.31823529411765,111.96909746281112
0.6165986328125,0.2236591796875,3.4260791015625003,3.488299773931139,0.41064453125,16.0,2.21728515625,38.45941176470589,111.96909746281112
0.5594697265625,0.5771748046875,3.3674853515625003,3.462093979529439,-3.07080078125,-6.94091796875,3.81982421875,38.506470588235295,111.96909746281112
0.9110322265625,0.3623310546875,3.2771533203125003,3.420672067863511,-2.37939453125,15.99951171875,7.89013671875,38.64764705882353,112.0104887013232
0.8119111328125,0.0942646484375,3.0877001953125003,3.194053538634375,-0.65966796875,15.99951171875,7.48193359375,38.506470588235295,112.0104887013232
0.2630830078125,-0.0610087890625,2.5452197265625003,2.559507413121797,0.548828125,15.99951171875,4.75,38.60058823529412,112.0104887013232
-0.2481474609375,-0.0380595703125,1.5960009765625005,1.6156252072960966,-0.52587890625,15.99951171875,2.5771484375,38.64764705882353,112.0104887013232
-0.3716826171875,0.0512958984375,1.0657275390625005,1.1298470801980562,-2.48046875,15.99951171875,1.72314453125,38.64764705882353,112.0104887013232
-0.0005888671874999,0.1338154296875,0.7210009765625001,0.7333139329039736,-2.06884765625,15.99951171875,1.15771484375,38.45941176470589,111.0428086056176
0.1014619140625,0.2114521484375,0.8469775390625001,0.8788500911762082,-0.14794921875,0.75634765625,3.421875,38.506470588235295,111.0428086056176
-0.1626982421875,0.2378193359375,0.9734423828125,1.0151939850158362,1.09521484375,-5.75146484375,5.77099609375,38.64764705882353,111.0428086056176
-0.4249052734375,0.2588154296875,1.0642626953125005,1.1748127521750646,0.79345703125,-7.85400390625,7.3291015625,38.64764705882353,111.0428086056176
-0.4185576171875,0.2456318359375,1.2000048828125005,1.2944254310332235,0.7373046875,-6.7900390625,7.615234375,38.36529411764706,111.18932210213984
-0.3086943359375,0.1719013671875,1.2127001953125005,1.2631247114959798,0.84130859375,-2.8828125,6.96484375,38.36529411764706,111.18932210213984
-0.1973662109375,0.0605732421875,1.1174853515625005,1.136396079650795,0.8544921875,1.8466796875,6.4423828125,38.69470588235294,111.18932210213984
0.0335908203125,0.0669208984375,0.9529345703125,0.9558718769550748,0.796875,3.51171875,5.783203125,38.27117647058824,111.18932210213984
-0.0118193359375,0.0263935546875,0.7214892578125001,0.7220686017061521,0.25390625,3.61083984375,4.65869140625,39.07117647058824,111.18932210213984
-0.0909208984375,-0.0038798828124999,0.6443408203125001,0.6507355499619691,-0.60205078125,2.88330078125,3.55712890625,38.64764705882353,111.1938698381
-0.1001982421875,0.0337177734375,0.5247119140625001,0.5352561711388109,-1.17822265625,2.23876953125,2.05810546875,38.64764705882353,111.1938698381
-0.1031279296875,0.0503193359375,0.4324267578125,0.4473927875179164,-1.53466796875,2.203125,0.4462890625,38.31823529411765,111.1938698381
-0.0850615234375,0.1011005859375,0.3323291015625,0.3576302881353209,-1.72314453125,3.2763671875,-1.43798828125,38.45941176470589,111.1938698381
-0.0411162109375,0.1499287109375,0.1990283203125,0.2525498632976318,-1.65185546875,4.68212890625,-2.3603515625,38.60058823529412,110.7754527441469
0.0243134765625,0.1020771484375,0.1072314453125,0.1500315708092611,-1.3935546875,5.89013671875,-1.6953125,38.64764705882353,110.7754527441469
0.2445283203125,0.0874287109375,-0.0104443359374999,0.2598979859179768,-0.7685546875,6.70703125,-0.94189453125,38.506470588235295,110.7754527441469
0.4056611328125,0.0542255859375,-0.1842724609374999,0.4488404044924525,-0.20703125,6.78125,-1.2001953125,38.506470588235295,110.7754527441469
0.5404267578125,0.0825458984375,-0.2682568359374999,0.6089635752126586,0.23486328125,6.60107421875,-1.96044921875,38.506470588235295,110.7754527441469
0.5550751953125,0.1025654296875,-0.3400341796874999,0.6589775285804081,0.6318359375,6.177734375,-2.97216796875,38.64764705882353,111.717442614242
0.5296845703125,0.1557880859375,-0.3654248046874999,0.6620958840138679,1.21435546875,5.2373046875,-3.7275390625,38.506470588235295,111.717442614242
0.3460908203125,0.1059833984375,-0.3971630859374999,0.5373544951708685,1.57568359375,3.9033203125,-3.70703125,38.69470588235294,111.717442614242
0.1756806640625,0.0752216796875,-0.3136669921874999,0.367299576379286,1.74560546875,2.7470703125,-2.79541015625,38.36529411764706,111.717442614242
0.2484345703125,0.0591083984375,-0.1549755859374999,0.2987155347966927,1.98974609375,1.47509765625,-1.70654296875,38.64764705882353,112.3068496124873
0.4535126953125,0.0620380859375,0.0198291015625,0.4581655619807899,2.12158203125,0.2216796875,-1.54541015625,38.64764705882353,112.3068496124873
0.4442353515625,0.1128193359375,0.1687548828125,0.488417301712682,1.7646484375,-1.13134765625,-1.76513671875,38.64764705882353,112.3068496124873
0.0750947265625,0.1914326171875,0.3611376953125,0.4155792341496104,1.158203125,-3.78369140625,-0.51220703125,38.64764705882353,112.3068496124873
0.0843720703125,0.4272724609375,0.9578173828125,1.0521856019458695,0.86474609375,-13.4609375,1.9970703125,38.03588235294118,112.3068496124873
0.3416962890625,0.8559833984375,2.2380908203125003,2.4204368308895763,0.9501953125,16.0,3.748046875,38.64764705882353,112.3068496124873
0.7787080078125,0.5083271484375,3.7473681640625,3.861029760089796,1.2548828125,16.0,1.24365234375,38.506470588235295,112.3068496124873
0.5379853515625,0.3076435546875,3.8757861328125,3.925021139119924,1.63818359375,16.0,-2.75048828125,38.60058823529412,112.3068496124873
0.3963837890625,0.3393818359375,3.7195361328125,3.7559618185084926,0.400390625,-14.11083984375,1.1083984375,38.45941176470589,112.3068496124873
0.5540986328125,0.1406513671875,3.2293017578125003,3.2795118455323955,-1.40625,7.03466796875,0.96826171875,38.64764705882353,112.77334746796106
0.2845673828125,0.3281513671875,3.0125048828125003,3.043656942580247,-0.1513671875,15.99951171875,-2.13671875,38.03588235294118,112.77334746796106
-0.1319365234375,0.1040302734375,2.4627001953125003,2.468424962602769,1.67041015625,15.99951171875,-4.1044921875,38.13,112.77334746796106
-0.2647490234375,-0.2441142578125,1.6931689453125005,1.7310415632355862,1.30712890625,15.99951171875,-4.92333984375,38.64764705882353,112.77334746796106
-0.2969755859375,-0.3173564453125,1.1834033203125005,1.2606954551163247,0.212890625,15.99951171875,-5.17138671875,38.36529411764706,112.77334746796106
-0.1666044921875,-0.2118876953125,0.9153369140625,0.954198678728575,0.146484375,12.078125,-4.7607421875,38.03588235294118,111.5920320896966
-0.0914091796875,-0.0697978515625,0.7810595703125001,0.7894817481048119,0.3310546875,1.0693359375,-4.36669921875,38.60058823529412,111.5920320896966
-0.1485380859375,-0.0385478515625,0.9436572265625,0.956053586927893,-0.115234375,-4.953125,-4.0703125,39.25941176470588,111.5920320896966
-0.1680693359375,-0.0439189453125,1.0867236328125005,1.100520072308103,-0.501953125,-7.259765625,-4.26904296875,38.64764705882353,111.5920320896966
-0.2383818359375,0.0615498046875,1.2019580078125005,1.2269137421622585,-0.818359375,-6.7314453125,-4.845703125,38.506470588235295,111.92977468562992
-0.2798857421875,0.1094013671875,1.2424853515625005,1.2783092492310817,-0.9990234375,-3.7001953125,-5.33642578125,38.64764705882353,111.92977468562992
-0.2715849609375,0.0893818359375,1.2014697265625005,1.2350210554679426,-1.20556640625,-0.90087890625,-5.52734375,38.36529411764706,111.92977468562992
-0.2803740234375,0.0312763671875,1.0969775390625005,1.132672735334703,-0.8876953125,0.87451171875,-5.28759765625,38.506470588235295,111.92977468562992
-0.1963896484375,-0.0571025390625,0.9514697265625,0.9732030798069372,0.0458984375,0.53564453125,-4.47412109375,38.64764705882353,111.92977468562992
-0.1856474609375,-0.1488994140625,0.7883837890625001,0.8235198929699519,0.70068359375,-0.21044921875,-3.30859375,38.60058823529412,111.0428086056176
-0.2144560546875,-0.2113994140625,0.6565478515625001,0.7223130851988153,0.619140625,-1.1875,-1.7490234375,38.45941176470589,111.0428086056176
-0.2149443359375,-0.1010478515625,0.6619189453125001,0.7032413710957442,0.71484375,-2.07421875,-0.11572265625,38.08294117647059,111.0428086056176
-0.1841826171875,0.0332294921875,0.6335986328125001,0.6606622912857564,0.87548828125,-1.89892578125,1.68505859375,38.36529411764706,111.0428086056176
-0.1553740234375,0.1860615234375,0.5774462890625001,0.626262081252803,1.22021484375,-0.48095703125,2.71337890625,38.64764705882353,111.41861377299068
-0.1563505859375,0.1889912109375,0.4700244140625,0.5301755684199515,1.30712890625,2.416015625,2.80517578125,38.45941176470589,111.41861377299068
-0.0752958984375,0.1469990234375,0.3005908203125,0.3429767141793021,1.11865234375,4.76318359375,2.04150390625,38.36529411764706,111.41861377299068
0.0077119140625,0.0571552734375,0.1267626953125,0.1392658602210624,0.73779296875,6.16064453125,1.26904296875,38.64764705882353,111.41861377299068
0.1136689453125,-0.0175517578125,0.0125048828125,0.1156938435048258,0.0517578125,5.990234375,0.80517578125,38.36529411764706,111.41861377299068
0.2074189453125,-0.0678447265625,-0.0475537109374999,0.2233537132460921,-0.5361328125,5.37646484375,0.87939453125,38.64764705882353,111.3167999617734
0.3207001953125,-0.1327861328125,-0.0587841796874999,0.35204595171981,-1.21240234375,5.3115234375,1.00439453125,38.64764705882353,111.3167999617734
0.3724580078125,-0.1967509765625,-0.0099560546874999,0.4213490683351444,-1.4521484375,5.8037109375,1.26904296875,38.13,111.3167999617734
0.3836884765625,-0.2607158203125,-0.0128857421874999,0.4640642502496768,-1.34765625,6.115234375,1.4443359375,38.64764705882353,111.3167999617734
0.3294892578125,-0.3027080078125,-0.0456005859374999,0.4497496219514675,-1.19580078125,5.8447265625,1.7939453125,39.40058823529412,112.04732467201316
0.3075166015625,-0.3144267578125,-0.0739208984374999,0.4459763956655521,-1.0634765625,5.1220703125,2.0390625,38.64764705882353,112.04732467201316
0.2391572265625,-0.2963603515625,-0.0895458984374999,0.3912085184684692,-0.60205078125,4.1103515625,1.7080078125,38.45941176470589,112.04732467201316
0.3255830078125,-0.3339580078125,-0.0231396484374999,0.4669771828345999,-0.18798828125,2.6962890625,1.3388671875,38.69470588235294,112.04732467201316
0.2884736328125,-0.4081767578125,0.1550830078125,0.5233316747135962,0.14111328125,0.1201171875,1.95361328125,38.506470588235295,112.04732467201316
0.0130830078125,-0.4540751953125,0.2244189453125,0.5066747587029393,0.22314453125,-2.5302734375,2.54248046875,38.27117647058824,111.88507277425045
-0.0831083984375,-0.3627666015625,0.5125048828125001,0.6333781398238388,1.0625,-7.9287109375,2.34130859375,38.36529411764706,111.88507277425045
0.2855439453125,-0.2055400390625,1.0476611328125005,1.105158767584284,1.41357421875,16.0,3.7255859375,38.60058823529412,111.88507277425045
1.1019501953125,-0.0029033203124999,1.8342822265625005,2.139835028431205,0.6611328125,16.0,6.48583984375,38.45941176470589,111.88507277425045
0.8934541015625,0.4541279296875,2.8645556640625003,3.034826446542481,-0.005859375,16.0,10.66162109375,38.31823529411765,111.5920320896966
0.9403291015625,0.7978779296875,3.7498095703125,3.9473915214398185,0.32421875,16.0,10.306640625,38.36529411764706,111.5920320896966
0.7435517578125,0.6582294921875,3.7835009765625,3.911651175728846,0.16064453125,-11.77392578125,4.80322265625,38.60058823529412,111.5920320896966
0.7308564453125,0.0854755859375,3.2791064453125003,3.360654147504049,-0.67236328125,10.2275390625,1.611328125,38.03588235294118,111.5920320896966
-0.0201201171875,-0.3315166015625,2.9548876953125003,2.973494470843423,-0.55712890625,15.99951171875,2.47119140625,38.69470588235294,111.5920320896966
-0.2950224609375,-0.4872783203125,2.3035205078125003,2.372906475994566,-1.0517578125,15.99951171875,5.4306640625,38.506470588235295,112.0059336339365
-0.2266630859375,-0.3027080078125,1.7502978515625005,1.7906844673768818,-2.0830078125,15.99951171875,6.107421875,38.31823529411765,112.0059336339365
-0.1211943359375,0.0542255859375,1.4109423828125005,1.4171756732495138,-1.72607421875,15.99951171875,4.271484375,38.17705882352941,112.0059336339365
-0.0596708984375,0.2485615234375,1.0789111328125005,1.1087798156354858,-0.35693359375,13.81396484375,1.41259765625,38.64764705882353,112.0059336339365
-0.2476591796875,0.2851826171875,0.8513720703125001,0.9313960470914562,0.806640625,4.86767578125,1.5732421875,38.45941176470589,111.38508734221078
-0.3794951171875,0.1855732421875,0.8440478515625001,0.9438594958532796,0.9736328125,-2.44970703125,4.70849609375,39.02411764705882,111.38508734221078
-0.3770537109375,0.1128193359375,0.9021533203125,0.9842653691174889,-0.1796875,-6.30322265625,6.93896484375,38.36529411764706,111.38508734221078
-0.3233427734375,0.1518818359375,1.0793994140625005,1.1369792154214908,-0.35693359375,-7.0,7.57763671875,38.64764705882353,111.38508734221078
-0.2642607421875,0.1577412109375,1.1804736328125005,1.2199319764868282,0.373046875,-4.57373046875,7.2470703125,38.506470588235295,111.38508734221078
-0.2017607421875,0.0625263671875,1.1521533203125005,1.1713557176147795,0.76123046875,-0.810546875,6.21923828125,38.03588235294118,111.45668932186226
-0.1251005859375,-0.0175517578125,1.0227587890625005,1.0305308153610966,0.4814453125,1.64111328125,5.29248046875,38.45941176470589,111.45668932186226
-0.0308623046875,0.0332294921875,0.8738330078125001,0.8750090322644127,0.0146484375,1.7802734375,4.16943359375,38.45941176470589,111.45668932186226
0.0086884765625,0.1123310546875,0.7322314453125001,0.7408485978772019,-0.6513671875,1.109375,2.7900390625,38.64764705882353,111.45668932186226
-0.0210966796875,0.1499287109375,0.6780322265625001,0.6947311627633518,-1.548828125,0.58740234375,1.73779296875,38.60058823529412,111.29444890339656
-0.0508818359375,0.1924091796875,0.6135791015625001,0.6450500504074331,-1.87158203125,0.72802734375,0.0908203125,38.69470588235294,111.29444890339656
-0.0884794921875,0.1943623046875,0.5369189453125001,0.5778298018073158,-1.7509765625,1.3515625,-1.3603515625,38.69470588235294,111.29444890339656
-0.0835966796875,0.1899677734375,0.4270556640625,0.4748185969477593,-1.67041015625,2.42333984375,-2.30029296875,38.64764705882353,111.29444890339656
-0.0699248046875,0.1655537109375,0.2732470703125,0.3270496460021424,-1.259765625,3.97314453125,-2.50732421875,38.64764705882353,111.29444890339656
0.0638642578125,0.1181904296875,0.0842822265625,0.1585910300426538,-0.71337890625,4.91064453125,-2.08349609375,38.64764705882353,110.83919008409424
0.1966767578125,0.0708271484375,-0.1085888671874999,0.2355626755164938,-0.04931640625,4.55712890625,-1.6328125,38.45941176470589,110.83919008409424
0.3885712890625,0.0298115234375,-0.1920849609374999,0.4344801558549233,0.513671875,3.23095703125,-1.3408203125,38.506470588235295,110.83919008409424
0.4862275390625,0.0141865234375,-0.2355419921874999,0.540461383702549,0.85693359375,2.38525390625,-1.59375,38.31823529411765,110.83919008409424
0.5619111328125,-0.0024150390624999,-0.2965771484374999,0.6353801685350428,0.8369140625,2.12158203125,-2.42041015625,38.69470588235294,111.93432742878063
0.5184541015625,-0.0077861328124999,-0.3522412109374999,0.6268406097038299,0.7841796875,0.9775390625,-3.3876953125,38.64764705882353,111.93432742878063
0.3783173828125,-0.0414775390625,-0.3703076171874999,0.5310105081181209,0.88916015625,-1.01904296875,-3.115234375,38.506470588235295,111.93432742878063
0.2391572265625,-0.0634501953125,-0.3302685546874999,0.4126735083787563,0.84375,-3.5927734375,-2.044921875,38.788823529411765,111.93432742878063
0.2474580078125,0.0083271484375,-0.1061474609374999,0.2693920757838091,0.83740234375,-5.61865234375,-0.83251953125,38.506470588235295,111.93432742878063
0.1917939453125,0.1269794921875,0.1111376953125,0.2554609485109294,1.0927734375,-5.96142578125,0.00634765625,38.36529411764706,112.32589111930552
-0.0088896484375,0.2744404296875,0.4309619140625,0.5110036660033034,1.07958984375,-2.97021484375,0.84423828125,38.45941176470589,112.32589111930552
-0.0445341796875,0.3867451171875,0.6394580078125001,0.7486398483812781,0.69189453125,0.51171875,1.9267578125,38.64764705882353,112.32589111930552
0.0848603515625,0.3198505859375,0.9973681640625,1.050832494395408,0.0732421875,-2.68701171875,3.0791015625,38.506470588235295,112.32589111930552
0.2601533203125,0.5693623046875,2.0408251953125003,2.134671089861617,-1.58935546875,-15.3974609375,3.59814453125,38.03588235294118,112.52498732847484
1.2855439453125,0.7773701171875,3.4636767578125003,3.775444903191708,-2.27490234375,16.0,3.44775390625,38.788823529411765,112.52498732847484
1.3343720703125,0.1499287109375,3.3044970703125003,3.5668933721233307,0.49853515625,16.0,-1.5322265625,38.69470588235294,112.52498732847484
0.2992158203125,-0.0893291015625,3.2825244140625003,3.297343828663854,2.83447265625,16.0,0.7177734375,38.506470588235295,112.52498732847484
0.1126923828125,-0.2851298828125,3.0378955078125003,3.0533273227094404,3.09814453125,2.49072265625,1.0634765625,38.506470588235295,112.52498732847484
0.3148408203125,-0.1103251953125,2.6951220703125003,2.7156913235383224,2.025390625,15.99951171875,-2.291015625,38.36529411764706,112.35610815013476
0.3983369140625,0.0923115234375,2.4661181640625003,2.499786493599641,1.23974609375,15.99951171875,-5.517578125,38.36529411764706,112.35610815013476
0.0511689453125,0.1982685546875,2.0369189453125003,2.0471852555436336,0.08837890625,15.99951171875,-6.60302734375,38.69470588235294,112.35610815013476
-0.4073271484375,0.1743427734375,1.4768603515625005,1.5418908218552363,0.49658203125,15.99951171875,-5.78955078125,39.02411764705882,112.35610815013476
-0.6631865234375,0.1504169921875,0.6663134765625001,0.9520584464499317,2.1240234375,15.99951171875,-5.57177734375,38.45941176470589,111.20835896440668
0.1200166015625,0.0747333984375,0.5286181640625001,0.5471985278392462,0.7890625,3.634765625,-6.4443359375,38.69470588235294,111.20835896440668
-0.0010771484374999,0.1552998046875,0.8215869140625001,0.8361365001861083,-0.51318359375,-4.01513671875,-7.484375,38.36529411764706,111.20835896440668
-0.1685576171875,0.1543232421875,1.0193408203125005,1.0446449355386502,-0.51025390625,-6.1259765625,-7.80712890625,38.45941176470589,111.20835896440668
-0.2330107421875,0.1445576171875,1.1204150390625005,1.1534820199808584,-0.591796875,-5.7783203125,-7.703125,38.506470588235295,111.20835896440668
-0.1758818359375,0.1704365234375,1.1907275390625005,1.2156541864428572,-0.69970703125,-4.501953125,-7.80126953125,38.36529411764706,111.4935289246899
-0.0909208984375,0.1015888671875,1.1238330078125005,1.1320722314225418,-0.65380859375,-3.21044921875,-7.96435546875,38.64764705882353,111.4935289246899
-0.0435576171875,-0.0009501953124999,1.0344775390625005,1.0353945855136542,-0.26171875,-2.3701171875,-8.166015625,38.45941176470589,111.4935289246899
-0.0938505859375,-0.0717509765625,0.9548876953125,0.9621676806969264,0.5810546875,-2.572265625,-7.3046875,38.36529411764706,111.4935289246899
-0.1163115234375,-0.0341533203125,0.8743212890625001,0.8826848453896964,1.369140625,-3.9013671875,-5.54443359375,38.64764705882353,111.1243526909869
-0.2007841796875,-0.1933330078125,0.8279345703125001,0.8735946379420805,1.6669921875,-5.18359375,-3.25634765625,38.506470588235295,111.1243526909869
-0.2129912109375,-0.1264384765625,0.8201220703125001,0.8567100761084404,1.86572265625,-5.30126953125,-0.6865234375,38.17705882352941,111.1243526909869
-0.1460966796875,-0.0595439453125,0.7859423828125001,0.8016203280481854,2.17724609375,-4.02783203125,1.04248046875,38.506470588235295,111.1243526909869
-0.0645537109375,0.0395771484375,0.6863330078125001,0.690497306212848,2.24951171875,-1.70458984375,1.7099609375,38.03588235294118,111.1243526909869
-0.0147490234375,0.1289326171875,0.5413134765625001,0.5566519858721054,1.98974609375,1.05859375,1.79248046875,39.40058823529412,111.50594119931496
0.0204072265625,0.1162373046875,0.3406298828125,0.3604944978246484,1.8701171875,3.14111328125,1.07470703125,38.36529411764706,111.50594119931496
0.0374970703125,0.0840107421875,0.1331103515625,0.1618091492407259,1.42138671875,3.650390625,-0.01708984375,38.31823529411765,111.50594119931496
0.0726533203125,0.0278583984375,-0.0036083984374999,0.0778949026266608,0.88623046875,2.47216796875,-0.80859375,38.36529411764706,111.50594119931496
0.0809541015625,-0.0507548828125,-0.0123974609374999,0.0963499959875401,0.24169921875,0.9931640625,-1.0673828125,39.07117647058824,111.30231056775712
0.0916962890625,-0.0873759765625,-0.0329052734374999,0.1308645396128406,-0.09765625,0.96728515625,-0.595703125,38.36529411764706,111.30231056775712
0.1507783203125,-0.1586650390625,0.1091845703125,0.2446016494042686,-0.2861328125,2.24072265625,0.06005859375,39.21235294117647,111.30231056775712
0.1878876953125,-0.2250712890625,0.0886767578125,0.3063044867223382,-0.3125,3.91748046875,0.48388671875,38.36529411764706,111.30231056775712
0.2069306640625,-0.3007548828125,0.0569384765625,0.3694804316579786,-0.24072265625,4.63623046875,0.66357421875,38.69470588235294,111.30231056775712
0.2103486328125,-0.3573955078125,0.0330126953125,0.4160143439623671,0.2060546875,4.08984375,0.88818359375,39.40058823529412,111.77331898202598
0.3280244140625,-0.4218486328125,0.0920947265625,0.5422524540169861,0.47705078125,2.9765625,1.1123046875,38.45941176470589,111.77331898202598
0.4408173828125,-0.4599345703125,0.2556689453125,0.6864593094680939,0.6181640625,1.314453125,1.552734375,38.60058823529412,111.77331898202598
0.2835908203125,-0.4872783203125,0.4226611328125,0.7046320656927514,0.5078125,0.6728515625,2.470703125,38.506470588235295,111.77331898202598
0.1483369140625,-0.4926494140625,0.5364306640625001,0.7432799893689086,0.046875,1.92236328125,2.76416015625,38.64764705882353,111.98689353724468
0.2064423828125,-0.2231181640625,0.8323291015625001,0.8860992641142199,0.17236328125,-1.19189453125,3.224609375,39.40058823529412,111.98689353724468
0.3280244140625,0.0073505859375,1.4710009765625005,1.5071489376907978,2.009765625,-11.22900390625,4.70166015625,38.506470588235295,111.98689353724468
0.9251923828125,0.1098896484375,2.4793017578125003,2.6485833734923547,5.01220703125,16.0,4.60986328125,38.64764705882353,111.98689353724468
1.2083955078125,0.5698505859375,3.0032275390625003,3.2869933138018617,3.48095703125,16.0,1.8974609375,38.45941176470589,111.98689353724468
0.5462861328125,0.8701435546875,2.9514697265625003,3.1251802974360303,-0.431640625,16.0,-0.9287109375,38.60058823529412,111.17938128145462
0.4701142578125,0.5244404296875,3.0798876953125003,3.15939130141025,-2.9716796875,-1.37841796875,-3.04443359375,38.60058823529412,111.17938128145462
0.2801728515625,0.2324482421875,2.9143603515625003,2.937009579624864,-2.68798828125,15.99951171875,0.98095703125,38.64764705882353,111.17938128145462
-0.1255888671875,-0.0531962890625,2.5647509765625003,2.568374968829466,-1.52099609375,15.99951171875,5.8583984375,38.45941176470589,111.17938128145462
-0.1709990234375,-0.1318095703125,2.0125048828125003,2.0240529469820445,-0.32470703125,15.99951171875,7.025390625,38.31823529411765,111.21290728137662
-0.2374052734375,-0.0644267578125,1.2820361328125005,1.3054228115116555,-0.58056640625,15.99951171875,5.71923828125,38.69470588235294,111.21290728137662
0.1253876953125,0.0957294921875,0.4778369140625,0.5032040602489511,-0.6962890625,14.09814453125,2.6357421875,38.45941176470589,111.21290728137662
0.1429658203125,0.1030537109375,0.4710009765625,0.5028928444892059,-0.1669921875,-7.7138671875,2.244140625,38.31823529411765,111.21290728137662
-0.2095732421875,0.1528583984375,0.8157275390625001,0.8559778337076379,-0.56494140625,16.0,4.076171875,38.45941176470589,111.21290728137662
-0.4048857421875,0.1333271484375,0.9714892578125,1.0608958340865893,-1.03515625,-15.841796875,4.3681640625,38.45941176470589,111.00928220758446
-0.5630888671875,0.1264912109375,1.2981494140625005,1.4206551305738313,-1.4248046875,-10.22900390625,3.36376953125,38.64764705882353,111.00928220758446
-0.7232451171875,0.1572529296875,1.4216845703125005,1.6028097207390215,-1.38916015625,-4.17333984375,2.919921875,38.506470588235295,111.00928220758446
-0.7388701171875,0.2168232421875,1.4587939453125005,1.6495518007343022,-0.5400390625,2.45556640625,3.845703125,38.36529411764706,111.00928220758446
-0.4932646484375,0.2553974609375,1.1731494140625005,1.2980051710862637,0.3955078125,6.4443359375,5.44189453125,38.64764705882353,110.98570080192056
-0.2032255859375,0.1919208984375,0.8538134765625001,0.8984050994937863,-0.220703125,7.2734375,6.15234375,38.64764705882353,110.98570080192056
-0.0245146484375,0.0957294921875,0.7693408203125001,0.7756612672175924,-0.51806640625,5.6611328125,6.11767578125,38.31823529411765,110.98570080192056
0.0707001953125,0.2480732421875,0.6794970703125001,0.7268116122283094,-0.34130859375,3.14599609375,5.21044921875,38.69470588235294,110.98570080192056
0.1112275390625,0.2138935546875,0.6267626953125001,0.6715307099590787,-0.56982421875,1.330078125,3.92236328125,38.60058823529412,110.98570080192056
0.1786103515625,0.1396748046875,0.5627978515625001,0.6067554123970688,-1.6728515625,1.611328125,1.54345703125,38.506470588235295,110.89298165262277
0.2220673828125,0.1421162109375,0.5769580078125001,0.6343433476433675,-2.1435546875,3.259765625,-1.05419921875,38.506470588235295,110.89298165262277
0.2430634765625,0.0962177734375,0.4724658203125,0.539964503395809,-1.52099609375,5.62060546875,-3.46630859375,38.45941176470589,110.89298165262277
0.2718720703125,0.0298115234375,0.3127978515625,0.4155064927143562,-0.64697265625,7.72607421875,-4.73876953125,38.60058823529412,110.89298165262277
0.2601533203125,-0.0756572265625,0.0750048828125,0.2811218569347899,-0.3740234375,8.54296875,-4.708984375,38.506470588235295,111.07302047994553
0.1576142578125,-0.0668681640625,-0.0856396484374999,0.1914360337433191,-0.06201171875,7.39794921875,-3.11962890625,38.45941176470589,111.07302047994553
0.2450166015625,-0.0024150390624999,-0.1579052734374999,0.2915013599184091,0.423828125,4.08203125,-1.005859375,38.36529411764706,111.07302047994553
0.3563447265625,0.1260029296875,-0.0880810546874999,0.3880935127435117,0.99951171875,1.068359375,-0.5908203125,38.36529411764706,111.07302047994553
0.3880830078125,0.2182880859375,-0.0539013671874999,0.4485125046191421,1.36962890625,-0.32373046875,-1.9580078125,38.506470588235295,111.07302047994553
0.3094697265625,0.2417255859375,-0.0324169921874999,0.3940223749204867,1.55712890625,0.47412109375,-3.19677734375,38.506470588235295,112.01379864067754
0.3392548828125,0.2861591796875,0.0007861328125,0.4438260578608977,1.599609375,1.91357421875,-3.94970703125,38.60058823529412,112.01379864067754
0.3866181640625,0.3178974609375,0.0999072265625,0.5104055783129513,1.82373046875,2.8564453125,-4.22998046875,38.36529411764706,112.01379864067754
0.6825166015625,0.3086201171875,0.0960009765625,0.7551764533155177,1.9462890625,2.4736328125,-4.431640625,38.506470588235295,112.01379864067754
0.2948212890625,0.3012958984375,0.2747119140625,0.5031554895135468,1.60595703125,1.38037109375,-3.1884765625,38.36529411764706,111.95792220356806
0.0252900390625,0.2593037109375,0.4060595703125,0.4824545317686564,0.904296875,-1.48876953125,-1.30322265625,39.21235294117647,111.95792220356806
-0.0933623046875,0.2319599609375,0.8611376953125001,0.8967051208188856,-0.55810546875,-9.896484375,-0.32080078125,38.64764705882353,111.95792220356806
0.0482392578125,0.4648701171875,2.4085009765625003,2.4534278481240768,-0.4755859375,16.0,0.61474609375,38.64764705882353,111.95792220356806
0.4647431640625,0.1059833984375,3.1316455078125003,3.1677156242139857,1.60498046875,16.0,-0.42138671875,38.17705882352941,111.95792220356806
0.2743134765625,-0.2397197265625,3.0027392578125003,3.024757259869851,2.40771484375,16.0,0.0107421875,38.36529411764706,111.91984136414848
0.2997041015625,-0.0385478515625,3.0774462890625003,3.09224580966941,0.9541015625,-14.78271484375,5.25,38.45941176470589,111.91984136414848
0.5897431640625,0.3325458984375,2.9553759765625003,3.031935180205673,0.09423828125,1.2900390625,4.0556640625,39.353529411764704,111.91984136414848
0.5814423828125,0.4648701171875,2.7839892578125003,2.8818007665347016,0.9287109375,15.99951171875,-3.349609375,38.64764705882353,111.91984136414848
0.0594697265625,0.4853779296875,2.3909228515625003,2.440418092280276,2.263671875,15.99951171875,-6.63134765625,38.45941176470589,111.50925370874924
-0.4405302734375,0.3237568359375,1.8318408203125005,1.911681511547976,1.9765625,15.99951171875,-5.6748046875,38.506470588235295,111.50925370874924
-0.5010771484375,0.0815693359375,1.3328173828125005,1.4262307110628014,1.0556640625,15.99951171875,-4.12548828125,38.27117647058824,111.50925370874924
-0.4092802734375,-0.0077861328124999,1.0203173828125005,1.0993718787373992,0.58935546875,15.99951171875,-3.5068359375,38.60058823529412,111.50925370874924
-0.0826201171875,0.0703388671875,0.5808642578125001,0.5909119443752712,-0.05810546875,9.595703125,-4.48681640625,38.64764705882353,111.50925370874924
0.0575166015625,0.2065693359375,0.7083056640625001,0.7400513250768342,-1.02001953125,1.0400390625,-6.31494140625,38.64764705882353,110.95340515931576
-0.0494169921875,0.1284443359375,0.8743212890625001,0.8850862687101165,-0.578125,-1.837890625,-7.12109375,38.506470588235295,110.95340515931576
-0.0264677734375,0.0591083984375,0.8826220703125001,0.8849949518496186,0.05126953125,-3.5146484375,-7.49951171875,38.64764705882353,110.95340515931576
-0.0640654296875,-0.0199931640625,0.8909228515625001,0.8934470512159803,0.1328125,-6.1044921875,-7.474609375,39.07117647058824,110.95340515931576
-0.0108427734375,-0.0614970703125,0.9114306640625,0.9135673542691022,-0.08544921875,-8.4462890625,-6.6162109375,38.69470588235294,111.19718350703528
-0.1661162109375,-0.0995830078125,0.9109423828125,0.9313041371030903,-0.17919921875,-9.77978515625,-5.40283203125,38.69470588235294,111.19718350703528
-0.2720732421875,-0.1030009765625,0.9568408203125,1.000088698918023,-0.05322265625,-9.158203125,-4.26025390625,38.60058823529412,111.19718350703528
-0.2779326171875,-0.0859111328125,0.9973681640625,1.0389275803073197,0.26123046875,-7.05078125,-3.287109375,38.64764705882353,111.19718350703528
-0.2823271484375,-0.0575908203125,0.9690478515625,1.0109792579212562,0.7119140625,-4.43994140625,-2.24951171875,38.64764705882353,111.19718350703528
-0.3331083984375,-0.0854228515625,0.8601611328125001,0.9263560023446432,1.189453125,-1.28759765625,-0.44189453125,38.36529411764706,111.06184501960789
-0.3165068359375,-0.0585673828125,0.7483447265625001,0.8146327671402473,1.3212890625,1.36767578125,1.330078125,38.45941176470589,111.06184501960789
-0.2740263671875,-0.0092509765624999,0.6174853515625001,0.6756213361607245,1.32958984375,3.24462890625,2.6513671875,38.36529411764706,111.06184501960789
-0.1495146484375,0.0942646484375,0.4758837890625,0.5076473527311226,1.36083984375,4.69189453125,3.099609375,38.36529411764706,111.06184501960789
0.0028291015625,0.1582294921875,0.2649462890625,0.3086115877629272,1.03857421875,5.11083984375,2.18701171875,38.36529411764706,111.16365721942708
0.0638642578125,0.1489521484375,0.0935595703125,0.1871330519901499,0.3330078125,4.22412109375,0.92041015625,38.45941176470589,111.16365721942708
0.1229462890625,0.0952412109375,-0.0148388671874999,0.156226983055071,-0.443359375,2.1591796875,-0.091796875,38.69470588235294,111.16365721942708
0.1390595703125,0.0415302734375,0.0530322265625,0.1545145454689201,-0.8408203125,0.63623046875,0.0556640625,38.506470588235295,111.16365721942708
0.2391572265625,-0.0224345703125,0.0857470703125,0.2550530317979974,-1.07275390625,0.61328125,0.81591796875,38.64764705882353,111.16365721942708
0.3285126953125,-0.1039775390625,0.1140673828125,0.3629645815126741,-1.29638671875,2.00244140625,1.5107421875,38.506470588235295,111.83706004588748
0.3592744140625,-0.1694072265625,0.1516650390625,0.4251813696358068,-1.240234375,4.23388671875,1.97900390625,38.45941176470589,111.83706004588748
0.3363251953125,-0.2211650390625,0.1506884765625,0.4298088278225978,-0.640625,5.55517578125,2.056640625,38.60058823529412,111.83706004588748
0.3231416015625,-0.2851298828125,0.0320361328125,0.4321410169593111,-0.03759765625,5.26123046875,1.869140625,38.64764705882353,111.83706004588748
0.3441376953125,-0.3422587890625,-0.0045849609374999,0.4853790826687181,0.212890625,2.7099609375,1.3330078125,38.506470588235295,111.87845062468344
0.1971650390625,-0.3886455078125,0.1575244140625,0.463393271851337,0.3330078125,-1.58935546875,1.76904296875,38.64764705882353,111.87845062468344
0.0082001953125,-0.4296611328125,0.3093798828125,0.52952039067628,0.20556640625,-3.46826171875,1.81640625,38.506470588235295,111.87845062468344
-0.1387724609375,-0.3383525390625,0.6213916015625001,0.7210185566940003,0.671875,-6.81494140625,2.19091796875,38.36529411764706,111.87845062468344
0.3402314453125,-0.2323955078125,1.2288134765625005,1.2960507970803,2.28662109375,16.0,3.3173828125,38.64764705882353,111.87845062468344
0.8714814453125,-0.2953837890625,2.1204150390625003,2.3114695391130096,3.701171875,16.0,4.51318359375,38.45941176470589,111.89293687838288
0.6620087890625,-0.1650126953125,2.6296923828125003,2.7167566793204685,1.5556640625,16.0,7.4482421875,38.45941176470589,111.89293687838288
0.3094697265625,0.5971943359375,3.0183642578125003,3.0923996150844584,-1.00048828125,16.0,8.02587890625,38.69470588235294,111.89293687838288
0.2376923828125,0.9233662109375,3.3635791015625003,3.496107435536865,-2.814453125,-0.95849609375,5.19287109375,38.64764705882353,111.89293687838288
0.3900361328125,0.6972919921875,2.8630908203125003,2.972479327535492,-1.96044921875,13.62548828125,3.1357421875,38.36529411764706,111.64128492856624
0.2630830078125,0.2588154296875,2.5403369140625003,2.5670040382891077,-0.52099609375,15.99951171875,2.87744140625,38.45941176470589,111.64128492856624
0.1771455078125,-0.0263408203125,1.9275439453125005,1.935846076232241,-0.1005859375,15.99951171875,3.09765625,38.31823529411765,111.64128492856624
0.0487275390625,-0.0917705078125,1.2639697265625005,1.268233286439736,-0.62890625,15.99951171875,2.3134765625,38.60058823529412,111.64128492856624
-0.1319365234375,-0.0258525390625,0.9334033203125,0.9430362444589028,-1.38525390625,15.99951171875,1.40673828125,38.45941176470589,111.64128492856624
-0.3311552734375,0.0586201171875,0.7053759765625001,0.7814444328140308,-0.580078125,9.275390625,1.7568359375,38.31823529411765,111.001421417513
-0.2393583984375,0.0063740234375,0.7053759765625001,0.7449082758224985,0.427734375,0.2197265625,4.42138671875,38.69470588235294,111.001421417513
-0.2364287109375,0.0512958984375,0.8635791015625001,0.8968270007128315,0.8154296875,-5.67041015625,7.1083984375,39.40058823529412,111.001421417513
-0.2295927734375,0.1162373046875,0.8879931640625001,0.9245300492885388,0.35205078125,-7.7001953125,7.42724609375,38.69470588235294,111.001421417513
-0.3008818359375,0.0981708984375,0.9202197265625,0.9731247348885492,-0.46728515625,-8.13623046875,6.53662109375,38.64764705882353,111.17938128145462
-0.3897490234375,0.0791279296875,1.0276416015625005,1.1019132414981931,-0.5546875,-6.310546875,5.72265625,39.118235294117646,111.17938128145462
-0.3516630859375,0.0659443359375,1.0618212890625005,1.1204820531180644,-0.16162109375,-2.86572265625,5.21337890625,38.31823529411765,111.17938128145462
-0.1812529296875,0.0757099609375,1.0295947265625005,1.048165026925994,-0.05517578125,0.38134765625,4.74658203125,38.36529411764706,111.17938128145462
0.0082001953125,0.1313740234375,0.8997119140625001,0.9092897808417992,-0.09814453125,1.775390625,3.6875,38.69470588235294,111.17938128145462
0.0897431640625,0.1699482421875,0.7356494140625001,0.7603395957919524,-0.71435546875,1.17724609375,2.95361328125,38.36529411764706,111.34369887466173
0.0619111328125,0.1860615234375,0.6335986328125001,0.6632489022771766,-1.2919921875,0.1220703125,2.60302734375,38.506470588235295,111.34369887466173
0.1107392578125,0.2036396484375,0.5559619140625001,0.6023503461646309,-1.7373046875,-1.59619140625,2.01123046875,38.69470588235294,111.34369887466173
-0.0894560546875,0.2261005859375,0.5310595703125001,0.5840788713025244,-1.9150390625,-2.83935546875,1.27685546875,38.64764705882353,111.34369887466173
-0.1485380859375,0.2329365234375,0.5286181640625001,0.5964563272377394,-1.97705078125,-2.53515625,0.4658203125,38.64764705882353,110.7957178295608
-0.1827177734375,0.2114521484375,0.4597705078125,0.5380396971069665,-1.4375,-0.79833984375,-0.34228515625,38.36529411764706,110.7957178295608
-0.1944365234375,0.1069599609375,0.3191455078125,0.3887156416290854,-0.65087890625,1.09619140625,-0.5595703125,38.36529411764706,110.7957178295608
0.0487275390625,0.0508076171875,0.2019580078125,0.2138757207982075,-0.1962890625,2.93505859375,-0.556640625,38.69470588235294,110.7957178295608
0.2967744140625,0.0752216796875,-0.0197216796874999,0.3067935765084487,-0.06591796875,4.37451171875,-1.14208984375,38.64764705882353,110.7957178295608
0.5179658203125,0.1460224609375,-0.1793896484374999,0.5672669530977233,0.513671875,4.533203125,-1.90283203125,38.60058823529412,111.49145381376994
0.5560517578125,0.1313740234375,-0.2956005859374999,0.6432980629592485,0.54345703125,4.17822265625,-2.8857421875,38.45941176470589,111.49145381376994
0.4891572265625,0.1782490234375,-0.3839794921874999,0.6469062969822675,0.34716796875,3.26953125,-3.6630859375,38.69470588235294,111.49145381376994
0.4378876953125,0.2099873046875,-0.3917919921874999,0.623972168432426,0.3203125,0.62646484375,-3.5888671875,38.03588235294118,111.49145381376994
0.3592744140625,0.2319599609375,-0.1515576171874999,0.4537105237986353,0.60986328125,-2.40185546875,-2.74658203125,38.64764705882353,111.90204611866922
0.2689423828125,0.2480732421875,0.1038134765625,0.380325619276793,1.15185546875,-3.08251953125,-1.55322265625,38.69470588235294,111.90204611866922
0.1502900390625,0.2802998046875,0.3113330078125,0.4450655211346264,1.39599609375,-1.041015625,-0.99169921875,38.506470588235295,111.90204611866922
0.0653291015625,0.3418232421875,0.4724658203125,0.5868006235290666,1.22900390625,1.22216796875,-0.38720703125,38.64764705882353,111.90204611866922
0.0853486328125,0.3384052734375,0.7908251953125001,0.864411364891928,1.12109375,0.33349609375,-0.22802734375,38.60058823529412,111.90204611866922
0.0501923828125,0.2998310546875,1.3914111328125005,1.4242341370582228,0.07666015625,-6.22802734375,-0.09033203125,38.36529411764706,111.96123226427764
0.6131806640625,0.5864521484375,3.1238330078125003,3.2370124049632527,-1.87646484375,16.0,3.0205078125,38.45941176470589,111.96123226427764
1.0750947265625,0.2436787109375,3.4905322265625003,3.66046762175518,0.16064453125,16.0,3.95654296875,38.64764705882353,111.96123226427764
0.5028291015625,0.0683857421875,2.7576220703125003,2.803924606295128,1.82421875,16.0,3.96044921875,38.45941176470589,111.96123226427764
0.2547822265625,0.2241474609375,2.6467822265625003,2.6684475303187094,1.6015625,-8.5390625,4.27685546875,38.31823529411765,112.0295296188232
0.5750947265625,0.3125263671875,2.6409228515625003,2.720823438338552,1.1259765625,9.44482421875,0.0302734375,38.506470588235295,112.0295296188232
0.5965791015625,0.4111591796875,2.5457080078125003,2.6468070871340634,1.33203125,15.99951171875,-5.0244140625,38.36529411764706,112.0295296188232
0.1063447265625,0.3232685546875,2.2532275390625003,2.2787817144489835,1.544921875,15.99951171875,-7.81494140625,38.506470588235295,112.0295296188232
-0.1993193359375,0.1733662109375,1.8411181640625005,1.8599731543262292,2.08349609375,15.99951171875,-8.51025390625,38.45941176470589,112.0295296188232
-0.3360380859375,0.0166279296875,1.3792041015625005,1.4196485610928695,2.63671875,15.99951171875,-7.62939453125,38.506470588235295,111.11440799500092
-0.2969755859375,-0.0536845703125,0.8005908203125001,0.8555829552423313,1.916015625,15.71728515625,-6.00048828125,38.08294117647059,111.11440799500092
0.0746064453125,-0.0756572265625,0.7566455078125001,0.764069736415553,-0.19384765625,3.60791015625,-4.525390625,38.506470588235295,111.11440799500092
-0.3404326171875,0.0176044921875,1.1189501953125005,1.1697238240628398,-0.443359375,-0.71240234375,-3.5361328125,38.36529411764706,111.11440799500092
-0.4468779296875,-0.0893291015625,1.1101611328125005,1.200057212484173,-0.1142578125,-0.30029296875,-3.0927734375,38.64764705882353,110.93436871417258
-0.2208037109375,-0.1669658203125,1.0501025390625005,1.0859775349711,-1.15673828125,1.259765625,-4.51220703125,38.64764705882353,110.93436871417258
-0.0298857421875,-0.0951884765625,1.0569384765625005,1.0616369185812289,-1.798828125,1.4208984375,-7.07373046875,38.45941176470589,110.93436871417258
0.0047822265625,-0.0395244140625,1.0125048828125005,1.0132873169624863,-1.828125,0.77978515625,-8.82763671875,39.40058823529412,110.93436871417258
-0.0406279296875,-0.0258525390625,0.8899462890625001,0.891248214507488,-1.22412109375,-0.17578125,-9.2060546875,38.64764705882353,110.93436871417258
-0.1255888671875,-0.0883525390625,0.7722705078125001,0.7873883869839629,-0.357421875,-1.4638671875,-7.99267578125,38.45941176470589,110.83255889025511
-0.1753935546875,-0.1640361328125,0.6438525390625001,0.6871803576581809,0.16357421875,-3.01318359375,-5.2568359375,38.506470588235295,110.83255889025511
-0.2359404296875,-0.1454814453125,0.5740283203125001,0.6374490174218846,0.59130859375,-4.71875,-2.2900390625,38.69470588235294,110.83255889025511
-0.1744169921875,-0.0976298828125,0.5588916015625001,0.593559351268947,1.1201171875,-4.76416015625,-0.60546875,39.25941176470588,110.83255889025511
-0.1128935546875,-0.0419658203125,0.5671923828125001,0.5798390154905085,1.43017578125,-3.08203125,0.63671875,38.31823529411765,110.70839966724674
-0.0987333984375,0.0268818359375,0.5369189453125001,0.5465829039641436,1.48828125,0.03076171875,1.47900390625,38.506470588235295,110.70839966724674
-0.0303740234375,0.0718037109375,0.4226611328125,0.4297915627307307,1.47509765625,3.197265625,2.03125,38.60058823529412,110.70839966724674
0.0853486328125,0.1113544921875,0.2351611328125,0.2738338372790281,1.30712890625,5.267578125,1.833984375,38.27117647058824,110.70839966724674
0.0936494140625,0.0752216796875,0.0618212890625,0.1350939881364364,0.9111328125,6.2626953125,1.201171875,39.44764705882353,110.70839966724674
0.1434541015625,0.0449482421875,-0.0568310546874999,0.1607146306586423,0.30712890625,5.89697265625,0.40625,38.506470588235295,111.24643340810428
0.1795869140625,-0.0151103515624999,-0.0890576171874999,0.2010249775673395,-0.2646484375,4.68701171875,0.236328125,38.31823529411765,111.24643340810428
0.1883759765625,-0.0790751953125,0.0325244140625,0.2068725031745266,-0.4482421875,3.74462890625,0.943359375,38.60058823529412,111.24643340810428
0.2845673828125,-0.1835673828125,0.0974658203125,0.3523849677874687,-0.7998046875,3.03369140625,2.2001953125,38.64764705882353,111.24643340810428
0.5169892578125,-0.3090556640625,0.1043017578125,0.611287291594885,-1.14794921875,2.52734375,3.20654296875,38.27117647058824,111.74972716048536
0.6581025390625,-0.4072001953125,0.3918994140625,0.8674653317139415,-1.19970703125,2.20751953125,3.623046875,38.45941176470589,111.74972716048536
0.5492158203125,-0.4155009765625,0.4949267578125,0.8480752174216133,-0.841796875,1.267578125,3.763671875,38.45941176470589,111.74972716048536
0.4515595703125,-0.3256572265625,0.6550830078125001,0.8597048457917759,-0.0791015625,-1.51220703125,3.83251953125,38.64764705882353,111.74972716048536
0.5282197265625,-0.2094462890625,0.9592822265625,1.1149467331359475,0.880859375,-8.89111328125,3.78125,38.60058823529412,111.74972716048536
0.7787080078125,-0.1405986328125,1.5867236328125005,1.7730894009907552,2.68994140625,16.0,2.90576171875,38.31823529411765,111.69385007350792
0.7723603515625,-0.0380595703125,2.2312548828125003,2.361458743157023,3.1015625,16.0,2.29833984375,38.64764705882353,111.69385007350792
0.2787080078125,0.2881123046875,2.7170947265625003,2.7465051623554078,0.2509765625,16.0,2.90673828125,38.36529411764706,111.69385007350792
-0.1036162109375,0.5434833984375,3.2156298828125003,3.2628800264157665,-0.775390625,-12.65478515625,1.6474609375,38.31823529411765,111.69385007350792
0.0057587890625,0.3535419921875,3.3845751953125003,3.4029949098721883,-0.0625,3.845703125,1.201171875,38.08294117647059,111.27333348872824
0.1117158203125,-0.1469462890625,2.8865283203125003,2.892424481355293,-0.283203125,13.45947265625,3.92919921875,38.60058823529412,111.27333348872824
0.0106416015625,-0.3573955078125,2.3635791015625003,2.390470866174981,-0.63232421875,15.99951171875,6.57666015625,38.36529411764706,111.27333348872824
-0.0376982421875,-0.3095439453125,1.8508837890625005,1.8769681436183228,-1.98095703125,15.99951171875,7.236328125,38.506470588235295,111.27333348872824
-0.0889677734375,-0.0854228515625,1.4895556640625005,1.4946532723746238,-2.54296875,15.99951171875,6.4755859375,39.40058823529412,111.27333348872824
-0.1158232421875,0.1767841796875,1.1887744140625005,1.207415536237731,-2.333984375,15.99951171875,5.65283203125,38.45941176470589,111.06184501960789
-0.1485380859375,0.3681904296875,0.9280322265625,1.0093916826613905,-1.1337890625,7.98486328125,6.45849609375,38.45941176470589,111.06184501960789
-0.2227568359375,0.4223896484375,0.8337939453125001,0.96085689168774,-0.064453125,-0.3310546875,8.56103515625,38.64764705882353,111.06184501960789
0.0843720703125,0.4829365234375,0.9163134765625,1.039219283524306,0.47509765625,-3.99169921875,8.70947265625,38.506470588235295,111.06184501960789
0.0277314453125,0.4038349609375,0.9700244140625,1.0510942263240766,-0.2392578125,-5.21484375,7.39013671875,38.45941176470589,110.90415707363186
-0.1031279296875,0.3227802734375,1.0120166015625005,1.0672394654622408,-0.35986328125,-5.1533203125,6.32568359375,38.60058823529412,110.90415707363186
-0.1402373046875,0.1743427734375,1.0354541015625005,1.0593522080585374,0.14208984375,-3.9052734375,5.5615234375,38.36529411764706,110.90415707363186
-0.2017607421875,0.0542255859375,1.0730517578125005,1.0932007529282135,0.04345703125,-2.33984375,5.36767578125,38.36529411764706,110.90415707363186
-0.2305693359375,0.0820576171875,0.9036181640625,0.93617383943199,-0.17822265625,-0.72998046875,4.8232421875,39.118235294117646,110.90415707363186
-0.1251005859375,0.1255146484375,0.7859423828125001,0.8056733287600412,-0.47021484375,-0.11328125,3.900390625,39.25941176470588,111.29568414671144
-0.0845732421875,0.1987568359375,0.7249072265625001,0.7564042571591778,-0.89111328125,0.9052734375,2.67626953125,38.45941176470589,111.29568414671144
-0.1563505859375,0.1513935546875,0.6306689453125001,0.667164771780928,-1.267578125,1.81640625,1.34375,38.60058823529412,111.29568414671144
-0.0894560546875,0.2011982421875,0.5447314453125001,0.5875503943423391,-1.33642578125,2.51171875,-0.25830078125,38.45941176470589,111.29568414671144
-0.1343779296875,0.1338154296875,0.4836962890625,0.5195441244614191,-1.205078125,3.71533203125,-2.13037109375,38.64764705882353,109.96347468607816
-0.1822294921875,0.0381123046875,0.3674853515625,0.4119534187314401,-1.1220703125,4.4208984375,-2.86279296875,38.69470588235294,109.96347468607816
-0.1631865234375,-0.0942119140625,0.2380908203125,0.3036329443588373,-0.65771484375,4.90673828125,-2.16796875,38.69470588235294,109.96347468607816
0.0086884765625,-0.1191142578125,0.1614306640625,0.2008072591786949,-0.17724609375,4.96630859375,-1.28564453125,38.83588235294118,109.96347468607816
0.1830048828125,-0.1562236328125,0.0383837890625,0.2436594464516945,0.0380859375,4.5361328125,-0.6767578125,38.03588235294118,109.96347468607816
0.3202119140625,-0.1786845703125,-0.0353466796874999,0.368392770477738,0.236328125,4.064453125,-0.72998046875,38.506470588235295,110.79780388249424
0.5995087890625,-0.0087626953124999,-0.0778271484374999,0.6046028762966956,0.5546875,3.275390625,-2.01025390625,38.64764705882353,110.79780388249424
0.5833955078125,0.0371357421875,-0.0910107421874999,0.5916184049513173,0.58984375,3.00146484375,-3.70458984375,39.118235294117646,110.79780388249424
0.5399384765625,0.1640888671875,-0.1090771484374999,0.5747665083481873,0.681640625,2.892578125,-4.97119140625,38.506470588235295,110.79780388249424
0.4032197265625,0.2134052734375,-0.1427685546874999,0.4780280523438233,0.65869140625,2.76513671875,-4.9912109375,38.31823529411765,111.82919570202552
0.2928681640625,0.2466083984375,-0.1559521484374999,0.4134108565380452,0.7958984375,2.13818359375,-4.09765625,38.64764705882353,111.82919570202552
0.2264619140625,0.2207294921875,-0.1613232421874999,0.3550094304551493,1.0166015625,0.5419921875,-2.87646484375,38.03588235294118,111.82919570202552
0.2938447265625,0.2495380859375,-0.0065380859374999,0.3855602757412485,1.29345703125,-2.38134765625,-1.71728515625,38.60058823529412,111.82919570202552
0.1444306640625,0.2763935546875,0.2356494140625,0.39087627216592,1.45166015625,-5.31591796875,-0.373046875,38.60058823529412,111.82919570202552
-0.0484404296875,0.3589130859375,0.3938525390625,0.5350559793250301,0.97119140625,-7.943359375,2.46142578125,38.60058823529412,111.7431040346997
0.1815400390625,0.5586201171875,0.8391650390625001,1.0243101014312792,0.744140625,-15.16064453125,4.38134765625,38.64764705882353,111.7431040346997
0.7318330078125,0.9253193359375,1.8420947265625005,2.187489064295655,0.8291015625,16.0,3.36279296875,38.506470588235295,111.7431040346997
1.4681611328125,0.5669208984375,3.1257861328125003,3.49963360440338,-0.7734375,16.0,-1.2578125,38.45941176470589,111.7431040346997
1.3622041015625,0.0776630859375,3.9168017578125,4.147646028681103,-0.4248046875,16.0,-7.0546875,38.27117647058824,112.16818917499351
0.5121064453125,-0.0370830078125,3.7288134765625,3.763997622713536,1.47509765625,16.0,-4.830078125,38.13,112.16818917499351
0.1239228515625,-0.1332744140625,3.2537158203125003,3.2588012492226235,-1.42138671875,2.69384765625,-1.14306640625,38.506470588235295,112.16818917499351
0.1790986328125,0.2578388671875,3.2210009765625003,3.23626397142205,-2.630859375,15.99951171875,-2.32373046875,38.69470588235294,112.16818917499351
-0.0831083984375,0.4809833984375,2.8171923828125003,2.859165080445707,-0.69873046875,15.99951171875,-4.1298828125,38.36529411764706,112.16818917499351
-0.2789091796875,0.3584248046875,2.0667041015625003,2.116016189575233,0.92138671875,15.99951171875,-3.35986328125,38.69470588235294,111.48359047406248
-0.0772490234375,0.1225849609375,1.3982470703125005,1.4057344535535814,1.470703125,15.99951171875,-3.1484375,38.64764705882353,111.48359047406248
0.3333955078125,-0.0063212890624999,0.8460009765625001,0.9093460153702057,1.25439453125,15.99951171875,-4.49658203125,38.31823529411765,111.48359047406248
0.4481416015625,-0.0405009765625,0.5310595703125001,0.6960571035295997,0.4521484375,1.84228515625,-4.99609375,38.506470588235295,111.48359047406248
0.3631806640625,-0.0146220703124999,0.8640673828125001,0.9374040973505212,-0.0029296875,-6.94580078125,-4.634765625,39.40058823529412,111.11109395934352
0.0472626953125,-0.0307353515625,1.0125048828125005,1.0140732527401697,-0.35986328125,-11.44140625,-4.6103515625,38.506470588235295,111.11109395934352
-0.1026396484375,-0.0077861328124999,1.0877001953125005,1.0925599462630866,-0.47705078125,-11.376953125,-5.0224609375,38.03588235294118,111.11109395934352
-0.2266630859375,0.0361591796875,1.1384814453125005,1.1613886697067537,-0.63134765625,-8.60205078125,-5.5146484375,38.36529411764706,111.11109395934352
-0.3301787109375,0.0483662109375,1.1545947265625005,1.2018511780261043,-1.02392578125,-4.9609375,-5.8349609375,38.506470588235295,111.11109395934352
-0.3624052734375,0.0371357421875,1.1126025390625005,1.1707267210973908,-0.63623046875,-1.68310546875,-5.9716796875,38.64764705882353,111.06184501960789
-0.2769560546875,0.0508076171875,1.0027392578125005,1.0415239264417793,-0.05419921875,0.31591796875,-4.8330078125,38.31823529411765,111.06184501960789
-0.1094755859375,-0.0351298828125,0.8040087890625001,0.8121878757236694,0.50830078125,0.89208984375,-3.57177734375,38.31823529411765,111.06184501960789
-0.0225615234375,-0.0937236328125,0.6990283203125001,0.7056441980816596,1.09912109375,0.876953125,-2.4794921875,38.506470588235295,111.06184501960789
0.0404267578125,-0.0937236328125,0.6023486328125001,0.6109356083466496,1.583984375,0.68505859375,-1.17578125,39.118235294117646,111.14130643146534
0.0252900390625,-0.0820048828125,0.5056689453125001,0.5128990827973188,1.6806640625,0.8388671875,0.33984375,38.45941176470589,111.14130643146534
-0.0049833984375,-0.0702861328125,0.3723681640625,0.3789762846577609,1.5185546875,1.66943359375,1.447265625,38.506470588235295,111.14130643146534
-0.0508818359375,-0.0619853515625,0.2170947265625,0.2314330688081201,1.1767578125,2.7890625,1.77734375,38.64764705882353,111.14130643146534
-0.0660185546875,-0.0614970703125,0.0647509765625,0.1110541678004226,0.66845703125,3.5322265625,1.29541015625,38.36529411764706,111.14130643146534
-0.0113310546875,-0.0683330078125,-0.0504833984374999,0.0857109460619451,0.11572265625,3.24072265625,0.57666015625,38.506470588235295,111.13799307271152
0.1317353515625,-0.0834697265625,-0.0880810546874999,0.1791079850218195,-0.53076171875,2.76806640625,0.1513671875,38.60058823529412,111.13799307271152
0.2757783203125,-0.0849345703125,-0.0431591796874999,0.2917709340901707,-1.04931640625,3.62451171875,0.173828125,38.506470588235295,111.13799307271152
0.4085908203125,-0.1034892578125,-0.0119091796874999,0.4216613730080725,-1.20263671875,5.7802734375,0.28955078125,38.506470588235295,111.13799307271152
0.4237275390625,-0.1767314453125,-0.0700146484374999,0.4644147737938947,-0.91064453125,7.71533203125,0.59912109375,38.64764705882353,111.7575907794624
0.3392548828125,-0.2587626953125,-0.2057568359374999,0.4736959821789964,-0.4736328125,6.68798828125,1.21240234375,38.36529411764706,111.7575907794624
0.3446259765625,-0.2953837890625,-0.2819287109374999,0.5343242878753096,-0.1826171875,2.171875,1.8525390625,38.64764705882353,111.7575907794624
0.3607392578125,-0.2841533203125,-0.1642529296874999,0.4877037486862884,-0.2958984375,-2.455078125,2.5400390625,38.08294117647059,111.7575907794624
0.3534150390625,-0.2533916015625,0.1072314453125,0.4478929296626202,-0.29052734375,-4.859375,2.970703125,38.45941176470589,111.7575907794624
0.1849580078125,-0.2895244140625,0.3928759765625,0.5219055316358899,0.27880859375,-4.59716796875,2.8623046875,38.45941176470589,111.52829198093588
0.0731416015625,-0.3090556640625,0.6223681640625001,0.698718275849979,0.71826171875,-4.15087890625,2.7646484375,38.788823529411765,111.52829198093588
0.1463837890625,-0.2607158203125,0.8411181640625001,0.8926817566061184,1.12548828125,-7.25048828125,3.9736328125,38.69470588235294,111.52829198093588
0.6048798828125,-0.2006572265625,1.3103564453125005,1.4571125587870792,2.4326171875,16.0,5.69140625,39.40058823529412,111.52829198093588
1.0575166015625,-0.2914775390625,2.4739306640625003,2.706221249075351,3.4345703125,16.0,5.62939453125,38.45941176470589,111.18932210213984
1.1898408203125,-0.0248759765625,3.3196337890625003,3.5265150624061303,-0.0478515625,16.0,4.8994140625,38.27117647058824,111.18932210213984
0.5169892578125,0.5200458984375,2.9685595703125003,3.057788670210733,-2.17236328125,16.0,1.07958984375,38.36529411764706,111.18932210213984
0.4320283203125,0.7573505859375,3.4358447265625003,3.5447506773564847,-3.3505859375,-0.5458984375,4.193359375,38.45941176470589,111.18932210213984
0.8099580078125,0.3520771484375,3.1633837890625003,3.2843549274971635,-1.615234375,15.99951171875,8.79345703125,38.64764705882353,111.18932210213984
0.8324189453125,0.1006123046875,2.7102587890625003,2.836996094473913,1.42041015625,15.99951171875,8.85595703125,38.60058823529412,111.37059889595592
0.5379853515625,-0.0722392578125,2.0427783203125003,2.1136674324036617,2.06298828125,15.99951171875,4.99560546875,38.60058823529412,111.37059889595592
0.1913056640625,-0.0859111328125,1.3386767578125005,1.355003336435342,0.71630859375,15.99951171875,-0.74072265625,38.45941176470589,111.37059889595592
-0.1587919921875,0.0576435546875,0.3733447265625,0.4097852620970083,-1.29345703125,15.99951171875,-5.0185546875,38.64764705882353,111.37059889595592
0.1942353515625,0.1504169921875,0.5720751953125001,0.6225935049670672,-2.07373046875,6.48583984375,-3.072265625,38.506470588235295,110.35828174336696
0.0448212890625,0.3047138671875,0.8196337890625001,0.8755906789034111,-1.16259765625,-7.2109375,2.91357421875,38.69470588235294,110.35828174336696
-0.1246123046875,0.3520771484375,1.0549853515625005,1.1191428134705883,0.15673828125,-12.7373046875,7.46044921875,38.31823529411765,110.35828174336696
-0.1866240234375,0.3877216796875,1.1663134765625005,1.2431587801383228,0.8818359375,-12.50146484375,7.96533203125,38.506470588235295,110.35828174336696
-0.2188505859375,0.3511005859375,1.2288134765625005,1.2965915935993342,1.10986328125,-8.2900390625,5.869140625,39.118235294117646,110.35828174336696
-0.2178740234375,0.2842060546875,1.2473681640625005,1.2977555657081696,1.04443359375,-2.16455078125,2.98779296875,38.60058823529412,110.8168389571052
-0.1880888671875,0.1758076171875,1.2229541015625005,1.2497609670451248,0.69482421875,3.40869140625,0.9599609375,38.36529411764706,110.8168389571052
-0.1685576171875,0.1196552734375,1.0989306640625005,1.1182028703192364,0.0078125,7.0771484375,0.66455078125,38.45941176470589,110.8168389571052
-0.1959013671875,0.0766865234375,0.9539111328125,0.9768339766032348,-0.5830078125,8.91357421875,1.2705078125,38.08294117647059,110.8168389571052
-0.2217802734375,0.0469013671875,0.7346728515625001,0.7688500677980358,-0.83837890625,8.83984375,1.80224609375,38.36529411764706,110.8135232685125
-0.2198271484375,0.0439716796875,0.4509814453125,0.50362858121919,-0.70068359375,6.97119140625,1.828125,38.03588235294118,110.8135232685125
-0.1412138671875,0.0332294921875,0.2307666015625,0.2725780252217586,-0.51025390625,3.39599609375,1.4853515625,38.506470588235295,110.8135232685125
-0.0694365234375,0.0259052734375,0.1204150390625,0.1413941144863588,-0.3740234375,0.68212890625,0.95703125,38.45941176470589,110.8135232685125
-0.0425810546875,0.0195576171875,0.0940478515625,0.1050744735503095,-0.0791015625,0.228515625,0.53955078125,38.64764705882353,110.8135232685125
0.0389619140625,0.0073505859375,0.0335009765625,0.0519073914936917,0.05908203125,2.11474609375,0.32568359375,38.64764705882353,110.85490982544678
0.2508759765625,-0.0175517578125,-0.0739208984374999,0.2621280584834517,0.02001953125,4.205078125,-0.14599609375,38.506470588235295,110.85490982544678
0.5111298828125,0.0425068359375,-0.1452099609374999,0.533053956894429,0.2373046875,5.59765625,-1.02197265625,38.45941176470589,110.85490982544678
0.7411103515625,0.0552021484375,-0.2604443359374999,0.7874789409927948,0.16259765625,5.40673828125,-2.3759765625,38.36529411764706,110.85490982544678
0.7010712890625,0.1323505859375,-0.3146435546874999,0.7797552157261539,0.00390625,4.486328125,-4.01953125,38.506470588235295,111.98358292093268
0.5570283203125,0.1201435546875,-0.3795849609374999,0.6846895398157014,0.11962890625,2.0712890625,-4.4794921875,39.25941176470588,111.98358292093268
0.3714814453125,0.1362568359375,-0.2501904296874999,0.4681448928039037,0.0703125,-0.82421875,-3.99755859375,38.506470588235295,111.98358292093268
0.2689423828125,0.2011982421875,-0.0202099609374999,0.3364805796079477,0.4326171875,-2.373046875,-2.53271484375,38.64764705882353,111.98358292093268
0.3934541015625,0.2783466796875,0.2190478515625,0.5294005717824234,0.9921875,-2.0341796875,-1.8837890625,38.506470588235295,111.98358292093268
0.2469697265625,0.3569599609375,0.3752978515625,0.5738143749840063,1.224609375,-0.9482421875,-1.8232421875,38.36529411764706,111.7878054615977
-0.0626005859375,0.4023701171875,0.5950244140625001,0.7210232991350711,1.01708984375,1.0498046875,-1.859375,38.60058823529412,111.7878054615977
-0.3565458984375,0.3520771484375,1.1047900390625005,1.213113484615601,0.2841796875,-1.24658203125,-1.7265625,38.45941176470589,111.7878054615977
-0.5381865234375,0.4668232421875,2.5593798828125003,2.656688551185765,-0.5771484375,-13.49462890625,0.47314453125,38.03588235294118,111.7878054615977
0.9129853515625,0.3564716796875,4.4041064453125,4.5118475032108565,2.0478515625,16.0,2.44384765625,38.36529411764706,111.72406462884248
1.0155244140625,-0.3178447265625,3.0300830078125003,3.2114978032056354,4.30908203125,16.0,-0.357421875,38.64764705882353,111.72406462884248
0.6356416015625,-0.2099345703125,2.7200244140625003,2.801186459796149,1.10400390625,-13.82666015625,4.1181640625,38.69470588235294,111.72406462884248
0.5140595703125,0.3135029296875,2.7180712890625003,2.7839635164955734,-0.52294921875,2.74560546875,6.673828125,38.64764705882353,111.72406462884248
0.6698212890625,0.5630146484375,2.6379931640625003,2.779326175042619,0.5185546875,15.99951171875,1.19384765625,38.36529411764706,111.72406462884248
0.2953095703125,0.5224873046875,2.3220751953125003,2.398381524812795,2.0908203125,15.99951171875,-4.11767578125,38.64764705882353,111.5361551288509
-0.2012724609375,0.1963154296875,1.6643603515625005,1.687941270103458,1.5869140625,15.99951171875,-6.0712890625,38.45941176470589,111.5361551288509
-0.3692412109375,-0.0405009765625,1.2356494140625005,1.2902747286644451,1.021484375,15.99951171875,-7.10498046875,38.45941176470589,111.5361551288509
-0.1426787109375,-0.0409892578125,0.9041064453125,0.9162127472734763,1.33984375,15.99951171875,-8.0732421875,38.64764705882353,111.5361551288509
0.0648408203125,0.0141865234375,0.7063525390625001,0.7094642336764281,0.88232421875,7.19921875,-8.2275390625,38.36529411764706,111.02045765950544
0.1468720703125,0.0869404296875,0.7278369140625001,0.7475805085903124,-0.10986328125,-1.00927734375,-7.96337890625,38.64764705882353,111.02045765950544
-0.1094755859375,0.0810810546875,0.9260791015625,0.936045695303602,-0.12353515625,-3.513671875,-7.44140625,38.60058823529412,111.02045765950544
-0.2027373046875,0.0215107421875,0.9700244140625,0.9912176807435922,0.2978515625,-4.80126953125,-6.900390625,38.13,111.02045765950544
-0.2955107421875,-0.0995830078125,0.9441455078125,0.9943108739804244,0.34619140625,-4.17138671875,-6.83447265625,39.118235294117646,111.02045765950544
-0.2706083984375,-0.1537822265625,0.8953173828125001,0.9478771515748512,0.21923828125,-2.95556640625,-6.8583984375,38.506470588235295,110.98238541523534
-0.2774443359375,-0.1523173828125,0.8665087890625001,0.9225038895165756,0.55126953125,-2.2568359375,-6.7861328125,38.45941176470589,110.98238541523534
-0.2032255859375,-0.2807353515625,0.8098681640625001,0.8809082923656272,0.8916015625,-2.79345703125,-5.875,38.36529411764706,110.98238541523534
-0.2271513671875,-0.2001689453125,0.7708056640625001,0.8281344830602702,0.9912109375,-3.517578125,-3.3828125,38.03588235294118,110.98238541523534
-0.2256865234375,-0.2045634765625,0.7732470703125001,0.8310786091288274,0.90087890625,-3.72021484375,-0.6787109375,38.36529411764706,111.03494795939666
-0.2261748046875,-0.1601298828125,0.7815478515625001,0.8292247378889112,1.3544921875,-2.50341796875,1.33056640625,38.69470588235294,111.03494795939666
-0.1617216796875,-0.1044658203125,0.7327197265625001,0.7575917152321128,1.70361328125,-0.306640625,2.6533203125,38.506470588235295,111.03494795939666
-0.1163115234375,-0.0346416015625,0.6257861328125001,0.6374454447743674,1.716796875,2.736328125,3.62158203125,38.27117647058824,111.03494795939666
-0.0650419921875,-0.0199931640625,0.4119189453125,0.4175013830687406,1.48046875,5.5048828125,4.14404296875,38.64764705882353,111.03494795939666
-0.0220732421875,-0.0566142578125,0.1624072265625,0.1734027377178673,0.83056640625,7.18505859375,3.73291015625,38.64764705882353,110.99810676975684
0.0863251953125,-0.1073955078125,-0.0343701171874999,0.1420110537934582,0.16650390625,6.87451171875,2.75537109375,38.36529411764706,110.99810676975684
0.2010712890625,-0.1484111328125,-0.1159130859374999,0.2754838854080201,-0.302734375,5.06982421875,1.73291015625,38.36529411764706,110.99810676975684
0.2845673828125,-0.1889384765625,-0.1217724609374999,0.3626360096974502,-0.71923828125,3.92333984375,1.56298828125,38.506470588235295,110.99810676975684
0.3734345703125,-0.2328837890625,-0.0846630859374999,0.4481696951301471,-1.12548828125,3.9248046875,2.2021484375,38.506470588235295,111.23525801843996
0.3841767578125,-0.2758525390625,0.0061572265625,0.4729950485887715,-1.8076171875,5.75,3.087890625,38.64764705882353,111.23525801843996
0.3412080078125,-0.3012431640625,0.0305712890625,0.4561852169949222,-1.6328125,7.974609375,3.6015625,39.44764705882353,111.23525801843996
0.2972626953125,-0.3027080078125,-0.0651318359374999,0.4292311778876905,-1.11669921875,8.39794921875,3.1806640625,38.64764705882353,111.23525801843996
0.2796845703125,-0.3119853515625,-0.1930615234374999,0.461336179258112,-0.85986328125,6.9033203125,2.09423828125,38.64764705882353,111.23525801843996
0.4925751953125,-0.3095439453125,-0.0792919921874999,0.5871413774738058,-0.849609375,3.75048828125,0.978515625,38.64764705882353,111.58540823584828
0.4808564453125,-0.3661845703125,0.1008837890625,0.6127736934865355,-0.705078125,0.02392578125,1.41455078125,38.64764705882353,111.58540823584828
-0.0513701171875,-0.4072001953125,0.2293017578125,0.4701384733653459,-0.6982421875,-5.0029296875,3.75537109375,38.64764705882353,111.58540823584828
-0.1133818359375,-0.3066142578125,0.7620166015625001,0.8291785361858629,-0.0263671875,16.0,7.34130859375,38.506470588235295,111.58540823584828
0.4613251953125,-0.1269267578125,1.7307666015625005,1.7956849297031805,0.771484375,16.0,11.08154296875,38.31823529411765,111.24643340810428
1.1048798828125,0.0166279296875,2.8684619140625003,3.073940434672825,2.1025390625,16.0,11.1650390625,38.45941176470589,111.24643340810428
0.9930634765625,0.4980732421875,3.1511767578125003,3.3412822362146044,1.271484375,16.0,6.935546875,38.60058823529412,111.24643340810428
0.7845673828125,0.7358662109375,3.6980517578125,3.851315601457882,-0.7255859375,-14.71923828125,4.91162109375,38.45941176470589,111.24643340810428
0.5042939453125,0.5796162109375,3.3230517578125003,3.4107096505509142,-1.2880859375,9.47607421875,4.83349609375,38.60058823529412,111.24643340810428
0.4310517578125,0.4302021484375,3.0491259765625003,3.1093486017784677,0.150390625,15.99951171875,4.85205078125,38.45941176470589,111.65577239275852
-0.0376982421875,0.1279560546875,2.4114306640625003,2.41511733813828,0.7666015625,15.99951171875,5.32421875,38.13,111.65577239275852
-0.1954130859375,0.0039326171875,1.6755908203125005,1.6869517885076255,-0.16455078125,15.99951171875,4.095703125,38.64764705882353,111.65577239275852
-0.3038115234375,0.1147724609375,1.2615283203125005,1.3026618373597745,-0.9384765625,15.99951171875,1.84423828125,38.69470588235294,111.65577239275852
-0.2754912109375,0.1294208984375,1.0505908203125005,1.093794426746211,-0.89453125,15.85888671875,0.484375,38.64764705882353,110.88180624569226
-0.5494169921875,0.0742451171875,0.9631884765625,1.1113520639803278,0.2861328125,6.87158203125,2.181640625,38.64764705882353,110.88180624569226
-0.4185576171875,0.0093037109375,0.8752978515625001,0.9702697392441004,0.947265625,0.5341796875,5.8427734375,38.506470588235295,110.88180624569226
-0.1334013671875,0.0215107421875,0.8230517578125001,0.8340700407251165,0.6240234375,-2.984375,6.33447265625,38.64764705882353,110.88180624569226
-0.1182646484375,0.0747333984375,0.7712939453125001,0.7838787903673536,-0.7080078125,-4.30078125,5.0283203125,38.36529411764706,110.88180624569226
-0.2535185546875,0.1084248046875,0.8479541015625001,0.8916578683548013,-0.86181640625,-3.783203125,4.35546875,38.36529411764706,110.91864752320768
-0.2730498046875,0.0874287109375,0.8552783203125001,0.9020537570082208,-0.36328125,-2.599609375,4.654296875,38.506470588235295,110.91864752320768
-0.1216826171875,0.0429951171875,0.8333056640625001,0.843239923856912,0.0439453125,-1.07568359375,4.68115234375,38.60058823529412,110.91864752320768
-0.1226591796875,0.0644794921875,0.8245166015625001,0.8360804420189141,-0.10205078125,-0.1337890625,4.58349609375,39.07117647058824,110.91864752320768
