AccX,AccY,AccZ,Magnitude,GyroX,GyroY,GyroZ,Temperature,Altitude
-0.0450224609375,0.0561787109375,0.9002001953125001,0.9030744494182807,-2.62060546875,0.0390625,-5.51513671875,42.45941176470589,416.85105501941
-0.0030302734374999,0.0498310546875,0.8352587890625001,0.8367494017174608,-2.740234375,0.19580078125,-5.76708984375,42.45941176470589,416.85105501941
0.0184541015625,0.0278583984375,0.7761767578125001,0.7768957482161335,-2.50634765625,-0.0751953125,-5.38134765625,42.45941176470589,416.85105501941
0.0252900390625,-0.0087626953124999,0.7219775390625001,0.7224734858911199,-2.09130859375,-0.78125,-4.662109375,42.506470588235295,416.85105501941
-0.0030302734374999,-0.0317119140625,0.7068408203125001,0.7075583179573691,-1.4404296875,-1.65185546875,-3.78515625,42.27117647058824,416.6852912714991
-0.0298857421875,-0.0580791015625,0.6990283203125001,0.7020733097215134,-0.57470703125,-2.28271484375,-2.9169921875,43.16529411764706,416.6852912714991
-0.0542998046875,-0.0956767578125,0.7014697265625001,0.7100438634748426,0.30126953125,-2.4091796875,-2.01220703125,42.31823529411765,416.6852912714991
-0.0528349609375,-0.1366923828125,0.7019580078125001,0.7170923129892832,0.87451171875,-2.02783203125,-1.0517578125,42.41235294117647,416.6852912714991
-0.0401396484375,-0.1581767578125,0.6887744140625001,0.7078426884244131,1.3515625,-0.9228515625,-0.1279296875,43.07117647058824,416.6852912714991
0.0155244140625,-0.1591533203125,0.6760791015625001,0.694732853957573,1.23095703125,0.61279296875,0.57861328125,42.506470588235295,416.7559791315384
0.0438447265625,-0.1210673828125,0.6331103515625001,0.646071504157242,1.11181640625,2.0439453125,1.046875,42.45941176470589,416.7559791315384
0.1117158203125,-0.0771220703125,0.6008837890625001,0.6160272446860513,0.89697265625,2.748046875,1.2626953125,41.84764705882353,416.7559791315384
0.2044892578125,-0.0585673828125,0.5754931640625001,0.6135457413859872,0.74658203125,2.71240234375,1.275390625,42.64764705882353,416.7559791315384
0.2201142578125,-0.1108134765625,0.5193408203125001,0.5748432836200454,0.50390625,2.62744140625,1.44287109375,42.41235294117647,416.4726629555096
0.2059541015625,-0.1513408203125,0.4876025390625,0.5505246333666404,0.40869140625,1.6708984375,1.86181640625,43.07117647058824,416.4726629555096
0.3036103515625,-0.1718486328125,0.5378955078125001,0.6411261775191351,0.6298828125,0.49072265625,2.044921875,42.31823529411765,416.4726629555096
0.3333955078125,-0.2284892578125,0.6091845703125001,0.7310716423662508,0.78271484375,0.162109375,2.11181640625,43.07117647058824,416.4726629555096
0.3241181640625,-0.2890361328125,0.6834033203125001,0.8097126456716608,0.87451171875,0.64111328125,2.39453125,41.98882352941177,416.4726629555096
0.2479462890625,-0.3271220703125,0.7761767578125001,0.8780299371398025,1.06005859375,0.685546875,3.06298828125,42.41235294117647,416.8169549473788
0.2733369140625,-0.3222392578125,0.9070361328125,1.0006326769060745,1.5693359375,0.26318359375,3.48388671875,41.89470588235295,416.8169549473788
0.3460908203125,-0.3188212890625,0.9885791015625,1.09485821470644,1.92822265625,0.423828125,3.19970703125,42.27117647058824,416.8169549473788
0.3407197265625,-0.3158916015625,1.1057666015625005,1.1994153630571969,1.755859375,0.08251953125,2.8974609375,42.27117647058824,416.8169549473788
0.3207001953125,-0.2875712890625,1.2625048828125005,1.3339656819768448,1.71533203125,-1.45654296875,2.64306640625,42.60058823529412,416.39397871540393
0.3480439453125,-0.2768291015625,1.4211962890625005,1.4891500365596522,2.01025390625,-3.11474609375,1.75634765625,42.31823529411765,416.39397871540393
0.2767548828125,-0.2138408203125,1.5164111328125005,1.556221027139196,1.53125,-2.984375,1.23193359375,43.02411764705882,416.39397871540393
0.1571259765625,-0.1069072265625,1.6126025390625005,1.6237625062159884,0.5615234375,-0.7939453125,1.60888671875,41.84764705882353,416.39397871540393
0.0838837890625,0.0122333984375,1.6819384765625005,1.6840733906353953,-0.244140625,1.921875,2.4541015625,42.45941176470589,416.39397871540393
0.0980439453125,0.1509052734375,1.6394580078125005,1.6493051798088243,-0.56787109375,4.1025390625,2.796875,41.89470588235295,416.9070985357482
0.1546845703125,0.2427021484375,1.5037158203125005,1.5310104236768072,-0.7744140625,5.37060546875,2.15673828125,43.25941176470588,416.9070985357482
0.1605439453125,0.2676044921875,1.3513720703125005,1.3869365504723443,-0.82666015625,5.32275390625,1.2021484375,41.89470588235295,416.9070985357482
0.1664033203125,0.2304951171875,1.1794970703125005,1.213273012530187,-0.85595703125,4.01513671875,0.4873046875,42.45941176470589,416.9070985357482
0.1317353515625,0.1811787109375,1.0676806640625005,1.0909270958965185,-0.81201171875,2.384765625,0.2158203125,43.07117647058824,416.8116339645426
0.0721650390625,0.1186787109375,1.0100634765625005,1.019568857889551,-0.66357421875,0.69189453125,0.4765625,43.07117647058824,416.8116339645426
0.0326142578125,0.0488544921875,1.0027392578125005,1.0044582969829672,-0.49267578125,-0.775390625,1.0302734375,41.84764705882353,416.8116339645426
0.0067353515625,0.0044208984375,1.0125048828125005,1.0125369361276753,-0.2578125,-1.7294921875,1.5185546875,43.21235294117647,416.8116339645426
-0.0152373046875,-0.0478251953125,0.9988330078125,1.0000933967668142,-0.154296875,-2.263671875,1.89990234375,42.45941176470589,416.8116339645426
-0.0445341796875,-0.1225322265625,0.9983447265625,1.006821549611427,-0.02685546875,-2.369140625,2.2177734375,42.27117647058824,416.3594969977285
-0.0718779296875,-0.1069072265625,0.9983447265625,1.0066219672362609,0.2314453125,-1.84228515625,2.56201171875,42.506470588235295,416.3594969977285
-0.0435576171875,-0.1196025390625,0.9612353515625,0.9696264406763736,0.46826171875,-1.30810546875,2.7607421875,41.84764705882353,416.3594969977285
-0.0347685546875,-0.1015361328125,0.8752978515625001,0.8818530306187669,0.373046875,-1.0390625,2.77294921875,42.506470588235295,416.3594969977285
-0.0435576171875,-0.0663798828125,0.8157275390625001,0.8195821940734295,0.0322265625,-1.1728515625,2.72216796875,42.41235294117647,416.39264754841446
-0.0723662109375,-0.0307353515625,0.7844775390625001,0.7884075973851835,-0.29833984375,-1.56591796875,2.6083984375,43.21235294117647,416.39264754841446
-0.1275419921875,-0.0326884765625,0.7483447265625001,0.7598390132423027,-0.52587890625,-1.98095703125,2.49755859375,42.45941176470589,416.39264754841446
-0.1812529296875,-0.0263408203125,0.7654345703125001,0.7870429116411117,-0.8310546875,-1.96533203125,2.4873046875,42.45941176470589,416.39264754841446
-0.1709990234375,-0.0048564453124999,0.7766650390625001,0.7952816067152608,-1.0791015625,-1.74853515625,2.3046875,42.506470588235295,416.39264754841446
-0.1485380859375,0.0166279296875,0.7830126953125001,0.7971505077714087,-1.11962890625,-1.23388671875,1.93212890625,43.16529411764706,416.50754805871054
-0.1280302734375,0.0288349609375,0.7942431640625001,0.805012676638548,-1.00341796875,-0.65625,1.4228515625,43.07117647058824,416.50754805871054
-0.0826201171875,0.0200458984375,0.7854541015625001,0.7900418137475997,-0.70458984375,0.23095703125,0.94287109375,42.60058823529412,416.50754805871054
-0.0279326171875,-0.0180400390625,0.7654345703125001,0.7661564824119167,-0.34375,1.31103515625,0.52685546875,42.03588235294118,416.50754805871054
0.0252900390625,-0.0971416015625,0.6780322265625001,0.6854223348324825,-0.02783203125,2.31396484375,0.28564453125,41.89470588235295,416.551748374123
0.0760712890625,-0.1469462890625,0.5935595703125001,0.6161923534079516,0.03369140625,2.48828125,0.240234375,42.45941176470589,416.551748374123
0.1175751953125,-0.1420634765625,0.5862353515625001,0.6145549978215168,0.3505859375,1.6357421875,0.14990234375,43.21235294117647,416.551748374123
0.2079072265625,-0.0863994140625,0.5960009765625001,0.6371086545250408,0.8974609375,0.419921875,-0.37353515625,42.41235294117647,416.551748374123
0.2679658203125,-0.0292705078125,0.6126025390625001,0.6692864217576617,1.123046875,-0.01806640625,-1.1806640625,42.506470588235295,416.551748374123
0.3182587890625,0.0356708984375,0.6472705078125001,0.7221635411004346,1.13623046875,-0.19970703125,-2.07275390625,42.45941176470589,417.1188061791976
0.3626923828125,0.1230732421875,0.7473681640625001,0.8397928078680503,1.28076171875,-0.84228515625,-3.0302734375,42.41235294117647,417.1188061791976
0.3797822265625,0.2221943359375,0.9587939453125,1.0549363450480729,1.84765625,-1.89501953125,-4.06787109375,42.224117647058826,417.1188061791976
0.5155244140625,0.1494404296875,1.0872119140625005,1.212488189467887,1.94287109375,-2.23779296875,-5.4765625,42.31823529411765,417.1188061791976
0.6209931640625,-0.0712626953125,1.1282275390625005,1.289809389582268,0.876953125,-2.00341796875,-6.19775390625,41.84764705882353,417.1077561998932
0.5736298828125,-0.0815166015625,1.3567431640625005,1.475279028528538,-0.005859375,-1.95458984375,-4.26416015625,42.45941176470589,417.1077561998932
0.6957001953125,0.1191669921875,1.5125048828125005,1.6690927338876416,0.1357421875,-1.7431640625,-1.3076171875,43.21235294117647,417.1077561998932
0.7415986328125,0.3403583984375,1.5037158203125005,1.7108400392305545,0.1689453125,-0.86572265625,0.76904296875,42.224117647058826,417.1077561998932
0.5775361328125,0.3779560546875,1.4871142578125005,1.639483937026582,-0.748046875,0.36474609375,0.6494140625,41.84764705882353,417.1077561998932
0.3055634765625,0.2993427734375,1.5671923828125005,1.6245205751124665,-1.52197265625,0.96875,-0.96044921875,41.84764705882353,417.2142767839041
0.0819306640625,0.1772724609375,1.5862353515625005,1.5982117349297522,-1.30615234375,0.46435546875,-2.162109375,42.506470588235295,417.2142767839041
-0.0381865234375,0.0493427734375,1.5960009765625005,1.5972200966213774,-0.70947265625,0.30322265625,-2.23046875,42.31823529411765,417.2142767839041
-0.1485380859375,-0.0942119140625,1.6160205078125005,1.6255650492662137,0.2236328125,1.01806640625,-1.33935546875,42.31823529411765,417.2142767839041
-0.1895537109375,-0.2538798828125,1.5623095703125005,1.5941131696705524,1.322265625,2.166015625,-0.14990234375,42.41235294117647,416.8933922346757
-0.0523466796875,-0.3886455078125,1.4041064453125005,1.4578410116968334,1.80517578125,2.6611328125,0.54248046875,43.07117647058824,416.8933922346757
0.1292939453125,-0.4057353515625,1.1799853515625005,1.2544734073323731,1.18212890625,1.82470703125,0.3994140625,43.07117647058824,416.8933922346757
0.1727509765625,-0.3066142578125,1.0452197265625005,1.102877817254747,0.4873046875,0.51708984375,0.1826171875,41.89470588235295,416.8933922346757
0.1107392578125,-0.2216533203125,0.9846728515625,1.0153688995781998,-0.1494140625,-0.859375,0.30029296875,42.41235294117647,416.8933922346757
0.0252900390625,-0.1381572265625,0.9758837890625,0.9859392349846956,-0.66796875,-1.5234375,0.3115234375,43.21235294117647,416.8589150573396
-0.0337919921875,-0.0668681640625,0.9695361328125,0.9724266362713988,-1.119140625,-1.1279296875,0.123046875,41.89470588235295,416.8589150573396
-0.0313505859375,-0.0136455078124999,0.9553759765625,0.9559876127413138,-1.4208984375,-0.05859375,-0.53955078125,43.21235294117647,416.8589150573396
0.0125947265625,0.0034443359375,0.8875048828125001,0.8876009281221285,-1.603515625,0.9482421875,-1.2353515625,42.31823529411765,416.8589150573396
0.0628876953125,0.0176044921875,0.8088916015625001,0.8115235076356346,-1.80615234375,1.3388671875,-1.9052734375,42.45941176470589,417.2129510556026
0.1014619140625,0.0376240234375,0.7439501953125001,0.7517792097752894,-1.8134765625,1.2763671875,-2.2783203125,42.45941176470589,417.2129510556026
0.1219697265625,0.0488544921875,0.6877978515625001,0.7002351463748592,-1.65234375,0.70458984375,-2.388671875,41.84764705882353,417.2129510556026
0.1175751953125,0.0249287109375,0.6663134765625001,0.6770664784425406,-1.607421875,-0.0732421875,-2.29541015625,43.16529411764706,417.2129510556026
0.0926728515625,0.0576435546875,0.6804736328125001,0.6891700818860154,-1.3740234375,-0.55712890625,-2.00634765625,43.21235294117647,417.2129510556026
0.0648408203125,0.0635029296875,0.6672900390625001,0.6734337014804994,-0.86962890625,-0.7880859375,-1.61328125,42.41235294117647,416.75239798235503
0.0472626953125,0.0356708984375,0.6140673828125001,0.6169156554973574,-0.3154296875,-0.8388671875,-1.1962890625,42.45941176470589,416.75239798235503
0.0150361328125,0.0014912109375,0.7083056640625001,0.7084668113207805,-0.0322265625,-0.9287109375,-0.693359375,42.45941176470589,416.75239798235503
-0.0103544921875,-0.0058330078124999,0.5667041015625001,0.5668287027104062,0.2939453125,-1.2275390625,-0.091796875,41.84764705882353,416.75239798235503
0.0072236328125,-0.0077861328124999,0.5603564453125001,0.5604570907201055,0.54296875,-1.50537109375,0.32666015625,41.84764705882353,416.6653263521143
0.0477509765625,0.0136982421875,0.5999072265625001,0.6019605286757684,0.7314453125,-1.29931640625,0.47802734375,42.64764705882353,416.6653263521143
0.1214814453125,-0.0063212890624999,0.6086962890625001,0.6207325290083356,0.70068359375,-0.63232421875,0.25439453125,42.45941176470589,416.6653263521143
0.1639619140625,-0.0112041015624999,0.6443408203125001,0.6649692728809707,0.53662109375,0.181640625,-0.0498046875,42.45941176470589,416.6653263521143
0.2098603515625,-0.0370830078125,0.6624072265625001,0.695844702809888,0.29541015625,0.95654296875,-0.28564453125,43.21235294117647,416.6653263521143
0.2147431640625,-0.0702861328125,0.6829150390625001,0.7193244869702727,0.017578125,1.20361328125,-0.29150390625,41.84764705882353,416.8686381033542
0.2132783203125,-0.0287822265625,0.7620166015625001,0.79182407107771,0.09521484375,0.82958984375,-0.2646484375,42.27117647058824,416.8686381033542
0.1913056640625,0.0097919921875,0.8601611328125001,0.8812326109573326,0.3662109375,0.76904296875,-0.17138671875,41.84764705882353,416.8686381033542
0.1668916015625,0.0503193359375,0.9294970703125,0.9457006111665616,0.60107421875,1.02587890625,0.140625,43.16529411764706,416.8686381033542
0.2274384765625,0.0669208984375,0.9773486328125,1.0056923074823712,0.93408203125,1.22412109375,0.27392578125,42.64764705882353,417.0525065123117
0.3280244140625,-0.0322001953125,1.0183642578125005,1.070374995218598,1.38330078125,0.89111328125,0.27880859375,42.31823529411765,417.0525065123117
0.4134736328125,-0.2289775390625,1.0520556640625005,1.153348290288876,1.8154296875,-0.234375,0.76318359375,42.45941176470589,417.0525065123117
0.4178681640625,-0.4623759765625,1.0535205078125005,1.2240550668252628,2.00634765625,-1.6708984375,2.0234375,42.60058823529412,417.0525065123117
0.3026337890625,-0.5922587890625,1.0715869140625005,1.2612121938413443,1.72119140625,-2.99853515625,3.47705078125,42.31823529411765,417.0525065123117
0.2342744140625,-0.5409892578125,1.1853564453125005,1.323866979948036,1.6630859375,-3.83203125,4.04736328125,42.60058823529412,417.0719542746064
0.2450166015625,-0.4941142578125,1.2551806640625005,1.3710071240701902,1.720703125,-3.3525390625,3.0546875,43.16529411764706,417.0719542746064
0.2289033203125,-0.4096416015625,1.2351611328125005,1.3212970883913413,0.96533203125,-1.076171875,2.005859375,42.27117647058824,417.0719542746064
0.2132783203125,-0.2675517578125,1.2146533203125005,1.2619248288111544,-0.08984375,1.712890625,2.1826171875,42.506470588235295,417.0719542746064
0.2069306640625,-0.1630595703125,1.1526416015625005,1.1823668571354704,-0.70849609375,3.61376953125,2.8056640625,42.45941176470589,416.9115109525714
0.1161103515625,-0.0654033203125,1.0579150390625005,1.0662754981347355,-1.02490234375,3.890625,3.4150390625,42.64764705882353,416.9115109525714
0.1620087890625,0.0464130859375,1.0564501953125005,1.0698074768179362,-0.87646484375,2.4130859375,2.962890625,41.89470588235295,416.9115109525714
0.2245087890625,0.1152607421875,1.1077197265625005,1.1361039686893202,-0.611328125,0.7841796875,1.2099609375,42.224117647058826,416.9115109525714
0.1703095703125,0.0981708984375,1.1550830078125005,1.1716909276670306,-0.8125,0.14892578125,0.025390625,42.64764705882353,416.9115109525714
0.1400361328125,0.0815693359375,1.2888720703125005,1.299020742209298,-0.6474609375,-0.1669921875,-0.01953125,41.84764705882353,416.8368152906019
0.1341767578125,0.0503193359375,1.3528369140625005,1.3604055108519717,-0.3603515625,-0.189453125,0.4873046875,42.41235294117647,416.8368152906019
0.1458955078125,-0.0053447265624999,1.3591845703125005,1.3670028388695727,-0.4453125,-0.1201171875,1.0,41.84764705882353,416.8368152906019
0.1307587890625,-0.0268291015625,1.3850634765625005,1.3914806846360257,-0.64404296875,-0.14599609375,1.54931640625,41.84764705882353,416.8368152906019
0.0921845703125,-0.0229228515625,1.3704150390625005,1.373703327293099,-0.68408203125,0.0810546875,1.77734375,42.31823529411765,416.72764379541775
0.0287080078125,-0.0287822265625,1.3293994140625005,1.3300208150206434,-0.7861328125,0.5537109375,1.87060546875,42.45941176470589,416.72764379541775
-0.0503935546875,-0.0326884765625,1.2869189453125005,1.2883199985478209,-0.697265625,1.15771484375,2.17626953125,42.60058823529412,416.72764379541775
-0.0855498046875,-0.0331767578125,1.2478564453125005,1.2512254690698106,-0.56640625,1.21044921875,2.671875,42.41235294117647,416.72764379541775
-0.1197294921875,0.0371357421875,1.2004931640625005,1.2070203194677736,0.28369140625,1.20947265625,2.95751953125,43.16529411764706,416.72764379541775
-0.1080107421875,-0.0155986328124999,1.0696337890625005,1.0751865328759076,0.64404296875,0.875,2.85888671875,42.41235294117647,416.53538342567896
-0.1143583984375,-0.0361064453125,0.9832080078125,0.9904945761148416,0.5751953125,0.38037109375,2.67724609375,42.506470588235295,416.53538342567896
-0.1231474609375,-0.0326884765625,0.9197314453125,0.928514816861826,0.56103515625,-0.15966796875,2.6884765625,43.21235294117647,416.53538342567896
-0.1304716796875,-0.0278056640625,0.8621142578125001,0.872374350653452,0.49365234375,-0.5927734375,2.6015625,43.25941176470588,416.53538342567896
-0.1456083984375,-0.0136455078124999,0.8303759765625001,0.8431561350254888,0.498046875,-0.810546875,2.42919921875,41.84764705882353,416.450969093725
-0.1617216796875,-0.0053447265624999,0.7986376953125001,0.8148647962435461,0.19775390625,-0.6142578125,2.19287109375,42.31823529411765,416.450969093725
-0.1504912109375,0.0146748046875,0.8025439453125001,0.816663785544458,0.158203125,-0.080078125,1.88427734375,42.31823529411765,416.450969093725
-0.1480498046875,0.0190693359375,0.7732470703125001,0.78752359709914,0.2109375,0.5966796875,1.537109375,43.21235294117647,416.450969093725
-0.1187529296875,0.0073505859375,0.7473681640625001,0.7567796654754545,0.24462890625,1.44189453125,1.2744140625,42.45941176470589,416.450969093725
-0.0596708984375,-0.0463603515625,0.6877978515625001,0.691936256407574,0.369140625,2.240234375,0.9091796875,42.27117647058824,416.6737216499732
0.0306611328125,-0.0527080078125,0.6243212890625001,0.627292046123311,0.49462890625,2.84814453125,0.6650390625,43.25941176470588,416.6737216499732
0.0902314453125,-0.0658916015625,0.5857470703125001,0.5963078460487761,0.76708984375,2.7578125,0.43212890625,42.506470588235295,416.6737216499732
0.1507783203125,-0.0458720703125,0.5618212890625001,0.5835079344403665,1.2099609375,2.119140625,-0.11376953125,42.41235294117647,416.6737216499732
0.1937470703125,-0.0160869140625,0.5364306640625001,0.5705738982859853,1.5107421875,1.71875,-0.974609375,43.07117647058824,416.6971484464258
0.2157197265625,0.0390888671875,0.5779345703125001,0.6181191693585435,1.82275390625,1.89697265625,-1.8154296875,42.45941176470589,416.6971484464258
0.3099580078125,0.1006123046875,0.6355517578125001,0.7142288424028974,1.986328125,2.54052734375,-2.70849609375,42.224117647058826,416.6971484464258
0.4037080078125,0.1982685546875,0.7590869140625001,0.8823284640374792,2.32861328125,3.09130859375,-4.2978515625,42.224117647058826,416.6971484464258
0.5257783203125,0.2470966796875,0.7219775390625001,0.926688285311714,2.66796875,3.3837890625,-6.32666015625,43.25941176470588,416.6971484464258
0.5692353515625,0.2094990234375,0.9900439453125,1.1610795579716706,2.64013671875,3.1376953125,-7.88525390625,42.31823529411765,416.8907378309896
0.5360322265625,0.1455341796875,1.1492236328125005,1.2764112595811845,2.52392578125,1.7734375,-7.7119140625,42.31823529411765,416.8907378309896
0.4852509765625,0.1059833984375,1.2507861328125005,1.3457960250481018,2.18505859375,-0.10205078125,-5.59765625,43.25941176470588,416.8907378309896
0.5282197265625,0.1772724609375,1.3674853515625005,1.476637325708183,1.712890625,-2.19775390625,-1.9111328125,43.25941176470588,416.8907378309896
0.6498017578125,0.2324482421875,1.4382861328125005,1.5952872812108203,1.06884765625,-3.22607421875,0.43505859375,42.224117647058826,416.43991918069617
0.7318330078125,0.2334248046875,1.4124072265625005,1.607781348446754,-0.0888671875,-2.6162109375,0.369140625,42.506470588235295,416.43991918069617
0.3685517578125,0.1572529296875,1.4592822265625005,1.5132955755050612,-0.9140625,-1.37353515625,-0.8330078125,42.31823529411765,416.43991918069617
0.1268525390625,0.0454365234375,1.4885791015625005,1.494665108289248,-0.75,-0.52978515625,-1.05810546875,41.84764705882353,416.43991918069617
-0.0289091796875,-0.0224345703125,1.4836962890625005,1.4841474754191868,0.28564453125,0.24609375,-0.19580078125,43.07117647058824,416.43991918069617
-0.1099638671875,-0.0981181640625,1.4710009765625005,1.4783650088031897,1.181640625,1.134765625,0.640625,41.89470588235295,416.9088589544987
-0.1324248046875,-0.1508525390625,1.5813525390625005,1.5940416149641583,2.09326171875,2.3642578125,0.7001953125,42.45941176470589,416.9088589544987
-0.0928740234375,-0.1821025390625,1.4109423828125005,1.4256736395750238,2.802734375,3.1904296875,-0.04541015625,42.45941176470589,416.9088589544987
-0.0064482421875,-0.2406962890625,1.3333056640625005,1.354872790049646,2.73681640625,3.548828125,-0.646484375,43.21235294117647,416.9088589544987
-0.0235380859375,-0.2768291015625,1.2341845703125005,1.265069146947689,1.828125,4.04052734375,-0.32568359375,43.02411764705882,417.0914033692411
-0.0655302734375,-0.2421611328125,1.1121142578125005,1.1400589254120488,0.6943359375,4.17138671875,0.73388671875,43.07117647058824,417.0914033692411
0.0663056640625,-0.1322978515625,1.0325244140625005,1.0430751786184598,0.0009765625,3.01220703125,0.8720703125,42.97705882352941,417.0914033692411
0.0731416015625,-0.0322001953125,0.9397509765625,0.943142854718978,-0.78564453125,1.73095703125,0.0068359375,42.60058823529412,417.0914033692411
-0.0054716796875,0.0405537109375,0.9514697265625,0.9523492969044096,-1.67919921875,1.2021484375,-0.60009765625,42.45941176470589,417.0914033692411
-0.1163115234375,0.0830341796875,0.9846728515625,0.9949892813919924,-1.97509765625,1.4892578125,-0.732421875,42.60058823529412,416.9199086830548
-0.1329130859375,0.0854755859375,0.9451220703125,0.9582419798759468,-2.04052734375,2.21875,-0.64697265625,42.60058823529412,416.9199086830548
-0.0635771484375,0.0962177734375,0.8679736328125001,0.8756015880447241,-2.142578125,2.6083984375,-0.72705078125,42.41235294117647,416.9199086830548
-0.0176787109375,0.0981708984375,0.7893603515625001,0.7956379998085256,-2.2138671875,2.3857421875,-0.9970703125,42.45941176470589,416.9199086830548
-0.0167021484375,0.1011005859375,0.7434619140625001,0.7504904449097339,-2.10205078125,1.66259765625,-1.1357421875,42.41235294117647,416.6529490684347
-0.0440458984375,0.0986591796875,0.6990283203125001,0.7073289669628214,-1.693359375,0.849609375,-0.9697265625,42.506470588235295,416.6529490684347
-0.0699248046875,0.0752216796875,0.6624072265625001,0.6703216490669365,-1.25537109375,0.1611328125,-0.666015625,43.25941176470588,416.6529490684347
-0.1016630859375,0.0439716796875,0.6531298828125001,0.6624556856722914,-0.81396484375,-0.375,-0.166015625,42.60058823529412,416.6529490684347
-0.1202177734375,0.0229755859375,0.6760791015625001,0.6870685134460746,-0.4130859375,-0.56201171875,0.4052734375,42.506470588235295,416.6529490684347
-0.1177763671875,0.0268818359375,0.7019580078125001,0.7122772988824995,-0.146484375,-0.1669921875,0.791015625,43.07117647058824,416.5977001593862
-0.0958037109375,0.0459248046875,0.7195361328125001,0.7273373942935623,0.04345703125,0.767578125,0.93505859375,42.27117647058824,416.5977001593862
-0.0767607421875,0.0625263671875,0.7102587890625001,0.7171257250826879,0.03515625,1.81787109375,0.9287109375,42.27117647058824,416.5977001593862
-0.0328154296875,0.0771748046875,0.6931689453125001,0.6982234525205901,0.0087890625,2.6103515625,0.92236328125,42.506470588235295,416.5977001593862
0.0394501953125,0.0796162109375,0.6834033203125001,0.6891553940646394,0.0712890625,2.82080078125,0.81103515625,43.07117647058824,416.7802397500285
0.0794892578125,0.0698505859375,0.6599658203125001,0.6683954895450337,0.09326171875,2.7939453125,0.748046875,43.07117647058824,416.7802397500285
0.0809541015625,0.0737568359375,0.6331103515625001,0.6425125326893595,-0.01123046875,2.60986328125,0.51171875,43.16529411764706,416.7802397500285
0.0975556640625,0.0923115234375,0.6252978515625001,0.6395591670195228,-0.11767578125,2.203125,0.59130859375,42.08294117647059,416.7802397500285
0.1615205078125,0.0825458984375,0.6663134765625001,0.690562342472906,-0.04443359375,1.52587890625,0.5712890625,41.84764705882353,416.7802397500285
0.2186494140625,-0.0121806640624999,0.6580126953125001,0.6934959567577155,0.04443359375,1.1064453125,0.60693359375,42.224117647058826,416.5009065225015
0.2845673828125,-0.2236064453125,0.6580126953125001,0.7509721332635912,-0.04296875,0.4580078125,0.974609375,42.60058823529412,416.5009065225015
0.2376923828125,-0.3246806640625,0.7595751953125001,0.8595752903598222,0.26904296875,-0.8564453125,2.408203125,41.89470588235295,416.5009065225015
0.1341767578125,-0.2861064453125,0.8879931640625001,0.9425455743931744,0.92333984375,-1.86328125,4.1748046875,42.27117647058824,416.5009065225015
0.0179658203125,-0.4613994140625,1.0002978515625005,1.1017295411475874,1.5517578125,-2.39111328125,5.65673828125,42.45941176470589,416.7691900185505
0.1200166015625,-0.4770244140625,1.1082080078125005,1.2124690778910752,2.2197265625,-3.046875,5.96337890625,42.60058823529412,416.7691900185505
0.3441376953125,-0.4399150390625,1.2097705078125005,1.3324791467416195,2.658203125,-3.4541015625,4.85498046875,41.84764705882353,416.7691900185505
0.4867158203125,-0.3803447265625,1.3025439453125005,1.441587711600174,2.63623046875,-3.26318359375,2.9765625,41.89470588235295,416.7691900185505
0.4813447265625,-0.2924541015625,1.3557666015625005,1.4681025935616994,1.82861328125,-2.22314453125,1.8720703125,43.07117647058824,416.7691900185505
0.3050751953125,-0.2328837890625,1.3460009765625005,1.3996515148101227,0.36962890625,-0.41748046875,1.89013671875,42.41235294117647,416.7691900185505
0.1248994140625,-0.1279033203125,1.4055712890625005,1.416894410891982,-0.8388671875,0.82568359375,2.4619140625,42.45941176470589,416.7691900185505
0.0331025390625,0.0190693359375,1.3982470703125005,1.3987688469875827,-1.22802734375,1.04052734375,2.349609375,41.84764705882353,416.7691900185505
0.0008759765625,0.1650654296875,1.3928759765625005,1.4026228464907435,-1.62255859375,0.9423828125,1.37646484375,42.41235294117647,416.7691900185505
-0.0376982421875,0.2573505859375,1.4363330078125005,1.4596927727703888,-2.00537109375,1.1953125,0.32177734375,42.45941176470589,417.02643002721095
-0.0762724609375,0.2944599609375,1.5134814453125005,1.5437455237823337,-2.0830078125,1.45068359375,0.08935546875,42.41235294117647,417.02643002721095
-0.0767607421875,0.2871357421875,1.5335009765625005,1.5620385370088936,-1.74365234375,1.54248046875,0.5556640625,42.41235294117647,417.02643002721095
-0.0430693359375,0.2334248046875,1.4465869140625005,1.4659317197872357,-1.33544921875,1.69091796875,0.87890625,42.41235294117647,417.02643002721095
-0.0254912109375,0.1543232421875,1.3225634765625005,1.3317806179890923,-1.0556640625,1.30517578125,1.2705078125,41.84764705882353,417.02643002721095
-0.0499052734375,0.0810810546875,1.2253955078125005,1.2290886153215983,-0.8193359375,0.51123046875,1.2685546875,43.21235294117647,416.5216789344624
-0.0430693359375,0.0190693359375,1.1443408203125005,1.1453097922853366,-0.53857421875,-0.41015625,1.119140625,42.31823529411765,416.5216789344624
-0.0601591796875,0.0381123046875,1.1301806640625005,1.1324221863289416,-0.39013671875,-1.1826171875,1.4267578125,42.31823529411765,416.5216789344624
-0.1011748046875,0.0439716796875,1.1565478515625005,1.1617972209778815,0.283203125,-1.2587890625,2.03662109375,42.506470588235295,416.5216789344624
-0.1587919921875,-0.0375712890625,0.9968798828125,1.0101465236790932,0.587890625,-0.8388671875,2.5244140625,41.84764705882353,416.5977001593862
-0.1163115234375,-0.0658916015625,0.8992236328125001,0.9091057229218906,0.29052734375,-1.28125,2.6826171875,42.45941176470589,416.5977001593862
-0.0787138671875,-0.0502666015625,0.8411181640625001,0.8462874039214605,0.39892578125,-2.30908203125,2.46044921875,42.31823529411765,416.5977001593862
-0.0684599609375,-0.0478251953125,0.7825244140625001,0.7869678990671105,0.1064453125,-2.9990234375,2.02587890625,42.31823529411765,416.5977001593862
-0.0806669921875,-0.0429423828125,0.7659228515625001,0.7713553178761555,-0.42626953125,-3.4013671875,1.537109375,41.89470588235295,416.5977001593862
-0.1060576171875,-0.0434306640625,0.7410205078125001,0.74983053668352,-1.046875,-3.50830078125,1.02587890625,42.13,416.6944944836966
-0.1744169921875,-0.0458720703125,0.7366259765625001,0.7583820695039845,-1.6552734375,-3.517578125,0.564453125,42.45941176470589,416.6944944836966
-0.2046904296875,-0.0058330078124999,0.7566455078125001,0.7838651800396738,-1.80224609375,-3.50341796875,-0.01806640625,42.27117647058824,416.6944944836966
-0.2242216796875,0.0361591796875,0.7927783203125001,0.8246698206403976,-1.49609375,-3.31396484375,-0.60498046875,42.224117647058826,416.6944944836966
-0.2320341796875,0.0459248046875,0.8108447265625001,0.8446408223754353,-1.24560546875,-2.72412109375,-1.05224609375,42.41235294117647,416.5879774500672
-0.1739287109375,0.0195576171875,0.7947314453125001,0.8137762389299213,-0.7490234375,-1.85302734375,-1.162109375,42.31823529411765,416.5879774500672
-0.0591826171875,0.0024677734375,0.7170947265625001,0.7195370170787933,0.05810546875,-0.71630859375,-1.134765625,41.84764705882353,416.5879774500672
0.0848603515625,-0.0238994140625,0.7195361328125001,0.7249170350340856,0.5986328125,0.30322265625,-1.33935546875,42.31823529411765,416.5879774500672
0.2079072265625,-0.0488017578125,0.6917041015625001,0.7239209836307317,1.07275390625,1.53564453125,-1.58984375,41.84764705882353,416.5879774500672
0.2943330078125,-0.1059306640625,0.6126025390625001,0.6878481634361593,0.990234375,2.8447265625,-1.9658203125,43.21235294117647,416.71659401091136
0.3485322265625,-0.0951884765625,0.5422900390625001,0.6516241596881681,0.8232421875,3.62158203125,-2.07568359375,42.31823529411765,416.71659401091136
0.4247041015625,0.0063740234375,0.5608447265625001,0.7035346539949241,0.93408203125,3.31884765625,-2.4208984375,43.21235294117647,416.71659401091136
0.5545869140625,0.1601826171875,0.6423876953125001,0.8636475364333007,1.0478515625,1.99462890625,-3.78955078125,42.506470588235295,416.71659401091136
0.5531220703125,0.2920185546875,0.7532275390625001,0.9790661808839648,1.10693359375,-0.14208984375,-5.83935546875,42.45941176470589,416.8854343255681
0.4022431640625,0.3838154296875,0.8782275390625001,1.0394216937648486,0.4111328125,-2.97509765625,-6.3759765625,42.224117647058826,416.8854343255681
0.2655244140625,0.5117451171875,1.1008837890625005,1.2427113085705344,0.05126953125,-5.96142578125,-5.11865234375,42.506470588235295,416.8854343255681
0.3153291015625,0.6538349609375,1.3318408203125005,1.5168165904574715,0.52490234375,-8.09619140625,-3.2958984375,42.506470588235295,416.8854343255681
0.4305634765625,0.6616474609375,1.4070361328125005,1.613354563930255,1.01318359375,-7.41162109375,-3.07568359375,43.21235294117647,416.8854343255681
0.4579072265625,0.5019794921875,1.4036181640625005,1.5594250187813343,0.62353515625,-4.0166015625,-4.21923828125,42.31823529411765,417.0251053416792
0.2918916015625,0.2793232421875,1.4153369140625005,1.4718698179515806,-0.31591796875,0.02392578125,-5.45166015625,43.16529411764706,417.0251053416792
0.1878876953125,0.1211201171875,1.5046923828125005,1.521207098238539,-0.3193359375,1.9267578125,-5.8271484375,41.84764705882353,417.0251053416792
0.1585908203125,0.0117451171875,1.5032275390625005,1.5116157019100591,0.51708984375,1.45654296875,-5.6240234375,42.27117647058824,417.0251053416792
0.1825166015625,-0.1337626953125,1.4221728515625005,1.4400626334380746,1.24072265625,0.998046875,-5.15966796875,42.45941176470589,417.0998041849567
0.1610322265625,-0.2319072265625,1.4197314453125005,1.447532285143481,1.330078125,0.4814453125,-4.82763671875,42.31823529411765,417.0998041849567
0.1024384765625,-0.2680400390625,1.4724658203125005,1.500164889607018,1.18798828125,0.25390625,-4.2109375,41.89470588235295,417.0998041849567
0.0267548828125,-0.2890361328125,1.4890673828125005,1.5170957057422532,1.1572265625,0.85791015625,-3.3515625,42.31823529411765,417.0998041849567
0.0248017578125,-0.2558330078125,1.4421923828125005,1.4649179240214716,0.84228515625,1.69970703125,-2.31787109375,42.41235294117647,417.0998041849567
0.0672822265625,-0.2050517578125,1.3425830078125005,1.359816992929587,0.25048828125,2.46533203125,-1.68115234375,43.02411764705882,416.8743847001419
0.0858369140625,-0.1420634765625,1.2312548828125005,1.2423922865336945,-0.4345703125,2.796875,-1.3955078125,42.60058823529412,416.8743847001419
0.1097626953125,-0.1244853515625,1.1233447265625005,1.1355385624150691,-1.03564453125,2.64599609375,-1.48583984375,42.45941176470589,416.8743847001419
0.1229462890625,-0.0800517578125,1.0125048828125005,1.023078790534857,-1.8154296875,2.08056640625,-1.92236328125,42.74176470588235,416.8743847001419
0.1156220703125,-0.0336650390625,0.9260791015625,0.9338759555472212,-2.24560546875,1.52294921875,-2.380859375,43.02411764705882,416.71129089661576
0.1034150390625,-0.0160869140625,0.8406298828125001,0.8471198610502001,-2.6162109375,0.6650390625,-2.609375,43.16529411764706,416.71129089661576
0.0848603515625,-0.0053447265624999,0.8040087890625001,0.8084924107615895,-2.59765625,-0.01318359375,-2.41796875,42.60058823529412,416.71129089661576
0.0824189453125,0.0019794921875,0.7693408203125001,0.7737454999771279,-2.2236328125,-0.92138671875,-1.8671875,42.31823529411765,416.71129089661576
0.1058564453125,-0.0165751953125,0.7283251953125001,0.7361643255692557,-1.70654296875,-1.86962890625,-1.63330078125,41.84764705882353,416.71129089661576
0.0604462890625,-0.0414775390625,0.7459033203125001,0.749497100302143,-1.3359375,-2.79248046875,-1.52001953125,42.60058823529412,416.765213750953
-0.0264677734375,-0.0566142578125,0.7644580078125001,0.7670083199855497,-0.916015625,-3.2734375,-0.92822265625,43.07117647058824,416.765213750953
-0.0494169921875,-0.0414775390625,0.7732470703125001,0.775933925737498,-0.427734375,-3.10888671875,-0.216796875,43.25941176470588,416.765213750953
-0.0572294921875,-0.0019267578124999,0.7356494140625001,0.7378746421867381,-0.13525390625,-1.9462890625,0.189453125,41.89470588235295,416.765213750953
-0.0914091796875,0.0161396484375,0.6799853515625001,0.6862916324146787,0.01123046875,-0.884765625,0.3955078125,42.13,416.2299734799624
-0.0225615234375,0.0835224609375,0.6516650390625001,0.6573829530473138,0.27587890625,-0.39501953125,0.21630859375,42.506470588235295,416.2299734799624
0.0682587890625,0.1006123046875,0.5574267578125001,0.5705319346576183,0.12841796875,0.7890625,-0.087890625,42.224117647058826,416.2299734799624
0.0858369140625,0.1172138671875,0.4617236328125,0.4840410928572018,-0.490234375,2.3955078125,0.02099609375,42.27117647058824,416.2299734799624
0.1053681640625,0.1260029296875,0.3718798828125,0.4065388487320415,-0.9140625,3.3984375,0.40869140625,42.27117647058824,416.2299734799624
0.1478486328125,0.0825458984375,0.2859423828125,0.332319258939156,-0.99755859375,3.59033203125,0.49072265625,42.45941176470589,416.5093026293036
0.2166962890625,0.0058857421875,0.2161181640625,0.3061028985362634,-0.97900390625,3.2607421875,0.49560546875,42.506470588235295,416.5093026293036
0.2748017578125,-0.0888408203125,0.1892626953125,0.3452956201395987,-0.85791015625,2.91845703125,0.7333984375,41.89470588235295,416.5093026293036
0.2982392578125,-0.2284892578125,0.1428759765625,0.4019546498237655,-0.69873046875,2.77685546875,1.2060546875,41.84764705882353,416.5093026293036
0.3705048828125,-0.3412822265625,0.2117236328125,0.5464195485583255,-0.47119140625,1.6142578125,1.6279296875,41.89470588235295,416.9256592406477
0.4178681640625,-0.4179423828125,0.3918994140625,0.7091366501813918,0.1318359375,-0.82470703125,2.2587890625,41.84764705882353,416.9256592406477
0.3690400390625,-0.4833720703125,0.6555712890625001,0.8942107267487412,1.595703125,-1.96044921875,2.232421875,42.31823529411765,416.9256592406477
0.1971650390625,-0.4833720703125,0.7136767578125001,0.8842268519042336,2.49169921875,-1.7890625,2.7470703125,42.60058823529412,416.9256592406477
0.2889619140625,-0.2489970703125,0.9695361328125,1.041872756929506,2.802734375,-2.4169921875,3.43505859375,42.45941176470589,416.9256592406477
0.5975556640625,-0.0693095703125,1.4075244140625005,1.5306866316696124,4.06689453125,-4.36328125,1.58642578125,42.31823529411765,417.0335068098847
0.8465791015625,-0.0976298828125,1.7766650390625005,1.9704736563190357,4.23095703125,-8.0263671875,-1.40576171875,42.41235294117647,417.0335068098847
0.6478486328125,-0.0326884765625,2.0335009765625003,2.134456045276558,2.66064453125,-10.96923828125,-3.07958984375,42.64764705882353,417.0335068098847
0.3412080078125,0.0122333984375,2.2459033203125003,2.271707350171544,0.94921875,-7.79150390625,-3.21435546875,42.45941176470589,417.0335068098847
0.3495087890625,-0.0737041015625,2.1741259765625003,2.203273122012547,-0.76611328125,0.5908203125,-2.16259765625,43.16529411764706,416.9256592406477
0.3319306640625,-0.1054423828125,2.1668017578125003,2.1946129315889604,-3.0244140625,8.248046875,1.32275390625,41.84764705882353,416.9256592406477
0.3011689453125,0.0371357421875,2.0784228515625003,2.100457889810137,-2.5947265625,13.2412109375,3.28271484375,41.84764705882353,416.9256592406477
0.0907197265625,0.0678974609375,1.6296923828125005,1.6336270677808993,-2.34326171875,15.6455078125,3.3056640625,42.506470588235295,416.9256592406477
0.0257783203125,0.0620380859375,1.3709033203125005,1.3725484179251235,-2.91064453125,13.56396484375,2.37060546875,42.506470588235295,416.9256592406477
0.1053681640625,0.1255146484375,1.2170947265625005,1.2280781532119764,-2.44873046875,8.888671875,0.60302734375,41.89470588235295,416.5826719782036
0.0169892578125,0.1997333984375,1.1902392578125005,1.2070010588936797,-1.19921875,5.63818359375,0.14013671875,42.31823529411765,416.5826719782036
-0.0855498046875,0.1240498046875,1.1638720703125005,1.17358651968169,-0.05029296875,4.31689453125,1.169921875,41.89470588235295,416.5826719782036
-0.1319365234375,0.0742451171875,1.2068408203125005,1.2162994488264427,0.57080078125,3.138671875,2.796875,42.64764705882353,416.5826719782036
-0.1788115234375,0.1406513671875,1.2761767578125005,1.2962960638629502,1.71630859375,3.0966796875,4.47607421875,41.84764705882353,415.992192623144
-0.0972685546875,0.0547138671875,1.1560595703125005,1.1614338160673336,1.9638671875,3.2333984375,4.966796875,42.45941176470589,415.992192623144
-0.0157255859375,-0.0448955078125,1.0769580078125005,1.078008094248967,1.3017578125,2.9375,4.5908203125,42.03588235294118,415.992192623144
0.0262666015625,-0.0439189453125,0.9890673828125,0.9903903754876529,0.96044921875,1.505859375,4.1904296875,42.31823529411765,415.992192623144
-0.0127958984375,-0.0751689453125,0.9319384765625,0.93505263459008,0.66748046875,0.0947265625,4.14794921875,42.31823529411765,415.992192623144
-0.0704130859375,-0.0405009765625,0.8894580078125001,0.8931594927198273,0.2138671875,-0.767578125,4.13232421875,41.84764705882353,416.4748278098997
-0.1338896484375,-0.0165751953125,0.8879931640625001,0.8981831853692737,-0.18505859375,-0.91015625,4.07470703125,41.89470588235295,416.4748278098997
-0.1739287109375,0.0010029296875,0.8547900390625001,0.8723062611473157,-0.47021484375,-0.85986328125,3.9677734375,41.84764705882353,416.4748278098997
-0.1636748046875,0.0107685546875,0.7908251953125001,0.8076570392193724,-1.13623046875,-0.90234375,3.42041015625,41.89470588235295,416.4748278098997
-0.1773466796875,0.0210224609375,0.7356494140625001,0.7570164126824128,-1.43505859375,-0.26708984375,2.9326171875,42.31823529411765,416.51770027195073
-0.1124052734375,0.0078388671875,0.6594775390625001,0.6690343921378584,-1.70068359375,0.091796875,2.53125,41.84764705882353,416.51770027195073
-0.0792021484375,0.0146748046875,0.6262744140625001,0.6314332679856676,-1.73095703125,0.705078125,2.099609375,42.41235294117647,416.51770027195073
-0.0406279296875,0.0127216796875,0.5969775390625001,0.5984936523889645,-1.23828125,1.849609375,1.890625,42.45941176470589,416.51770027195073
-0.0152373046875,-0.0097392578124999,0.5061572265625001,0.5064801739439758,-0.69140625,2.4169921875,1.8837890625,42.506470588235295,416.51770027195073
0.0028291015625,-0.0092509765624999,0.4446337890625,0.4447390142084306,-0.0078125,2.09130859375,1.796875,42.97705882352941,416.6891918601151
0.0370087890625,-0.0038798828124999,0.4343798828125,0.435970855162031,0.7080078125,1.6689453125,1.69970703125,41.84764705882353,416.6891918601151
0.0980439453125,-0.0214580078125,0.4758837890625,0.4863521789857673,1.11865234375,2.34033203125,1.3349609375,41.89470588235295,416.6891918601151
0.1078095703125,-0.0033916015624999,0.3933642578125,0.4078845985527078,1.26318359375,3.21337890625,0.53857421875,42.45941176470589,416.6891918601151
0.1219697265625,0.0268818359375,0.2815478515625,0.3080072077412495,1.0869140625,3.30712890625,-0.3369140625,41.89470588235295,417.0971570480056
0.2621064453125,0.1191669921875,0.2742236328125,0.3976168526285764,0.75830078125,3.056640625,-1.6591796875,42.41235294117647,417.0971570480056
0.3709931640625,0.1792255859375,0.2454150390625,0.4795688478558565,0.78125,2.99951171875,-3.41162109375,42.41235294117647,417.0971570480056
0.4637666015625,0.1972919921875,0.3040087890625,0.5885787413196223,0.62841796875,3.083984375,-4.7060546875,42.31823529411765,417.0971570480056
0.5716767578125,0.2099873046875,0.3914111328125,0.7239555638590655,0.60205078125,3.181640625,-5.59716796875,42.97705882352941,417.0971570480056
0.4979462890625,0.2568623046875,0.5676806640625001,0.7976152497983787,0.9912109375,2.470703125,-5.56201171875,42.45941176470589,417.3004837759548
0.3607392578125,0.2539326171875,0.6482470703125001,0.7841166050834188,1.4345703125,1.88232421875,-4.31103515625,41.84764705882353,417.3004837759548
0.2347626953125,0.1133076171875,0.7576220703125001,0.8012136672871335,1.0478515625,0.5888671875,-2.37841796875,41.84764705882353,417.3004837759548
0.1712861328125,0.0185810546875,1.0877001953125005,1.1012610543236387,0.74462890625,-2.630859375,-0.98583984375,43.21235294117647,417.3004837759548
0.3343720703125,-0.0131572265624999,1.5383837890625005,1.5743577981088606,0.3330078125,-7.5615234375,-0.90478515625,41.89470588235295,417.1718575323338
0.2835908203125,-0.0175517578125,2.0081103515625003,2.028112176784187,0.232421875,-11.48828125,-1.1259765625,43.07117647058824,417.1718575323338
0.0282197265625,-0.0092509765624999,2.2747119140625003,2.274905761897074,1.1005859375,-10.3095703125,-0.3583984375,42.88294117647059,417.1718575323338
0.0912080078125,-0.0282939453125,2.2825244140625003,2.2845212077855246,1.5595703125,-4.705078125,1.224609375,42.788823529411765,417.1718575323338
0.2977509765625,-0.0492900390625,2.3464892578125003,2.365818460707449,2.45361328125,1.3525390625,0.6328125,42.31823529411765,417.1718575323338
0.0575166015625,-0.1264384765625,2.0940478515625003,2.098649864185131,2.470703125,7.4736328125,-0.115234375,41.84764705882353,417.1068835695373
-0.2295927734375,-0.1357158203125,1.8416064453125005,1.8608186168765517,1.0771484375,13.009765625,1.044921875,42.31823529411765,417.1068835695373
-0.2686552734375,-0.0463603515625,1.4832080078125005,1.5080553479835883,-0.40673828125,13.189453125,2.7412109375,43.21235294117647,417.1068835695373
-0.0484404296875,0.1572529296875,1.1189501953125005,1.1309838631534466,-0.3427734375,6.91259765625,1.51318359375,42.45941176470589,417.1068835695373
-0.0640654296875,0.2358662109375,0.9377978515625,0.9691243775379392,0.53857421875,0.7744140625,-0.7333984375,42.45941176470589,416.9464344623788
-0.2740263671875,0.1318623046875,0.9382861328125,0.9863361416574544,0.55908203125,-1.48388671875,-1.2822265625,41.89470588235295,416.9464344623788
-0.3111357421875,0.0825458984375,0.9841845703125,1.0354895189506366,-0.16650390625,-1.44482421875,-1.0751953125,42.41235294117647,416.9464344623788
-0.2652373046875,0.0971943359375,0.9954150390625,1.0347215406707353,-0.62890625,-0.57275390625,-1.8125,43.07117647058824,416.9464344623788
-0.2105498046875,0.0840107421875,0.9802783203125,1.006148403731545,-1.23779296875,-0.22900390625,-3.060546875,42.45941176470589,416.9464344623788
-0.1861357421875,0.1172138671875,0.9251025390625,0.950894480455442,-1.89453125,0.62060546875,-4.46923828125,42.27117647058824,416.2065471321899
-0.1548857421875,0.1094013671875,0.8792041015625001,0.8994209828994373,-2.38623046875,1.208984375,-5.32958984375,42.64764705882353,416.2065471321899
-0.1797880859375,0.0498310546875,0.8494189453125001,0.8696662776675536,-2.57763671875,1.2470703125,-5.677734375,41.89470588235295,416.2065471321899
-0.1910185546875,0.0005146484375,0.7922900390625001,0.8149919380555697,-2.48291015625,0.89794921875,-5.69482421875,43.21235294117647,416.2065471321899
-0.1988310546875,0.0410419921875,0.7454150390625001,0.7725683231219171,-1.93359375,0.6826171875,-5.642578125,42.97705882352941,416.2480921013249
-0.2144560546875,-0.0922587890625,0.6668017578125001,0.7064896798773829,-1.375,0.26513671875,-4.9248046875,43.07117647058824,416.2480921013249
-0.1495146484375,-0.1371806640625,0.6262744140625001,0.658325760090964,-0.5205078125,-1.037109375,-3.8662109375,41.84764705882353,416.2480921013249
-0.0416044921875,-0.1640361328125,0.5701220703125001,0.5947082996694019,0.29150390625,-2.73583984375,-2.31298828125,42.64764705882353,416.2480921013249
-0.0035185546874999,-0.1410869140625,0.5984423828125001,0.6148586692021761,1.11962890625,-3.376953125,-0.8798828125,42.45941176470589,416.2480921013249
0.0033173828125,-0.0947001953125,0.6370166015625001,0.6440258400772342,1.80712890625,-3.03759765625,0.48193359375,42.224117647058826,416.2701910996335
-0.0171904296875,-0.0253642578125,0.6755908203125001,0.6762853043928551,1.94677734375,-1.70361328125,1.54052734375,42.224117647058826,416.2701910996335
0.0062470703125,0.0600849609375,0.6965869140625001,0.6992013710380345,1.81005859375,-0.1416015625,1.69140625,41.84764705882353,416.2701910996335
0.0326142578125,0.0849873046875,0.6462939453125001,0.652673268579542,1.55029296875,1.41650390625,0.939453125,41.89470588235295,416.2701910996335
0.0443330078125,0.0512958984375,0.5974658203125001,0.6013003336269672,1.486328125,2.12158203125,0.62353515625,42.45941176470589,415.9714214428921
0.0897431640625,0.0576435546875,0.5569384765625001,0.5670600334785709,1.37646484375,1.99560546875,0.65966796875,43.25941176470588,415.9714214428921
0.1039033203125,-0.0131572265624999,0.5022509765625001,0.5130546326082281,1.14794921875,1.60302734375,0.8427734375,41.84764705882353,415.9714214428921
0.1483369140625,-0.0849345703125,0.4670947265625,0.4973883843539686,1.10595703125,0.767578125,1.205078125,42.45941176470589,415.9714214428921
0.2147431640625,-0.1733134765625,0.4749072265625,0.5492622884479142,1.0498046875,-0.10205078125,1.5126953125,41.84764705882353,415.9714214428921
0.2118134765625,-0.1943095703125,0.6077197265625001,0.6722681191472053,1.2060546875,-0.90478515625,2.13818359375,42.31823529411765,416.54687367681976
0.1898408203125,-0.1957744140625,0.7507861328125001,0.7987784270259101,1.81396484375,-0.8427734375,2.6611328125,41.89470588235295,416.54687367681976
0.1009736328125,-0.2197001953125,0.8591845703125001,0.8925592284026755,2.22216796875,0.13037109375,3.2216796875,42.60058823529412,416.54687367681976
0.0140595703125,-0.2685283203125,0.9402392578125,0.9779340428981014,2.509765625,1.27294921875,3.2421875,43.02411764705882,416.54687367681976
0.0843720703125,-0.2211650390625,1.0603564453125005,1.086456815463963,2.76904296875,1.47900390625,2.91845703125,42.45941176470589,417.0640086658156
0.2000947265625,-0.1303447265625,1.2019580078125005,1.225451222972734,2.80126953125,0.6240234375,2.87158203125,42.506470588235295,417.0640086658156
0.3065400390625,-0.0780986328125,1.3953173828125005,1.430725966345179,2.59912109375,-1.40478515625,2.31005859375,42.45941176470589,417.0640086658156
0.2728486328125,-0.0707744140625,1.5593798828125005,1.5846517008585412,2.033203125,-3.0595703125,1.615234375,42.45941176470589,417.0640086658156
0.0638642578125,-0.0976298828125,1.6731494140625005,1.6772117335690244,0.98876953125,-2.455078125,1.4931640625,43.21235294117647,417.0640086658156
-0.0782255859375,-0.0863994140625,1.8342822265625005,1.8379813349783212,-0.47900390625,-0.99267578125,2.21435546875,42.506470588235295,417.37386464612194
-0.0616240234375,0.0522724609375,1.9158251953125005,1.9175286463130787,-1.06396484375,0.06005859375,2.72265625,42.45941176470589,417.37386464612194
-0.0640654296875,0.2046162109375,1.8396533203125005,1.8521059667298387,-0.95947265625,1.03466796875,2.228515625,41.89470588235295,417.37386464612194
-0.1460966796875,0.2622333984375,1.7107470703125005,1.7368840299958417,-1.1708984375,2.21484375,1.4150390625,41.84764705882353,417.37386464612194
-0.1959013671875,0.2612568359375,1.5842822265625005,1.6175854392865432,-1.0556640625,2.66650390625,1.037109375,41.84764705882353,416.7846639785057
-0.1944365234375,0.2217060546875,1.3904345703125005,1.4213611190164397,-0.8564453125,1.84619140625,1.46923828125,42.27117647058824,416.7846639785057
-0.2564482421875,0.1338154296875,1.1575244140625005,1.1931198763302218,-0.7822265625,0.16455078125,2.57666015625,41.89470588235295,416.7846639785057
-0.0894560546875,0.0708271484375,1.0564501953125005,1.062593942130229,-0.85888671875,-1.5380859375,3.41552734375,42.27117647058824,416.7846639785057
-0.0914091796875,0.0302998046875,1.0222705078125005,1.0267963320145186,-0.87060546875,-2.74609375,3.62841796875,42.31823529411765,416.7846639785057
-0.1153349609375,-0.0165751953125,1.0095751953125005,1.0162770120908842,-0.9375,-3.82763671875,3.748046875,41.89470588235295,416.5163749347506
-0.1836943359375,-0.0048564453124999,1.0447314453125005,1.0607690544795028,-0.560546875,-4.5390625,4.0087890625,42.224117647058826,416.5163749347506
-0.2042021484375,-0.0234111328125,1.1375048828125005,1.155925584537489,-0.60986328125,-4.4521484375,4.05419921875,42.41235294117647,416.5163749347506
-0.2164091796875,0.0356708984375,1.1780322265625005,1.1982759585621992,-1.04443359375,-3.478515625,3.9892578125,42.45941176470589,416.5163749347506
-0.2042021484375,0.0718037109375,1.1116259765625005,1.1325045704540972,-1.01318359375,-1.5029296875,3.72119140625,42.31823529411765,416.3227863966581
-0.1334013671875,0.0678974609375,1.0291064453125005,1.03993560654157,-1.30615234375,-0.423828125,3.39697265625,42.31823529411765,416.3227863966581
-0.1192412109375,0.0688740234375,0.9890673828125,0.9986072227026396,-1.5380859375,-0.04443359375,2.89599609375,43.21235294117647,416.3227863966581
-0.1075224609375,0.0581318359375,0.8821337890625001,0.8905618517325363,-1.8505859375,-0.28564453125,2.3388671875,42.45941176470589,416.3227863966581
-0.1539091796875,0.0600849609375,0.8323291015625001,0.8485693674831649,-2.01123046875,-0.9013671875,2.17138671875,43.16529411764706,416.3227863966581
-0.1246123046875,0.0801044921875,0.8010791015625001,0.8146610848127765,-2.01953125,-0.98876953125,1.6376953125,42.41235294117647,415.8622537827849
-0.0977568359375,0.0937763671875,0.7722705078125001,0.7840613134521898,-1.880859375,-0.49853515625,1.28271484375,43.21235294117647,415.8622537827849
0.0116181640625,0.0278583984375,0.6692431640625001,0.6699234917093683,-1.6064453125,0.17236328125,1.052734375,42.45941176470589,415.8622537827849
0.0829072265625,0.0434833984375,0.5584033203125001,0.5661966816327915,-1.22021484375,0.310546875,0.8017578125,41.84764705882353,415.8622537827849
0.0550751953125,-0.0317119140625,0.5134814453125001,0.5173993789254403,-0.6611328125,0.421875,0.60595703125,41.84764705882353,416.15129954542175
0.0897431640625,-0.0492900390625,0.3630908203125,0.3772509605580028,-0.31982421875,0.2255859375,0.4267578125,42.41235294117647,416.15129954542175
0.0384736328125,-0.0595439453125,0.3123095703125,0.3202545386937513,-0.04150390625,-0.2353515625,0.32373046875,41.84764705882353,416.15129954542175
0.0946259765625,0.0093037109375,0.3074267578125,0.3217947263345391,0.330078125,-0.7001953125,0.18505859375,42.41235294117647,416.15129954542175
0.1966767578125,0.0796162109375,0.3132861328125,0.3783763855214708,0.47314453125,-1.00341796875,-0.2900390625,42.506470588235295,416.15129954542175
0.2967744140625,0.1469990234375,0.3513720703125,0.4828520451747216,0.67919921875,-0.634765625,-1.09326171875,42.60058823529412,417.093189656362
0.3690400390625,0.2129169921875,0.3752978515625,0.5677787186755522,0.66455078125,0.32421875,-2.1416015625,43.07117647058824,417.093189656362
0.4403291015625,0.3086201171875,0.4963916015625,0.7318064747714716,0.78076171875,0.7373046875,-2.86669921875,43.16529411764706,417.093189656362
0.5116181640625,0.3725849609375,0.6043017578125001,0.8750733188772007,1.09814453125,0.6005859375,-3.72119140625,42.224117647058826,417.093189656362
0.5028291015625,0.3921162109375,0.7415087890625001,0.9779711204913304,1.3623046875,0.00146484375,-4.49462890625,42.45941176470589,417.3614943955574
0.4793916015625,0.4150654296875,0.9695361328125,1.1584886410316442,1.8076171875,-1.77880859375,-5.001953125,43.16529411764706,417.3614943955574
0.5902314453125,0.4033466796875,1.1809619140625005,1.3804827943573863,1.9462890625,-5.12548828125,-5.51171875,43.16529411764706,417.3614943955574
0.6297822265625,0.3647724609375,1.4373095703125005,1.6110690246120196,1.65478515625,-8.9384765625,-5.52734375,42.31823529411765,417.3614943955574
0.4852509765625,0.1987568359375,1.6677783203125005,1.748272666316994,1.404296875,-10.6962890625,-4.953125,42.31823529411765,417.3614943955574
0.2791962890625,-0.0707744140625,1.9016650390625005,1.9233537132583651,1.2763671875,-9.21337890625,-4.0107421875,41.98882352941177,417.2757418879225
0.1664033203125,-0.0978740234375,1.8430712890625005,2.0636884830955085,0.88330078125,-5.7861328125,-2.53564453125,41.84764705882353,417.2757418879225
0.0536103515624999,-0.1249736328125,1.7844775390625005,2.033302110559095,0.61376953125,0.841796875,-1.2373046875,42.45941176470589,417.2757418879225
-0.0591826171875,-0.1520732421875,1.7258837890625005,1.9532659246920223,0.85107421875,7.193359375,-0.50830078125,42.41235294117647,417.2757418879225
-0.1719755859375,-0.1791728515625,1.6672900390625005,1.6856851981472156,0.75146484375,10.228515625,0.57470703125,42.60058823529412,417.1457929866028
-0.0064482421875,-0.0341533203125,1.4568408203125005,1.4572553670666222,0.72998046875,10.2431640625,1.23046875,42.60058823529412,417.1457929866028
0.1634736328125,0.0449482421875,1.2224658203125005,1.2341663805715082,0.78515625,7.658203125,1.046875,42.31823529411765,417.1457929866028
0.2743134765625,0.0664326171875,1.0344775390625005,1.072289585361619,0.28955078125,2.8974609375,0.19482421875,41.84764705882353,417.1457929866028
0.1776337890625,0.1118427734375,0.9905322265625,1.0125298320769405,0.0927734375,-1.05859375,-0.65234375,43.07117647058824,417.1457929866028
0.0721650390625,0.1269794921875,1.0217822265625005,1.0321678656197877,0.01708984375,-2.7392578125,-1.392578125,43.25941176470588,416.6091978690643
-0.0015654296874999,0.1299091796875,1.0271533203125005,1.035337041241247,-0.47607421875,-2.8466796875,-2.208984375,43.07117647058824,416.6091978690643
-0.0723662109375,0.1460224609375,1.0432666015625005,1.0559188555563648,-0.9404296875,-1.904296875,-2.9443359375,42.31823529411765,416.6091978690643
-0.0445341796875,0.1411396484375,0.9963916015625,1.0073231443711514,-1.7373046875,-1.2880859375,-3.57080078125,43.07117647058824,416.6091978690643
-0.0098662109375,0.1845966796875,0.9504931640625,0.9683029129355416,-2.171875,-0.86328125,-4.19775390625,43.21235294117647,416.611845671172
0.0438447265625,0.2304951171875,0.8943408203125001,0.924605787334178,-1.99267578125,-0.82421875,-4.5576171875,41.84764705882353,416.611845671172
0.0907197265625,0.1377216796875,0.8464892578125001,0.8624044256817553,-1.86279296875,-1.7255859375,-4.8818359375,42.60058823529412,416.611845671172
0.0467744140625,0.0796162109375,0.8171923828125001,0.8223928364119585,-1.609375,-2.90869140625,-4.767578125,42.45941176470589,416.611845671172
-0.0362333984375,0.0195576171875,0.8157275390625001,0.8167660482276097,-0.6708984375,-3.765625,-3.935546875,43.16529411764706,416.611845671172
-0.0860380859375,-0.0673564453125,0.7800830078125001,0.7876985096054971,0.1123046875,-4.34619140625,-2.73046875,41.89470588235295,416.36433318234896
-0.0933623046875,-0.0893291015625,0.7600634765625001,0.7709686742837216,0.61083984375,-4.5087890625,-1.7998046875,42.45941176470589,416.36433318234896
-0.0591826171875,-0.0903056640625,0.7424853515625001,0.7502947370359334,0.96533203125,-3.9853515625,-1.095703125,43.25941176470588,416.36433318234896
-0.0132841796875,-0.0649150390625,0.7283251953125001,0.7313330444150921,1.0009765625,-3.05419921875,-0.57958984375,41.84764705882353,416.36433318234896
0.0599580078125,-0.0160869140625,0.7166064453125001,0.7192903092412098,0.9423828125,-1.8388671875,-0.26806640625,41.84764705882353,416.3532837962144
0.1317353515625,0.0302998046875,0.6877978515625001,0.7009551808991692,0.61474609375,-0.25830078125,-0.11865234375,41.98882352941177,416.3532837962144
0.2064423828125,0.0766865234375,0.6526416015625001,0.6887962981813259,0.1005859375,1.4560546875,-0.08642578125,42.41235294117647,416.3532837962144
0.2494111328125,0.0898701171875,0.6140673828125001,0.6688507320533507,-0.125,2.9267578125,-0.1103515625,41.89470588235295,416.3532837962144
0.2406220703125,0.0718037109375,0.5266650390625001,0.5834644950608173,-0.31884765625,3.5078125,-0.06201171875,42.31823529411765,416.3532837962144
0.2152314453125,0.0669208984375,0.4446337890625,0.498499937888728,-0.353515625,2.70068359375,-0.1142578125,43.02411764705882,416.53582429922
0.1551728515625,0.0171162109375,0.4138720703125,0.4423366016097352,-0.2333984375,1.27294921875,-0.12939453125,43.16529411764706,416.53582429922
0.1097626953125,-0.0536845703125,0.4485400390625,0.464884984715673,-0.07421875,0.181640625,0.0029296875,42.41235294117647,416.53582429922
0.1156220703125,-0.1552470703125,0.5134814453125001,0.548756148634507,0.08642578125,-0.4150390625,0.697265625,42.45941176470589,416.53582429922
0.1415009765625,-0.1947978515625,0.6516650390625001,0.6947201252863175,0.36865234375,-0.78955078125,1.31884765625,42.506470588235295,416.86908850935794
0.1644501953125,-0.2343486328125,0.8420947265625001,0.8894305351986624,1.06103515625,-0.3701171875,1.93310546875,41.89470588235295,416.86908850935794
0.1585908203125,-0.2421611328125,0.9334033203125,0.9772588300459734,1.66943359375,1.05078125,2.2412109375,42.41235294117647,416.86908850935794
0.3358369140625,-0.1825908203125,1.0740283203125005,1.1400274879768055,2.13134765625,1.57958984375,2.26318359375,41.84764705882353,416.86908850935794
0.5785126953125,-0.2162822265625,1.2253955078125005,1.3722423585983714,2.76904296875,0.9365234375,1.77392578125,42.45941176470589,416.86908850935794
0.7391572265625,-0.3442119140625,1.3835986328125005,1.6059826973173643,2.76123046875,-1.03759765625,1.24072265625,42.45941176470589,416.8801378894271
0.6961884765625,-0.3852275390625,1.4280322265625005,1.634733829053408,1.947265625,-2.70458984375,1.2509765625,41.84764705882353,416.8801378894271
0.5506806640625,-0.3334697265625,1.5266650390625005,1.656851651114755,0.82568359375,-2.9013671875,1.74609375,42.41235294117647,416.8801378894271
0.4168916015625,-0.2895244140625,1.6633837890625005,1.7390999463824672,-0.708984375,-1.27685546875,1.41748046875,41.89470588235295,416.8801378894271
0.2376923828125,-0.2529033203125,1.8015673828125005,1.8346941960681225,-1.8525390625,1.54736328125,1.7880859375,41.84764705882353,416.8138418179624
0.2083955078125,-0.1127666015625,1.8679736328125005,1.8829419765322335,-2.267578125,3.376953125,3.11865234375,42.97705882352941,416.8138418179624
0.2494111328125,0.0937763671875,1.7629931640625005,1.783015652411612,-2.2890625,4.751953125,3.384765625,42.60058823529412,416.8138418179624
0.2093720703125,0.2363544921875,1.6135791015625005,1.6441829663402423,-2.45361328125,5.37841796875,2.48046875,41.84764705882353,416.8138418179624
0.1185517578125,0.2387958984375,1.4705126953125005,1.494485057625616,-2.7822265625,5.3955078125,1.37646484375,42.64764705882353,416.8138418179624
0.0580048828125,0.2197529296875,1.3904345703125005,1.4088875792114992,-2.9111328125,4.9462890625,1.13037109375,42.31823529411765,416.5137255858135
0.0287080078125,0.2368427734375,1.3347705078125005,1.355924392275679,-2.568359375,4.67578125,1.650390625,41.84764705882353,416.5137255858135
-0.0835966796875,0.1406513671875,1.1755908203125005,1.186922486411604,-1.640625,5.296875,2.26806640625,42.31823529411765,416.5137255858135
-0.1490263671875,0.0532490234375,1.0691455078125005,1.0807943530060655,-1.2021484375,5.02099609375,2.87646484375,43.21235294117647,416.5137255858135
-0.0621123046875,0.0595966796875,1.0335009765625005,1.0370795394659993,-0.349609375,3.7373046875,3.0595703125,42.64764705882353,416.18179544073377
-0.0308623046875,0.0254169921875,0.9514697265625,0.9523093751021262,0.03857421875,3.04052734375,3.001953125,42.506470588235295,416.18179544073377
-0.0474638671875,0.0224873046875,0.9270556640625,0.9285422455822158,0.2255859375,3.4521484375,3.26904296875,42.64764705882353,416.18179544073377
0.0038056640625,-0.0219462890625,0.8406298828125001,0.8409249208817211,0.4580078125,3.076171875,4.0791015625,42.31823529411765,416.18179544073377
0.0482392578125,-0.0839580078125,0.7854541015625001,0.7914001002852469,0.40283203125,1.72998046875,4.83447265625,42.224117647058826,416.18179544073377
0.0589814453125,-0.0966533203125,0.7293017578125001,0.7380391108653962,0.3642578125,0.18798828125,5.28076171875,42.506470588235295,416.22334182031
-0.0142607421875,-0.0697978515625,0.6975634765625001,0.7011917802459187,0.1689453125,-1.3837890625,5.56982421875,42.224117647058826,416.22334182031
-0.0245146484375,-0.0258525390625,0.6614306640625001,0.6623894965397263,-0.15673828125,-2.89990234375,5.17138671875,42.60058823529412,416.22334182031
-0.1104521484375,-0.0263408203125,0.6941455078125001,0.7033715248184764,-0.732421875,-3.7294921875,4.42919921875,41.84764705882353,416.22334182031
-0.1851591796875,-0.0346416015625,0.7620166015625001,0.7849543065925716,-1.21923828125,-3.5048828125,3.65673828125,43.16529411764706,416.28698777192426
-0.2232451171875,-0.0165751953125,0.8225634765625001,0.8524809630849798,-1.38818359375,-2.259765625,3.2529296875,42.31823529411765,416.28698777192426
-0.1646513671875,-0.0087626953124999,0.8518603515625001,0.8676709722642788,-1.29736328125,-0.80859375,2.81884765625,43.07117647058824,416.28698777192426
-0.1197294921875,-0.0439189453125,0.8098681640625001,0.8198478323559827,-0.9423828125,0.52783203125,2.46337890625,42.45941176470589,416.28698777192426
-0.0533232421875,-0.0488017578125,0.7537158203125001,0.7571740338339142,-0.662109375,1.2294921875,2.2421875,43.07117647058824,416.28698777192426
0.0018525390625,-0.0424541015625,0.6824267578125001,0.6837485374163061,-0.4150390625,1.990234375,1.59814453125,43.16529411764706,416.351958937278
0.0223603515625,-0.0986064453125,0.6008837890625001,0.6093312271148367,-0.1689453125,2.9150390625,0.9990234375,41.84764705882353,416.351958937278
0.0594697265625,-0.1347392578125,0.5520556640625001,0.5713639577333959,-0.12841796875,3.6318359375,0.25634765625,42.45941176470589,416.351958937278
0.0594697265625,-0.1269267578125,0.5247119140625001,0.5431110779438623,0.3046875,3.212890625,0.24365234375,42.45941176470589,416.351958937278
0.1082978515625,-0.0551494140625,0.5100634765625001,0.5243420950558084,0.61962890625,2.4130859375,0.0400390625,42.506470588235295,416.3298603294756
0.2254853515625,0.0698505859375,0.5252001953125001,0.5758107269592713,0.65673828125,2.1572265625,-0.81103515625,43.21235294117647,416.3298603294756
0.3451142578125,0.1689716796875,0.5715869140625001,0.6887429707876369,1.03466796875,2.240234375,-1.78515625,42.41235294117647,416.3298603294756
0.4217744140625,0.2490498046875,0.6702197265625001,0.830128871589321,1.41357421875,2.44287109375,-2.8251953125,43.07117647058824,416.3298603294756
0.3866181640625,0.3169208984375,0.7678759765625001,0.9162674151312508,1.67138671875,2.75341796875,-3.5341796875,42.31823529411765,416.3298603294756
0.3358369140625,0.3432880859375,0.8601611328125001,0.9851448204172516,1.68505859375,3.0537109375,-3.44775390625,41.84764705882353,417.11132449634016
0.3675751953125,0.2934833984375,1.0081103515625005,1.1124434863375825,1.76220703125,2.5390625,-3.10791015625,43.25941176470588,417.11132449634016
0.4359345703125,0.2026630859375,1.1785205078125005,1.2728007948339315,1.51806640625,1.4091796875,-3.037109375,42.41235294117647,417.11132449634016
0.4544892578125,0.1069599609375,1.3567431640625005,1.4348355069278962,0.6435546875,0.01318359375,-2.8427734375,43.25941176470588,417.11132449634016
0.4222626953125,0.0835224609375,1.6145556640625005,1.6709493641908886,0.27783203125,-0.76123046875,-2.67578125,42.45941176470589,417.3159771784287
0.2943330078125,0.0478779296875,1.7302783203125005,1.7557867983848614,0.2412109375,-0.9345703125,-2.126953125,43.21235294117647,417.3159771784287
0.2225556640625,0.0473896484375,1.6829150390625005,1.698228439017574,-0.36962890625,-0.0107421875,-1.38916015625,41.84764705882353,417.3159771784287
0.1283173828125,0.0859638671875,1.7556689453125005,1.762449597216439,0.3291015625,1.10107421875,-1.10302734375,41.98882352941177,417.3159771784287
-0.0005888671874999,0.0229755859375,1.7063525390625005,1.7065073137489852,1.5830078125,1.97265625,-1.0517578125,42.45941176470589,417.3159771784287
-0.1236357421875,-0.0619853515625,1.5569384765625005,1.5630692244284448,1.70849609375,1.8701171875,-0.57373046875,42.506470588235295,417.0268941214478
-0.2813505859375,-0.0238994140625,1.5100634765625005,1.5362359966645522,1.6669921875,1.83642578125,0.0126953125,42.41235294117647,417.0268941214478
-0.3126005859375,0.0132099609375,1.4436572265625005,1.4771729137790772,1.9580078125,1.5576171875,0.43115234375,43.25941176470588,417.0268941214478
-0.2715849609375,0.0073505859375,1.3567431640625005,1.383677865455458,1.61767578125,0.95703125,-0.00830078125,43.25941176470588,417.0268941214478
-0.2212919921875,0.0102802734375,1.2590869140625005,1.2784270362409005,1.1806640625,0.39404296875,-0.744140625,41.89470588235295,416.672847053736
-0.1397490234375,-0.0009501953124999,1.1335986328125005,1.1421806130105854,0.46728515625,-0.4306640625,-1.21826171875,42.60058823529412,416.672847053736
-0.0401396484375,0.0273701171875,1.0569384765625005,1.0580544683190003,0.01171875,-1.41259765625,-2.056640625,42.45941176470589,416.672847053736
0.0165009765625,0.0625263671875,0.9851611328125,0.9872812600397064,-0.35791015625,-2.4248046875,-3.13525390625,43.16529411764706,416.672847053736
0.0326142578125,0.1006123046875,1.0178759765625005,1.0233562572878785,-1.1484375,-2.8818359375,-4.27685546875,42.506470588235295,416.672847053736
0.0096650390625,0.0923115234375,1.1091845703125005,1.1130612028809366,-1.74365234375,-2.6025390625,-5.14453125,43.21235294117647,416.6644444638479
-0.1031279296875,0.0512958984375,1.0383837890625005,1.0447523785404536,-2.17236328125,-0.8974609375,-5.62744140625,42.506470588235295,416.6644444638479
-0.1397490234375,0.0122333984375,0.8904345703125001,0.9014173115692156,-2.5244140625,0.62646484375,-6.337890625,41.89470588235295,416.6644444638479
-0.0958037109375,-0.0238994140625,0.7971728515625001,0.8032646439936308,-2.13916015625,0.67578125,-6.4267578125,42.60058823529412,416.6644444638479
-0.0865263671875,-0.0893291015625,0.6926806640625001,0.7037563519931423,-1.8232421875,-0.05908203125,-5.73046875,42.45941176470589,416.5124015740764
-0.1143583984375,-0.0824931640625,0.6550830078125001,0.6700870932460232,-1.37548828125,-1.01708984375,-4.2216796875,41.89470588235295,416.5124015740764
-0.1739287109375,-0.0429423828125,0.6482470703125001,0.6725470309939188,-0.74072265625,-1.6484375,-2.98046875,42.31823529411765,416.5124015740764
-0.2198271484375,-0.0385478515625,0.6516650390625001,0.6888230797429605,-0.05810546875,-1.3642578125,-1.8740234375,42.45941176470589,416.5124015740764
-0.1778349609375,-0.0400126953125,0.6404345703125001,0.6658699031861778,0.3193359375,-1.02490234375,-1.17333984375,42.45941176470589,416.5124015740764
-0.1304716796875,-0.0146220703124999,0.6585009765625001,0.67146124257061,0.63818359375,-0.6220703125,-0.9638671875,42.506470588235295,416.0408054166624
-0.0806669921875,-0.0063212890624999,0.6677783203125001,0.6726626252463963,0.86767578125,0.3291015625,-0.74853515625,42.60058823529412,416.0408054166624
-0.0923857421875,-0.0004619140624999,0.6663134765625001,0.6726878828795281,0.9296875,1.3603515625,0.11474609375,41.84764705882353,416.0408054166624
-0.0123076171875,0.0376240234375,0.6335986328125001,0.6348340508214165,0.8828125,2.58056640625,0.5966796875,42.27117647058824,416.0408054166624
0.0750947265625,0.0791279296875,0.6179736328125001,0.6275283723192165,0.71044921875,3.60302734375,0.67333984375,43.21235294117647,416.2980370744825
0.1629853515625,0.0273701171875,0.5735400390625001,0.5968764734403789,0.43212890625,4.18994140625,0.474609375,42.74176470588235,416.2980370744825
0.2415986328125,-0.0634501953125,0.5320361328125001,0.5877569848841814,0.34716796875,4.3681640625,0.69091796875,42.03588235294118,416.2980370744825
0.2743134765625,-0.1821025390625,0.5090869140625001,0.6062826933258889,0.49609375,4.28369140625,1.64697265625,41.84764705882353,416.2980370744825
0.2806611328125,-0.2719462890625,0.4700244140625,0.611267867159118,0.67041015625,3.8310546875,2.978515625,42.31823529411765,416.2980370744825
0.3651337890625,-0.3178447265625,0.4163134765625,0.6384863858268898,0.8251953125,3.18310546875,3.712890625,43.25941176470588,416.446106136212
0.4066376953125,-0.3388408203125,0.4963916015625,0.7256527674176495,0.8818359375,2.06103515625,3.98583984375,42.41235294117647,416.446106136212
0.2645478515625,-0.3569072265625,0.6218798828125001,0.7642662643253063,1.37744140625,1.1708984375,4.26171875,41.89470588235295,416.446106136212
0.1156220703125,-0.3202861328125,0.7068408203125001,0.7845862701292848,1.5771484375,0.85791015625,4.197265625,41.84764705882353,416.446106136212
0.0863251953125,-0.1933330078125,0.9329150390625,0.9566400375086522,1.7646484375,0.404296875,3.37353515625,41.89470588235295,416.7780495072977
0.1659150390625,-0.1698955078125,1.0784228515625005,1.1042590866885238,2.3349609375,-0.72509765625,1.5556640625,42.41235294117647,416.7780495072977
0.2665009765625,-0.1611064453125,1.2459033203125005,1.2842325104106764,1.826171875,-2.38330078125,0.677734375,41.84764705882353,416.7780495072977
0.2166962890625,-0.1440166015625,1.5071337890625005,1.5294281027079892,1.1474609375,-4.12255859375,1.4296875,41.84764705882353,416.7780495072977
0.0848603515625,0.0976826171875,1.6917041015625005,1.696645496328357,0.37548828125,-4.1142578125,2.18212890625,43.21235294117647,416.7780495072977
-0.0005888671874999,0.0239521484375,1.7419970703125005,1.7421618309320952,-0.69287109375,-1.44921875,1.88671875,42.31823529411765,416.6617978156677
-0.0552763671875,-0.0658916015625,1.8152392578125005,1.8172756376041568,-1.76416015625,0.6669921875,1.39404296875,43.02411764705882,416.6617978156677
-0.1065458984375,-0.0053447265624999,1.8416064453125005,1.8446937127860616,-1.8603515625,1.73681640625,1.4462890625,43.25941176470588,416.6617978156677
-0.1500029296875,-0.0331767578125,1.6882861328125005,1.6952615262609982,-1.55029296875,2.79833984375,1.787109375,42.41235294117647,416.6617978156677
-0.1910185546875,0.0029560546875,1.4910205078125005,1.5032095599788018,-1.65966796875,2.61767578125,2.6728515625,42.506470588235295,416.9950680120434
-0.1260771484375,0.1626240234375,1.3547900390625005,1.370327723685142,-1.31689453125,1.16748046875,3.2939453125,42.64764705882353,416.9950680120434
-0.1485380859375,0.2368427734375,1.2302783203125005,1.2616429002433651,-0.4169921875,-0.08154296875,3.91162109375,42.788823529411765,416.9950680120434
-0.0313505859375,0.1821552734375,1.0496142578125005,1.0657642765091166,-0.4228515625,-1.77978515625,4.97412109375,43.25941176470588,416.9950680120434
0.0497041015625,0.1015888671875,1.0750048828125005,1.0809376918764986,-0.5849609375,-3.193359375,4.990234375,42.27117647058824,416.9950680120434
0.0531220703125,0.0810810546875,0.9543994140625,0.9593093001458742,-0.70947265625,-4.32373046875,4.68701171875,42.60058823529412,416.08102629742496
-0.0025419921874999,0.1235615234375,1.0378955078125005,1.045227724917324,-0.22021484375,-4.705078125,3.58203125,42.45941176470589,416.08102629742496
-0.0948271484375,0.0102802734375,1.0530322265625005,1.057343247144424,-0.09521484375,-4.6162109375,2.92724609375,42.506470588235295,416.08102629742496
-0.1451201171875,-0.0165751953125,1.0730517578125005,1.0829472103739213,-0.6005859375,-3.9453125,2.8544921875,42.31823529411765,416.08102629742496
-0.1998076171875,-0.0219462890625,1.0681689453125005,1.086917485009686,-1.06005859375,-2.80810546875,3.13818359375,42.27117647058824,416.5000287910288
-0.2066435546875,-0.0048564453124999,0.9978564453125,1.0190400527980523,-1.4892578125,-1.9638671875,3.41552734375,41.84764705882353,416.5000287910288
-0.1651396484375,0.0132099609375,0.9163134765625,0.9311691542808356,-1.63134765625,-1.77490234375,3.171875,42.60058823529412,416.5000287910288
-0.1675810546875,0.0136982421875,0.8582080078125001,0.8745238912703885,-1.8603515625,-2.0087890625,2.61669921875,42.41235294117647,416.5000287910288
-0.1553740234375,0.0566669921875,0.9358447265625,0.950346035608912,-1.89794921875,-2.43212890625,2.3857421875,42.41235294117647,416.5000287910288
-0.1714873046875,0.1069599609375,0.9656298828125,0.986554306408531,-1.36474609375,-1.84521484375,2.52490234375,42.31823529411765,416.2967125222448
-0.1871123046875,0.0093037109375,0.8025439453125001,0.824120353929224,-1.10205078125,-0.45166015625,2.48876953125,43.16529411764706,416.2967125222448
-0.0894560546875,-0.0087626953124999,0.7356494140625001,0.7411202540478113,-1.17236328125,0.19775390625,1.7919921875,41.89470588235295,416.2967125222448
0.0057587890625,-0.0009501953124999,0.6516650390625001,0.6516911766004876,-1.0673828125,1.34814453125,0.9697265625,41.89470588235295,416.2967125222448
0.0638642578125,-0.0478251953125,0.5276416015625001,0.5336399089573983,-0.77734375,2.3515625,0.6279296875,42.27117647058824,416.7007058756793
0.1546845703125,-0.0834697265625,0.4168017578125,0.452347451480354,-0.4736328125,2.45947265625,0.17578125,41.89470588235295,416.7007058756793
0.2176728515625,-0.0536845703125,0.3225634765625,0.3928240061517046,-0.0888671875,1.2705078125,-0.2177734375,42.60058823529412,416.7007058756793
0.2850556640625,-0.0082744140624999,0.2893603515625,0.4062691356706342,0.33056640625,0.67822265625,-0.92431640625,42.41235294117647,416.7007058756793
0.3758759765625,0.1157490234375,0.2717822265625,0.4780650215805566,0.55224609375,0.61279296875,-2.0234375,41.84764705882353,416.7007058756793
0.5052705078125,0.2021748046875,0.2590869140625,0.6027428695173089,0.796875,0.4599609375,-3.7177734375,43.25941176470588,416.8943045560705
0.6043916015625,0.2666279296875,0.3347705078125,0.7405747456062524,0.5732421875,0.62060546875,-5.0244140625,41.84764705882353,416.8943045560705
0.6214814453125,0.3467060546875,0.4548876953125,0.8446106147636339,0.56005859375,0.70361328125,-5.93115234375,43.16529411764706,416.8943045560705
0.5682587890625,0.4018818359375,0.5833056640625001,0.908114838074276,0.7939453125,0.16162109375,-6.01904296875,42.45941176470589,416.8943045560705
0.4720673828125,0.4038349609375,0.7488330078125001,0.9729754175622072,1.05517578125,-1.1083984375,-5.46435546875,42.45941176470589,417.20680587099343
0.4369111328125,0.3545185546875,0.9758837890625,1.1264652295336053,1.384765625,-2.59521484375,-4.9404296875,42.41235294117647,417.20680587099343
0.5121064453125,0.2549091796875,1.1956103515625005,1.32541156399926,1.21484375,-4.4970703125,-4.66357421875,42.31823529411765,417.20680587099343
0.4579072265625,0.1206318359375,1.4876025390625005,1.5611509799519745,1.0458984375,-7.19287109375,-4.21875,43.21235294117647,417.20680587099343
0.2889619140625,-0.0820048828125,1.7878955078125005,1.812951774162753,1.58740234375,-9.07421875,-3.56201171875,42.03588235294118,417.20680587099343
0.2108369140625,-0.3686259765625,1.9856494140625005,2.0305518733819152,1.57275390625,-9.28173828125,-2.99658203125,41.84764705882353,417.0560789631765
0.0135712890625,-0.3412822265625,2.0540087890625003,2.0822127277490825,0.8212890625,-5.63037109375,-0.71142578125,42.506470588235295,417.0560789631765
0.0233369140625,-0.2514384765625,2.1379931640625003,2.152854079735088,0.72265625,1.57080078125,0.6376953125,41.84764705882353,417.0560789631765
0.0179658203125,-0.2240947265625,2.0203173828125003,2.032787137028118,0.8369140625,7.609375,0.86669921875,41.84764705882353,417.0560789631765
-0.0113310546875,-0.1405986328125,1.7903369140625005,1.795884916748262,0.7763671875,10.01171875,1.62109375,42.31823529411765,416.852750267093
-0.0362333984375,-0.0741923828125,1.5061572265625005,1.5084186951759018,0.81591796875,8.62744140625,2.02294921875,42.60058823529412,416.852750267093
0.1707978515625,-0.0199931640625,1.1775439453125005,1.1900341910423098,0.466796875,3.6611328125,0.6982421875,42.41235294117647,416.852750267093
0.1493134765625,0.0141865234375,1.1008837890625005,1.1110539540233997,0.17333984375,-0.1982421875,-0.62890625,41.89470588235295,416.852750267093
0.0623994140625,0.0249287109375,1.1091845703125005,1.1112180427457403,-0.36669921875,-2.4052734375,-1.302734375,42.506470588235295,416.852750267093
-0.0835966796875,0.0864521484375,1.1335986328125005,1.139959753297722,-0.83349609375,-2.5751953125,-1.5869140625,43.21235294117647,416.78777702316034
-0.1705107421875,0.0844990234375,1.1897509765625005,1.2048740118347006,-1.119140625,-1.18359375,-1.8603515625,43.16529411764706,416.78777702316034
-0.1465849609375,0.1025654296875,1.1384814453125005,1.1524525237340015,-1.52880859375,0.5498046875,-2.41455078125,42.41235294117647,416.78777702316034
-0.1026396484375,0.1084248046875,1.0935595703125005,1.103704385025699,-1.64697265625,1.3759765625,-2.89208984375,42.506470588235295,416.78777702316034
-0.0123076171875,0.0781513671875,1.0027392578125005,1.005855423404613,-1.767578125,1.2529296875,-3.4775390625,43.02411764705882,416.5194812941819
0.0433564453125,0.0376240234375,0.9592822265625,0.9609983031662798,-2.16064453125,0.36328125,-3.7763671875,42.64764705882353,416.5194812941819
0.0135712890625,0.0351826171875,0.9475634765625,0.9483135233424608,-2.1015625,-0.4501953125,-3.47900390625,42.60058823529412,416.5194812941819
-0.0259794921875,0.0190693359375,0.9026416015625,0.9032167151125652,-1.640625,-0.94091796875,-2.82080078125,42.31823529411765,416.5194812941819
-0.0611357421875,0.0259052734375,0.8538134765625001,0.8563913328172063,-0.87890625,-1.47216796875,-2.03076171875,43.07117647058824,416.5194812941819
-0.0572294921875,0.0239521484375,0.8093798828125001,0.8117540975519542,-0.0068359375,-2.21923828125,-1.50341796875,41.89470588235295,416.2193681262605
-0.0206083984375,-0.0009501953124999,0.7468798828125001,0.7471647531216287,0.68798828125,-2.6513671875,-1.13330078125,41.84764705882353,416.2193681262605
-0.0259794921875,-0.0170634765625,0.7219775390625001,0.722646291872769,0.9658203125,-2.416015625,-0.5068359375,42.224117647058826,416.2193681262605
0.0077119140625,-0.0072978515624999,0.7000048828125001,0.7000854006600035,0.8798828125,-1.20263671875,-0.09619140625,43.16529411764706,416.2193681262605
0.0501923828125,0.0361591796875,0.6721728515625001,0.675013410196962,0.63671875,0.259765625,0.10693359375,42.41235294117647,416.5844535392137
0.1112275390625,0.0586201171875,0.5627978515625001,0.5766708812731418,0.103515625,1.76513671875,-0.04296875,43.25941176470588,416.5844535392137
0.1219697265625,0.0830341796875,0.4783251953125,0.5005659613525958,-0.1123046875,2.78466796875,-0.39599609375,42.45941176470589,416.5844535392137
0.1576142578125,0.0708271484375,0.4153369140625,0.4498482982123345,-0.20556640625,2.77734375,-0.6103515625,42.74176470588235,416.5844535392137
0.2303681640625,0.0459248046875,0.4221728515625,0.4831236852975898,0.05615234375,2.21044921875,-0.41259765625,42.506470588235295,416.5844535392137
0.2494111328125,-0.0522197265625,0.4275439453125,0.497721446379855,0.4306640625,2.2421875,0.13818359375,43.16529411764706,416.3577129991601
0.2357392578125,-0.1645244140625,0.4226611328125,0.5111591862491988,0.63427734375,2.29443359375,1.0361328125,43.21235294117647,416.3577129991601
0.3031220703125,-0.2323955078125,0.4763720703125,0.6105907065586434,0.99951171875,2.4140625,1.51513671875,41.98882352941177,416.3577129991601
0.3446259765625,-0.3188212890625,0.5208056640625001,0.7011794476456884,1.22314453125,2.72216796875,1.8818359375,42.506470588235295,416.3577129991601
0.3207001953125,-0.3920634765625,0.6751025390625001,0.8439939710545236,1.60693359375,3.01904296875,2.50537109375,42.224117647058826,416.5831313072324
0.2186494140625,-0.4032939453125,0.8015673828125001,0.9235604158821864,2.15625,3.51708984375,3.18701171875,42.788823529411765,416.5831313072324
0.1986298828125,-0.3193095703125,0.9309619140625,1.0040430854670404,2.14990234375,4.12548828125,3.18798828125,41.98882352941177,416.5831313072324
0.2650361328125,-0.2548564453125,1.1101611328125005,1.1694672719751769,2.35888671875,4.73828125,1.8125,42.97705882352941,416.5831313072324
0.3460908203125,-0.2817119140625,1.2009814453125005,1.2812091517056217,2.32080078125,3.77490234375,0.0400390625,41.89470588235295,416.5831313072324
0.4017548828125,-0.2914775390625,1.2927783203125005,1.3847894883741811,1.697265625,1.306640625,-0.6904296875,42.60058823529412,416.5941803864517
0.3407197265625,-0.2558330078125,1.4426806640625005,1.504283204192293,1.06591796875,-1.0654296875,0.0419921875,42.41235294117647,416.5941803864517
0.1634736328125,-0.2026103515625,1.5784228515625005,1.5997478806111578,0.177734375,-1.50537109375,1.75927734375,42.41235294117647,416.5941803864517
0.1029267578125,-0.0868876953125,1.7234423828125005,1.728698075415409,-0.81298828125,-0.3994140625,3.318359375,43.25941176470588,416.5941803864517
0.2430634765625,-0.0136455078124999,1.8923876953125005,1.9079825059188216,-1.36083984375,0.87109375,3.1640625,42.31823529411765,417.11973320922806
0.1952119140625,0.0400654296875,1.8884814453125005,1.8989668505104504,-1.5595703125,2.41552734375,2.43798828125,42.506470588235295,417.11973320922806
0.0355439453125,0.0537373046875,1.7390673828125005,1.7402604494516831,-1.68310546875,4.27294921875,2.23095703125,41.84764705882353,417.11973320922806
-0.1036162109375,0.1094013671875,1.5320361328125005,1.539428364866199,-1.83251953125,5.14453125,2.255859375,42.45941176470589,417.11973320922806
-0.1836943359375,0.1450458984375,1.4495166015625005,1.4682916263175927,-1.62890625,4.67919921875,2.8583984375,41.84764705882353,417.11973320922806
-0.2188505859375,0.1728779296875,1.2210009765625005,1.2524479000360864,-1.13720703125,3.39501953125,3.56787109375,41.89470588235295,416.20831898255614
-0.2461943359375,0.1196552734375,1.1184619140625005,1.1514712713383088,-0.6923828125,2.294921875,4.015625,42.45941176470589,416.20831898255614
-0.2442412109375,0.1675068359375,1.1155322265625005,1.1541769611742811,-0.1220703125,1.67431640625,4.09716796875,41.84764705882353,416.20831898255614
-0.2588896484375,0.1352802734375,1.0608447265625005,1.1003254683614676,0.50439453125,1.912109375,3.8388671875,42.45941176470589,416.20831898255614
-0.2491240234375,0.0967060546875,1.0457080078125005,1.0793146333067565,0.64990234375,2.21142578125,4.02197265625,42.41235294117647,416.5389351296356
-0.2046904296875,0.0425068359375,1.0178759765625005,1.0391229507474726,0.89208984375,2.0732421875,4.88671875,41.89470588235295,416.5389351296356
-0.0757841796875,-0.0243876953125,0.9714892578125,0.9747458025652866,1.01416015625,1.458984375,5.78271484375,41.84764705882353,416.5389351296356
0.0086884765625,-0.0146220703124999,0.9128955078125,0.9130539429570648,0.90478515625,1.1552734375,6.05712890625,42.45941176470589,416.5389351296356
-0.0289091796875,-0.0370830078125,0.8157275390625001,0.8170815798459715,0.35205078125,0.55126953125,6.0595703125,43.16529411764706,416.5389351296356
-0.0577177734375,0.0356708984375,0.7371142578125001,0.7402304934521367,-0.1943359375,-0.5224609375,5.58251953125,42.45941176470589,416.3992639849873
-0.0953154296875,0.0713154296875,0.6721728515625001,0.6826325981270512,-0.8017578125,-1.990234375,4.7216796875,42.45941176470589,416.3992639849873
-0.1607451171875,0.0752216796875,0.6638720703125001,0.6871851421091968,-1.5439453125,-2.7392578125,3.7548828125,41.84764705882353,416.3992639849873
-0.2359404296875,0.1054951171875,0.6746142578125001,0.7224275070589691,-2.06884765625,-2.8203125,2.9140625,41.84764705882353,416.3992639849873
-0.2378935546875,0.1006123046875,0.7078173828125001,0.7534730430665202,-2.2080078125,-2.29296875,2.46240234375,43.07117647058824,416.218044445203
-0.2061552734375,0.0747333984375,0.7210009765625001,0.7536096375526173,-1.7294921875,-1.1630859375,2.10791015625,42.45941176470589,416.218044445203
-0.1451201171875,0.0190693359375,0.7039111328125001,0.7189675729008841,-1.10107421875,0.26708984375,1.642578125,41.84764705882353,416.218044445203
-0.0528349609375,-0.0155986328124999,0.6409228515625001,0.6432860577518317,-0.8046875,1.8193359375,1.00048828125,42.31823529411765,416.218044445203
0.0213837890625,-0.0839580078125,0.5022509765625001,0.5096687718199912,-0.20068359375,2.87109375,0.3955078125,42.41235294117647,416.218044445203
0.0540986328125,-0.1362041015625,0.4211962890625,0.445964722006854,0.11865234375,3.37353515625,0.20654296875,42.506470588235295,416.4987057242689
0.1322236328125,-0.1078837890625,0.3660205078125,0.4038477598748534,0.38818359375,3.0703125,-0.17333984375,43.16529411764706,416.4987057242689
0.2049775390625,-0.0380595703125,0.3709033203125,0.4254804289639276,0.64453125,2.5576171875,-0.73095703125,41.84764705882353,416.4987057242689
0.2523408203125,0.0542255859375,0.3875048828125,0.4655924590989205,0.943359375,2.46142578125,-1.2626953125,41.89470588235295,416.4987057242689
0.3280244140625,0.1089130859375,0.3884814453125,0.5199806822003724,0.87744140625,2.4658203125,-1.64453125,42.64764705882353,417.4185537779864
0.5125947265625,0.1987568359375,0.4558642578125,0.7141917495200515,1.080078125,2.052734375,-2.75244140625,42.41235294117647,417.4185537779864
0.5858369140625,0.2998310546875,0.6043017578125001,0.8934674956194932,1.5087890625,1.0849609375,-4.50927734375,42.506470588235295,417.4185537779864
0.3714814453125,0.4048115234375,0.8001025390625001,0.9705848271704608,1.97265625,0.28125,-5.58544921875,43.25941176470588,417.4185537779864
0.2118134765625,0.4292255859375,0.8391650390625001,0.9660732452881874,1.580078125,-0.27099609375,-4.87890625,42.41235294117647,417.4185537779864
0.2992158203125,0.2998310546875,1.1760791015625005,1.2500363281170506,0.76171875,-1.615234375,-3.5810546875,42.506470588235295,417.17365868522745
0.3988251953125,0.1255146484375,1.3674853515625005,1.4299761012431145,-0.31689453125,-2.77392578125,-2.6396484375,42.41235294117647,417.17365868522745
0.4623017578125,0.0136982421875,1.6135791015625005,1.6785553533067656,-1.1669921875,-2.66015625,-2.32568359375,41.84764705882353,417.17365868522745
0.3485322265625,-0.1235087890625,1.8250048828125005,1.8620880634969357,-0.75830078125,-2.365234375,-1.51806640625,41.84764705882353,417.17365868522745
0.0960908203125,-0.2328837890625,1.8479541015625005,1.8650476311446047,-1.12353515625,-1.322265625,-0.3515625,41.84764705882353,416.74225982537376
-0.0142607421875,-0.0917705078125,1.8689501953125005,1.8712562698440145,-0.388671875,0.5654296875,0.52001953125,41.89470588235295,416.74225982537376
-0.0054716796875,-0.0741923828125,1.7283251953125005,1.7299255561144795,1.08349609375,1.294921875,0.26611328125,42.506470588235295,416.74225982537376
-0.0279326171875,-0.0971416015625,1.5833056640625005,1.586528773048086,1.95703125,1.40478515625,0.33984375,42.97705882352941,416.74225982537376
-0.3023466796875,-0.0478251953125,1.4153369140625005,1.448060545810394,1.95361328125,1.76025390625,1.15234375,41.89470588235295,416.74225982537376
-0.3209013671875,0.0190693359375,1.3406298828125005,1.3786333122791434,1.287109375,1.138671875,1.5087890625,41.98882352941177,416.9345400160707
-0.3375029296875,0.0654560546875,1.3123095703125005,1.356594681906382,1.0625,0.8154296875,0.5947265625,42.506470588235295,416.9345400160707
-0.3174833984375,0.0635029296875,1.2551806640625005,1.296266496442263,0.59619140625,0.74755859375,-0.47216796875,41.89470588235295,416.9345400160707
-0.2608427734375,0.0654560546875,1.2127001953125005,1.242161507719828,0.17431640625,1.34130859375,-1.55712890625,41.98882352941177,416.9345400160707
-0.1978544921875,0.0952412109375,1.1340869140625005,1.155149521485171,-0.3994140625,1.77587890625,-2.47705078125,43.25941176470588,416.6675588139348
-0.1475615234375,0.1079365234375,1.0652392578125005,1.080814217465655,-0.6689453125,2.0009765625,-3.13427734375,42.45941176470589,416.6675588139348
-0.0831083984375,0.1015888671875,1.0071337890625005,1.0156504186474176,-1.0166015625,2.22607421875,-4.15625,42.45941176470589,416.6675588139348
-0.0376982421875,0.0522724609375,0.9670947265625,0.96923979374636,-1.6865234375,1.7783203125,-5.09375,42.45941176470589,416.6675588139348
-0.0440458984375,0.0386005859375,0.9475634765625,0.949371680912748,-2.23681640625,1.07177734375,-5.6474609375,42.41235294117647,416.6675588139348
-0.0425810546875,0.0176044921875,0.9158251953125,0.9169835618661104,-2.53271484375,0.255859375,-5.8271484375,42.60058823529412,416.4103130114095
-0.0630888671875,-0.0087626953124999,0.8899462890625001,0.8922227229835926,-2.30126953125,-0.802734375,-5.40087890625,42.506470588235295,416.4103130114095
-0.1172880859375,0.0166279296875,0.8445361328125001,0.8528037656896618,-1.67138671875,-1.5771484375,-4.26318359375,42.60058823529412,416.4103130114095
-0.1749052734375,-0.0429423828125,0.7688525390625001,0.7896645678645555,-0.81494140625,-1.943359375,-2.90576171875,41.84764705882353,416.4103130114095
-0.2281279296875,-0.1015361328125,0.6682666015625001,0.7133948341093562,-0.6396484375,-2.30078125,-1.65673828125,43.21235294117647,416.3882149725011
-0.2535185546875,-0.0673564453125,0.6174853515625001,0.6708924710340988,-0.71142578125,-2.6630859375,-0.59765625,42.506470588235295,416.3882149725011
-0.2515654296875,-0.0068095703124999,0.6228564453125001,0.6717750271698262,-0.2138671875,-2.75341796875,-0.1943359375,42.60058823529412,416.3882149725011
-0.1895537109375,0.0337177734375,0.6111376953125001,0.6407470485360304,0.47412109375,-2.3291015625,-0.11572265625,42.506470588235295,416.3882149725011
-0.1417021484375,0.0337177734375,0.6204150390625001,0.6372842441268334,0.58447265625,-1.64453125,-0.11669921875,42.31823529411765,416.3882149725011
-0.0435576171875,0.0259052734375,0.6199267578125001,0.6219948024371607,0.396484375,-0.8095703125,-0.07275390625,42.74176470588235,415.96921080713145
-0.0030302734374999,0.0410419921875,0.6082080078125001,0.6095987273994877,0.623046875,0.3173828125,-0.10546875,42.31823529411765,415.96921080713145
0.0804658203125,0.0512958984375,0.5706103515625001,0.5785345199254351,0.38134765625,1.36767578125,0.31005859375,43.25941176470588,415.96921080713145
0.1727509765625,0.0635029296875,0.5354541015625001,0.5662036884923103,0.5810546875,2.22265625,0.65771484375,41.89470588235295,415.96921080713145
0.2401337890625,0.0439716796875,0.4021533203125,0.4704519511091665,0.6552734375,2.52197265625,0.5205078125,42.41235294117647,416.334292265684
0.2816376953125,2.6367187500001e-05,0.3333056640625,0.4363627594242081,0.57275390625,2.03173828125,0.18701171875,42.31823529411765,416.334292265684
0.2899384765625,-0.0610087890625,0.3372119140625,0.4488855839965803,0.51513671875,1.064453125,-0.21728515625,41.84764705882353,416.334292265684
0.2191376953125,-0.1591533203125,0.4002001953125,0.483230074810675,0.5791015625,0.47998046875,0.150390625,42.45941176470589,416.334292265684
0.2054658203125,-0.2182353515625,0.4680712890625,0.5558179590773646,0.76171875,-0.01611328125,1.0810546875,41.89470588235295,416.334292265684
0.1830048828125,-0.2568095703125,0.6692431640625001,0.7398164334358179,1.32177734375,-0.9228515625,2.09130859375,43.25941176470588,416.5362924818402
0.1678681640625,-0.3100322265625,0.9451220703125,1.0087395252515894,2.37841796875,-1.9169921875,2.6611328125,42.506470588235295,416.5362924818402
0.1873994140625,-0.3363994140625,1.0930712890625005,1.1589167136361946,3.1650390625,-1.86767578125,3.0830078125,42.60058823529412,416.5362924818402
0.3949189453125,-0.2978251953125,1.2883837890625005,1.380070146133417,3.0419921875,-2.8544921875,3.462890625,42.60058823529412,416.5362924818402
0.7840791015625,-0.2382548828125,1.5261767578125005,1.7322704531273776,3.1591796875,-4.99658203125,2.0087890625,41.84764705882353,416.6123139896393
0.8963837890625,-0.3710673828125,1.6008837890625005,1.8719037918558927,2.5771484375,-6.4267578125,-0.54931640625,42.64764705882353,416.6123139896393
0.4417939453125,-0.3910869140625,1.7087939453125005,1.8077908098013924,1.1376953125,-5.4111328125,-1.07763671875,42.506470588235295,416.6123139896393
-0.1314482421875,-0.3437236328125,1.7683642578125005,1.8062493527851464,-0.96728515625,-0.50390625,0.37841796875,42.224117647058826,416.6123139896393
-0.2383818359375,-0.1816142578125,1.8777392578125005,1.901503183977339,-2.31494140625,3.91064453125,2.6572265625,41.89470588235295,416.6123139896393
-0.0762724609375,0.0356708984375,1.8752978515625005,1.877187239826579,-2.310546875,6.07275390625,3.79931640625,41.84764705882353,417.0313413932858
0.0374970703125,0.1572529296875,1.6521533203125005,1.6600437066526117,-1.865234375,6.37548828125,2.7568359375,42.45941176470589,417.0313413932858
0.0907197265625,0.2290302734375,1.5647509765625005,1.584023533155909,-1.4228515625,3.95068359375,1.4345703125,42.41235294117647,417.0313413932858
0.0570283203125,0.2285419921875,1.5750048828125005,1.5925212878934818,-0.71728515625,2.291015625,0.65625,42.31823529411765,417.0313413932858
-0.0606474609375,0.1289326171875,1.2878955078125005,1.2957532841311272,-0.4169921875,1.77685546875,1.3740234375,42.74176470588235,416.472641281166
-0.0870146484375,0.0498310546875,1.1824267578125005,1.1866708560695975,-0.201171875,0.98046875,2.5537109375,43.25941176470588,416.472641281166
-0.0401396484375,0.0249287109375,1.0466845703125005,1.0477505532024094,0.02099609375,-0.74560546875,3.66552734375,42.31823529411765,416.472641281166
0.0374970703125,0.0132099609375,0.9978564453125,0.9986480955780616,0.0625,-2.8388671875,4.31103515625,41.84764705882353,416.472641281166
0.0526337890625,0.0215107421875,1.0325244140625005,1.034088822788276,0.10302734375,-4.1435546875,4.0146484375,42.31823529411765,416.472641281166
-0.0538115234375,-0.0302470703125,1.0979541015625005,1.0996880350604308,0.2529296875,-4.43359375,3.2294921875,42.41235294117647,416.2706434159321
-0.1480498046875,-0.0898173828125,1.1169970703125005,1.1303399320602645,0.2177734375,-4.2900390625,3.24658203125,42.506470588235295,416.2706434159321
-0.1763701171875,-0.0629619140625,1.1658251953125005,1.180770514064683,0.39501953125,-2.81494140625,3.38232421875,43.21235294117647,416.2706434159321
-0.0938505859375,-0.0317119140625,1.0960009765625005,1.1004688630762225,-0.1435546875,-1.42431640625,3.1943359375,43.21235294117647,416.2706434159321
-0.0376982421875,0.0112568359375,1.0051806640625005,1.005950317473224,-0.9267578125,-1.01025390625,2.69921875,42.60058823529412,416.5265646365966
-0.0513701171875,0.0844990234375,0.9226611328125,0.9279453323901116,-1.66650390625,-1.259765625,2.51416015625,41.84764705882353,416.5265646365966
-0.0879912109375,0.1260029296875,0.8787158203125001,0.8920541936225347,-2.09521484375,-1.6884765625,2.29833984375,42.41235294117647,416.5265646365966
-0.1304716796875,0.1352802734375,0.8127978515625001,0.8342445439356605,-2.43212890625,-2.3974609375,1.99560546875,42.64764705882353,416.5265646365966
-0.1622099609375,0.1338154296875,0.7815478515625001,0.8093427487361304,-2.7021484375,-2.71337890625,1.60107421875,42.506470588235295,416.5265646365966
-0.2144560546875,0.1006123046875,0.7693408203125001,0.8049841818605934,-2.7939453125,-2.25732421875,1.31298828125,43.07117647058824,416.4947391749351
-0.1915068359375,0.0820576171875,0.7844775390625001,0.8116731670092582,-2.5400390625,-1.47314453125,1.26318359375,42.506470588235295,416.4947391749351
-0.1539091796875,0.0488544921875,0.7273486328125001,0.745057602238371,-2.1171875,-0.92724609375,1.09619140625,42.60058823529412,416.4947391749351
-0.1119169921875,0.0781513671875,0.6887744140625001,0.7021703801789938,-1.130859375,0.23486328125,1.1162109375,41.89470588235295,416.4947391749351
-0.0269560546875,-0.0405009765625,0.5481494140625001,0.5503042232473724,-0.341796875,1.22021484375,0.80810546875,42.506470588235295,416.5252435949446
0.0370087890625,-0.1152080078125,0.3943408203125,0.4124890520931836,-0.1767578125,1.9140625,0.462890625,42.31823529411765,416.5252435949446
0.0877900390625,-0.1537822265625,0.3103564453125,0.357319447150762,-0.07275390625,2.0458984375,0.14453125,43.21235294117647,416.5252435949446
0.1395478515625,-0.1738017578125,0.2532275390625,0.3373497301526628,0.095703125,1.5546875,-0.0263671875,42.224117647058826,416.5252435949446
0.1869111328125,-0.1210673828125,0.2463916015625,0.3321173046844355,0.32080078125,1.12890625,-0.41796875,42.45941176470589,416.5252435949446
0.2337861328125,-0.0488017578125,0.0896533203125,0.2550985795806584,0.40380859375,0.7734375,-1.11083984375,43.16529411764706,416.8806151284205
0.2723603515625,0.0566669921875,0.2214892578125,0.3555964010407851,0.36669921875,0.365234375,-2.16015625,42.27117647058824,416.8806151284205
0.2879853515625,0.1177021484375,0.2229541015625,0.3827504276482543,0.1806640625,0.40087890625,-3.12890625,43.02411764705882,416.8806151284205
0.3758759765625,0.1904560546875,0.2922900390625,0.5128252387111021,0.02880859375,0.41748046875,-3.94921875,41.84764705882353,416.8806151284205
0.5389619140625,0.2802998046875,0.4758837890625,0.7716950861643778,0.349609375,0.05078125,-4.67578125,43.07117647058824,416.9650481163812
0.6288056640625,0.3579365234375,0.6204150390625001,0.9531159104025748,1.03173828125,0.02197265625,-5.52734375,42.60058823529412,416.9650481163812
0.4706025390625,0.3921162109375,0.7581103515625001,0.974655414902247,1.42431640625,-0.00244140625,-5.06982421875,42.60058823529412,416.9650481163812
0.4422822265625,0.3633076171875,0.9114306640625,1.0762489712111,1.32666015625,-1.38037109375,-3.98193359375,42.506470588235295,416.9650481163812
0.6395478515625,0.3462177734375,1.2615283203125005,1.4561393834495062,0.64990234375,-5.197265625,-3.4814453125,41.84764705882353,416.9650481163812
0.7972626953125,0.2207294921875,1.6169970703125005,1.8163228896475188,0.49658203125,-9.9794921875,-3.8564453125,43.16529411764706,417.2983338729011
0.6873994140625,-0.0185283203125,1.8127978515625005,1.938839163968143,0.49267578125,-11.9228515625,-4.01171875,42.45941176470589,417.2983338729011
0.5238251953125,-0.2514384765625,2.1169970703125003,2.195288304176005,0.693359375,-11.10400390625,-3.064453125,42.41235294117647,417.2983338729011
0.2542939453125,-0.2958720703125,2.2058642578125003,2.240098840789909,1.28125,-6.59765625,-1.0380859375,42.31823529411765,417.2983338729011
0.2425751953125,-0.1391337890625,2.2761767578125003,2.2932905549549565,1.80859375,0.9130859375,0.1337890625,42.224117647058826,416.8682467553452
0.2909150390625,0.0493427734375,2.2463916015625003,2.2656878639419364,2.48583984375,7.9765625,-0.46826171875,43.25941176470588,416.8682467553452
0.0311494140625,0.0625263671875,1.9807666015625005,1.9819980228182768,2.3271484375,12.1318359375,-1.0849609375,42.506470588235295,416.8682467553452
-0.0406279296875,0.0410419921875,1.7625048828125005,1.7634507466133882,1.89013671875,12.193359375,-0.994140625,43.21235294117647,416.8682467553452
0.1610322265625,0.0185810546875,1.5564501953125005,1.564868634765646,1.4521484375,8.49853515625,-1.8984375,42.03588235294118,416.8682467553452
0.0589814453125,0.0107685546875,1.3787158203125005,1.3800188715525523,0.8095703125,5.31591796875,-2.80322265625,42.41235294117647,416.6512288960303
-0.0528349609375,0.0727802734375,1.3425830078125005,1.3455919270587813,0.46630859375,2.0517578125,-3.47021484375,43.02411764705882,416.6512288960303
-0.2637724609375,0.1382099609375,1.5061572265625005,1.5353134844642684,1.095703125,1.56640625,-3.35791015625,42.41235294117647,416.6512288960303
-0.2461943359375,0.0346943359375,1.4480517578125005,1.4692410426127236,1.01513671875,3.158203125,-3.4638671875,42.27117647058824,416.6512288960303
-0.1514677734375,-0.0756572265625,1.2542041015625005,1.2655806693756988,-0.6171875,5.8671875,-4.421875,43.21235294117647,416.6538684749644
-0.0469755859375,-0.0063212890624999,1.2097705078125005,1.210698701553156,-2.05517578125,6.95263671875,-5.29931640625,43.25941176470588,416.6538684749644
0.0614228515625,0.0654560546875,0.9358447265625,0.9401396779331048,-2.609375,5.8935546875,-6.19189453125,43.25941176470588,416.6538684749644
0.0296845703125,0.0698505859375,0.8738330078125001,0.8771227984798312,-2.74658203125,4.12353515625,-6.66943359375,41.84764705882353,416.6538684749644
-0.0235380859375,0.0219990234375,0.8562548828125001,0.8568607954983429,-2.54248046875,1.7783203125,-6.48681640625,43.21235294117647,416.6538684749644
-0.0440458984375,-0.0414775390625,0.8308642578125001,0.8330641285796456,-2.07275390625,-0.373046875,-6.00634765625,42.45941176470589,415.9873390337992
-0.0938505859375,-0.0654033203125,0.8401416015625001,0.8478935295570513,-1.6396484375,-1.6083984375,-5.0537109375,42.41235294117647,415.9873390337992
-0.1622099609375,-0.0531962890625,0.7966845703125001,0.8147688145550118,-0.94677734375,-2.17724609375,-3.947265625,43.25941176470588,415.9873390337992
-0.1587919921875,-0.0278056640625,0.7629931640625001,0.7798375601001383,0.12451171875,-2.8681640625,-2.869140625,43.21235294117647,415.9873390337992
-0.0430693359375,-0.0434306640625,0.7127001953125001,0.7153200393372764,0.95703125,-3.03076171875,-1.73486328125,42.60058823529412,416.1796076698427
0.0526337890625,-0.0527080078125,0.6672900390625001,0.6714346178673476,1.3603515625,-2.4775390625,-0.9716796875,42.45941176470589,416.1796076698427
0.1161103515625,-0.0224345703125,0.5911181640625001,0.6028313259691259,1.28759765625,-1.01025390625,-0.40966796875,42.60058823529412,416.1796076698427
0.0799775390625,0.0307880859375,0.5173876953125001,0.5244371652075861,1.0361328125,0.7958984375,-0.08056640625,42.41235294117647,416.1796076698427
0.1004853515625,0.0381123046875,0.4460986328125,0.4588614647629651,0.75,2.37060546875,0.08837890625,41.84764705882353,416.1796076698427
0.2347626953125,0.0390888671875,0.3997119140625,0.4652000396516526,0.8955078125,3.5771484375,0.3193359375,43.21235294117647,416.1796076698427
0.1380830078125,-0.0058330078124999,0.3108447265625,0.3401843398194618,0.8046875,4.03955078125,0.57470703125,42.41235294117647,416.1796076698427
0.1815400390625,-0.0907939453125,0.2395556640625,0.3139860545830796,0.81787109375,3.61279296875,0.75439453125,43.21235294117647,416.1796076698427
0.1717744140625,-0.1752666015625,0.2551806640625,0.3540367244526503,0.7978515625,2.64208984375,1.576171875,42.64764705882353,416.1796076698427
0.1600556640625,-0.2563212890625,0.2810595703125,0.4126898361837818,0.7783203125,2.28759765625,2.60400390625,42.31823529411765,416.2777256137361
0.1996064453125,-0.3315166015625,0.2800830078125,0.4776949668848714,0.66552734375,2.39599609375,3.16796875,42.31823529411765,416.2777256137361
0.3324189453125,-0.4252666015625,0.2893603515625,0.6124405690869659,0.50634765625,1.9169921875,3.31201171875,42.31823529411765,416.2777256137361
0.3968720703125,-0.4657939453125,0.5178759765625001,0.8016651213471104,0.8076171875,0.5341796875,3.81787109375,41.84764705882353,416.2777256137361
0.2855439453125,-0.4765361328125,0.6751025390625001,0.8742914095592813,1.4501953125,0.1943359375,4.16796875,42.60058823529412,416.2777256137361
0.1200166015625,-0.4364970703125,0.8010791015625001,0.920142056425088,1.31982421875,0.36669921875,4.3876953125,41.84764705882353,416.68305586921167
0.1332001953125,-0.2704814453125,1.0310595703125005,1.074237563029065,1.3203125,-0.65380859375,3.50537109375,42.27117647058824,416.68305586921167
0.3509736328125,-0.1518291015625,1.3108447265625005,1.3654846993531622,1.56591796875,-2.322265625,0.89892578125,42.41235294117647,416.68305586921167
0.4510712890625,-0.0800517578125,1.6477587890625005,1.7102580561652367,1.1044921875,-5.59326171875,-0.34521484375,42.31823529411765,416.68305586921167
0.3294892578125,0.1377216796875,1.9836962890625005,2.0155846296571407,0.1328125,-8.22607421875,0.80224609375,42.506470588235295,416.9305831536999
0.2230439453125,0.2114521484375,2.1213916015625003,2.143539815305354,-1.24072265625,-5.6044921875,1.2861328125,42.45941176470589,416.9305831536999
0.2332978515625,0.1509052734375,2.3923876953125003,2.4084682214589384,-1.51025390625,-0.7119140625,1.15478515625,43.21235294117647,416.9305831536999
0.1004853515625,-0.0370830078125,2.2581103515625003,2.260649202149856,-1.15234375,4.25244140625,2.5625,42.45941176470589,416.9305831536999
-0.0074248046875,-0.0610087890625,1.9153369140625005,1.916322701018276,-1.2041015625,8.47265625,3.927734375,42.224117647058826,416.9305831536999
-0.0391630859375,-0.0463603515625,1.5681689453125005,1.5693428148558446,-2.24755859375,10.8115234375,3.80615234375,41.84764705882353,416.887706593806
-0.1324248046875,-0.0292705078125,1.3069384765625005,1.313956343659725,-3.35546875,9.6962890625,3.67626953125,42.224117647058826,416.887706593806
-0.0884794921875,0.0927998046875,1.1379931640625005,1.1451938114314,-2.86865234375,5.11767578125,3.240234375,42.60058823529412,416.887706593806
-0.1973662109375,0.2241474609375,1.1194384765625005,1.1585931159268663,-1.17529296875,1.17431640625,2.9345703125,42.93,416.887706593806
-0.3296904296875,0.1660419921875,1.1502001953125005,1.207984359126407,-0.375,-1.0908203125,3.28564453125,41.89470588235295,416.3316484141202
-0.4180693359375,0.1743427734375,1.1497119140625005,1.2357244262530218,0.25927734375,-1.13916015625,3.9306640625,42.41235294117647,416.3316484141202
-0.3506865234375,0.1797138671875,1.1155322265625005,1.1830850604583156,0.34521484375,-0.01025390625,4.55322265625,43.02411764705882,416.3316484141202
-0.2505888671875,0.1484638671875,1.0696337890625005,1.108581410146672,-0.1025390625,1.04736328125,4.54833984375,43.07117647058824,416.3316484141202
-0.1485380859375,0.1679951171875,1.0691455078125005,1.0924092819307547,0.525390625,2.44140625,4.51708984375,43.16529411764706,416.3316484141202
-0.1163115234375,-0.0322001953125,0.9402392578125,0.9479531027399596,0.59619140625,3.13427734375,4.96435546875,43.21235294117647,416.2985018531788
0.0457978515625,-0.1191142578125,0.6692431640625001,0.6813017409829142,-0.00146484375,1.7900390625,4.888671875,41.89470588235295,416.2985018531788
0.0389619140625,-0.0180400390625,0.6238330078125001,0.6253088000285786,-0.138671875,-0.1201171875,4.53759765625,42.41235294117647,416.2985018531788
-0.0494169921875,0.0322529296875,0.6433642578125001,0.646064902947773,-0.20654296875,-1.18212890625,4.4306640625,42.45941176470589,416.2985018531788
-0.0855498046875,0.0552021484375,0.6711962890625001,0.6788744395876577,-0.689453125,-2.20458984375,3.7919921875,43.25941176470588,415.9444663021249
-0.1895537109375,0.0825458984375,0.7473681640625001,0.7754376875888761,-0.8359375,-2.57861328125,2.767578125,42.41235294117647,415.9444663021249
-0.2256865234375,0.0664326171875,0.7888720703125001,0.8232052252062156,-0.849609375,-1.77197265625,1.65673828125,43.16529411764706,415.9444663021249
-0.2027373046875,0.0278583984375,0.8025439453125001,0.8282241781264345,-0.83837890625,-0.15869140625,0.5419921875,41.84764705882353,415.9444663021249
-0.1182646484375,0.0141865234375,0.7649462890625001,0.7741644590574913,-0.6298828125,1.708984375,-0.35888671875,42.41235294117647,415.9444663021249
0.0370087890625,-0.0282939453125,0.6155322265625001,0.6172925722428614,-0.34326171875,2.99365234375,-1.115234375,42.27117647058824,416.1367340569532
0.0692353515625,-0.0683330078125,0.5276416015625001,0.5365338699114216,0.06884765625,3.57666015625,-1.43994140625,43.16529411764706,416.1367340569532
0.1468720703125,-0.1064189453125,0.3777392578125,0.4190266624596139,0.185546875,3.29248046875,-1.48583984375,41.84764705882353,416.1367340569532
0.1849580078125,-0.0575908203125,0.2971728515625,0.354736340038659,0.51171875,2.42041015625,-1.70751953125,42.45941176470589,416.1367340569532
0.2171845703125,-0.0273173828125,0.2742236328125,0.3508760148235196,0.77685546875,1.4013671875,-1.89208984375,41.89470588235295,416.8130027544748
0.3207001953125,0.0498310546875,0.2859423828125,0.4325445590609534,0.9189453125,0.64990234375,-2.39306640625,42.506470588235295,416.8130027544748
0.4720673828125,0.0986591796875,0.3845751953125,0.6168300645248264,1.14794921875,0.169921875,-3.39794921875,42.41235294117647,416.8130027544748
0.5628876953125,0.1748310546875,0.5774462890625001,0.8251379714747188,1.48046875,-0.47021484375,-4.8662109375,42.45941176470589,416.8130027544748
0.3045869140625,0.2514912109375,0.7161181640625001,0.8178302038303382,2.05029296875,-0.38671875,-4.9560546875,42.45941176470589,416.8130027544748
0.0438447265625,0.1953388671875,0.7053759765625001,0.7332359111452035,1.7333984375,-0.36865234375,-3.0703125,42.60058823529412,417.1865292762954
0.2401337890625,0.1147724609375,0.9592822265625,0.9955196354858457,1.5751953125,-2.71875,-1.3740234375,41.89470588235295,417.1865292762954
0.6239228515625,0.0556904296875,1.2761767578125005,1.4216217027892777,1.35205078125,-6.65673828125,-1.64892578125,43.21235294117647,417.1865292762954
0.8094697265625,0.0923115234375,1.6179736328125005,1.8115190675388984,-0.05908203125,-9.8642578125,-2.400390625,42.13,417.1865292762954
0.7430634765625,0.0649677734375,2.0608447265625003,2.191676328472578,0.31591796875,-11.46337890625,-2.4921875,41.89470588235295,417.10209113358457
0.4862275390625,-0.0595439453125,2.1843798828125003,2.238633103838614,0.99951171875,-10.861328125,-1.8232421875,43.21235294117647,417.10209113358457
0.1512666015625,0.0307880859375,2.1653369140625003,2.1708324307476325,0.2470703125,-4.75927734375,-0.62109375,42.31823529411765,417.10209113358457
0.0633759765625,0.0058857421875,2.2878955078125003,2.2887806821613483,0.4658203125,2.02392578125,-0.26416015625,43.16529411764706,417.10209113358457
-0.0582060546875,-0.0834697265625,2.2166064453125003,2.2189410252315453,1.791015625,7.35546875,-0.0869140625,42.60058823529412,417.10209113358457
-0.2203154296875,-0.1488994140625,1.9592822265625005,1.9772447413990644,1.35791015625,10.15576171875,1.1552734375,43.25941176470588,417.154700127815
-0.1607451171875,-0.0678447265625,1.4646533203125005,1.475008897710246,-0.01806640625,8.08544921875,1.697265625,42.224117647058826,417.154700127815
-0.0479521484375,0.1098896484375,1.1462939453125005,1.1525471584423723,0.0,2.201171875,0.19921875,42.74176470588235,417.154700127815
-0.0777373046875,0.1015888671875,1.0349658203125005,1.0428411363633694,0.52294921875,-1.46484375,-1.30810546875,42.506470588235295,417.154700127815
-0.1084990234375,0.0595966796875,1.0232470703125005,1.030707703095199,0.2880859375,-2.0615234375,-1.65869140625,42.60058823529412,416.8337814690974
-0.1075224609375,0.0884052734375,1.0007861328125005,1.0104204350701815,-0.22119140625,-1.55224609375,-2.03271484375,42.506470588235295,416.8337814690974
-0.0884794921875,0.0810810546875,0.9397509765625,0.9473830565917716,-0.9140625,-0.78857421875,-2.42822265625,42.45941176470589,416.8337814690974
-0.0293974609375,0.0732685546875,0.8821337890625001,0.885659366585896,-1.7109375,-0.263671875,-3.30615234375,42.45941176470589,416.8337814690974
0.0511689453125,0.1011005859375,0.8718798828125001,0.8792122152782218,-2.205078125,-0.70703125,-4.24462890625,41.84764705882353,416.8337814690974
0.0165009765625,0.0923115234375,0.8235400390625001,0.8288618072549443,-2.3564453125,-1.583984375,-4.97509765625,42.45941176470589,416.28613200968806
0.0121064453125,0.0376240234375,0.7781298828125001,0.7791330102643098,-2.49267578125,-2.275390625,-5.3076171875,42.31823529411765,416.28613200968806
0.0409150390625,0.0136982421875,0.7859423828125001,0.7871258548424792,-2.41552734375,-2.93798828125,-5.234375,41.98882352941177,416.28613200968806
0.0160126953125,-0.0019267578124999,0.7732470703125001,0.7734152510480404,-1.974609375,-3.4638671875,-4.8212890625,43.21235294117647,416.28613200968806
0.0086884765625,-0.0600322265625,0.7346728515625001,0.7371726776502258,-1.3837890625,-3.5615234375,-4.01171875,41.89470588235295,416.1256852561131
-0.0181669921875,-0.1127666015625,0.6873095703125001,0.6967358118227093,-0.80029296875,-3.85302734375,-3.0791015625,43.21235294117647,416.1256852561131
-0.0743193359375,-0.0834697265625,0.6897509765625001,0.6987467127761905,0.01806640625,-4.63427734375,-2.3583984375,42.41235294117647,416.1256852561131
-0.0738310546875,-0.0483134765625,0.7849658203125001,0.7899092072591001,1.46142578125,-4.65966796875,-1.48193359375,42.45941176470589,416.1256852561131
-0.0245146484375,-0.0741923828125,0.8254931640625001,0.8291829964304192,1.9384765625,-3.46875,-0.39794921875,41.89470588235295,416.1256852561131
-0.0694365234375,-0.0722392578125,0.7302783203125001,0.7371203200799946,1.4794921875,-1.2568359375,0.30126953125,41.89470588235295,416.113315107424
0.0326142578125,0.0312763671875,0.6941455078125001,0.6956147547122481,0.9609375,0.05322265625,0.5830078125,41.84764705882353,416.113315107424
0.1239228515625,0.0664326171875,0.6628955078125001,0.6776434313440621,0.84765625,0.689453125,0.33203125,42.506470588235295,416.113315107424
0.1991181640625,0.0615498046875,0.6243212890625001,0.6581895575693615,0.4599609375,1.26416015625,-0.03173828125,42.41235294117647,416.113315107424
0.1732392578125,0.0566669921875,0.6335986328125001,0.6592952418703424,0.23486328125,1.63818359375,0.08935546875,43.07117647058824,416.63886109720096
0.1561494140625,0.0224873046875,0.5842822265625001,0.6052057820782971,-0.021484375,1.6923828125,0.18359375,43.16529411764706,416.63886109720096
0.1307587890625,-0.0136455078124999,0.5715869140625001,0.5865114330753018,-0.06787109375,1.0615234375,0.42041015625,42.41235294117647,416.63886109720096
0.1302705078125,-0.0683330078125,0.5994189453125001,0.6172057008501944,0.0625,0.12646484375,0.78076171875,42.60058823529412,416.63886109720096
0.1136689453125,-0.1357158203125,0.6765673828125001,0.6993445763694082,0.34765625,-0.35791015625,1.142578125,42.45941176470589,416.63886109720096
0.1004853515625,-0.1972392578125,0.7576220703125001,0.7892983163073793,0.7021484375,-0.212890625,1.833984375,42.64764705882353,416.57388805445146
0.1537080078125,-0.2538798828125,0.8835986328125001,0.9321092695980956,1.142578125,-0.01611328125,2.41015625,43.16529411764706,416.57388805445146
0.2923798828125,-0.3271220703125,1.0095751953125005,1.1007892258508258,2.10791015625,0.203125,2.5751953125,41.89470588235295,416.57388805445146
0.4325166015625,-0.4321025390625,1.0691455078125005,1.2316068089155252,2.375,0.4619140625,2.9091796875,42.506470588235295,416.57388805445146
0.5130830078125,-0.4223369140625,1.0916064453125005,1.2779778062758171,2.3271484375,-0.267578125,3.81103515625,41.84764705882353,416.9513624575817
0.6214814453125,-0.3637431640625,1.0950244140625005,1.310582597039513,1.8232421875,-1.869140625,4.12158203125,42.45941176470589,416.9513624575817
0.6327119140625,-0.3183330078125,1.2903369140625005,1.4719475608362962,1.7451171875,-2.48388671875,2.70751953125,43.25941176470588,416.9513624575817
0.4481416015625,-0.2792705078125,1.3425830078125005,1.4426891711147325,0.4619140625,-1.69677734375,1.40478515625,43.21235294117647,416.9513624575817
0.2254853515625,-0.2099345703125,1.4695361328125005,1.5014834708457756,-0.63818359375,-0.689453125,1.85693359375,41.84764705882353,416.9513624575817
0.1449189453125,-0.0629619140625,1.5618212890625005,1.5697934393740316,-1.26513671875,0.2158203125,2.50146484375,42.45941176470589,417.0799937372392
0.2293916015625,0.0952412109375,1.7073291015625005,1.7253011494143464,-1.5498046875,0.47998046875,2.33056640625,41.84764705882353,417.0799937372392
0.2513642578125,0.1728779296875,1.5657275390625005,1.5951719328202143,-1.7958984375,0.88671875,1.41943359375,42.45941176470589,417.0799937372392
0.1961884765625,0.1997333984375,1.5188525390625005,1.544440476096088,-2.07861328125,1.02734375,0.841796875,43.07117647058824,417.0799937372392
0.1273408203125,0.3374287109375,1.4910205078125005,1.534019548180612,-1.876953125,1.32666015625,1.169921875,42.506470588235295,417.0468477472037
0.1165986328125,0.1230732421875,1.3469775390625005,1.3576047859576648,-1.61572265625,1.26171875,1.7021484375,43.07117647058824,417.0468477472037
0.1395478515625,0.0649677734375,1.2815478515625005,1.290759199194643,-1.20751953125,0.64013671875,2.216796875,41.84764705882353,417.0468477472037
0.1214814453125,-0.0009501953124999,1.1604541015625005,1.166795768872846,-0.876953125,-0.2373046875,2.9677734375,42.64764705882353,417.0468477472037
