AccX,AccY,AccZ,Magnitude,GyroX,GyroY,GyroZ,Temperature,Altitude
-0.0489287109375,-0.1669658203125,1.2009814453125005,1.2135188650744304,-0.048828125,-1.28955078125,-5.2314453125,43.16529411764706,453.1066852887437
-0.0215849609375,-0.1606181640625,1.1648486328125005,1.1760682133833191,-0.28564453125,-1.28857421875,-4.73046875,43.118235294117646,453.1066852887437
0.0204072265625,-0.1069072265625,1.1003955078125005,1.1057648410042658,-0.298828125,-1.11669921875,-4.56982421875,43.91823529411765,453.1066852887437
0.0414033203125,-0.0761455078125,1.0823291015625005,1.0857940216182864,-0.5947265625,-0.93798828125,-4.748046875,44.01235294117648,453.1066852887437
-0.0484404296875,-0.0702861328125,0.9807666015625,0.9844743482866892,-0.697265625,0.27734375,-5.037109375,43.02411764705882,452.8958059190551
-0.0093779296875,-0.0370830078125,0.8342822265625001,0.8351586248083225,-0.63671875,0.478515625,-5.27734375,43.118235294117646,452.8958059190551
-0.0025419921874999,-0.0492900390625,0.7947314453125001,0.7962625445439208,-0.85546875,0.65087890625,-5.283203125,42.83588235294118,452.8958059190551
-0.0381865234375,-0.0668681640625,0.6643603515625001,0.668808073116332,-0.93603515625,0.474609375,-5.2373046875,43.30647058823529,452.8958059190551
-0.0914091796875,-0.0571025390625,0.6936572265625001,0.7019805453578508,-0.9228515625,0.32080078125,-4.7001953125,43.30647058823529,452.8958059190551
-0.1075224609375,-0.0405009765625,0.6721728515625001,0.6819221004530027,-0.6748046875,1.11474609375,-4.21923828125,43.16529411764706,453.77419886591474
-0.0821318359375,-0.0356181640625,0.5984423828125001,0.6051012953481015,-0.44189453125,1.20947265625,-3.662109375,43.25941176470588,453.77419886591474
-0.1285185546875,-0.0810283203125,0.5344775390625001,0.5556517320713895,-0.302734375,1.5400390625,-2.80322265625,43.49470588235295,453.77419886591474
-0.0884794921875,-0.0854228515625,0.5061572265625001,0.5208846533622091,-0.447265625,1.3583984375,-2.2177734375,42.83588235294118,453.77419886591474
-0.0669951171875,-0.0590556640625,0.5100634765625001,0.5178230077042287,-0.4384765625,1.28125,-2.22900390625,43.87117647058824,454.2134356966297
-0.0762724609375,-0.0663798828125,0.5081103515625001,0.5180732636458198,-0.26416015625,1.23876953125,-2.31298828125,43.87117647058824,454.2134356966297
-0.1182646484375,-0.0922587890625,0.5203173828125001,0.5415056694866399,-0.3203125,1.10498046875,-2.21533203125,42.69470588235294,454.2134356966297
-0.1026396484375,-0.0844462890625,0.5232470703125001,0.5398643994174975,-0.23095703125,0.625,-2.19091796875,43.25941176470588,454.2134356966297
-0.1358427734375,-0.0927470703125,0.5872119140625001,0.6098139963658499,-0.41943359375,0.36376953125,-1.83349609375,43.87117647058824,454.2134356966297
-0.1441435546875,-0.1093486328125,0.6331103515625001,0.658455165604693,-0.326171875,-0.08642578125,-1.1962890625,42.55352941176471,453.8779023186912
-0.0972685546875,-0.0780986328125,0.7043994140625001,0.7153594220458485,-0.4345703125,-0.2490234375,-0.5517578125,43.91823529411765,453.8779023186912
-0.0904326171875,-0.0531962890625,0.7693408203125001,0.7764619766740111,-0.45068359375,-0.83203125,0.26416015625,43.25941176470588,453.8779023186912
-0.0987333984375,-0.0209697265625,0.7878955078125001,0.7943345294208489,-0.51611328125,-1.5068359375,1.04248046875,42.97705882352941,453.8779023186912
-0.1475615234375,0.0102802734375,0.8665087890625001,0.8790435533827126,-0.7744140625,-1.9794921875,1.43896484375,43.447647058823534,453.3702101165274
-0.1216826171875,0.0835224609375,0.9602587890625,0.9715346637039952,-0.9951171875,-1.97265625,0.8994140625,42.97705882352941,453.3702101165274
-0.1656279296875,0.0849873046875,1.0623095703125005,1.0784976014012002,-1.333984375,-2.25048828125,0.83740234375,43.87117647058824,453.3702101165274
-0.1661162109375,0.0967060546875,1.1589892578125005,1.1748203080787394,-1.4140625,-2.65087890625,0.99169921875,42.97705882352941,453.3702101165274
-0.1421904296875,0.1494404296875,1.2366259765625005,1.253712234218466,-1.32470703125,-2.71875,1.2158203125,43.73,453.3702101165274
-0.1500029296875,0.2168232421875,1.2737353515625005,1.3007363080530885,-0.8251953125,-2.0654296875,1.00244140625,43.118235294117646,452.4233508687688
-0.2051787109375,0.2207294921875,1.3074267578125005,1.3417095584318657,-0.279296875,-0.69189453125,0.73486328125,43.447647058823534,452.4233508687688
-0.2369169921875,0.2300068359375,1.2488330078125005,1.2917494676473331,-0.14111328125,0.5224609375,0.3046875,43.30647058823529,452.4233508687688
-0.3355498046875,0.1723896484375,1.1799853515625005,1.2388209282282494,-0.23876953125,1.400390625,0.1435546875,43.447647058823534,452.4233508687688
-0.3902373046875,0.1260029296875,1.1960986328125005,1.264442102935334,-0.3134765625,2.3330078125,0.13427734375,43.16529411764706,451.9157138704954
-0.3667998046875,0.0542255859375,1.1824267578125005,1.239199559586766,-0.205078125,2.6728515625,0.3154296875,43.73,451.9157138704954
-0.3296904296875,-0.0234111328125,1.1843798828125005,1.2296339160002236,-0.216796875,2.572265625,0.8974609375,43.25941176470588,451.9157138704954
-0.2457060546875,-0.0346416015625,1.3225634765625005,1.3456394968214922,-0.31494140625,2.64453125,1.328125,43.91823529411765,451.9157138704954
-0.1417021484375,-0.0654033203125,1.4636767578125005,1.471973758101759,-0.3623046875,2.04248046875,1.576171875,43.118235294117646,451.9157138704954
0.0331025390625,-0.1039775390625,1.5349658203125005,1.5388395550704774,-0.33349609375,1.08837890625,1.86328125,42.60058823529412,451.7744476804208
0.1512666015625,-0.1147197265625,1.5002978515625005,1.5122618304426971,-0.099609375,0.97119140625,2.05517578125,43.68294117647059,451.7744476804208
0.2826142578125,-0.0829814453125,1.4504931640625005,1.4800970096507542,0.1884765625,1.138671875,1.8642578125,43.02411764705882,451.7744476804208
0.3421845703125,-0.0888408203125,1.2708056640625005,1.3190640649062806,0.02978515625,1.14404296875,1.2939453125,44.01235294117648,451.7744476804208
0.3036103515625,-0.1625712890625,1.2127001953125005,1.2606547637296754,0.1650390625,0.91845703125,1.2880859375,43.16529411764706,452.6572625467365
0.3250947265625,-0.2455791015625,1.1160205078125005,1.188064581670989,0.2958984375,0.30615234375,1.365234375,43.30647058823529,452.6572625467365
0.3465791015625,-0.2724345703125,1.0769580078125005,1.163690774790578,0.328125,-0.5,1.19189453125,43.118235294117646,452.6572625467365
0.3075166015625,-0.2807353515625,1.0686572265625005,1.1469119694805372,0.17822265625,-1.85791015625,0.7666015625,44.01235294117648,452.6572625467365
0.2088837890625,-0.2709697265625,1.1321337890625005,1.1827019685379223,-0.23779296875,-3.26611328125,0.39306640625,43.353529411764704,452.6572625467365
0.2362275390625,-0.2367900390625,1.2263720703125005,1.271165381708184,-0.64697265625,-4.412109375,0.20556640625,43.777058823529416,453.3447882709648
0.0140595703125,-0.1479228515625,1.3181689453125005,1.326517323640375,-0.9052734375,-4.103515625,0.17578125,42.60058823529412,453.3447882709648
-0.0132841796875,-0.0400126953125,1.3694384765625005,1.3700873060889085,-0.80126953125,-2.50732421875,0.24560546875,43.353529411764704,453.3447882709648
-0.0372099609375,0.0527607421875,1.3762744140625005,1.3777879154326418,-0.42822265625,-0.7548828125,0.34228515625,43.25941176470588,453.3447882709648
-0.0401396484375,0.0835224609375,1.2644580078125005,1.267849062932532,-0.2109375,0.1962890625,0.57275390625,43.25941176470588,453.55999843023307
-0.0396513671875,0.1045185546875,1.2214892578125005,1.2265938065003976,-0.20703125,1.08544921875,0.88623046875,43.02411764705882,453.55999843023307
0.0013642578125,0.1050068359375,1.1550830078125005,1.1598469949653518,-0.1552734375,1.79736328125,1.0126953125,43.25941176470588,453.55999843023307
0.0277314453125,0.1030537109375,1.0457080078125005,1.051139542591895,-0.02392578125,2.39111328125,1.19921875,42.69470588235294,453.55999843023307
0.0350556640625,-0.0263408203125,0.9412158203125,0.9422366787618336,0.17431640625,2.84619140625,1.45166015625,43.16529411764706,453.55999843023307
0.0643525390625,0.0884052734375,0.8157275390625001,0.8230237904461283,0.34765625,2.90966796875,1.48583984375,42.60058823529412,453.15054553873296
0.0423798828125,0.0825458984375,0.7351611328125001,0.7409937725880115,0.4912109375,2.79443359375,1.26904296875,44.01235294117648,453.15054553873296
-0.0210966796875,0.0405537109375,0.6775439453125001,0.6790842887258307,0.50830078125,2.93505859375,1.00830078125,42.69470588235294,453.15054553873296
-0.0669951171875,-0.0014384765624999,0.6077197265625001,0.6114030430043569,0.57177734375,2.99951171875,0.845703125,43.25941176470588,453.15054553873296
-0.0918974609375,-0.0322001953125,0.5745166015625001,0.582710323725131,0.5263671875,2.92431640625,0.85791015625,42.69470588235294,453.1086197163538
-0.0835966796875,-0.0605205078125,0.5491259765625001,0.558740078083161,0.57666015625,2.353515625,0.81494140625,43.16529411764706,453.1086197163538
-0.0777373046875,-0.0771220703125,0.5413134765625001,0.5522781746344352,0.51806640625,1.533203125,0.5849609375,43.25941176470588,453.1086197163538
-0.0723662109375,-0.0741923828125,0.5330126953125001,0.5429953144522919,0.46044921875,0.740234375,0.1953125,43.87117647058824,453.1086197163538
-0.0723662109375,-0.0707744140625,0.5212939453125001,0.5310303791599994,0.326171875,-0.396484375,-0.12158203125,42.55352941176471,453.1086197163538
-0.0821318359375,-0.0663798828125,0.5383837890625001,0.5486428999285056,0.1875,-1.076171875,-0.29833984375,43.73,453.8822662406413
-0.1050810546875,-0.0712626953125,0.5593798828125001,0.5736081006164102,0.08837890625,-1.3388671875,-0.2236328125,42.60058823529412,453.8822662406413
-0.1255888671875,-0.0673564453125,0.6047900390625001,0.6213537202236707,0.078125,-1.2861328125,0.02880859375,43.16529411764706,453.8822662406413
-0.1299833984375,-0.0561259765625,0.6375048828125001,0.6530377360644909,0.14208984375,-1.08837890625,0.20458984375,42.55352941176471,453.8822662406413
-0.1392607421875,-0.0551494140625,0.6672900390625001,0.6838940037886597,0.14794921875,-0.84228515625,0.25048828125,42.788823529411765,453.8270725489125
-0.1485380859375,-0.0468486328125,0.6926806640625001,0.7099752529042422,0.1572265625,-0.59814453125,0.17919921875,43.777058823529416,453.8270725489125
-0.1700224609375,-0.0424541015625,0.7107470703125001,0.7320323667164756,0.12451171875,-0.5068359375,-0.01611328125,42.60058823529412,453.8270725489125
-0.1841826171875,-0.0365947265625,0.7297900390625001,0.7535621484662475,0.0869140625,-0.716796875,-0.17822265625,43.30647058823529,453.8270725489125
-0.1783232421875,-0.0331767578125,0.7727587890625001,0.7937606831007394,0.00341796875,-0.99951171875,-0.33935546875,42.97705882352941,453.8270725489125
-0.1729521484375,-0.0204814453125,0.8289111328125001,0.8470098000328793,-0.009765625,-1.17529296875,-0.5126953125,43.118235294117646,453.19247237577866
-0.1568388671875,-0.0204814453125,0.8865283203125001,0.9005278355380526,0.01123046875,-1.24658203125,-0.65478515625,43.30647058823529,453.19247237577866
-0.1539091796875,-0.0263408203125,0.9534228515625,0.9661247374373476,0.11083984375,-1.34423828125,-0.76416015625,43.73,453.19247237577866
-0.1431669921875,-0.0365947265625,1.0266650390625005,1.0372449392970808,0.2236328125,-1.62451171875,-0.72265625,42.788823529411765,453.19247237577866
-0.1255888671875,-0.0492900390625,1.0808642578125005,1.0892518603742614,0.36572265625,-1.8671875,-0.5732421875,43.91823529411765,452.439835688672
-0.1055693359375,-0.0693095703125,1.1233447265625005,1.1304211940347575,0.51318359375,-1.77294921875,-0.36669921875,43.25941176470588,452.439835688672
-0.1084990234375,-0.1093486328125,1.1682666015625005,1.1783785528900497,0.59716796875,-1.2529296875,-0.12255859375,42.55352941176471,452.439835688672
-0.1133818359375,-0.1249736328125,1.2107470703125005,1.2224493109692582,0.6708984375,-0.8232421875,0.0498046875,43.30647058823529,452.439835688672
-0.1602568359375,-0.1425517578125,1.2761767578125005,1.2940751038100369,0.66748046875,-0.64599609375,0.19189453125,43.25941176470588,452.439835688672
-0.2129912109375,-0.1542705078125,1.3279345703125005,1.353726290114953,0.68310546875,-0.77880859375,0.302734375,43.118235294117646,451.61990151245726
-0.2442412109375,-0.1464580078125,1.3821337890625005,1.4111688517115473,0.63427734375,-0.74853515625,0.072265625,43.25941176470588,451.61990151245726
-0.2706083984375,-0.1332744140625,1.4109423828125005,1.442826871930665,0.4248046875,0.32763671875,-0.44873046875,43.73,451.61990151245726
-0.2588896484375,-0.0746806640625,1.3977587890625005,1.4234924250077257,0.4462890625,0.85400390625,-0.97314453125,43.118235294117646,451.61990151245726
-0.3370146484375,-0.0141337890624999,1.4812548828125005,1.5191756531456753,0.45263671875,1.01025390625,-0.90625,42.55352941176471,450.9743937701791
-0.3179716796875,0.0478779296875,1.5920947265625005,1.6242425630374837,0.509765625,0.625,-0.69140625,42.97705882352941,450.9743937701791
-0.1954130859375,0.1006123046875,1.6448291015625005,1.6594492711008215,0.462890625,-0.025390625,-0.68115234375,42.97705882352941,450.9743937701791
-0.0069365234375,0.1255146484375,1.5994189453125005,1.6043512723073892,0.36962890625,-0.1201171875,-0.8388671875,42.97705882352941,450.9743937701791
0.2953095703125,0.1050068359375,1.4690478515625005,1.5021104380478008,0.20166015625,0.69677734375,-1.1376953125,43.87117647058824,450.9743937701791
0.4623017578125,0.0786396484375,1.4485400390625005,1.5225555340775228,0.14208984375,1.4853515625,-1.16259765625,42.60058823529412,451.3925677425253
0.4994111328125,0.0942646484375,1.3611376953125005,1.4529257135596214,0.23095703125,1.4912109375,-1.15283203125,42.97705882352941,451.3925677425253
0.5033173828125,0.1499287109375,1.1926806640625005,1.303186161925138,-0.19921875,1.15478515625,-1.97509765625,43.118235294117646,451.3925677425253
0.4686494140625,0.1465107421875,1.0867236328125005,1.1925040565929554,-0.55908203125,0.8037109375,-3.0380859375,42.60058823529412,451.3925677425253
0.4051728515625,0.1064716796875,1.0232470703125005,1.105683419936231,-0.8232421875,0.3369140625,-3.501953125,42.55352941176471,453.4043441185533
0.2464814453125,0.0766865234375,1.0535205078125005,1.0846840028975155,-0.82275390625,-0.1806640625,-2.72412109375,43.777058823529416,453.4043441185533
0.0521455078125,0.1089130859375,1.1375048828125005,1.1438962246181832,-0.59033203125,-0.16650390625,-0.83837890625,43.87117647058824,453.4043441185533
-0.0665068359375,0.1313740234375,1.1941455078125005,1.2031898383419586,-0.078125,0.48681640625,0.8203125,43.87117647058824,453.4043441185533
-0.0997099609375,0.1201435546875,1.0916064453125005,1.10271536739582,0.19970703125,1.212890625,1.373046875,44.01235294117648,453.4043441185533
-0.1148466796875,0.0630146484375,1.2205126953125005,1.2275226454823265,0.3427734375,1.80517578125,1.173828125,43.16529411764706,454.3844425130335
-0.1031279296875,-0.0151103515624999,1.2048876953125005,1.2093874693089228,0.509765625,2.1298828125,0.91357421875,43.25941176470588,454.3844425130335
-0.0430693359375,-0.0995830078125,1.1487353515625005,1.1538477590533782,0.54443359375,2.4501953125,0.78466796875,43.25941176470588,454.3844425130335
0.0750947265625,-0.1601298828125,1.0579150390625005,1.0725973276125824,0.26806640625,1.9580078125,0.56884765625,43.02411764705882,454.3844425130335
0.1766572265625,-0.1625712890625,0.9934619140625,1.022058596371521,-0.1767578125,1.3046875,0.091796875,43.25941176470588,454.3844425130335
0.1805634765625,-0.1415751953125,0.9373095703125,0.964984940605558,-0.4443359375,0.771484375,-0.42138671875,43.353529411764704,453.5456230311104
0.0848603515625,-0.1113017578125,0.9168017578125,0.927423756266548,-0.44921875,0.60888671875,-0.666015625,43.16529411764706,453.5456230311104
-0.0474638671875,-0.0903056640625,0.9182666015625,0.923916383227024,-0.4873046875,1.43408203125,-0.630859375,43.118235294117646,453.5456230311104
-0.0792021484375,-0.0639384765625,0.8586962890625001,0.8647082895126875,-0.4208984375,2.10498046875,-0.50537109375,43.16529411764706,453.5456230311104
-0.0879912109375,-0.0341533203125,0.7688525390625001,0.7746245085933371,-0.49365234375,2.56201171875,-0.31005859375,43.25941176470588,453.1030491884351
-0.0914091796875,0.0010029296875,0.6760791015625001,0.6822313358155406,-0.60791015625,2.828125,-0.17626953125,43.16529411764706,453.1030491884351
-0.0914091796875,0.0195576171875,0.6350634765625001,0.6419063465840197,-0.6552734375,2.97314453125,-0.16650390625,44.01235294117648,453.1030491884351
-0.0665068359375,0.0317646484375,0.5842822265625001,0.5889124488356552,-0.58642578125,2.646484375,-0.11474609375,42.60058823529412,453.1030491884351
-0.0572294921875,0.0405537109375,0.5540087890625001,0.558431335622688,-0.49658203125,2.08251953125,-0.033203125,43.353529411764704,453.1030491884351
-0.0523466796875,0.0298115234375,0.5125048828125001,0.5160330965264,-0.3876953125,1.40771484375,0.123046875,42.69470588235294,453.7696589048911
-0.0503935546875,0.0288349609375,0.5110400390625001,0.514327606542086,-0.27685546875,0.95849609375,0.34033203125,43.777058823529416,453.7696589048911
-0.0494169921875,0.0254169921875,0.5159228515625001,0.5189069775721852,-0.1591796875,0.82421875,0.53271484375,43.25941176470588,453.7696589048911
-0.0469755859375,0.0219990234375,0.5232470703125001,0.5258119048642675,-0.12158203125,0.765625,0.65625,43.16529411764706,453.7696589048911
-0.0440458984375,0.0176044921875,0.5310595703125001,0.5331737301619833,-0.12060546875,0.6669921875,0.78173828125,43.118235294117646,454.09305055046656
-0.0562529296875,0.0151630859375,0.5510791015625001,0.5541502390620319,-0.19384765625,0.59375,0.8037109375,42.55352941176471,454.09305055046656
-0.0821318359375,-0.0019267578124999,0.5857470703125001,0.5914803303997601,-0.21142578125,0.38134765625,0.98876953125,42.55352941176471,454.09305055046656
-0.1089873046875,0.0014912109375,0.6155322265625001,0.6251082932021419,-0.2353515625,0.12548828125,1.31982421875,43.91823529411765,454.09305055046656
-0.1363310546875,0.0141865234375,0.6589892578125001,0.6730930513916471,-0.16015625,-0.10009765625,1.7177734375,43.16529411764706,454.09305055046656
-0.1651396484375,0.0161396484375,0.7166064453125001,0.7355653534534946,-0.11279296875,-0.384765625,2.10009765625,43.25941176470588,453.704537647629
-0.1895537109375,0.0268818359375,0.7527392578125001,0.7767043405863401,-0.07958984375,-0.81787109375,2.36181640625,43.87117647058824,453.704537647629
-0.2212919921875,0.0429951171875,0.8342822265625001,0.8642022676817981,-0.1279296875,-1.10546875,2.5283203125,43.87117647058824,453.704537647629
-0.2276396484375,0.0527607421875,0.9128955078125,0.9423278164424346,-0.140625,-1.3154296875,2.53857421875,43.16529411764706,453.704537647629
-0.2334990234375,0.0522724609375,0.9963916015625,1.0247196825390896,-0.1953125,-1.5029296875,2.45654296875,43.30647058823529,453.11186259244806
-0.1744169921875,0.0400654296875,1.0588916015625005,1.0739077938442272,-0.34619140625,-1.70263671875,2.25439453125,43.16529411764706,453.11186259244806
-0.1026396484375,0.0483662109375,1.1223681640625005,1.1280888632961732,-0.52099609375,-1.501953125,1.875,43.118235294117646,453.11186259244806
-0.0777373046875,0.0781513671875,1.1746142578125005,1.1797751393336628,-0.50439453125,-0.9208984375,1.40478515625,43.118235294117646,453.11186259244806
-0.1187529296875,0.1172138671875,1.2092822265625005,1.2207394695226217,-0.3603515625,-0.26220703125,1.15087890625,43.25941176470588,453.11186259244806
-0.2046904296875,0.1660419921875,1.2498095703125005,1.277298742354334,-0.11572265625,0.48046875,1.05126953125,43.02411764705882,452.57329517905873
-0.2569365234375,0.1958271484375,1.2610400390625005,1.301762892872609,-0.0458984375,1.00537109375,0.77880859375,43.87117647058824,452.57329517905873
-0.3082060546875,0.2070576171875,1.2722705078125005,1.3253437569290756,0.00537109375,1.20556640625,0.380859375,43.16529411764706,452.57329517905873
-0.3536162109375,0.1860615234375,1.2581103515625005,1.32003976146569,0.01611328125,1.35595703125,0.28466796875,43.25941176470588,452.57329517905873
-0.4053740234375,0.1220966796875,1.2942431640625005,1.361727236193479,0.01123046875,1.58349609375,0.62890625,43.02411764705882,451.56134854830856
-0.3946318359375,0.0581318359375,1.3230517578125005,1.3818753743140564,0.146484375,1.70703125,1.29150390625,44.01235294117648,451.56134854830856
-0.3755888671875,-0.0033916015624999,1.3816455078125005,1.431790071684676,0.1005859375,1.71728515625,1.60888671875,43.118235294117646,451.56134854830856
-0.3292021484375,-0.0268291015625,1.4539111328125005,1.49095655112503,0.05712890625,1.4951171875,1.83447265625,43.25941176470588,451.56134854830856
-0.2789091796875,-0.0478251953125,1.5354541015625005,1.5613125496920013,-0.01513671875,1.048828125,2.19384765625,43.30647058823529,451.56134854830856
-0.1783232421875,-0.0624736328125,1.5403369140625005,1.5518827089456984,0.04443359375,0.73388671875,2.2890625,43.447647058823534,451.3130557990727
-0.0679716796875,-0.0868876953125,1.4963916015625005,1.5004524137949335,0.08984375,0.66357421875,2.177734375,43.91823529411765,451.3130557990727
0.1507783203125,-0.0844462890625,1.4207080078125005,1.4311801148266592,-0.0595703125,0.65380859375,1.5546875,43.777058823529416,451.3130557990727
0.2957978515625,-0.0707744140625,1.3054736328125005,1.3404352996857207,-0.041015625,0.60302734375,0.83154296875,42.55352941176471,451.3130557990727
0.3329072265625,-0.0820048828125,1.1550830078125005,1.2048936788114544,0.048828125,0.89404296875,0.38037109375,43.118235294117646,452.0457914365078
0.3226533203125,-0.1117900390625,1.0510791015625005,1.1051558513095376,0.076171875,1.3994140625,-0.0078125,42.60058823529412,452.0457914365078
0.3109345703125,-0.1464580078125,0.9856494140625,1.0438558437397258,-0.0849609375,1.48046875,-0.4140625,43.118235294117646,452.0457914365078
0.2748017578125,-0.1845439453125,0.9817431640625,1.0360463860425322,0.04345703125,1.34033203125,-0.8857421875,43.02411764705882,452.0457914365078
0.1913056640625,-0.2323955078125,1.0330126953125005,1.0759743295407287,0.17822265625,1.279296875,-0.994140625,43.30647058823529,452.0457914365078
0.1039033203125,-0.2616923828125,1.0681689453125005,1.1046554661631225,0.23095703125,0.40185546875,-0.4580078125,43.91823529411765,453.2707713882433
0.0003876953125,-0.2162822265625,1.1145556640625005,1.1353468545463492,0.24755859375,-0.671875,0.4208984375,44.01235294117648,453.2707713882433
-0.0621123046875,-0.0976298828125,1.1711962890625005,1.1768985852338114,0.3115234375,-1.1162109375,1.33935546875,43.25941176470588,453.2707713882433
-0.0909208984375,0.0132099609375,1.1668017578125005,1.1704133692311418,0.44384765625,-1.03271484375,1.90185546875,42.55352941176471,453.2707713882433
-0.0816435546875,0.0757099609375,1.1375048828125005,1.1429413924735812,0.43603515625,-0.79541015625,2.0498046875,43.87117647058824,452.84035003938726
-0.0557646484375,0.0942646484375,1.1355517578125005,1.1408213333521875,0.50732421875,-0.8349609375,1.6708984375,42.55352941176471,452.84035003938726
-0.0914091796875,0.0537373046875,1.0969775390625005,1.102090312657651,0.28271484375,-1.009765625,1.302734375,43.02411764705882,452.84035003938726
-0.1055693359375,0.0439716796875,1.0354541015625005,1.0417502530584908,0.2197265625,-0.66162109375,1.04443359375,43.16529411764706,452.84035003938726
-0.0709013671875,0.0478779296875,0.9651416015625,0.9689260090878176,0.14892578125,-0.26220703125,0.67822265625,42.55352941176471,452.84035003938726
-0.0455107421875,0.0522724609375,0.8977587890625001,0.900430164513543,0.03125,0.06787109375,0.28076171875,43.25941176470588,452.625145948408
-0.0699248046875,0.0571552734375,0.9026416015625,0.9071483144798403,0.0224609375,0.71435546875,-0.21484375,44.01235294117648,452.625145948408
-0.0860380859375,0.0244404296875,0.8035205078125001,0.8084832053359898,0.0009765625,0.9296875,-0.36181640625,43.25941176470588,452.625145948408
-0.1158232421875,0.0122333984375,0.7810595703125001,0.7896953411568933,0.005859375,1.3359375,-0.12744140625,43.87117647058824,452.625145948408
-0.1402373046875,-0.0180400390625,0.7380908203125001,0.7515118120595115,0.1630859375,1.73681640625,0.22607421875,42.60058823529412,453.0334817679327
-0.1324248046875,-0.0424541015625,0.6609423828125001,0.6754135866518136,0.27294921875,1.7099609375,0.4794921875,43.777058823529416,453.0334817679327
-0.0943388671875,-0.0634501953125,0.6077197265625001,0.618262901362046,0.35595703125,1.4873046875,0.58642578125,42.93,453.0334817679327
-0.0616240234375,-0.0727275390625,0.5960009765625001,0.6035759929504874,0.31982421875,1.357421875,0.43115234375,42.60058823529412,453.0334817679327
-0.0533232421875,-0.0844462890625,0.5925830078125001,0.6009402341680274,0.31591796875,1.2744140625,0.21875,43.16529411764706,453.0334817679327
-0.0401396484375,-0.0810283203125,0.5740283203125001,0.5811069545188229,0.3212890625,1.16357421875,-0.119140625,43.16529411764706,453.5588213780368
-0.0499052734375,-0.0780986328125,0.5418017578125001,0.5496717907376804,0.24169921875,0.9453125,-0.447265625,42.69470588235294,453.5588213780368
-0.0572294921875,-0.0766337890625,0.5359423828125001,0.544409946728433,0.14404296875,0.548828125,-0.5400390625,44.01235294117648,453.5588213780368
-0.0738310546875,-0.0502666015625,0.5530322265625001,0.5601985357760123,0.08056640625,0.36279296875,-0.50244140625,43.87117647058824,453.5588213780368
-0.0972685546875,-0.0204814453125,0.5906298828125001,0.5989359897386295,0.04638671875,0.287109375,-0.76416015625,42.97705882352941,453.64712730954216
-0.1041044921875,-0.0019267578124999,0.6023486328125001,0.6112817134025631,0.00634765625,0.05078125,-0.90869140625,43.25941176470588,453.64712730954216
-0.1236357421875,0.0039326171875,0.6223681640625001,0.6345418771544746,-0.00927734375,-0.31640625,-1.033203125,43.02411764705882,453.64712730954216
-0.1558623046875,0.0166279296875,0.6648486328125001,0.6830763139070496,0.021484375,-0.5615234375,-1.185546875,42.69470588235294,453.64712730954216
-0.1817412109375,0.0307880859375,0.7166064453125001,0.7399341669717252,0.08349609375,-0.69189453125,-1.26611328125,43.68294117647059,453.64712730954216
-0.2002958984375,0.0327412109375,0.7668994140625001,0.7933001607928395,0.15185546875,-0.75390625,-1.39599609375,42.69470588235294,453.3248528516109
-0.2144560546875,0.0122333984375,0.8171923828125001,0.8449523335409106,0.2041015625,-0.814453125,-1.52197265625,43.16529411764706,453.3248528516109
-0.2085966796875,0.0049091796875,0.8958056640625001,0.919785008895182,0.25146484375,-0.89794921875,-1.646484375,43.25941176470588,453.3248528516109
-0.2017607421875,-0.0165751953125,0.9924853515625,1.0129211752421003,0.38525390625,-0.90771484375,-1.5810546875,43.91823529411765,453.3248528516109
-0.1944365234375,-0.0434306640625,0.9661181640625,0.9864461927337278,0.4951171875,-0.90185546875,-1.3486328125,43.25941176470588,452.4066050597217
-0.1763701171875,-0.0663798828125,1.1643603515625005,1.179511651222523,0.6259765625,-0.65771484375,-1.2021484375,43.16529411764706,452.4066050597217
-0.1832060546875,-0.1103251953125,1.2283251953125005,1.2468034699319666,0.65625,-0.3076171875,-1.04296875,44.01235294117648,452.4066050597217
-0.2378935546875,-0.1381572265625,1.2732470703125005,1.3026276769179526,0.70263671875,0.10693359375,-0.9365234375,43.118235294117646,452.4066050597217
-0.3209013671875,-0.1669658203125,1.2888720703125005,1.3386734053708034,0.556640625,0.298828125,-0.587890625,42.60058823529412,452.4066050597217
-0.3526396484375,-0.1318095703125,1.3333056640625005,1.3854358441650174,0.65234375,0.32958984375,-0.25146484375,42.788823529411765,451.6650270115146
-0.3545927734375,-0.0893291015625,1.3884814453125005,1.4358260505148774,0.55224609375,0.96044921875,-0.62060546875,43.118235294117646,451.6650270115146
-0.3907255859375,-0.0820048828125,1.3284228515625005,1.3871187969545864,0.5537109375,1.02197265625,-0.94580078125,43.777058823529416,451.6650270115146
-0.4195341796875,-0.0595439453125,1.3860400390625005,1.4493658610695297,0.4912109375,1.32177734375,-0.81591796875,43.49470588235295,451.6650270115146
-0.4131865234375,0.0058857421875,1.4734423828125005,1.530290887569956,0.47265625,1.5263671875,-0.8564453125,43.16529411764706,450.9863774799276
-0.3301787109375,0.0761982421875,1.5598681640625005,1.5962496178619838,0.5693359375,1.32666015625,-0.9794921875,44.01235294117648,450.9863774799276
-0.2378935546875,0.1045185546875,1.5916064453125005,1.6126774471034533,0.51220703125,0.7763671875,-1.13623046875,42.55352941176471,450.9863774799276
-0.1270537109375,0.0849873046875,1.5930712890625005,1.6003879590450223,0.48681640625,0.6533203125,-1.296875,43.91823529411765,450.9863774799276
0.0331025390625,0.0591083984375,1.5203173828125005,1.521826049632507,0.4892578125,0.92529296875,-1.42333984375,43.68294117647059,450.9863774799276
0.1849580078125,0.0376240234375,1.3796923828125005,1.3925430345179388,0.404296875,1.103515625,-1.46630859375,43.353529411764704,451.85925294079067
0.2103486328125,0.0625263671875,1.2805712890625005,1.299237822837277,0.35400390625,1.23876953125,-1.353515625,43.16529411764706,451.85925294079067
0.2372041015625,0.0962177734375,1.1033251953125005,1.1326297419433722,0.18603515625,1.38720703125,-1.388671875,43.118235294117646,451.85925294079067
0.3021455078125,0.1552998046875,0.9919970703125,1.0485552559287623,0.12646484375,1.26904296875,-1.89697265625,43.118235294117646,451.85925294079067
0.3104462890625,0.1518818359375,0.8953173828125001,0.9597073545860988,-0.1455078125,-0.08544921875,-2.3232421875,43.353529411764704,453.5466753823757
0.2132783203125,0.1108662109375,0.9187548828125,0.9496786263440756,-0.416015625,-1.59619140625,-2.21435546875,43.353529411764704,453.5466753823757
0.0570283203125,0.0869404296875,1.0037158203125005,1.0090868721658743,-0.36328125,-2.60498046875,-1.4169921875,43.25941176470588,453.5466753823757
-0.0704130859375,0.0693623046875,1.1067431640625005,1.1111478583797376,-0.12890625,-2.486328125,-0.302734375,43.447647058823534,453.5466753823757
-0.1368193359375,0.0346943359375,1.2161181640625005,1.2242820821180342,0.1640625,-1.4423828125,0.609375,42.55352941176471,453.5466753823757
-0.1251005859375,-0.0497783203125,1.1462939453125005,1.1541740972813144,0.236328125,-0.05224609375,1.1572265625,43.25941176470588,454.18243460881286
-0.0108427734375,-0.0151103515624999,1.0588916015625005,1.0590549146856154,0.3671875,-0.7724609375,0.88232421875,44.01235294117648,454.18243460881286
-0.0264677734375,-0.0287822265625,1.0618212890625005,1.0625410154450432,0.35400390625,-0.77880859375,0.35107421875,43.25941176470588,454.18243460881286
-0.0191435546875,-0.0429423828125,1.0745166015625005,1.07554472290143,0.31787109375,-0.53759765625,0.0458984375,42.60058823529412,454.18243460881286
-0.0171904296875,-0.0571025390625,1.0383837890625005,1.0400947573312829,0.22705078125,-0.33447265625,-0.25,43.02411764705882,453.0831212531341
0.0116181640625,-0.0688212890625,0.9685595703125,0.9710710544591172,0.10546875,-0.16796875,-0.36328125,43.25941176470588,453.0831212531341
-0.0113310546875,-0.0234111328125,0.9993212890625,0.9996596984541452,0.0576171875,0.55029296875,-0.4736328125,42.69470588235294,453.0831212531341
-0.1031279296875,-0.0243876953125,0.9226611328125,0.928726921956681,-0.013671875,1.33251953125,-0.513671875,43.16529411764706,453.0831212531341
-0.0875029296875,-0.0004619140624999,0.7996142578125001,0.8043879271629654,-0.044921875,1.34521484375,-0.68310546875,43.02411764705882,453.0831212531341
-0.0914091796875,-0.0004619140624999,0.6936572265625001,0.6996543428423226,-0.20703125,1.1650390625,-0.8017578125,42.60058823529412,453.29833898841855
-0.1070341796875,0.0063740234375,0.6560595703125001,0.6647639457693084,-0.40234375,1.14306640625,-0.9365234375,43.16529411764706,453.29833898841855
-0.0914091796875,0.0185810546875,0.6228564453125001,0.6298023858257167,-0.47705078125,0.9423828125,-1.02294921875,43.16529411764706,453.29833898841855
-0.1031279296875,0.0161396484375,0.6130908203125001,0.6219133477300277,-0.4697265625,0.77490234375,-0.9755859375,43.30647058823529,453.29833898841855
-0.0953154296875,0.0097919921875,0.6116259765625001,0.6190858175193038,-0.45361328125,0.88330078125,-0.78173828125,43.30647058823529,453.8502069182693
-0.0865263671875,0.0049091796875,0.6003955078125001,0.606618230904166,-0.3671875,0.89892578125,-0.4853515625,43.63588235294118,453.8502069182693
-0.0894560546875,0.0088154296875,0.6062548828125001,0.6128825992429761,-0.31591796875,0.94677734375,-0.1669921875,43.25941176470588,453.8502069182693
-0.0762724609375,0.0073505859375,0.5808642578125001,0.5858965825255799,-0.25146484375,0.8916015625,0.03076171875,43.353529411764704,453.8502069182693
-0.0831083984375,0.0156513671875,0.5808642578125001,0.5869882939120258,-0.181640625,0.72998046875,0.1787109375,43.16529411764706,453.8502069182693
-0.0655302734375,0.0239521484375,0.5950244140625001,0.5991009726932406,-0.20263671875,0.5595703125,0.2880859375,43.02411764705882,453.8491000445919
-0.0821318359375,0.0254169921875,0.6179736328125001,0.623925534673652,-0.30859375,0.33349609375,0.37060546875,42.97705882352941,453.8491000445919
-0.0958037109375,0.0327412109375,0.6516650390625001,0.6594828739697337,-0.32275390625,0.115234375,0.52685546875,43.777058823529416,453.8491000445919
-0.1187529296875,0.0371357421875,0.6921923828125001,0.7032862976632116,-0.34130859375,-0.009765625,0.7314453125,43.118235294117646,453.8491000445919
-0.1221708984375,0.0376240234375,0.7419970703125001,0.7529282488504364,-0.22021484375,-0.05078125,0.98974609375,42.60058823529412,453.3844273115832
-0.1255888671875,0.0322529296875,0.7595751953125001,0.7705629710600483,-0.22998046875,-0.19677734375,1.1494140625,43.777058823529416,453.3844273115832
-0.1514677734375,0.0381123046875,0.8157275390625001,0.8305458760018434,-0.2626953125,-0.34765625,1.216796875,44.01235294117648,453.3844273115832
-0.1866240234375,0.0390888671875,0.8518603515625001,0.8729390151815811,-0.31689453125,-0.5224609375,1.251953125,42.97705882352941,453.3844273115832
-0.2388701171875,0.0610615234375,0.9177783203125,0.9503180981993936,-0.36279296875,-0.650390625,1.22314453125,43.02411764705882,453.3844273115832
-0.2798857421875,0.0425068359375,0.9841845703125,1.0240908788884244,-0.43359375,-0.6845703125,1.26416015625,43.25941176470588,453.3855355387036
-0.2300810546875,0.0586201171875,1.0520556640625005,1.0785150579158258,-0.466796875,-0.74462890625,1.15966796875,43.91823529411765,453.3855355387036
-0.1729521484375,0.0664326171875,1.0940478515625005,1.1096244588977169,-0.5810546875,-0.7412109375,0.98828125,43.30647058823529,453.3855355387036
-0.1514677734375,0.1089130859375,1.1585009765625005,1.1734262053383715,-0.5322265625,-0.5048828125,0.82666015625,42.74176470588235,453.3855355387036
-0.1993193359375,0.1416279296875,1.1975634765625005,1.2222704072923452,-0.49169921875,-0.16552734375,0.76904296875,43.91823529411765,452.8789460671428
-0.2720732421875,0.1753193359375,1.2346728515625005,1.2763924823711004,-0.3798828125,0.3876953125,0.7802734375,43.118235294117646,452.8789460671428
-0.3209013671875,0.1972919921875,1.2434619140625005,1.299268774876121,-0.3203125,0.75927734375,0.61865234375,43.16529411764706,452.8789460671428
-0.3599638671875,0.1719013671875,1.2869189453125005,1.3473249190621206,-0.306640625,0.97509765625,0.68359375,43.87117647058824,452.8789460671428
-0.3790068359375,0.1284443359375,1.3025439453125005,1.3626315931285442,-0.18994140625,1.11767578125,0.970703125,43.16529411764706,452.8789460671428
-0.3506865234375,0.0761982421875,1.3650439453125005,1.4114291276813942,-0.12939453125,1.455078125,1.10791015625,43.118235294117646,452.0280607278759
-0.3448271484375,0.0249287109375,1.4197314453125005,1.46122023656178,-0.08447265625,1.56787109375,1.17138671875,43.353529411764704,452.0280607278759
-0.3428740234375,-0.0370830078125,1.5144580078125005,1.5532291533589138,-0.162109375,1.4736328125,1.2958984375,43.25941176470588,452.0280607278759
-0.2559599609375,-0.0922587890625,1.5847705078125005,1.6079566997263004,-0.15771484375,0.943359375,1.529296875,43.777058823529416,452.0280607278759
-0.1412138671875,-0.1098369140625,1.6038134765625005,1.613760568231953,-0.08447265625,0.8154296875,1.78466796875,43.16529411764706,452.0070984122372
0.0228486328125,-0.1025126953125,1.5242236328125005,1.5278378826124746,0.00537109375,1.041015625,1.8271484375,43.02411764705882,452.0070984122372
0.1834931640625,-0.0883525390625,1.4451220703125005,1.459401833122305,0.10302734375,1.2099609375,1.59765625,43.16529411764706,452.0070984122372
0.2860322265625,-0.0976298828125,1.2947314453125005,1.3295395985570644,0.40869140625,0.8515625,1.27490234375,42.55352941176471,452.0070984122372
0.3260712890625,-0.1752666015625,1.0886767578125005,1.149894756130006,0.6015625,-0.078125,1.20263671875,43.25941176470588,452.0070984122372
0.4344697265625,-0.2162822265625,0.9924853515625,1.1047936992453684,0.68505859375,-1.91259765625,0.99365234375,42.69470588235294,452.6074354320903
0.4276337890625,-0.2504619140625,0.8674853515625001,0.9990658952838476,0.8955078125,-4.373046875,0.0234375,43.25941176470588,452.6074354320903
0.3128876953125,-0.2558330078125,0.8894580078125001,0.9769773720133644,0.6181640625,-6.18505859375,-0.24267578125,43.73,452.6074354320903
0.1854462890625,-0.2568095703125,0.9978564453125,1.046928348542937,0.09228515625,-7.41943359375,-0.05126953125,43.87117647058824,452.6074354320903
0.0648408203125,-0.2548564453125,1.1296923828125005,1.1598969865814404,-0.228515625,-7.6826171875,0.2060546875,43.16529411764706,454.2442453508366
-0.0259794921875,-0.2060283203125,1.2981494140625005,1.3146537582253066,-0.49658203125,-6.28515625,0.36328125,44.01235294117648,454.2442453508366
-0.0835966796875,-0.1181376953125,1.4143603515625005,1.4217454497836537,-0.64501953125,-3.60009765625,0.4091796875,43.91823529411765,454.2442453508366
-0.0831083984375,0.0180927734375,1.4251025390625005,1.4276384700560194,-0.5087890625,-0.4248046875,0.30322265625,43.16529411764706,454.2442453508366
-0.0918974609375,0.0449482421875,1.2742236328125005,1.2783236500277977,-0.306640625,1.40771484375,0.51416015625,42.97705882352941,454.2442453508366
-0.0601591796875,0.0713154296875,1.2151416015625005,1.2187182321029189,-0.12841796875,2.59130859375,0.93701171875,42.55352941176471,453.6184079155772
0.0213837890625,0.0708271484375,1.1345751953125005,1.1369848834566163,-0.06591796875,2.96875,1.1513671875,43.353529411764704,453.6184079155772
0.0443330078125,0.0566669921875,0.9959033203125,0.998498866796925,-0.0322265625,3.20068359375,1.0341796875,43.25941176470588,453.6184079155772
0.0960908203125,0.0566669921875,0.8928759765625001,0.8998178167131086,0.06396484375,2.8671875,0.9833984375,43.25941176470588,453.6184079155772
0.0614228515625,0.0180927734375,0.7893603515625001,0.7919532055390668,-0.00732421875,2.6240234375,0.9814453125,42.97705882352941,453.2530787771333
0.0555634765625,0.0112568359375,0.7190478515625001,0.7212793003543652,0.1083984375,1.68505859375,0.99169921875,42.60058823529412,453.2530787771333
-0.0001005859374999,-0.0136455078124999,0.6887744140625001,0.688909575683291,0.10498046875,1.37890625,0.97314453125,42.69470588235294,453.2530787771333
-0.0479521484375,-0.0380595703125,0.6687548828125001,0.671551213771299,0.216796875,1.2880859375,0.85693359375,43.118235294117646,453.2530787771333
-0.0591826171875,-0.0629619140625,0.6218798828125001,0.6278545798562472,0.2890625,1.34423828125,0.89404296875,43.02411764705882,453.2530787771333
-0.0723662109375,-0.0893291015625,0.6003955078125001,0.6113029712612593,0.2763671875,1.41552734375,0.90673828125,43.87117647058824,453.74644110692543
-0.0689482421875,-0.1030009765625,0.5916064453125001,0.604451195224947,0.33203125,1.623046875,0.7705078125,43.447647058823534,453.74644110692543
-0.0660185546875,-0.1034892578125,0.5720751953125001,0.5850970048952939,0.3251953125,1.349609375,0.5966796875,42.60058823529412,453.74644110692543
-0.0601591796875,-0.0834697265625,0.5564501953125001,0.5658826221191201,0.3466796875,1.06103515625,0.4033203125,43.447647058823534,453.74644110692543
-0.0796904296875,-0.0849345703125,0.5291064453125001,0.5417730856079666,0.27880859375,0.7333984375,0.20556640625,43.16529411764706,453.6040547730771
-0.0816435546875,-0.0614970703125,0.5364306640625001,0.5460818775839079,0.31884765625,0.27587890625,0.16162109375,43.91823529411765,453.6040547730771
-0.0967802734375,-0.0634501953125,0.5422900390625001,0.5545005275725529,0.30712890625,-0.16162109375,0.23583984375,43.91823529411765,453.6040547730771
-0.1080107421875,-0.0507548828125,0.5652392578125001,0.5777004389210996,0.26171875,-0.5087890625,0.2548828125,42.69470588235294,453.6040547730771
-0.1182646484375,-0.0546611328125,0.5896533203125001,0.6038753221203422,0.21923828125,-0.775390625,0.2353515625,44.01235294117648,453.6040547730771
-0.1260771484375,-0.0575908203125,0.6262744140625001,0.6414294907873552,0.15185546875,-0.9873046875,0.13916015625,43.25941176470588,454.13386692475945
-0.1197294921875,-0.0492900390625,0.6643603515625001,0.6768599086801552,0.12158203125,-1.267578125,0.048828125,43.16529411764706,454.13386692475945
-0.1163115234375,-0.0468486328125,0.7073291015625001,0.7183575869982624,0.03857421875,-1.322265625,-0.07421875,42.69470588235294,454.13386692475945
-0.1402373046875,-0.0531962890625,0.7415087890625001,0.7565260280076098,-0.0107421875,-1.40087890625,-0.2861328125,43.777058823529416,454.13386692475945
-0.1441435546875,-0.0507548828125,0.7903369140625001,0.8049756892087453,-0.0771484375,-1.36767578125,-0.4658203125,43.25941176470588,453.1316618392576
-0.1553740234375,-0.0488017578125,0.8337939453125001,0.8495499055173457,0.01904296875,-1.57177734375,-0.59765625,43.118235294117646,453.1316618392576
-0.1910185546875,-0.0585673828125,0.9114306640625,0.9330723883803534,0.009765625,-1.70068359375,-0.65380859375,43.25941176470588,453.1316618392576
-0.1944365234375,-0.0439189453125,0.9924853515625,1.0123050965346183,0.15283203125,-1.84228515625,-0.62744140625,43.16529411764706,453.1316618392576
-0.2159208984375,-0.0370830078125,1.0803759765625005,1.1023652909012762,0.201171875,-1.60302734375,-0.57958984375,44.01235294117648,453.1316618392576
-0.1993193359375,-0.0302470703125,1.1672900390625005,1.184571280352343,0.4208984375,-0.84912109375,-0.5146484375,44.01235294117648,452.0335340928454
-0.1358427734375,-0.0644267578125,1.1624072265625005,1.1720898543124356,0.6279296875,-0.30908203125,-0.41943359375,43.68294117647059,452.0335340928454
-0.1431669921875,-0.1176494140625,1.1868212890625005,1.2012006262291242,0.66162109375,0.0283203125,-0.2451171875,43.353529411764704,452.0335340928454
-0.1368193359375,-0.1762431640625,1.1814501953125005,1.2023334593901498,0.63330078125,-0.1025390625,-0.0576171875,44.01235294117648,452.0335340928454
-0.1626982421875,-0.2333720703125,1.1931689453125005,1.2266154137589294,0.50341796875,-0.6845703125,0.12060546875,43.25941176470588,451.3791479048994
-0.2208037109375,-0.2753642578125,1.2400439453125005,1.2892977699315975,0.34814453125,-1.24951171875,0.38427734375,43.777058823529416,451.3791479048994
-0.2842802734375,-0.2763408203125,1.3113330078125005,1.3699539336106394,0.1005859375,-1.22900390625,0.68115234375,43.353529411764704,451.3791479048994
-0.3179716796875,-0.2167705078125,1.3611376953125005,1.41449329010116,0.11181640625,-0.5263671875,0.71533203125,42.55352941176471,451.3791479048994
-0.3843779296875,-0.1449931640625,1.4041064453125005,1.462971059257089,0.01123046875,0.64208984375,0.69287109375,42.97705882352941,451.3791479048994
-0.4141630859375,-0.0688212890625,1.4636767578125005,1.522700588737658,-0.0234375,1.63916015625,0.71533203125,43.73,451.0547011166764
-0.3824248046875,-0.0102275390624999,1.5530322265625005,1.5994569173745272,-0.0185546875,1.97265625,0.75146484375,43.02411764705882,451.0547011166764
-0.2452177734375,0.0283466796875,1.6448291015625005,1.663249248911856,-0.1376953125,1.07177734375,0.6875,43.118235294117646,451.0547011166764
-0.0586943359375,0.0166279296875,1.7004931640625005,1.7015870574672722,-0.20556640625,0.0234375,0.72314453125,43.91823529411765,451.0547011166764
0.1136689453125,-0.0033916015624999,1.6702197265625005,1.674086636673302,-0.1376953125,-0.11181640625,0.9228515625,42.69470588235294,450.72145808469793
0.3060517578125,-0.0629619140625,1.5042041015625005,1.536314375458351,-0.0947265625,0.45361328125,1.13720703125,43.73,450.72145808469793
0.4593720703125,-0.0673564453125,1.3728564453125005,1.449239251864371,-0.357421875,0.8212890625,1.1806640625,43.16529411764706,450.72145808469793
0.4740205078125,-0.0072978515624999,1.3264697265625005,1.4086414149637383,-0.517578125,1.26953125,0.9541015625,42.60058823529412,450.72145808469793
0.4862275390625,0.0615498046875,1.1531298828125005,1.252962140224123,-0.66943359375,1.7724609375,0.640625,42.69470588235294,450.72145808469793
0.5003876953125,0.1347919921875,1.0623095703125005,1.1819722289273802,-1.17333984375,1.61865234375,0.181640625,43.30647058823529,452.4650518826736
0.4710908203125,0.1650654296875,1.0745166015625005,1.1848033947005925,-1.30517578125,0.20263671875,-0.0478515625,42.55352941176471,452.4650518826736
0.3744111328125,0.1621357421875,1.1453173828125005,1.215822192033484,-1.14501953125,-1.263671875,0.5703125,43.02411764705882,452.4650518826736
0.1913056640625,0.1406513671875,1.2585986328125005,1.2808009926259434,-0.62890625,-1.60498046875,1.71728515625,44.01235294117648,452.4650518826736
0.0770478515625,0.1250263671875,1.3196337890625005,1.3277805922508252,-0.06787109375,-0.7841796875,2.57421875,43.353529411764704,454.2398344900662
0.0042939453125,0.1040302734375,1.3196337890625005,1.3237348952842782,0.26416015625,0.783203125,2.7861328125,44.01235294117648,454.2398344900662
-0.0250029296875,0.0542255859375,1.2952197265625005,1.2965954267773203,0.31884765625,2.49072265625,2.5205078125,43.25941176470588,454.2398344900662
-0.0142607421875,-0.0004619140624999,1.2473681640625005,1.247449766062342,0.25439453125,3.646484375,2.3447265625,43.30647058823529,454.2398344900662
0.0511689453125,-0.0424541015625,1.1633837890625005,1.1652821342307162,0.19775390625,3.72216796875,2.46435546875,42.60058823529412,454.2398344900662
0.1043916015625,-0.0624736328125,1.0593798828125005,1.066342485968463,0.01953125,3.26953125,2.83447265625,43.353529411764704,453.376682128984
0.1522431640625,-0.0761455078125,0.9685595703125,0.983404169509017,-0.1513671875,3.06787109375,2.966796875,42.97705882352941,453.376682128984
0.1478486328125,-0.0761455078125,0.9060595703125,0.9211955826747223,-0.17578125,3.0244140625,2.845703125,43.02411764705882,453.376682128984
0.0975556640625,-0.0585673828125,0.8445361328125001,0.8521669587270291,-0.17431640625,2.671875,2.59326171875,43.02411764705882,453.376682128984
0.0184541015625,-0.0346416015625,0.7830126953125001,0.783995838919978,-0.220703125,2.03759765625,2.2548828125,42.55352941176471,452.8822215665006
-0.0499052734375,-0.0058330078124999,0.7273486328125001,0.7290820214154409,-0.38525390625,1.7138671875,1.8369140625,42.93,452.8822215665006
-0.0850615234375,0.0298115234375,0.6599658203125001,0.6660923912490849,-0.630859375,1.6884765625,1.46875,42.55352941176471,452.8822215665006
-0.0757841796875,0.0620380859375,0.6116259765625001,0.6194177114062269,-0.86181640625,1.7197265625,1.18505859375,43.25941176470588,452.8822215665006
-0.0616240234375,0.0835224609375,0.5662158203125001,0.5756508289908381,-0.986328125,1.73583984375,1.00830078125,42.60058823529412,452.8822215665006
-0.0103544921875,0.0918232421875,0.5344775390625001,0.54240663996359,-0.97802734375,1.49951171875,0.95263671875,43.02411764705882,453.1824253094387
-0.0098662109375,0.0840107421875,0.5168994140625001,0.5237749050683067,-0.94775390625,0.9619140625,1.0458984375,44.01235294117648,453.1824253094387
-0.0264677734375,0.0737568359375,0.5276416015625001,0.5334287896033455,-0.7958984375,0.9150390625,1.259765625,42.93,453.1824253094387
-0.0181669921875,0.0571552734375,0.5320361328125001,0.535405651356928,-0.65869140625,1.03759765625,1.509765625,42.55352941176471,453.1824253094387
-0.0162138671875,0.0473896484375,0.5310595703125001,0.5334162872360582,-0.5751953125,1.07666015625,1.69873046875,42.55352941176471,453.5930170761149
-0.0142607421875,0.0293232421875,0.5149462890625001,0.515977617653484,-0.52197265625,1.0068359375,1.75341796875,43.16529411764706,453.5930170761149
-0.0040068359375,0.0205341796875,0.5168994140625001,0.5173226377492333,-0.4921875,0.873046875,1.6943359375,44.01235294117648,453.5930170761149
-0.0108427734375,0.0141865234375,0.5071337890625001,0.5074480300404643,-0.45947265625,0.5380859375,1.66943359375,43.353529411764704,453.5930170761149
-0.0152373046875,0.0122333984375,0.5447314453125001,0.545081809459567,-0.41748046875,-0.20654296875,1.77783203125,42.55352941176471,453.5930170761149
-0.0538115234375,0.0200458984375,0.5955126953125001,0.598274927083853,-0.49560546875,-0.90087890625,2.01220703125,44.01235294117648,453.7409227895691
-0.0923857421875,0.0298115234375,0.6633837890625001,0.6704490315304508,-0.42578125,-1.30908203125,2.380859375,42.55352941176471,453.7409227895691
-0.1407255859375,0.0366474609375,0.7136767578125001,0.728341432003137,-0.4814453125,-1.27197265625,2.771484375,43.02411764705882,453.7409227895691
-0.1695341796875,0.0542255859375,0.8035205078125001,0.8229990636251275,-0.51708984375,-0.7685546875,3.033203125,43.16529411764706,453.7409227895691
-0.1871123046875,0.0669208984375,0.8645556640625001,0.8870997223963609,-0.55419921875,-0.203125,3.0986328125,43.16529411764706,453.0422533414978
-0.1612333984375,0.0840107421875,0.8748095703125001,0.8935019853838833,-0.47705078125,-0.44482421875,2.96728515625,43.25941176470588,453.0422533414978
-0.1817412109375,0.0849873046875,0.9187548828125,0.9404058934326632,-0.7626953125,-0.751953125,2.8076171875,43.16529411764706,453.0422533414978
-0.1802763671875,0.1128193359375,0.9890673828125,1.0116729011252945,-0.96728515625,-1.18017578125,2.7509765625,43.91823529411765,453.0422533414978
-0.1475615234375,0.1186787109375,1.0335009765625005,1.05070609981318,-1.0703125,-1.2431640625,2.83251953125,43.63588235294118,453.0422533414978
-0.0738310546875,0.1577412109375,1.0925830078125005,1.1063773963819523,-1.1015625,-0.97705078125,2.71435546875,43.02411764705882,452.7729517542082
-0.0748076171875,0.1953388671875,1.1648486328125005,1.1834803716110032,-1.01904296875,-0.3974609375,2.40234375,43.16529411764706,452.7729517542082
-0.0738310546875,0.2539326171875,1.1799853515625005,1.209255237164611,-0.7861328125,0.00146484375,1.83935546875,43.353529411764704,452.7729517542082
-0.1431669921875,0.3027607421875,1.2366259765625005,1.2811731579185923,-0.490234375,0.525390625,1.27294921875,42.55352941176471,452.7729517542082
-0.1797880859375,0.3261982421875,1.2405322265625005,1.2952410023587886,-0.23779296875,0.5830078125,0.94384765625,43.02411764705882,452.9892777296834
-0.1783232421875,0.3589130859375,1.2351611328125005,1.2985533512228522,-0.01025390625,0.52978515625,0.66064453125,44.01235294117648,452.9892777296834
-0.1954130859375,0.3720966796875,1.2546923828125005,1.3232139617906804,0.25390625,0.5849609375,0.1728515625,43.16529411764706,452.9892777296834
-0.2481474609375,0.3330341796875,1.2473681640625005,1.314692459827205,0.3857421875,0.54541015625,-0.248046875,43.30647058823529,452.9892777296834
-0.3379912109375,0.2661396484375,1.2766650390625005,1.347197829981139,0.4912109375,0.6640625,-0.32861328125,42.60058823529412,452.9892777296834
-0.4000029296875,0.2021748046875,1.3264697265625005,1.4001424680709482,0.67919921875,0.595703125,0.21337890625,43.777058823529416,452.3634922741213
-0.4312529296875,0.1626240234375,1.4285205078125005,1.5010318129886309,0.8017578125,0.57666015625,1.16015625,43.02411764705882,452.3634922741213
-0.3179716796875,0.1845966796875,1.5193408203125005,1.5631949499351645,1.04541015625,0.38671875,2.1484375,43.118235294117646,452.3634922741213
-0.2085966796875,0.1753193359375,1.5964892578125005,1.6195763009629782,1.34326171875,0.24169921875,2.65283203125,43.02411764705882,452.3634922741213
-0.0230498046875,0.0630146484375,1.5740283203125005,1.575457804119052,1.51904296875,-0.1123046875,2.34423828125,43.16529411764706,452.1383573217141
0.2113251953125,-0.0727275390625,1.5759814453125005,1.5917490848375668,1.36328125,-0.23583984375,1.58447265625,43.02411764705882,452.1383573217141
0.4857392578125,-0.1308330078125,1.5432666015625005,1.623185665908793,1.48974609375,0.07568359375,0.43359375,43.16529411764706,452.1383573217141
0.3924775390625,-0.2304423828125,1.4099658203125005,1.4816024854576753,1.8115234375,1.05224609375,-0.80615234375,43.49470588235295,452.1383573217141
0.4637666015625,-0.3027080078125,1.2034228515625005,1.3247407891287497,1.4267578125,0.787109375,-1.9150390625,43.91823529411765,452.1383573217141
0.4701142578125,-0.3451884765625,1.0789111328125005,1.2264630986119762,0.8486328125,-1.36572265625,-2.8671875,43.447647058823534,452.9020829340664
0.3983369140625,-0.3818095703125,1.0247119140625005,1.163823591404077,0.87353515625,-4.28564453125,-3.21630859375,43.25941176470588,452.9020829340664
0.2733369140625,-0.4164775390625,1.0393603515625005,1.1525782184012028,0.84765625,-6.54736328125,-2.74853515625,42.55352941176471,452.9020829340664
0.0999970703125,-0.4247783203125,1.1238330078125005,1.2055856107831924,0.76953125,-7.4599609375,-1.49853515625,42.97705882352941,452.9020829340664
-0.0069365234375,-0.3593486328125,1.2376025390625005,1.2887356594568025,0.71337890625,-6.9638671875,-0.66162109375,42.69470588235294,453.4837448373274
-0.0904326171875,-0.2602275390625,1.3645556640625005,1.392087853069251,0.37939453125,-4.94140625,-0.8583984375,42.97705882352941,453.4837448373274
-0.1548857421875,-0.1269267578125,1.4207080078125005,1.4347512810394454,0.154296875,-1.8984375,-1.51806640625,43.02411764705882,453.4837448373274
-0.1114287109375,-0.0678447265625,1.2996142578125005,1.3061456594320058,0.27001953125,0.1279296875,-1.93505859375,43.16529411764706,453.4837448373274
-0.1207060546875,-0.0697978515625,1.2092822265625005,1.2172942106166942,-0.0556640625,1.8720703125,-1.59814453125,43.16529411764706,453.4837448373274
-0.0655302734375,-0.0424541015625,1.0715869140625005,1.074427792765184,0.01171875,2.00732421875,-1.11572265625,42.97705882352941,452.9992089181704
-0.0044951171875,0.0161396484375,1.0793994140625005,1.0795294296167586,-0.12646484375,2.91357421875,-0.98046875,43.353529411764704,452.9992089181704
-0.0020537109374999,0.0395771484375,0.9465869140625,0.94741614630606,-0.03125,3.24658203125,-1.11572265625,43.16529411764706,452.9992089181704
0.0965791015625,0.0664326171875,0.8445361328125001,0.8526324501864173,0.17431640625,2.90625,-1.07666015625,43.16529411764706,452.9992089181704
0.0990205078125,0.0532490234375,0.7244189453125001,0.7330916230541499,0.13671875,2.2255859375,-0.96728515625,43.30647058823529,452.92194563953086
0.0863251953125,0.0635029296875,0.8352587890625001,0.8421056383440209,0.19091796875,1.55712890625,-0.841796875,43.118235294117646,452.92194563953086
-0.0284208984375,-0.0185283203125,0.6760791015625001,0.6769298321769802,0.14111328125,1.201171875,-0.4697265625,42.55352941176471,452.92194563953086
0.0155244140625,0.0029560546875,0.6536181640625001,0.6538091847655038,0.4638671875,0.94140625,-0.3955078125,43.25941176470588,452.92194563953086
0.0008759765625,-0.0331767578125,0.6433642578125001,0.6442197085036412,0.6083984375,1.33349609375,-0.64013671875,43.91823529411765,452.92194563953086
0.0169892578125,-0.0722392578125,0.5803759765625001,0.5851012044263761,0.59130859375,1.6162109375,-0.97314453125,43.54176470588236,453.4274532914551
0.0140595703125,-0.1244853515625,0.5144580078125001,0.5294915637414987,0.4912109375,1.603515625,-1.18359375,43.87117647058824,453.4274532914551
0.0316376953125,-0.1303447265625,0.4924853515625,0.5104238562322286,0.568359375,1.486328125,-1.400390625,43.73,453.4274532914551
0.0511689453125,-0.1127666015625,0.4851611328125,0.5007153804151192,0.42626953125,1.572265625,-1.8017578125,43.68294117647059,453.4274532914551
0.0399384765625,-0.1083720703125,0.5027392578125001,0.515835583185005,0.3759765625,1.6162109375,-2.2451171875,42.55352941176471,453.3722660589594
0.0111298828125,-0.1039775390625,0.5237353515625001,0.5340729551261787,0.3837890625,1.625,-2.44921875,43.87117647058824,453.3722660589594
0.0204072265625,-0.0986064453125,0.5208056640625001,0.5304509644375452,0.220703125,1.56591796875,-2.423828125,43.16529411764706,453.3722660589594
0.0326142578125,-0.0878642578125,0.5281298828125001,0.5363813855207382,0.10546875,1.15576171875,-2.55322265625,43.447647058823534,453.3722660589594
-0.0123076171875,-0.0956767578125,0.5613330078125001,0.5695614673467422,0.0546875,0.87939453125,-2.5419921875,42.55352941176471,453.3722660589594
-0.0440458984375,-0.0707744140625,0.6121142578125001,0.6177644563038607,-0.02294921875,0.75927734375,-2.5654296875,42.93,453.3722660589594
-0.0694365234375,-0.0341533203125,0.6438525390625001,0.648485907427974,0.00634765625,0.64111328125,-2.89892578125,42.93,453.3722660589594
-0.1055693359375,-0.0263408203125,0.6619189453125001,0.6708020674302015,-0.03173828125,0.3583984375,-3.22509765625,43.87117647058824,453.3722660589594
-0.1412138671875,-0.0238994140625,0.6829150390625001,0.6977718028527061,-0.10302734375,-0.35986328125,-3.3359375,42.69470588235294,453.3722660589594
-0.1827177734375,-0.0356181640625,0.7351611328125001,0.7583642459526287,-0.09765625,-1.06103515625,-3.2294921875,43.87117647058824,452.92194563953086
-0.2081083984375,-0.0229228515625,0.8171923828125001,0.8435863637771471,0.0341796875,-1.66796875,-3.029296875,42.69470588235294,452.92194563953086
-0.2549833984375,-0.0253642578125,0.9338916015625,0.9684076633949604,-0.03076171875,-1.6279296875,-2.90869140625,43.16529411764706,452.92194563953086
-0.2501005859375,-0.0019267578124999,1.0144580078125005,1.044834467797103,0.0859375,-1.4580078125,-2.9130859375,43.777058823529416,452.92194563953086
-0.2627958984375,0.0049091796875,1.0891650390625005,1.1204312859773218,0.25830078125,-1.24072265625,-2.818359375,43.87117647058824,452.92194563953086
-0.2574248046875,0.0073505859375,1.1594775390625005,1.1877330191471709,0.283203125,-0.9951171875,-2.74755859375,42.55352941176471,452.0059050576719
-0.2417998046875,-0.0199931640625,1.1853564453125005,1.209932549607634,0.41455078125,-1.2080078125,-2.52685546875,42.69470588235294,452.0059050576719
-0.1856474609375,-0.0639384765625,1.2210009765625005,1.2366877105010194,0.63427734375,-1.11279296875,-2.39892578125,42.55352941176471,452.0059050576719
-0.1470732421875,-0.1137431640625,1.2615283203125005,1.2751555783075923,0.625,-0.81591796875,-2.52783203125,43.87117647058824,452.0059050576719
-0.1529326171875,-0.1454814453125,1.3059619140625005,1.3229095801723645,0.91455078125,-0.44384765625,-2.77587890625,42.69470588235294,451.0468965999564
-0.2432646484375,-0.2363017578125,1.2869189453125005,1.3308555825967503,1.00439453125,-0.57421875,-2.31787109375,43.16529411764706,451.0468965999564
-0.2593779296875,-0.1987041015625,1.3533251953125005,1.3922102264580414,1.15576171875,-0.26708984375,-2.125,43.118235294117646,451.0468965999564
-0.2833037109375,-0.1630595703125,1.4031298828125005,1.4407022191080558,1.05517578125,-0.0302734375,-2.05224609375,43.16529411764706,451.0468965999564
-0.3121123046875,-0.1054423828125,1.4631884765625005,1.4998175571634742,0.93994140625,0.4189453125,-2.30029296875,43.25941176470588,451.0468965999564
-0.3160185546875,-0.0243876953125,1.5066455078125005,1.539624360940362,0.73974609375,1.20458984375,-2.705078125,44.01235294117648,451.252159893454
-0.2725615234375,0.0078388671875,1.5403369140625005,1.5642854728983904,0.64599609375,1.1181640625,-2.5859375,42.60058823529412,451.252159893454
-0.1529326171875,0.0302998046875,1.6345751953125005,1.6419934630487472,0.61767578125,0.5576171875,-2.130859375,43.30647058823529,451.252159893454
-0.0225615234375,0.0620380859375,1.6892626953125005,1.6905520400807137,0.56201171875,0.04052734375,-2.10791015625,43.16529411764706,451.252159893454
0.0858369140625,0.0561787109375,1.6624072265625005,1.6655695153026775,0.45703125,0.23583984375,-2.08154296875,44.01235294117648,452.004795750042
0.2962861328125,0.0298115234375,1.5188525390625005,1.5477684693917415,0.361328125,0.70361328125,-2.00927734375,43.91823529411765,452.004795750042
0.4261689453125,0.0244404296875,1.3884814453125005,1.4526176470527845,0.19970703125,1.46337890625,-1.91943359375,43.118235294117646,452.004795750042
0.4124970703125,0.0429951171875,1.2327197265625005,1.3006153687292366,0.25537109375,2.13916015625,-1.99560546875,43.25941176470588,452.004795750042
0.4671845703125,0.0840107421875,1.1096728515625005,1.206935402180175,-0.17578125,2.00634765625,-2.42626953125,43.118235294117646,452.004795750042
0.4784150390625,0.1094013671875,0.9832080078125,1.09888470522175,-0.33984375,0.21337890625,-3.123046875,43.30647058823529,453.5003040803795
0.4808564453125,0.1157490234375,0.9876025390625,1.1045268365177938,-0.701171875,-1.609375,-3.49072265625,43.16529411764706,453.5003040803795
0.1522431640625,0.0971943359375,1.0891650390625005,1.1040403988342595,-0.849609375,-2.65673828125,-2.8955078125,42.60058823529412,453.5003040803795
-0.0132841796875,0.0454365234375,1.2102587890625005,1.2111842484094175,-0.58935546875,-2.33154296875,-1.6650390625,43.30647058823529,453.5003040803795
-0.1211943359375,-0.0297587890625,1.2893603515625005,1.2953855676095718,-0.2080078125,-0.86669921875,-0.46142578125,42.69470588235294,454.65160641225367
0.0003876953125,-0.0536845703125,1.1321337890625005,1.1334059730450987,0.13671875,-0.9443359375,-0.07568359375,43.30647058823529,454.65160641225367
0.0038056640625,-0.1030009765625,1.1082080078125005,1.112990868260623,0.19384765625,-0.767578125,-0.2802734375,43.25941176470588,454.65160641225367
-0.0010771484374999,-0.1430400390625,1.0974658203125005,1.1067487699464351,0.0625,-0.05810546875,-0.4208984375,43.91823529411765,454.65160641225367
0.0892548828125,-0.1425517578125,1.1912158203125005,1.2030305766372231,0.08740234375,0.650390625,-0.37841796875,43.91823529411765,454.65160641225367
0.0833955078125,-0.1874736328125,1.0002978515625005,1.0211253427291749,-0.0556640625,0.84716796875,-0.23486328125,43.68294117647059,453.3579214382643
0.0545869140625,-0.2773173828125,0.9612353515625,1.0019271745443,-0.044921875,1.00732421875,-0.03759765625,43.91823529411765,453.3579214382643
0.0155244140625,-0.1318095703125,0.8669970703125001,0.8770967393557042,-0.03125,1.1533203125,-0.1875,42.69470588235294,453.3579214382643
-0.0098662109375,-0.1073955078125,0.7742236328125001,0.7816990282851533,-0.17919921875,1.22900390625,-0.4287109375,43.30647058823529,453.3579214382643
-0.0372099609375,-0.0815166015625,0.7239306640625001,0.7294553748470443,-0.28271484375,1.53955078125,-0.669921875,43.02411764705882,453.4351822771172
-0.0396513671875,-0.0766337890625,0.6585009765625001,0.6641298853986921,-0.4755859375,1.82958984375,-1.017578125,43.16529411764706,453.4351822771172
-0.0088896484375,-0.0766337890625,0.5671923828125001,0.5724150265287763,-0.48828125,1.43505859375,-1.07958984375,43.91823529411765,453.4351822771172
-0.0025419921874999,-0.0614970703125,0.5530322265625001,0.5564467584576069,-0.49267578125,1.3916015625,-0.9541015625,43.777058823529416,453.4351822771172
-0.0001005859374999,-0.0663798828125,0.5452197265625001,0.5492457093074277,-0.46875,1.67626953125,-0.619140625,43.447647058823534,453.4351822771172
-0.0196318359375,-0.0766337890625,0.5315478515625001,0.5374023307625883,-0.4658203125,1.6865234375,-0.14892578125,42.60058823529412,453.9926108022567
-0.0210966796875,-0.0590556640625,0.5154345703125001,0.519235435640646,-0.3955078125,1.5888671875,0.0458984375,43.353529411764704,453.9926108022567
-0.0650419921875,-0.0761455078125,0.5139697265625001,0.5236348717670294,-0.4072265625,1.3076171875,0.3720703125,43.447647058823534,453.9926108022567
-0.0831083984375,-0.0575908203125,0.5237353515625001,0.5334064369234857,-0.1669921875,0.9970703125,0.60546875,43.353529411764704,453.9926108022567
-0.1084990234375,-0.0922587890625,0.4993212890625,0.5192354687010574,-0.1044921875,0.20458984375,0.79736328125,43.87117647058824,454.1537741417965
-0.1377958984375,-0.1210673828125,0.5256884765625001,0.5567705049640007,-0.28076171875,-0.4091796875,0.9482421875,43.353529411764704,454.1537741417965
-0.1324248046875,-0.1274150390625,0.5852587890625001,0.6134319613866928,-0.35498046875,-0.78125,0.99755859375,43.30647058823529,454.1537741417965
-0.1246123046875,-0.1196025390625,0.6443408203125001,0.667089264304795,-0.40771484375,-0.76953125,1.09130859375,42.88294117647059,454.1537741417965
-0.1348662109375,-0.1298564453125,0.7102587890625001,0.7345196652795386,-0.55517578125,-0.60986328125,1.4228515625,42.69470588235294,454.1537741417965
-0.1436552734375,-0.1034892578125,0.7839892578125001,0.8037325552908627,-0.62060546875,-0.35791015625,1.8017578125,43.118235294117646,453.46498920803685
-0.1304716796875,-0.0707744140625,0.7996142578125001,0.8132741470029667,-0.4033203125,-0.42822265625,2.25927734375,42.69470588235294,453.46498920803685
-0.1368193359375,-0.0590556640625,0.8245166015625001,0.8378751269708488,-0.55419921875,-0.681640625,2.78955078125,43.25941176470588,453.46498920803685
-0.1226591796875,-0.0429423828125,0.9329150390625,0.941923453743568,-0.5927734375,-0.81396484375,3.13134765625,44.01235294117648,453.46498920803685
-0.1133818359375,-0.0517314453125,0.9548876953125,0.9629860299162684,-0.8984375,-1.28564453125,3.4248046875,43.16529411764706,452.9142153684131
-0.1070341796875,-0.0214580078125,1.0750048828125005,1.0805333219255089,-1.0458984375,-1.384765625,3.40869140625,44.01235294117648,452.9142153684131
-0.1421904296875,-0.0268291015625,1.1257861328125005,1.1350472835165464,-1.03515625,-1.26220703125,3.34912109375,42.69470588235294,452.9142153684131
-0.1592802734375,0.0044208984375,1.2000048828125005,1.210537677490115,-0.8759765625,-0.720703125,3.4775390625,42.55352941176471,452.9142153684131
-0.1675810546875,0.0796162109375,1.2376025390625005,1.2514320579352949,-0.4423828125,-0.130859375,3.63818359375,43.02411764705882,452.9142153684131
-0.1968779296875,0.1401630859375,1.2859423828125005,1.3084549750645034,-0.138671875,0.37890625,3.6376953125,43.02411764705882,452.5930339857815
-0.2247099609375,0.1836201171875,1.3489306640625005,1.3797915967379213,0.16650390625,1.20068359375,3.49658203125,42.60058823529412,452.5930339857815
-0.1817412109375,0.1787373046875,1.3494189453125005,1.3732837950723376,0.43310546875,1.48486328125,3.01904296875,42.93,452.5930339857815
-0.1558623046875,0.1172138671875,1.3303759765625005,1.3445937630742508,0.583984375,1.6162109375,2.94970703125,42.55352941176471,452.5930339857815
-0.1290068359375,0.0600849609375,1.3665087890625005,1.3738992819106235,0.69921875,1.8623046875,2.79833984375,44.01235294117648,452.52902062829054
-0.1265654296875,-0.0488017578125,1.4392626953125005,1.4456408702287626,0.6083984375,1.541015625,3.0947265625,43.91823529411765,452.52902062829054
-0.0689482421875,-0.1288798828125,1.5071337890625005,1.5142047888011712,0.6064453125,0.99462890625,3.654296875,43.25941176470588,452.52902062829054
0.0096650390625,-0.1445048828125,1.6077197265625005,1.6142297833068668,0.73828125,1.01220703125,3.66748046875,42.60058823529412,452.52902062829054
0.1561494140625,-0.1918681640625,1.5335009765625005,1.5533258759870443,0.9501953125,0.9853515625,3.755859375,44.01235294117648,452.52902062829054
0.3543916015625,-0.2319072265625,1.4172900390625005,1.4792178419069073,0.91748046875,1.0546875,3.5,42.55352941176471,452.9263555654133
0.4598603515625,-0.3095439453125,1.3518603515625005,1.4611007518804104,1.09326171875,1.0205078125,3.48095703125,42.60058823529412,452.9263555654133
0.5111298828125,-0.4316142578125,1.1931689453125005,1.3679169407201226,1.2607421875,-0.3603515625,3.4658203125,43.25941176470588,452.9263555654133
0.5697236328125,-0.4760478515625,1.0803759765625005,1.3108847491277489,1.18896484375,-2.02001953125,2.8251953125,43.87117647058824,452.9263555654133
0.6117158203125,-0.4823955078125,1.0051806640625005,1.2717271083779742,0.91650390625,-3.8359375,1.876953125,42.55352941176471,454.02462354196905
0.3441376953125,-0.4716533203125,1.0252001953125005,1.1797978845402264,0.4833984375,-5.15869140625,1.21142578125,42.93,454.02462354196905
0.1815400390625,-0.4281962890625,1.1008837890625005,1.195095797319327,-0.078125,-5.962890625,1.1552734375,43.16529411764706,454.02462354196905
0.0125947265625,-0.3212626953125,1.2429736328125005,1.2838815359696316,-0.5546875,-5.97705078125,1.70458984375,43.16529411764706,454.02462354196905
-0.1329130859375,-0.1825908203125,1.3616259765625005,1.380228457946583,-0.83544921875,-4.9609375,2.482421875,43.353529411764704,454.02462354196905
-0.2222685546875,-0.1518291015625,1.4656298828125005,1.4901430602050023,-0.7919921875,-2.3193359375,2.96337890625,42.60058823529412,454.2928662917788
-0.1817412109375,0.0805927734375,1.4387744140625005,1.452445137498924,-0.2314453125,-0.0927734375,2.72216796875,43.16529411764706,454.2928662917788
-0.1163115234375,0.0473896484375,1.2581103515625005,1.2643637949467312,0.0302734375,0.88818359375,2.65380859375,43.02411764705882,454.2928662917788
-0.0162138671875,0.0454365234375,1.1760791015625005,1.177068145981072,-0.02392578125,1.81201171875,3.1171875,42.55352941176471,454.2928662917788
0.0907197265625,0.0498310546875,1.0715869140625005,1.076574064887705,0.19580078125,2.48876953125,3.5400390625,43.25941176470588,453.6261440865919
0.1366181640625,0.0161396484375,0.9070361328125,0.917409154756453,0.287109375,3.15966796875,3.615234375,42.55352941176471,453.6261440865919
0.1288056640625,0.0049091796875,0.7859423828125001,0.796442357136269,0.25341796875,3.23193359375,3.51953125,43.02411764705882,453.6261440865919
0.0882783203125,-0.0165751953125,0.6946337890625001,0.7004169471423216,0.36181640625,3.021484375,3.44482421875,43.25941176470588,453.6261440865919
0.0457978515625,-0.0541728515625,0.6243212890625001,0.6283384542034772,0.4521484375,2.74267578125,3.1484375,43.87117647058824,453.6261440865919
0.0311494140625,-0.0795634765625,0.5691455078125001,0.5755234503148392,0.49853515625,2.1806640625,2.86328125,43.30647058823529,453.93522947871577
0.0291962890625,-0.1064189453125,0.5159228515625001,0.5275924601250737,0.58935546875,1.56005859375,2.609375,42.97705882352941,453.93522947871577
0.0238251953125,-0.1132548828125,0.4963916015625,0.5097047483733458,0.64794921875,0.95263671875,2.34716796875,43.16529411764706,453.93522947871577
-0.0127958984375,-0.0888408203125,0.5105517578125001,0.5183816391193408,0.623046875,0.80078125,2.0322265625,42.60058823529412,453.93522947871577
-0.0264677734375,-0.0678447265625,0.4934619140625,0.4988066865864023,0.62451171875,0.728515625,1.6796875,42.60058823529412,453.71778465079615
-0.0342802734375,-0.0580791015625,0.4763720703125,0.4811223010410912,0.55810546875,0.4453125,1.3544921875,43.02411764705882,453.71778465079615
-0.0518583984375,-0.0483134765625,0.4802783203125,0.485479917677605,0.505859375,0.0322265625,1.0966796875,43.25941176470588,453.71778465079615
-0.0757841796875,-0.0424541015625,0.4978564453125,0.5053777129727672,0.4189453125,-0.32275390625,0.8642578125,43.25941176470588,453.71778465079615
-0.1031279296875,-0.0361064453125,0.5237353515625001,0.5350119286062975,0.37646484375,-0.55517578125,0.673828125,43.16529411764706,453.71778465079615
-0.1280302734375,-0.0326884765625,0.5725634765625001,0.5876131568555921,0.3291015625,-0.62841796875,0.49169921875,42.60058823529412,453.9241925618608
-0.1363310546875,-0.0229228515625,0.6199267578125001,0.6351541534524361,0.3369140625,-0.51220703125,0.29638671875,43.16529411764706,453.9241925618608
-0.1446318359375,-0.0195048828125,0.6580126953125001,0.6740026080161725,0.349609375,-0.3994140625,0.01171875,42.55352941176471,453.9241925618608
-0.1412138671875,-0.0126689453124999,0.6799853515625001,0.6946091971756182,0.3232421875,-0.552734375,-0.21826171875,43.91823529411765,453.9241925618608
-0.1626982421875,-0.0053447265624999,0.7087939453125001,0.7272469601343066,0.29541015625,-0.89697265625,-0.34814453125,42.55352941176471,453.461688130297
-0.1729521484375,0.0010029296875,0.7605517578125001,0.7799695044223132,0.2099609375,-1.279296875,-0.45703125,43.91823529411765,453.461688130297
-0.1592802734375,0.0034443359375,0.8391650390625001,0.8541545713400721,0.25439453125,-1.794921875,-0.61865234375,44.01235294117648,453.461688130297
-0.1470732421875,-0.0048564453124999,0.9299853515625,0.9415555627521104,0.33740234375,-2.42333984375,-0.65625,43.25941176470588,453.461688130297
-0.1402373046875,-0.0146220703124999,1.0515673828125005,1.060977976756054,0.53955078125,-2.77783203125,-0.6728515625,42.97705882352941,453.461688130297
-0.1456083984375,-0.0502666015625,1.1941455078125005,1.2040398792220093,0.80029296875,-2.39990234375,-0.51611328125,43.73,452.557713652408
-0.0840849609375,-0.0834697265625,1.3118212890625005,1.3171607989709837,1.23681640625,-1.76123046875,-0.5419921875,42.55352941176471,452.557713652408
-0.0289091796875,-0.1196025390625,1.3240283203125005,1.3297336203202286,1.4033203125,-1.49658203125,-0.6455078125,43.447647058823534,452.557713652408
-0.0650419921875,-0.1679423828125,1.3513720703125005,1.3633200567413186,1.52880859375,-0.7841796875,-0.8017578125,43.118235294117646,452.557713652408
-0.1265654296875,-0.2084697265625,1.3787158203125005,1.400119904888505,1.52685546875,-0.00390625,-0.8701171875,43.777058823529416,451.81383737453234
-0.1885771484375,-0.2309306640625,1.3904345703125005,1.4220402971917756,1.46826171875,0.6962890625,-0.7763671875,44.01235294117648,451.81383737453234
-0.2198271484375,-0.2753642578125,1.4138720703125005,1.4571148482122291,1.3916015625,1.19482421875,-0.5751953125,43.447647058823534,451.81383737453234
-0.2461943359375,-0.2919658203125,1.3953173828125005,1.4466396545294833,1.39990234375,1.34912109375,-0.28271484375,42.55352941176471,451.81383737453234
-0.2769560546875,-0.2343486328125,1.4133837890625005,1.4592044658353482,1.2724609375,1.65185546875,-0.07470703125,42.60058823529412,451.81383737453234
-0.2862333984375,-0.1679423828125,1.4793017578125005,1.516069883941032,1.21923828125,1.76171875,-0.11865234375,43.16529411764706,450.9000725233975
-0.2549833984375,-0.1425517578125,1.5710986328125005,1.5980264237988926,1.1435546875,1.18505859375,0.17529296875,43.25941176470588,450.9000725233975
-0.1397490234375,-0.1117900390625,1.6326220703125005,1.6424011771966085,1.06494140625,0.3037109375,0.01318359375,42.60058823529412,450.9000725233975
0.0921845703125,-0.0839580078125,1.6511767578125005,1.655877902388864,0.62060546875,-0.07666015625,-0.5439453125,43.25941176470588,450.9000725233975
0.3255830078125,-0.0405009765625,1.5955126953125005,1.628896984152807,0.05126953125,0.0029296875,-0.9814453125,43.118235294117646,451.7156102114952
0.5399384765625,0.0210224609375,1.4910205078125005,1.585912247589364,-0.11328125,0.81591796875,-1.03125,43.25941176470588,451.7156102114952
0.5819306640625,0.0771748046875,1.4031298828125005,1.5209775528574367,0.01171875,1.74169921875,-0.86083984375,44.01235294117648,451.7156102114952
0.4906220703125,0.0605732421875,1.2424853515625005,1.3372168793409016,-0.3173828125,2.177734375,-0.2255859375,42.69470588235294,451.7156102114952
0.4832978515625,0.0747333984375,1.1687548828125005,1.2669450936267947,-0.6630859375,2.29296875,-0.05517578125,43.30647058823529,451.7156102114952
0.4627900390625,0.1123310546875,1.1257861328125005,1.2223695443422995,-0.58056640625,2.01220703125,-0.37060546875,43.30647058823529,453.7266270110436
0.3558564453125,0.1538349609375,1.1165087890625005,1.1819013837587726,-0.51416015625,1.40234375,-0.4931640625,43.91823529411765,453.7266270110436
0.1927705078125,0.1582294921875,1.1506884765625005,1.1774043532168257,-0.4052734375,0.72412109375,-0.16552734375,43.25941176470588,453.7266270110436
0.0086884765625,0.1343037109375,1.1775439453125005,1.185209989638414,-0.06787109375,0.52392578125,0.755859375,44.01235294117648,453.7266270110436
-0.1094755859375,0.0923115234375,1.2097705078125005,1.2182163202192893,0.33154296875,0.7744140625,2.0478515625,43.30647058823529,453.95291634600335
-0.0801787109375,0.0317646484375,1.1824267578125005,1.1855676514518008,0.67578125,0.98486328125,2.560546875,43.91823529411765,453.95291634600335
-0.0171904296875,-0.0287822265625,1.2034228515625005,1.2038897321189992,0.7734375,2.03857421875,2.3837890625,43.91823529411765,453.95291634600335
0.0438447265625,-0.0981181640625,1.1350634765625005,1.1401397414319376,0.70751953125,2.8056640625,2.09423828125,43.16529411764706,453.95291634600335
0.0667939453125,-0.1386455078125,1.0120166015625005,1.0236511172294531,0.47998046875,3.34326171875,2.0361328125,43.87117647058824,453.95291634600335
0.0799775390625,-0.1728251953125,0.9060595703125,0.9258557662207272,0.2158203125,3.33203125,2.060546875,44.01235294117648,452.74755829599104
0.0921845703125,-0.1742900390625,0.8342822265625001,0.8572641636497998,0.08447265625,2.8984375,1.681640625,43.73,452.74755829599104
0.0511689453125,-0.1362041015625,0.7429736328125001,0.757086281279383,0.17578125,2.1162109375,1.14013671875,42.97705882352941,452.74755829599104
-0.0084013671875,-0.1401103515625,0.6897509765625001,0.7038877064237655,0.134765625,1.74609375,0.78076171875,43.25941176470588,452.74755829599104
-0.0606474609375,-0.1347392578125,0.6404345703125001,0.6572588690655955,0.0556640625,1.44482421875,0.8828125,42.55352941176471,453.1769282989415
-0.0635771484375,-0.1005595703125,0.5969775390625001,0.6087170632814537,-0.0537109375,1.58056640625,0.83935546875,43.25941176470588,453.1769282989415
-0.0406279296875,-0.0380595703125,0.5676806640625001,0.5704038007530329,-0.3232421875,1.80517578125,0.7197265625,43.25941176470588,453.1769282989415
-0.0274443359375,-0.0131572265624999,0.5027392578125001,0.5036596723301665,-0.4375,1.70703125,0.6943359375,42.55352941176471,453.1769282989415
-0.0503935546875,0.0151630859375,0.5090869140625001,0.5117996830781252,-0.517578125,1.8017578125,0.86474609375,43.91823529411765,453.1769282989415
-0.0689482421875,0.0083271484375,0.4793017578125,0.4843071097392632,-0.5302734375,1.81298828125,1.33154296875,43.25941176470588,453.2409512024915
-0.0694365234375,0.0249287109375,0.4734423828125,0.4791560927915555,-0.46484375,1.7890625,1.6923828125,42.69470588235294,453.2409512024915
-0.0762724609375,0.0224873046875,0.4568408203125,0.4637097176826995,-0.45556640625,1.6123046875,2.091796875,44.01235294117648,453.2409512024915
-0.0523466796875,0.0342060546875,0.4578173828125,0.4620681606179733,-0.4521484375,1.36376953125,2.1806640625,43.30647058823529,453.2409512024915
-0.0626005859375,0.0039326171875,0.4495166015625,0.4538716491674283,-0.50830078125,1.2353515625,2.1953125,42.60058823529412,453.5632704036919
-0.0645537109375,-0.0151103515624999,0.4646533203125,0.469359363811542,-0.5009765625,1.08740234375,2.20166015625,43.447647058823534,453.5632704036919
-0.0616240234375,-0.0029033203124999,0.5242236328125001,0.5278412325051894,-0.78564453125,0.98046875,2.09619140625,42.74176470588235,453.5632704036919
-0.0645537109375,-0.0063212890624999,0.5549853515625001,0.5587628125959759,-0.751953125,0.7236328125,2.1435546875,43.447647058823534,453.5632704036919
-0.0630888671875,-0.0043681640624999,0.6052783203125001,0.6085730285352781,-0.96875,0.20703125,2.41064453125,42.55352941176471,453.5632704036919
-0.0933623046875,0.0185810546875,0.6682666015625001,0.6750126119516247,-1.0634765625,-0.4755859375,2.81884765625,43.91823529411765,453.242049893278
-0.1832060546875,0.0395771484375,0.7590869140625001,0.7818847435866315,-1.16259765625,-0.71875,3.1962890625,44.01235294117648,453.242049893278
-0.2613310546875,0.0722919921875,0.8918994140625001,0.9322041713506488,-0.93798828125,-0.564453125,3.568359375,42.97705882352941,453.242049893278
-0.2652373046875,0.0835224609375,1.0022509765625005,1.0401124214715598,-0.55712890625,-0.54833984375,3.80859375,43.25941176470588,453.242049893278
-0.2081083984375,0.0864521484375,1.0452197265625005,1.0692368101898984,-0.712890625,-1.1669921875,3.76220703125,42.55352941176471,452.9826642048742
-0.1412138671875,0.1108662109375,1.1716845703125005,1.1853596101276926,-0.80078125,-1.57568359375,3.47119140625,42.69470588235294,452.9826642048742
-0.0918974609375,0.1269794921875,1.2551806640625005,1.2649298139419969,-0.798828125,-1.7841796875,2.96533203125,43.02411764705882,452.9826642048742
-0.0958037109375,0.1469990234375,1.2991259765625005,1.310921571605428,-0.66748046875,-1.48291015625,2.27294921875,44.01235294117648,452.9826642048742
-0.1802763671875,0.1719013671875,1.3284228515625005,1.3515757178792087,-0.3486328125,-0.6904296875,1.607421875,43.353529411764704,452.9826642048742
-0.2710966796875,0.2265888671875,1.3997119140625005,1.4436167659179528,-0.08349609375,0.31884765625,1.158203125,42.55352941176471,452.4009904638336
-0.3091826171875,0.2617451171875,1.4563525390625005,1.5116438453472436,0.07373046875,0.76953125,0.89697265625,43.91823529411765,452.4009904638336
-0.3501982421875,0.2358662109375,1.4456103515625005,1.5060082890999915,0.240234375,0.8291015625,0.72705078125,42.69470588235294,452.4009904638336
-0.3482451171875,0.1621357421875,1.4348681640625005,1.4853987036414558,0.22412109375,0.783203125,0.5654296875,43.02411764705882,452.4009904638336
-0.3667998046875,0.0805927734375,1.4685595703125005,1.5158180970702164,0.16796875,0.76220703125,0.30224609375,43.73,451.00156534496847
-0.4068388671875,-0.0019267578124999,1.4885791015625005,1.543175076865453,0.1025390625,0.802734375,0.224609375,43.353529411764704,451.00156534496847
-0.4429716796875,-0.0556376953125,1.5242236328125005,1.5882623035786587,0.01318359375,1.0419921875,0.31982421875,44.01235294117648,451.00156534496847
-0.4239287109375,-0.1078837890625,1.5481494140625005,1.6087638335572054,-0.09765625,1.1162109375,0.8642578125,42.55352941176471,451.00156534496847
-0.2969755859375,-0.1552470703125,1.5217822265625005,1.558241732391049,-0.24951171875,0.5830078125,1.5703125,43.91823529411765,451.00156534496847
-0.0884794921875,-0.1606181640625,1.4114306640625005,1.4232931302512764,-0.3564453125,0.525390625,1.8798828125,43.447647058823534,450.78637039958096
0.1253876953125,-0.1738017578125,1.2585986328125005,1.2767143939315442,-0.28662109375,1.3291015625,1.9169921875,43.16529411764706,450.78637039958096
0.3119111328125,-0.2284892578125,1.1516650390625005,1.2148367206776862,-0.2734375,2.22021484375,1.283203125,43.353529411764704,450.78637039958096
0.3695283203125,-0.2807353515625,1.0520556640625005,1.1498628776579782,-0.1796875,2.3984375,0.71630859375,43.447647058823534,450.78637039958096
0.3578095703125,-0.3363994140625,0.9661181640625,1.083778834135593,-0.1650390625,2.36376953125,0.70166015625,43.30647058823529,453.1427195401456
0.3783173828125,-0.3344462890625,0.9729541015625,1.096183399871148,-0.060546875,2.4130859375,0.65576171875,43.16529411764706,453.1427195401456
0.4290986328125,-0.3940166015625,0.9534228515625,1.1173136770262806,0.44140625,0.599609375,1.06396484375,42.97705882352941,453.1427195401456
0.4388642578125,-0.3686259765625,1.0408251953125005,1.188193601472116,0.19580078125,-1.72998046875,1.09521484375,43.02411764705882,453.1427195401456
0.3207001953125,-0.3461650390625,1.1140673828125005,1.2098863512699496,-0.07470703125,-3.24072265625,1.240234375,42.55352941176471,453.1427195401456
0.1751923828125,-0.2450908203125,1.2166064453125005,1.253352753207529,-0.23046875,-3.734375,1.31591796875,43.25941176470588,454.0456767425355
-0.0054716796875,-0.0585673828125,1.3420947265625005,1.3433831667379863,-0.23681640625,-2.70654296875,0.93896484375,43.118235294117646,454.0456767425355
-0.1041044921875,0.1587177734375,1.3709033203125005,1.3839815716050603,0.04345703125,-1.400390625,0.30810546875,42.55352941176471,454.0456767425355
-0.1529326171875,0.2173115234375,1.2571337890625005,1.2849116884911524,0.3583984375,-1.4853515625,0.6865234375,43.16529411764706,454.0456767425355
-0.1119169921875,0.2085224609375,1.1545947265625005,1.1785991737913544,0.443359375,-2.1142578125,1.59814453125,42.55352941176471,453.15375619039287
-0.0337919921875,0.1850849609375,1.1062548828125005,1.1221400123192002,0.30224609375,-1.26904296875,2.04052734375,43.25941176470588,453.15375619039287
-0.0088896484375,0.1469990234375,0.9578173828125,0.9690726895123546,0.19189453125,-0.15478515625,1.75732421875,43.91823529411765,453.15375619039287
-0.0176787109375,0.1577412109375,0.9148486328125,0.9285164766482829,0.31103515625,1.40966796875,1.38818359375,43.30647058823529,453.15375619039287
-0.0865263671875,0.0830341796875,0.8342822265625001,0.8428572362939792,0.357421875,2.28466796875,1.39794921875,42.55352941176471,453.15375619039287
-0.1021513671875,0.0537373046875,0.6853564453125001,0.6950079545334273,0.50048828125,1.87646484375,1.7236328125,43.777058823529416,452.9374181616157
-0.1583037109375,0.0293232421875,0.6663134765625001,0.6854878310209275,0.52197265625,1.95068359375,1.95654296875,43.02411764705882,452.9374181616157
-0.1236357421875,-0.0253642578125,0.5632861328125001,0.5772524662047746,0.6640625,1.77880859375,1.88232421875,43.91823529411765,452.9374181616157
-0.1583037109375,-0.0649150390625,0.5544970703125001,0.5802939153379217,0.671875,1.93115234375,1.9814453125,43.91823529411765,452.9374181616157
-0.1241240234375,-0.0727275390625,0.5681689453125001,0.5860989835769375,0.923828125,2.072265625,2.037109375,43.353529411764704,453.3679022082877
-0.0757841796875,-0.0556376953125,0.5618212890625001,0.5696331765921321,0.93310546875,2.43017578125,1.4365234375,42.55352941176471,453.3679022082877
-0.0181669921875,-0.0409892578125,0.5393603515625001,0.5412206090854117,0.76513671875,2.501953125,0.53369140625,43.447647058823534,453.3679022082877
-0.0323271484375,-0.0424541015625,0.4910205078125,0.4939114640884788,0.47412109375,2.50341796875,-0.15380859375,43.118235294117646,453.3679022082877
-0.0289091796875,-0.0331767578125,0.5203173828125001,0.5221748909953476,0.32958984375,2.5703125,-0.50927734375,43.353529411764704,453.3679022082877
-0.0318388671875,-0.0722392578125,0.4402392578125,0.4472614760432481,0.10400390625,1.9052734375,-0.55322265625,42.74176470588235,454.0467707223572
-0.0508818359375,-0.0610087890625,0.4646533203125,0.4713955256986155,0.01806640625,1.37646484375,-0.28173828125,43.118235294117646,454.0467707223572
-0.0914091796875,-0.0483134765625,0.5178759765625001,0.5280959735211583,-0.015625,0.9677734375,-0.12060546875,42.55352941176471,454.0467707223572
-0.1167998046875,-0.1464580078125,0.5505908203125001,0.5815861018282986,-0.01708984375,0.60791015625,-0.0419921875,42.69470588235294,454.0467707223572
-0.1622099609375,-0.0014384765624999,0.6277392578125001,0.6483600206992675,0.02001953125,0.26318359375,-0.12451171875,43.91823529411765,453.93859422709113
-0.1910185546875,-0.0038798828124999,0.6682666015625001,0.6950420077156728,0.11669921875,-0.14990234375,-0.21484375,43.91823529411765,453.93859422709113
-0.1705107421875,-0.0019267578124999,0.7297900390625001,0.7494472140930577,0.09814453125,-0.64453125,-0.5283203125,43.30647058823529,453.93859422709113
-0.1812529296875,-0.0190166015625,0.8469775390625001,0.8663632075126791,0.14990234375,-0.90185546875,-0.78173828125,43.02411764705882,453.93859422709113
-0.1597685546875,-0.0322001953125,0.9739306640625,0.9874734335901488,0.26171875,-1.033203125,-1.06494140625,43.91823529411765,453.93859422709113
-0.1314482421875,-0.0268291015625,1.1209033203125005,1.1289033149709595,0.419921875,-1.3486328125,-1.46435546875,42.55352941176471,452.8182136166087
-0.1387724609375,-0.0531962890625,1.2219775390625005,1.2309820254812478,0.60009765625,-1.4697265625,-1.826171875,43.447647058823534,452.8182136166087
-0.1861357421875,-0.0844462890625,1.2659228515625005,1.2823175723525944,0.72216796875,-1.05517578125,-2.09375,42.60058823529412,452.8182136166087
-0.2554716796875,-0.1327861328125,1.2717822265625005,1.3039662449580214,0.6826171875,-0.27685546875,-2.13916015625,43.49470588235295,452.8182136166087
-0.3628935546875,-0.1596416015625,1.2922900390625005,1.3517361865553974,0.62255859375,0.4638671875,-1.955078125,43.02411764705882,451.8712178814955
-0.3907255859375,-0.1601298828125,1.3596728515625005,1.4237339379785283,0.51171875,1.197265625,-1.75830078125,43.91823529411765,451.8712178814955
-0.3682646484375,-0.1498759765625,1.4133837890625005,1.468242280696217,0.40576171875,1.79345703125,-1.501953125,44.01235294117648,451.8712178814955
-0.2886748046875,-0.1205791015625,1.4216845703125005,1.4556989661532445,0.3193359375,2.03564453125,-1.24560546875,44.01235294117648,451.8712178814955
-0.2349638671875,-0.0654033203125,1.4954150390625005,1.5151738356524982,0.1640625,2.37158203125,-1.3828125,43.16529411764706,451.8712178814955
-0.1968779296875,-0.0380595703125,1.6321337890625005,1.644405714989437,0.0107421875,1.7548828125,-1.7568359375,44.01235294117648,451.7740948528864
-0.0557646484375,0.0180927734375,1.7786181640625005,1.779584113774642,-0.205078125,0.91064453125,-2.4609375,43.16529411764706,451.7740948528864
0.1957001953125,0.0957294921875,1.7502978515625005,1.7638042043560649,-0.49462890625,0.62109375,-2.97119140625,43.02411764705882,451.7740948528864
0.3924775390625,0.1972919921875,1.6741259765625005,1.7307976583792843,-0.6884765625,1.42529296875,-2.8193359375,42.60058823529412,451.7740948528864
0.4852509765625,0.2920185546875,1.5422900390625005,1.6429856697877936,-1.26904296875,1.3740234375,-2.16943359375,43.25941176470588,452.7851038988128
0.4881806640625,0.2954365234375,1.3015673828125005,1.4211547249144696,-1.9375,0.49365234375,-1.94921875,43.91823529411765,452.7851038988128
0.4891572265625,0.3813740234375,1.2864306640625005,1.4281543304179385,-1.20751953125,-0.95751953125,-2.16455078125,44.01235294117648,452.7851038988128
0.3324189453125,0.3828388671875,1.2502978515625005,1.3491896349490264,-0.4140625,-2.91357421875,-2.5615234375,43.25941176470588,452.7851038988128
0.1278291015625,0.4341083984375,1.2410205078125005,1.3209550641908463,-0.40576171875,-5.51025390625,-2.33056640625,43.353529411764704,452.7851038988128
-0.1197294921875,0.4067646484375,1.3787158203125005,1.44244582002165,0.34912109375,-5.3134765625,-1.6669921875,43.25941176470588,452.9230868142882
-0.3028349609375,0.3149677734375,1.4651416015625005,1.5289060221280188,0.9765625,-2.4169921875,-1.16748046875,43.91823529411765,452.9230868142882
-0.3580107421875,0.2011982421875,1.4866259765625005,1.5423064605879702,1.51220703125,1.03955078125,-1.36767578125,43.30647058823529,452.9230868142882
-0.1514677734375,0.0893818359375,1.3181689453125005,1.3298499792728282,1.59716796875,2.7294921875,-1.9833984375,42.55352941176471,452.9230868142882
-0.0469755859375,-0.0405009765625,1.1350634765625005,1.1367568476164274,1.65625,2.294921875,-2.54296875,43.118235294117646,452.6559630618999
0.2269501953125,-0.1366923828125,0.9949267578125,1.029597228086126,1.2216796875,1.38671875,-3.70458984375,43.30647058823529,452.6559630618999
0.2860322265625,-0.1830791015625,0.9426806640625,1.0019876378771095,0.81884765625,0.59912109375,-4.46923828125,42.60058823529412,452.6559630618999
0.1849580078125,-0.2255595703125,0.8630908203125001,0.9110501350206984,0.56884765625,0.50732421875,-4.5078125,43.58882352941177,452.6559630618999
0.1024384765625,-0.1869853515625,0.8391650390625001,0.8658262677721004,0.3427734375,1.1845703125,-4.25927734375,44.01235294117648,452.6559630618999
0.0384736328125,-0.1850322265625,0.6809619140625001,0.7067009789805948,0.2314453125,1.41796875,-4.087890625,43.91823529411765,452.6449265002955
-0.0362333984375,-0.1498759765625,0.6165087890625001,0.6354988233696455,-0.03466796875,1.66015625,-3.73876953125,43.30647058823529,452.6449265002955
-0.0738310546875,-0.0429423828125,0.5525439453125001,0.5591063265420871,0.1162109375,1.45263671875,-3.375,43.25941176470588,452.6449265002955
-0.0767607421875,-0.0077861328124999,0.4685595703125,0.4748693571254987,-0.22021484375,1.529296875,-2.76318359375,43.91823529411765,452.6449265002955
-0.0596708984375,0.0830341796875,0.4294970703125,0.4415008771494516,-0.2958984375,1.35009765625,-2.70556640625,43.118235294117646,453.095280724669
-0.0025419921874999,0.1479755859375,0.3875048828125,0.4148050987648984,-0.41796875,1.3818359375,-3.314453125,42.69470588235294,453.095280724669
-0.0831083984375,0.1181904296875,0.3875048828125,0.4135650103237598,-0.67431640625,1.33642578125,-3.205078125,43.30647058823529,453.095280724669
-0.1065458984375,0.0752216796875,0.3626025390625,0.3853452100434554,-0.69189453125,1.17626953125,-2.38623046875,42.69470588235294,453.095280724669
-0.0845732421875,0.0923115234375,0.3801806640625,0.4002641477580289,-0.416015625,1.02587890625,-1.9716796875,43.68294117647059,453.095280724669
-0.0821318359375,0.0332294921875,0.3640673828125,0.3746930701967238,-0.10791015625,0.58251953125,-1.34375,43.16529411764706,453.38559047166245
-0.0938505859375,0.0195576171875,0.3801806640625,0.3920813311009189,0.0693359375,0.0126953125,-0.9033203125,42.60058823529412,453.38559047166245
-0.1080107421875,0.0132099609375,0.4368212890625,0.4501707032605399,0.048828125,-0.4580078125,-0.54736328125,43.777058823529416,453.38559047166245
-0.1392607421875,0.0044208984375,0.4841845703125,0.5038331040992725,0.1162109375,-0.78955078125,-0.2744140625,43.87117647058824,453.38559047166245
-0.1739287109375,-0.0444072265625,0.5335009765625001,0.5628911886435023,0.16015625,-0.95751953125,0.03857421875,42.69470588235294,452.7288228441095
-0.1563505859375,-0.0453837890625,0.6135791015625001,0.6348106079035809,0.21044921875,-1.1064453125,0.13671875,44.01235294117648,452.7288228441095
-0.1724638671875,-0.0590556640625,0.7224658203125001,0.7451095345403548,0.224609375,-0.927734375,0.00830078125,42.69470588235294,452.7288228441095
-0.1832060546875,-0.0424541015625,0.8508837890625001,0.8714184022058493,0.27783203125,-0.4794921875,-0.12353515625,43.777058823529416,452.7288228441095
-0.2276396484375,-0.0424541015625,0.9221728515625,0.9508022551714632,0.333984375,-0.3017578125,0.232421875,43.30647058823529,452.7288228441095
-0.2139677734375,-0.0893291015625,0.9568408203125,0.9845335199332031,0.32763671875,-0.7548828125,0.6796875,43.02411764705882,451.9860053112535
-0.1539091796875,-0.1025126953125,1.0745166015625005,1.0903131730497149,0.17431640625,-1.32958984375,0.95263671875,42.55352941176471,451.9860053112535
-0.0792021484375,-0.0966533203125,1.1409228515625005,1.1477455283563749,0.01416015625,-1.38916015625,0.7119140625,43.25941176470588,451.9860053112535
-0.1402373046875,-0.0966533203125,1.2000048828125005,1.2120313876823852,-0.30712890625,-1.11083984375,0.51318359375,43.87117647058824,451.9860053112535
-0.2813505859375,-0.0614970703125,1.2693408203125005,1.3016013829033857,-0.66650390625,-0.69189453125,0.5634765625,43.25941176470588,451.5765392430962
-0.3834013671875,0.0180927734375,1.2400439453125005,1.298088187727666,-1.09765625,-0.40625,0.74658203125,43.353529411764704,451.5765392430962
-0.4605498046875,0.0781513671875,1.4597705078125005,1.5326916500947394,-0.6728515625,0.8623046875,1.00048828125,43.118235294117646,451.5765392430962
-0.4634794921875,0.1035419921875,1.4846728515625005,1.5587776172345,-0.5673828125,1.46142578125,1.63720703125,44.01235294117648,451.5765392430962
-0.3917021484375,0.0718037109375,1.4348681640625005,1.4891047626795906,-0.4853515625,1.55908203125,1.8271484375,43.25941176470588,451.5765392430962
-0.3672880859375,0.0044208984375,1.4573291015625005,1.5029065814865512,-0.56982421875,1.31787109375,1.8681640625,43.25941176470588,450.3945897220928
-0.4078154296875,-0.0756572265625,1.5027392578125005,1.5589299912418113,-0.60595703125,1.11083984375,1.8759765625,42.93,450.3945897220928
-0.4146513671875,-0.1738017578125,1.5310595703125005,1.5957086874409991,-0.6123046875,1.07666015625,2.3544921875,43.30647058823529,450.3945897220928
-0.2979521484375,-0.2519267578125,1.5481494140625005,1.5965616750763194,-0.6123046875,0.927734375,2.90576171875,44.01235294117648,450.3945897220928
-0.0494169921875,-0.2113994140625,1.4358447265625005,1.4521645327510824,-0.68212890625,0.8564453125,3.26025390625,43.353529411764704,450.5965283355079
0.1756806640625,-0.1371806640625,1.2463916015625005,1.266165176729957,-0.71728515625,1.5361328125,3.67236328125,43.30647058823529,450.5965283355079
0.2982392578125,-0.1405986328125,1.1829150390625005,1.2280075814462756,-0.8212890625,2.1953125,3.48388671875,42.69470588235294,450.5965283355079
0.3270478515625,-0.1357158203125,1.1580126953125005,1.2109386787115457,-0.86083984375,1.73828125,3.28271484375,43.16529411764706,450.5965283355079
0.3441376953125,-0.0932353515625,1.0867236328125005,1.1437184261124675,-0.68408203125,0.9755859375,3.2626953125,42.55352941176471,450.5965283355079
0.3412080078125,-0.1113017578125,1.0501025390625005,1.1097415592979465,-0.556640625,0.3935546875,3.861328125,42.55352941176471,453.3083363579666
0.3324189453125,-0.1488994140625,1.1316455078125005,1.1888208216813172,-0.4736328125,-0.17529296875,4.33935546875,43.91823529411765,453.3083363579666
0.3138642578125,-0.1811259765625,1.1995166015625005,1.2530592440670796,-0.373046875,-1.22265625,4.447265625,44.01235294117648,453.3083363579666
0.2577119140625,-0.1650126953125,1.2434619140625005,1.2805632167089722,0.0869140625,-2.32666015625,4.0888671875,43.16529411764706,453.3083363579666
0.1790986328125,-0.1005595703125,1.2927783203125005,1.308993633646379,0.0615234375,-2.39990234375,3.6943359375,43.30647058823529,453.5876189825562
0.1346650390625,-0.0136455078124999,1.2952197265625005,1.30227301772931,0.18017578125,-1.9873046875,3.25390625,43.25941176470588,453.5876189825562
0.0399384765625,0.0937763671875,1.2976611328125005,1.301657982945305,0.22314453125,-1.6318359375,2.91357421875,42.60058823529412,453.5876189825562
-0.0054716796875,0.1577412109375,1.2722705078125005,1.2820235855693562,0.35400390625,-1.9208984375,2.72998046875,44.01235294117648,453.5876189825562
-0.0440458984375,0.1416279296875,1.2512744140625005,1.260034194347196,0.4873046875,-1.74853515625,2.6904296875,43.16529411764706,453.5876189825562
-0.0235380859375,0.1098896484375,1.1243212890625005,1.1299239520261888,0.6328125,-1.31103515625,2.7001953125,43.777058823529416,452.855771517445
-0.0269560546875,0.0981708984375,1.0515673828125005,1.0564838450158491,0.2978515625,0.177734375,2.74853515625,42.97705882352941,452.855771517445
-0.0132841796875,0.1079365234375,1.0623095703125005,1.067861594823633,0.4599609375,0.9423828125,2.54150390625,43.87117647058824,452.855771517445
-0.0650419921875,0.0849873046875,0.8953173828125001,0.9016909219194732,0.30078125,1.8994140625,2.6455078125,43.777058823529416,452.855771517445
-0.0923857421875,0.0727802734375,0.7791064453125001,0.7879333389879197,0.40185546875,2.19482421875,2.7939453125,44.01235294117648,453.1990690399158
-0.1568388671875,0.0268818359375,0.6970751953125001,0.715006916948353,0.31396484375,2.31201171875,2.8349609375,43.02411764705882,453.1990690399158
-0.1446318359375,0.0263935546875,0.6292041015625001,0.6461522956074418,0.2001953125,2.27197265625,2.634765625,44.01235294117648,453.1990690399158
-0.0909208984375,0.0117451171875,0.6062548828125001,0.6131472420915131,0.171875,1.89501953125,2.52685546875,42.69470588235294,453.1990690399158
-0.0699248046875,-0.0165751953125,0.5945361328125001,0.5988634473983825,0.130859375,1.65087890625,2.32666015625,43.02411764705882,453.1990690399158
-0.0689482421875,-0.0165751953125,0.5701220703125001,0.5745152498043937,0.00048828125,1.5869140625,2.03173828125,43.777058823529416,453.629577432936
-0.0728544921875,0.0024677734375,0.5632861328125001,0.5679833926766686,-0.0302734375,1.54345703125,1.6630859375,43.02411764705882,453.629577432936
-0.0762724609375,0.0029560546875,0.5378955078125001,0.5432842753859578,-0.0888671875,1.27783203125,1.24365234375,43.16529411764706,453.629577432936
-0.1094755859375,-0.0155986328124999,0.5232470703125001,0.5348043734419087,-0.2294921875,0.88134765625,0.984375,43.16529411764706,453.629577432936
-0.1285185546875,-0.0341533203125,0.5276416015625001,0.5441407243413897,-0.44384765625,0.51904296875,1.1064453125,43.87117647058824,454.0611943909087
-0.1290068359375,-0.0063212890624999,0.5476611328125001,0.5626859148827946,-0.431640625,0.2578125,1.33056640625,42.55352941176471,454.0611943909087
-0.1382841796875,0.0019794921875,0.5930712890625001,0.6089827474168875,-0.41015625,0.09765625,1.6240234375,42.97705882352941,454.0611943909087
-0.1568388671875,0.0112568359375,0.6204150390625001,0.6400312236999892,-0.32275390625,0.1376953125,1.8017578125,43.30647058823529,454.0611943909087
-0.1626982421875,0.0346943359375,0.6477587890625001,0.668779383477663,-0.13671875,0.134765625,1.86962890625,43.16529411764706,454.0611943909087
-0.1485380859375,0.0552021484375,0.6550830078125001,0.6739766964003755,-0.04833984375,-0.19775390625,1.60205078125,43.353529411764704,454.1782285639051
-0.1651396484375,0.0429951171875,0.6799853515625001,0.7010704400612001,-0.123046875,-0.4951171875,1.322265625,43.353529411764704,454.1782285639051
-0.1519560546875,0.0361591796875,0.7297900390625001,0.7463187187433454,0.0732421875,-0.60791015625,0.978515625,42.69470588235294,454.1782285639051
-0.1509794921875,0.0102802734375,0.8137744140625001,0.8277253699542563,0.19482421875,-0.7109375,0.630859375,43.91823529411765,454.1782285639051
-0.1392607421875,0.0127216796875,0.9231494140625,0.933681014122394,0.40771484375,-0.8251953125,0.2685546875,42.93,453.5743970104131
-0.1343779296875,0.0161396484375,1.0271533203125005,1.0360317850663552,0.623046875,-1.1103515625,-0.00830078125,43.49470588235295,453.5743970104131
-0.1514677734375,0.0171162109375,1.1233447265625005,1.133639636640652,0.80322265625,-1.32421875,-0.53857421875,43.447647058823534,453.5743970104131
-0.1792998046875,0.0097919921875,1.1726611328125005,1.1863298173278256,0.8359375,-1.361328125,-0.68701171875,42.88294117647059,453.5743970104131
-0.2120146484375,-0.0155986328124999,1.1921923828125005,1.2109980206977395,0.84716796875,-0.71240234375,-0.52001953125,43.777058823529416,453.5743970104131
-0.2095732421875,-0.0405009765625,1.2395556640625005,1.257799474182162,0.85302734375,0.31298828125,-0.466796875,42.60058823529412,453.0588837616105
-0.2183623046875,-0.0707744140625,1.2776416015625005,1.2980982920555428,0.7275390625,1.130859375,-0.37548828125,43.02411764705882,453.0588837616105
-0.2256865234375,-0.0795634765625,1.2717822265625005,1.2940999905201636,0.646484375,1.83349609375,-0.4970703125,42.55352941176471,453.0588837616105
-0.2144560546875,-0.0448955078125,1.2874072265625005,1.3059189764373669,0.6416015625,2.2138671875,-0.61669921875,43.353529411764704,453.0588837616105
-0.1954130859375,0.0156513671875,1.3713916015625005,1.3853325103694831,0.5751953125,2.376953125,-0.8828125,42.55352941176471,452.8315065773896
-0.1446318359375,0.0669208984375,1.4910205078125005,1.4995128973542642,0.38720703125,2.19189453125,-1.42578125,42.60058823529412,452.8315065773896
-0.1324248046875,0.1460224609375,1.5403369140625005,1.5528994483927003,0.17822265625,1.375,-2.49072265625,43.91823529411765,452.8315065773896
0.1087861328125,0.1601826171875,1.4788134765625005,1.4914362849294651,-0.197265625,0.94384765625,-3.0185546875,43.118235294117646,452.8315065773896
0.3001923828125,0.2099873046875,1.3699267578125005,1.4180653922154776,-0.515625,1.08544921875,-2.76806640625,43.87117647058824,452.8315065773896
0.4193330078125,0.2973896484375,1.2957080078125005,1.393965572009688,-0.96337890625,0.61083984375,-2.8330078125,43.73,452.9507128819346
0.3402314453125,0.3286396484375,1.2673876953125005,1.3527871322325946,-1.162109375,-0.3564453125,-2.4609375,42.69470588235294,452.9507128819346
0.3182587890625,0.2998310546875,1.2210009765625005,1.2969312637673311,-1.06103515625,-1.56982421875,-2.01318359375,43.87117647058824,452.9507128819346
0.2542939453125,0.2334248046875,1.2561572265625005,1.302721584956351,-0.67822265625,-2.802734375,-1.3203125,43.353529411764704,452.9507128819346
0.1400361328125,0.2138935546875,1.3269580078125005,1.3513615821561802,-0.07861328125,-3.48095703125,-0.12548828125,43.447647058823534,453.5302529228353
0.0672822265625,0.1914326171875,1.4158251953125005,1.430291693542315,0.43798828125,-3.09228515625,1.02685546875,43.25941176470588,453.5302529228353
0.0321259765625,0.1557880859375,1.4700244140625005,1.4786053510081592,0.751953125,-2.06201171875,1.400390625,43.16529411764706,453.5302529228353
-0.0044951171875,0.1030537109375,1.5037158203125005,1.5072496613615858,1.16162109375,-0.92578125,1.2099609375,43.447647058823534,453.5302529228353
-0.0342802734375,0.0464130859375,1.4915087890625005,1.4926244603194327,1.30029296875,-0.3095703125,0.689453125,43.25941176470588,453.5302529228353
-0.0079130859375,-0.0243876953125,1.4753955078125005,1.4756182707885586,1.13134765625,0.8564453125,-0.125,43.91823529411765,453.3459185286781
0.0550751953125,-0.0727275390625,1.4080126953125005,1.410965032252029,0.82763671875,2.58935546875,-0.8017578125,42.97705882352941,453.3459185286781
0.1219697265625,-0.1098369140625,1.2576220703125005,1.2682878354796294,0.4248046875,4.06982421875,-1.2080078125,43.447647058823534,453.3459185286781
0.1512666015625,-0.1210673828125,1.1243212890625005,1.140893183855745,0.0546875,4.7587890625,-1.7041015625,43.91823529411765,453.3459185286781
0.0790009765625,-0.0986064453125,0.9939501953125,1.0019487891687642,-0.130859375,4.9921875,-2.1083984375,42.60058823529412,452.1195778108556
-0.0538115234375,-0.0439189453125,0.8464892578125001,0.849334220082992,-0.19384765625,4.53759765625,-2.30810546875,43.25941176470588,452.1195778108556
-0.1485380859375,-0.0077861328124999,0.7400439453125001,0.7548438433423437,-0.40283203125,4.2451171875,-2.48681640625,43.16529411764706,452.1195778108556
-0.1739287109375,0.0454365234375,0.6497119140625001,0.674122574481247,-0.50048828125,3.67919921875,-2.6171875,43.02411764705882,452.1195778108556
-0.1841826171875,0.0781513671875,0.5667041015625001,0.6009861990054954,-0.72705078125,3.0927734375,-2.52734375,43.25941176470588,452.1195778108556
-0.1695341796875,0.0776630859375,0.5042041015625001,0.5375827090151775,-0.82373046875,2.31201171875,-2.26708984375,43.25941176470588,452.5401087140944
-0.1631865234375,0.0669208984375,0.4627001953125,0.4951764522082261,-0.80419921875,1.4755859375,-1.94873046875,43.30647058823529,452.5401087140944
-0.1421904296875,0.0586201171875,0.4314501953125,0.4580433467140272,-0.734375,0.70068359375,-1.61962890625,43.118235294117646,452.5401087140944
-0.1255888671875,0.0454365234375,0.4299853515625,0.4502493129165804,-0.60693359375,0.2138671875,-1.32373046875,44.01235294117648,452.5401087140944
-0.1041044921875,0.0146748046875,0.4031298828125,0.4166134870628332,-0.37890625,0.177734375,-1.05322265625,43.25941176470588,453.7664947995384
-0.0875029296875,-0.0175517578125,0.3870166015625,0.397173358612069,-0.2783203125,0.291015625,-0.7783203125,43.353529411764704,453.7664947995384
-0.0826201171875,-0.0483134765625,0.3767626953125,0.3887292172718321,-0.2001953125,0.4501953125,-0.4736328125,43.30647058823529,453.7664947995384
-0.0840849609375,-0.0497783203125,0.3831103515625,0.3953753954197671,-0.201171875,0.478515625,-0.146484375,43.16529411764706,453.7664947995384
-0.1070341796875,-0.0346416015625,0.4275439453125,0.4420974794698213,-0.224609375,0.2578125,0.36083984375,42.55352941176471,453.7664947995384
-0.1412138671875,-0.0175517578125,0.4612353515625,0.4826877562351676,-0.27392578125,-0.1171875,0.84130859375,43.16529411764706,453.77644000218623
-0.1519560546875,0.0088154296875,0.5422900390625001,0.5632466962381347,-0.3525390625,-0.5322265625,1.236328125,42.55352941176471,453.77644000218623
-0.1636748046875,0.0254169921875,0.6047900390625001,0.627061764526088,-0.50537109375,-1.01953125,1.478515625,43.25941176470588,453.77644000218623
-0.1636748046875,0.0532490234375,0.7014697265625001,0.7222774241731548,-0.56591796875,-1.39306640625,1.57421875,43.447647058823534,453.77644000218623
-0.1631865234375,0.0522724609375,0.7874072265625001,0.8058364549007004,-0.595703125,-1.6044921875,1.5029296875,43.25941176470588,452.9264506237319
-0.1978544921875,0.0576435546875,0.8816455078125001,0.9054103936457464,-0.56689453125,-1.50146484375,1.88623046875,44.01235294117648,452.9264506237319
-0.1636748046875,0.0439716796875,0.9163134765625,0.9318547835548664,-0.6572265625,-2.06982421875,1.94921875,43.25941176470588,452.9264506237319
-0.1387724609375,0.0561787109375,1.0090869140625005,1.020132463756266,-0.91259765625,-2.44580078125,1.9208984375,43.25941176470588,452.9264506237319
-0.1182646484375,0.0718037109375,1.0393603515625005,1.0485286073229312,-1.01953125,-2.3701171875,1.646484375,43.25941176470588,452.9264506237319
-0.1426787109375,0.0903583984375,1.0872119140625005,1.1002506990692722,-1.037109375,-1.6494140625,1.3037109375,44.01235294117648,452.4507241224096
-0.2266630859375,0.1211201171875,1.1956103515625005,1.2229187831077049,-1.0087890625,-0.80810546875,0.87890625,42.69470588235294,452.4507241224096
-0.3199248046875,0.1733662109375,1.2942431640625005,1.344422958548266,-0.8310546875,-0.0830078125,0.51708984375,43.02411764705882,452.4507241224096
-0.3785185546875,0.2192646484375,1.3103564453125005,1.381443917091514,-0.4599609375,-0.18896484375,0.30126953125,43.30647058823529,452.4507241224096
-0.4146513671875,0.2080341796875,1.2986376953125005,1.3790119070969895,-0.3720703125,-0.1630859375,0.17919921875,43.353529411764704,451.5920002811862
-0.4170927734375,0.1880146484375,1.3430712890625005,1.4188574196108883,-0.2822265625,0.23681640625,0.26806640625,43.30647058823529,451.5920002811862
-0.4444365234375,0.1147724609375,1.3938525390625005,1.467488140260711,-0.33740234375,1.07177734375,0.6201171875,44.01235294117648,451.5920002811862
-0.3921904296875,0.0439716796875,1.4260791015625005,1.4796784940203442,-0.275390625,1.39794921875,1.0390625,43.16529411764706,451.5920002811862
-0.3628935546875,0.0395771484375,1.5261767578125005,1.569227064130379,-0.32275390625,1.259765625,1.4853515625,43.447647058823534,451.5920002811862
-0.2662138671875,0.0141865234375,1.6101611328125005,1.632081479016964,-0.310546875,0.703125,2.173828125,43.30647058823529,450.9463590785922
-0.0728544921875,-0.0121806640624999,1.5867236328125005,1.5884420142185236,-0.1611328125,0.1142578125,2.666015625,43.30647058823529,450.9463590785922
0.1659150390625,-0.0287822265625,1.5095751953125005,1.5189382762494923,0.03369140625,0.2626953125,2.57861328125,44.01235294117648,450.9463590785922
0.3880830078125,-0.0634501953125,1.4119189453125005,1.4656566638781248,0.04052734375,0.65087890625,1.8955078125,44.01235294117648,450.9463590785922
0.4525361328125,-0.0702861328125,1.4587939453125005,1.5289894920656055,0.490234375,1.23876953125,1.21337890625,43.447647058823534,452.3888940666209
0.3792939453125,-0.1332744140625,1.2498095703125005,1.3128784895941974,1.13427734375,1.802734375,0.41259765625,42.60058823529412,452.3888940666209
0.4715791015625,-0.2177470703125,1.0535205078125005,1.174608911953966,1.25927734375,0.27978515625,-0.68896484375,42.69470588235294,452.3888940666209
0.5267548828125,-0.3359111328125,0.9749072265625,1.1579080689406969,0.697265625,-2.89404296875,-1.796875,42.93,452.3888940666209
0.4618134765625,-0.3896220703125,1.0505908203125005,1.2119480667645102,0.3193359375,-6.5146484375,-2.109375,42.60058823529412,452.3888940666209
0.3275361328125,-0.3798564453125,1.1770556640625005,1.2794650732414814,-0.08349609375,-9.17431640625,-1.447265625,43.353529411764704,453.0224920146291
0.2181611328125,-0.2660869140625,1.3669970703125005,1.4096373703716485,-0.41552734375,-9.13134765625,-0.5908203125,43.30647058823529,453.0224920146291
-0.0748076171875,-0.0844462890625,1.5276416015625005,1.531801624933901,-0.376953125,-6.42236328125,-0.2392578125,43.49470588235295,453.0224920146291
-0.1739287109375,0.1020771484375,1.6248095703125005,1.6372773376861367,-0.42578125,-2.28271484375,-0.41259765625,42.55352941176471,453.0224920146291
-0.1167998046875,0.1909443359375,1.5100634765625005,1.5265626869046929,0.1376953125,0.4609375,-0.62451171875,42.69470588235294,453.302867347383
-0.0889677734375,0.1357685546875,1.3127978515625005,1.3227949819301084,0.1181640625,1.95166015625,-0.01220703125,43.353529411764704,453.302867347383
-0.0108427734375,0.1001240234375,1.2307666015625005,1.2348800805450042,0.00146484375,3.23291015625,0.2783203125,43.25941176470588,453.302867347383
0.0648408203125,0.0742451171875,1.0657275390625005,1.0702765329209063,0.251953125,3.83203125,0.06005859375,42.55352941176471,453.302867347383
0.0833955078125,0.0688740234375,0.9080126953125,0.9144317889686716,0.2685546875,3.63330078125,-0.3154296875,43.91823529411765,453.302867347383
0.0335908203125,0.0708271484375,0.7825244140625001,0.7864408984589455,0.21435546875,2.9140625,-0.462890625,43.118235294117646,452.7520642253759
-0.0513701171875,0.0571552734375,0.6868212890625001,0.691107153291765,0.28515625,2.18115234375,-0.505859375,44.01235294117648,452.7520642253759
-0.0840849609375,0.0478779296875,0.6292041015625001,0.6366006426560493,0.3916015625,1.5986328125,-0.3583984375,42.69470588235294,452.7520642253759
-0.1231474609375,0.0239521484375,0.6023486328125001,0.6152746362407711,0.5234375,1.18994140625,-0.083984375,43.118235294117646,452.7520642253759
-0.1285185546875,0.0068623046875,0.6086962890625001,0.6221537450205107,0.6904296875,1.40185546875,0.05859375,42.74176470588235,452.7520642253759
-0.1192412109375,-0.0238994140625,0.5793994140625001,0.5920247709296804,0.75146484375,1.8037109375,0.2021484375,44.01235294117648,452.7520642253759
-0.0713896484375,-0.0390361328125,0.5286181640625001,0.5348434022644322,0.8154296875,1.99755859375,0.38525390625,43.777058823529416,452.7520642253759
-0.0386748046875,-0.0400126953125,0.5105517578125001,0.5135755579359487,0.7685546875,1.8310546875,0.33447265625,43.91823529411765,452.7520642253759
-0.0123076171875,-0.0326884765625,0.4910205078125,0.4922612650140742,0.70361328125,1.7587890625,0.0625,43.73,452.7520642253759
0.0028291015625,-0.0258525390625,0.4910205078125,0.4917087518888335,0.60498046875,1.71630859375,-0.380859375,42.69470588235294,453.8813494498461
-0.0010771484374999,-0.0370830078125,0.4836962890625,0.4851169031996431,0.45947265625,1.59912109375,-0.83544921875,43.87117647058824,453.8813494498461
-0.0210966796875,-0.0336650390625,0.4885791015625,0.4901917412936864,0.3427734375,1.40380859375,-1.1396484375,43.91823529411765,453.8813494498461
-0.0503935546875,-0.0502666015625,0.4871142578125,0.4922870521869409,0.2353515625,0.91748046875,-1.0166015625,43.25941176470588,453.8813494498461
-0.0372099609375,-0.0258525390625,0.5178759765625001,0.5198542700310458,0.22021484375,0.61376953125,-1.00244140625,43.30647058823529,453.85042070140463
-0.0650419921875,-0.0448955078125,0.5496142578125001,0.5552674128383965,0.10302734375,0.25146484375,-1.150390625,42.60058823529412,453.85042070140463
-0.0718779296875,-0.0195048828125,0.6091845703125001,0.6137203906800848,0.0859375,-0.1181640625,-1.31103515625,43.16529411764706,453.85042070140463
-0.1070341796875,-0.0195048828125,0.6511767578125001,0.6602029430335075,0.02197265625,-0.68603515625,-1.53076171875,42.55352941176471,453.85042070140463
-0.1719755859375,-0.0307353515625,0.7156298828125001,0.7366453645876349,-0.1220703125,-1.1826171875,-1.62060546875,43.91823529411765,453.85042070140463
-0.1959013671875,-0.0219462890625,0.8191455078125001,0.8425309182688462,-0.0712890625,-1.2265625,-1.68310546875,43.91823529411765,453.5148518928084
-0.1924833984375,-0.0204814453125,0.8972705078125001,0.91791269327003,0.029296875,-1.0888671875,-1.78369140625,42.69470588235294,453.5148518928084
-0.1846708984375,-0.0199931640625,0.9597705078125,0.977579917452076,0.06396484375,-1.17529296875,-1.86865234375,44.01235294117648,453.5148518928084
-0.1802763671875,-0.0273173828125,1.0530322265625005,1.0687013980290396,0.11181640625,-1.45263671875,-1.75537109375,42.97705882352941,453.5148518928084
-0.1690458984375,-0.0302470703125,1.1555712890625005,1.1682621303228995,0.23486328125,-1.603515625,-1.45166015625,43.91823529411765,452.4496285133629
-0.1592802734375,-0.0385478515625,1.2307666015625005,1.2416289984887254,0.3759765625,-1.37109375,-1.27490234375,43.353529411764704,452.4496285133629
-0.1622099609375,-0.0810283203125,1.2424853515625005,1.2556462515244493,0.43017578125,-0.52783203125,-1.29150390625,43.25941176470588,452.4496285133629
-0.2403349609375,-0.1308330078125,1.2712939453125005,1.3004101140679882,0.40087890625,0.361328125,-1.166015625,43.91823529411765,452.4496285133629
-0.2984404296875,-0.1405986328125,1.3513720703125005,1.3910575610094276,0.42333984375,1.08203125,-1.00439453125,43.30647058823529,452.4496285133629
-0.3194365234375,-0.1337626953125,1.3792041015625005,1.422018320884061,0.451171875,1.31396484375,-0.93408203125,43.353529411764704,451.94300148231633
-0.3067412109375,-0.1122783203125,1.3728564453125005,1.411180856990228,0.4853515625,1.26123046875,-0.919921875,43.30647058823529,451.94300148231633
-0.2681669921875,-0.0971416015625,1.3904345703125005,1.419386600180911,0.32373046875,1.1943359375,-1.02880859375,43.353529411764704,451.94300148231633
-0.3814482421875,-0.0497783203125,1.5095751953125005,1.5578183183362049,0.40283203125,1.28369140625,-1.06494140625,43.447647058823534,451.94300148231633
-0.2120146484375,2.6367187500001e-05,1.5789111328125005,1.5930820999454354,0.28271484375,0.724609375,-1.13134765625,44.01235294117648,451.3061634736608
-0.1363310546875,0.0512958984375,1.6545947265625005,1.6609940201087876,0.19482421875,-0.02392578125,-1.34375,42.55352941176471,451.3061634736608
0.0409150390625,0.0962177734375,1.6526416015625005,1.6559457006682985,0.10009765625,-0.07275390625,-1.24658203125,42.97705882352941,451.3061634736608
0.2040009765625,0.1357685546875,1.5652392578125005,1.5843053471720068,0.0283203125,0.92041015625,-0.98388671875,42.788823529411765,451.3061634736608
0.3231416015625,0.2153583984375,1.4846728515625005,1.5346182621761897,0.56787109375,0.916015625,-0.755859375,43.87117647058824,451.3061634736608
0.4554658203125,0.2407490234375,1.1536181640625005,1.263425531724756,0.48486328125,-0.90478515625,-0.9365234375,43.118235294117646,452.0622020996042
0.5589814453125,0.3139912109375,1.0588916015625005,1.2378619311576091,-0.05712890625,-3.15087890625,-1.9560546875,42.55352941176471,452.0622020996042
0.5892548828125,0.2739521484375,0.9993212890625,1.1920210297328784,-0.2978515625,-4.77001953125,-3.28662109375,43.91823529411765,452.0622020996042
