AccX,AccY,AccZ,Magnitude,GyroX,GyroY,GyroZ,Temperature,Altitude
-0.6319365234375,-0.0014384765624999,0.7761767578125001,1.000897696189485,0.0849609375,0.34130859375,0.04638671875,43.63588235294118,452.63421825082105
-0.6285185546875,-0.0014384765624999,0.7815478515625001,1.0029230713685096,0.07568359375,0.34912109375,0.04931640625,43.63588235294118,452.63421825082105
-0.6285185546875,-0.0038798828124999,0.7800830078125001,1.0017884637761107,0.08154296875,0.35400390625,0.0400390625,43.63588235294118,452.63421825082105
-0.6265654296875,-0.0048564453124999,0.7786181640625001,0.9994268698352136,0.091796875,0.35986328125,0.05615234375,43.54176470588236,452.63421825082105
-0.6246123046875,-0.0029033203124999,0.7737353515625001,0.994391952246906,0.07763671875,0.3544921875,0.06640625,44.01235294117648,451.8856598576702
-0.6255888671875,-0.0014384765624999,0.7693408203125001,0.9915890266450466,0.0810546875,0.34375,0.06005859375,43.54176470588236,451.8856598576702
-0.6275419921875,-0.0033916015624999,0.7786181640625001,1.0000333496078384,0.09765625,0.3251953125,0.033203125,43.49470588235295,451.8856598576702
-0.6265654296875,-0.0048564453124999,0.7742236328125001,0.996007056373568,0.07861328125,0.337890625,0.046875,43.68294117647059,451.8856598576702
-0.6290068359375,-0.0009501953124999,0.7781298828125001,1.000568147130935,0.1064453125,0.326171875,0.03759765625,43.54176470588236,451.8856598576702
-0.6285185546875,0.0005146484375,0.7766650390625001,0.9991218250801216,0.0888671875,0.3193359375,0.04638671875,43.447647058823534,452.2694539320953
-0.6319365234375,-0.0038798828124999,0.7722705078125001,0.9978780288100793,0.080078125,0.31640625,0.0556640625,43.49470588235295,452.2694539320953
-0.6285185546875,-0.0029033203124999,0.7752001953125001,0.9979876480537416,0.0830078125,0.3310546875,0.05615234375,43.30647058823529,452.2694539320953
-0.6285185546875,-0.0029033203124999,0.7727587890625001,0.996092439951555,0.0869140625,0.32763671875,0.04931640625,43.49470588235295,452.2694539320953
-0.6319365234375,-0.0024150390624999,0.7791064453125001,1.00317319302074,0.0966796875,0.33251953125,0.041015625,43.54176470588236,452.3325897265646
-0.6324248046875,-0.0043681640624999,0.7791064453125001,1.003487452621496,0.08837890625,0.32763671875,0.06005859375,43.63588235294118,452.3325897265646
-0.6299833984375,-0.0024150390624999,0.7795947265625001,1.0023237263502218,0.0908203125,0.33154296875,0.06494140625,43.54176470588236,452.3325897265646
-0.6314482421875,-0.0053447265624999,0.7737353515625001,0.9987100895261132,0.0986328125,0.32080078125,0.05859375,43.447647058823534,452.3325897265646
-0.6304716796875,0.0005146484375,0.7752001953125001,0.9992147649847504,0.08447265625,0.3212890625,0.05078125,43.54176470588236,452.3325897265646
-0.6309599609375,-0.0029033203124999,0.7712939453125001,0.996500502584324,0.06640625,0.3193359375,0.048828125,43.54176470588236,452.4608648763294
-0.6329130859375,0.0010029296875,0.7717822265625001,0.9981121106652586,0.0869140625,0.314453125,0.05419921875,43.777058823529416,452.4608648763294
-0.6324248046875,-0.0038798828124999,0.7722705078125001,0.9981873192500684,0.0908203125,0.2978515625,0.0556640625,43.353529411764704,452.4608648763294
-0.6304716796875,-0.0048564453124999,0.7737353515625001,0.998090435885745,0.07275390625,0.30322265625,0.07080078125,43.447647058823534,452.4608648763294
-0.6304716796875,-0.0029033203124999,0.7761767578125001,0.9999766634902733,0.060546875,0.2978515625,0.07568359375,43.447647058823534,452.3726840293547
-0.6309599609375,-0.0029033203124999,0.7810595703125001,1.0040781612762204,0.08203125,0.306640625,0.07080078125,43.68294117647059,452.3726840293547
-0.6246123046875,-0.0024150390624999,0.7683642578125001,0.9902171460161948,0.08203125,0.30908203125,0.060546875,43.30647058823529,452.3726840293547
-0.6290068359375,-0.0033916015624999,0.7708056640625001,0.9948881717902246,0.07958984375,0.32177734375,0.04638671875,43.63588235294118,452.3726840293547
-0.6299833984375,-0.0072978515624999,0.7742236328125001,0.9981756230992996,0.09375,0.3017578125,0.06005859375,43.68294117647059,452.3726840293547
-0.6343779296875,-0.0068095703124999,0.7717822265625001,0.9990643288398448,0.07763671875,0.30615234375,0.05224609375,43.63588235294118,452.1331841582801
-0.6329130859375,-0.0004619140624999,0.7752001953125001,1.000756978755616,0.07177734375,0.3017578125,0.07421875,43.54176470588236,452.1331841582801
-0.6334013671875,-0.0043681640624999,0.7781298828125001,1.0033456469921351,0.08544921875,0.2841796875,0.08203125,43.54176470588236,452.1331841582801
-0.6358427734375,-0.0053447265624999,0.7722705078125001,1.0003631020143118,0.09228515625,0.28662109375,0.091796875,43.49470588235295,452.1331841582801
-0.6294951171875,-0.0024150390624999,0.7747119140625001,0.998222662919932,0.07177734375,0.28662109375,0.080078125,43.49470588235295,452.1762756702011
-0.6329130859375,0.0014912109375,0.7737353515625001,0.999623725367968,0.07861328125,0.287109375,0.0966796875,43.68294117647059,452.1762756702011
-0.6251005859375,-0.0038798828124999,0.7825244140625001,1.0015539199832946,0.06494140625,0.3037109375,0.06201171875,43.447647058823534,452.1762756702011
-0.6280302734375,0.0039326171875,0.7698291015625001,0.9935161475509346,0.05810546875,0.318359375,0.080078125,43.54176470588236,452.1762756702011
-0.6412138671875,-0.0068095703124999,0.7683642578125001,1.000792299333455,0.0673828125,0.3369140625,0.07470703125,43.63588235294118,452.1762756702011
-0.6412138671875,-0.0082744140624999,0.7727587890625001,1.0041811766185265,0.0859375,0.314453125,0.08203125,43.63588235294118,452.3797166669123
-0.6324248046875,-0.0053447265624999,0.7791064453125001,1.0034921787505522,0.1005859375,0.29345703125,0.08544921875,43.63588235294118,452.3797166669123
-0.6324248046875,-0.0014384765624999,0.7703173828125001,0.9966704937249538,0.08935546875,0.26220703125,0.04638671875,43.447647058823534,452.3797166669123
-0.6334013671875,0.0010029296875,0.7756884765625001,1.0014444120842676,0.0517578125,0.271484375,0.06298828125,43.68294117647059,452.3797166669123
-0.6265654296875,0.0019794921875,0.7708056640625001,0.993342603445374,0.046875,0.322265625,0.07177734375,43.54176470588236,452.3246052441734
-0.6172880859375,0.0019794921875,0.7771533203125001,0.9924796132427336,0.02880859375,0.38916015625,0.05908203125,43.54176470588236,452.3246052441734
-0.6236357421875,-0.0009501953124999,0.7747119140625001,0.994535565776945,0.03515625,0.39892578125,0.0625,43.777058823529416,452.3246052441734
-0.6285185546875,-0.0043681640624999,0.7668994140625001,0.991559058116634,0.048828125,0.3857421875,0.0673828125,42.88294117647059,452.3246052441734
-0.6334013671875,-0.0092509765624999,0.7717822265625001,0.998464159477006,0.0556640625,0.36865234375,0.0517578125,42.55352941176471,452.3246052441734
-0.6363310546875,-0.0038798828124999,0.7629931640625001,0.9935244501553296,0.076171875,0.3134765625,0.056640625,43.30647058823529,452.2594681374183
-0.6304716796875,-0.0068095703124999,0.7654345703125001,0.9916808914995288,0.07080078125,0.1796875,0.0869140625,43.777058823529416,452.2594681374183
-0.6382841796875,0.0019794921875,0.7761767578125001,1.004918390615372,0.07666015625,0.27734375,0.078125,43.49470588235295,452.2594681374183
-0.6358427734375,-0.0048564453124999,0.7712939453125001,0.9996069065735226,0.08154296875,0.2744140625,0.1064453125,43.777058823529416,452.2594681374183
-0.6324248046875,-0.0072978515624999,0.7693408203125001,0.9959416097445478,0.0927734375,0.27001953125,0.12158203125,42.88294117647059,452.1091438850916
-0.6329130859375,-0.0038798828124999,0.7766650390625001,1.0018995013191307,0.09619140625,0.27587890625,0.103515625,43.54176470588236,452.1091438850916
-0.6334013671875,-0.0043681640624999,0.7683642578125001,0.9957911455199956,0.0849609375,0.29150390625,0.10986328125,43.68294117647059,452.1091438850916
-0.6280302734375,-0.0072978515624999,0.7752001953125001,0.9977026740487104,0.07958984375,0.29833984375,0.0888671875,43.447647058823534,452.1091438850916
-0.6309599609375,-0.0068095703124999,0.7712939453125001,0.996519539512304,0.078125,0.31201171875,0.0966796875,43.82411764705883,452.1091438850916
-0.6294951171875,-0.0053447265624999,0.7756884765625001,0.9989921327702158,0.10302734375,0.32568359375,0.07275390625,43.63588235294118,452.1732833954133
-0.6280302734375,-0.0048564453124999,0.7786181640625001,1.0003458675993582,0.06103515625,0.3076171875,0.0576171875,43.353529411764704,452.1732833954133
-0.6358427734375,-0.0029033203124999,0.7712939453125001,0.9995993256686656,0.0615234375,0.3232421875,0.0732421875,43.49470588235295,452.1732833954133
-0.6382841796875,-0.0063212890624999,0.7712939453125001,1.0011698171691346,0.07470703125,0.29931640625,0.0712890625,43.63588235294118,452.1732833954133
-0.7588896484375,-0.0033916015624999,0.7722705078125001,1.0827403837964702,0.07373046875,0.28173828125,0.07080078125,43.54176470588236,451.9778743190639
-0.6353544921875,-0.0043681640624999,0.7722705078125001,1.0000480732630257,0.0673828125,0.28857421875,0.07177734375,43.447647058823534,451.9778743190639
-0.6407255859375,-0.0082744140624999,0.7683642578125001,1.000490567215296,0.0693359375,0.26806640625,0.08984375,43.353529411764704,451.9778743190639
-0.6363310546875,-0.0043681640624999,0.7693408203125001,0.9984095301108126,0.0732421875,0.26171875,0.08984375,43.49470588235295,451.9778743190639
-0.6343779296875,-0.0024150390624999,0.7678759765625001,0.9960294701815228,0.06201171875,0.25390625,0.08935546875,43.82411764705883,451.9778743190639
-0.6329130859375,-0.0048564453124999,0.7756884765625001,1.001146928319642,0.060546875,0.26123046875,0.083984375,43.68294117647059,452.0209661077309
-0.6334013671875,-0.0024150390624999,0.7698291015625001,0.9969152270786086,0.0498046875,0.26611328125,0.08056640625,43.353529411764704,452.0209661077309
-0.6329130859375,-0.0019267578124999,0.7756884765625001,1.0011370033209488,0.060546875,0.27978515625,0.0751953125,43.91823529411765,452.0209661077309
-0.6319365234375,-0.0043681640624999,0.7615283203125001,0.9895899318149556,0.04931640625,0.27099609375,0.06982421875,43.447647058823534,452.0209661077309
-0.6338896484375,-0.0043681640624999,0.7708056640625001,0.9979862418913028,0.060546875,0.2783203125,0.08740234375,43.447647058823534,452.0099439481274
-0.6329130859375,-0.0048564453124999,0.7698291015625001,0.9966139699123872,0.07421875,0.26611328125,0.08154296875,43.447647058823534,452.0099439481274
-0.7559599609375,-0.0024150390624999,0.7737353515625001,1.0817336498472463,0.083984375,0.26806640625,0.1015625,43.447647058823534,452.0099439481274
-0.6324248046875,-0.0068095703124999,0.7717822265625001,0.9978252898527044,0.0654296875,0.27099609375,0.1064453125,43.63588235294118,452.0099439481274
-0.6324248046875,-0.0068095703124999,0.7737353515625001,0.9993367290805482,0.08154296875,0.12548828125,0.1044921875,43.447647058823534,452.0099439481274
-0.6368193359375,-0.0033916015624999,0.7712939453125001,1.000222335113928,0.07421875,0.23046875,0.11328125,43.96529411764706,452.2464541989804
-0.6363310546875,-0.0077861328124999,0.7703173828125001,0.9991830189144428,0.07763671875,0.2333984375,0.10791015625,43.63588235294118,452.2464541989804
-0.6392607421875,-0.0053447265624999,0.7737353515625001,1.003667901679478,0.095703125,0.22705078125,0.1025390625,43.54176470588236,452.2464541989804
-0.6358427734375,-0.0009501953124999,0.7688525390625001,0.9977129658507384,0.07470703125,0.25,0.107421875,43.25941176470588,452.2464541989804
-0.6363310546875,-0.0058330078124999,0.7664111328125001,0.9961612618641554,0.05712890625,0.240234375,0.109375,43.447647058823534,452.107150213007
-0.6338896484375,-0.0033916015624999,0.7752001953125001,1.0013805131766418,0.06396484375,0.23681640625,0.115234375,43.447647058823534,452.107150213007
-0.6392607421875,-0.0043681640624999,0.7698291015625001,1.000654897040891,0.06884765625,0.24365234375,0.11083984375,43.63588235294118,452.107150213007
-0.6368193359375,-0.0043681640624999,0.7737353515625001,1.0021099449355348,0.04541015625,0.25048828125,0.12255859375,43.68294117647059,452.107150213007
-0.6353544921875,-0.0072978515624999,0.7722705078125001,1.0000651611856304,0.06494140625,0.2353515625,0.12744140625,43.49470588235295,452.107150213007
-0.7593779296875,-0.0058330078124999,0.7708056640625001,1.0820490912280487,0.0517578125,0.2333984375,0.1103515625,43.63588235294118,452.052039610004
-0.6368193359375,-0.0053447265624999,0.7659228515625001,0.9960949991198318,0.06982421875,0.21728515625,0.138671875,43.49470588235295,452.052039610004
-0.6363310546875,-0.0014384765624999,0.7766650390625001,1.004055707257561,0.06591796875,0.20849609375,0.13916015625,43.447647058823534,452.052039610004
-0.6377958984375,-0.0038798828124999,0.7683642578125001,0.9985901532851656,0.0625,0.21337890625,0.15869140625,43.353529411764704,452.052039610004
-0.6377958984375,-0.0063212890624999,0.7708056640625001,1.0004823529227995,0.0546875,0.1728515625,0.14501953125,43.49470588235295,451.9869032863173
-0.6358427734375,-0.0019267578124999,0.7732470703125001,1.00110477807032,0.05712890625,0.1650390625,0.15625,43.54176470588236,451.9869032863173
-0.6353544921875,-0.0033916015624999,0.7771533203125001,1.003819763192944,0.05419921875,0.162109375,0.1640625,43.63588235294118,451.9869032863173
-0.6382841796875,-0.0033916015624999,0.7683642578125001,0.9989003101832822,0.0419921875,0.1630859375,0.16357421875,43.49470588235295,451.9869032863173
-0.6358427734375,-0.0014384765624999,0.7756884765625001,1.0029908845145927,0.04443359375,0.1396484375,0.18701171875,43.353529411764704,451.9869032863173
-0.6353544921875,-0.0024150390624999,0.7786181640625001,1.0049514458741615,0.04296875,0.13671875,0.1728515625,43.777058823529416,451.9337857416768
-0.7593779296875,-0.0063212890624999,0.7703173828125001,1.0817040579821198,0.0537109375,0.13134765625,0.19287109375,43.49470588235295,451.9337857416768
-0.6343779296875,-0.0058330078124999,0.7708056640625001,0.9983039383902936,0.04296875,0.1279296875,0.2021484375,43.49470588235295,451.9337857416768
-0.6309599609375,-0.0029033203124999,0.7708056640625001,0.9961226196236688,0.04296875,0.11767578125,0.19140625,43.63588235294118,451.9337857416768
-0.6324248046875,-0.0053447265624999,0.7795947265625001,1.0038713251060165,0.02685546875,0.109375,0.19287109375,43.63588235294118,451.8786753327684
-0.6324248046875,-0.0048564453124999,0.7815478515625001,1.005386374945998,0.01953125,0.1201171875,0.19677734375,43.777058823529416,451.8786753327684
-0.6255888671875,-0.0072978515624999,0.7766650390625001,0.9973080127464748,0.02392578125,0.10791015625,0.2109375,43.54176470588236,451.8786753327684
-0.6275419921875,-0.0009501953124999,0.7752001953125001,0.9973691381040052,0.0185546875,0.10595703125,0.189453125,43.91823529411765,451.8786753327684
-0.6275419921875,-0.0033916015624999,0.7781298828125001,0.9996532245962146,0.02197265625,0.09130859375,0.2060546875,43.49470588235295,451.8786753327684
-0.6324248046875,-0.0029033203124999,0.7781298828125001,1.0027241282519608,0.01708984375,0.10009765625,0.2041015625,43.777058823529416,451.8896973867431
-0.6314482421875,-0.0053447265624999,0.7756884765625001,1.0002240055785323,0.021484375,0.0791015625,0.21630859375,43.447647058823534,451.8896973867431
-0.6334013671875,-0.0068095703124999,0.7776416015625001,1.0029806192960686,0.013671875,0.09912109375,0.22216796875,43.54176470588236,451.8896973867431
-0.6299833984375,-0.0009501953124999,0.7815478515625001,1.0038411375610952,0.025390625,0.083984375,0.21826171875,43.68294117647059,451.8896973867431
-0.6275419921875,-0.0029033203124999,0.7727587890625001,0.9954765327725384,0.02587890625,0.07958984375,0.232421875,43.49470588235295,451.8887011101205
-0.6251005859375,-0.0053447265624999,0.7786181640625001,0.998511669460849,0.044921875,0.0966796875,0.234375,43.447647058823534,451.8887011101205
-0.6260771484375,-0.0082744140624999,0.7825244140625001,1.0021903613224226,0.0400390625,0.1259765625,0.20751953125,43.447647058823534,451.8887011101205
-0.6231474609375,-0.0014384765624999,0.7795947265625001,0.9980394606285532,0.03515625,0.14697265625,0.1826171875,43.49470588235295,451.8887011101205
-0.6255888671875,-0.0038798828124999,0.7727587890625001,0.9942497826567124,0.04931640625,0.1591796875,0.17236328125,43.447647058823534,451.8887011101205
-0.6280302734375,-0.0014384765624999,0.7835009765625001,1.0041403656079129,0.04638671875,0.13916015625,0.17138671875,43.49470588235295,451.942815143015
-0.6265654296875,0.0005146484375,0.7771533203125001,0.9982744040669574,0.0302734375,0.14111328125,0.16650390625,43.63588235294118,451.942815143015
-0.6251005859375,0.0024677734375,0.7795947265625001,0.9992621128258612,0.03271484375,0.109375,0.18994140625,43.49470588235295,451.942815143015
-0.6294951171875,-0.0009501953124999,0.7781298828125001,1.000875177012514,0.0224609375,0.09619140625,0.1728515625,43.54176470588236,451.942815143015
-0.6251005859375,0.0005146484375,0.7786181640625001,0.9984974976485812,0.04541015625,0.11181640625,0.1826171875,43.777058823529416,451.6622215698264
-0.6221708984375,0.0024677734375,0.7844775390625001,1.0012530779287627,0.037109375,0.1015625,0.1708984375,43.49470588235295,451.6622215698264
-0.6163115234375,0.0014912109375,0.7878955078125001,1.000310676171673,0.03369140625,0.14892578125,0.17138671875,43.447647058823534,451.6622215698264
-0.6197294921875,0.0039326171875,0.7781298828125001,0.9947694323262628,0.01708984375,0.17724609375,0.1875,43.54176470588236,451.6622215698264
-0.6304716796875,-0.0043681640624999,0.7800830078125001,1.003017008242159,0.0439453125,0.1640625,0.18505859375,43.777058823529416,451.6622215698264
-0.6211943359375,-0.0033916015624999,0.7864306640625001,1.0021811689209568,0.05615234375,0.1552734375,0.18798828125,43.68294117647059,451.6832687387858
-0.6124052734375,0.0024677734375,0.7844775390625001,0.995214207160124,0.0751953125,0.201171875,0.15234375,43.49470588235295,451.6832687387858
-0.6182646484375,0.0014912109375,0.7732470703125001,0.9900325403563612,0.05078125,0.17578125,0.13330078125,43.54176470588236,451.6832687387858
-0.6143583984375,0.0053974609375,0.7708056640625001,0.985701144397273,0.0234375,0.21728515625,0.1298828125,43.68294117647059,451.6832687387858
-0.6167998046875,0.0044208984375,0.7742236328125001,0.9898907904465613,0.00244140625,0.22607421875,0.14404296875,43.353529411764704,451.78047358037537
-0.6177763671875,0.0029560546875,0.7747119140625001,0.990875838793682,-0.00146484375,0.22509765625,0.16015625,43.777058823529416,451.78047358037537
-0.6187529296875,0.0005146484375,0.7810595703125001,0.9964484458498722,0.01220703125,0.23681640625,0.16162109375,43.54176470588236,451.78047358037537
-0.6270537109375,-0.0038798828124999,0.7815478515625001,1.0020122026068785,0.0380859375,0.22119140625,0.1591796875,43.49470588235295,451.78047358037537
-0.6231474609375,-0.0029033203124999,0.7820361328125001,0.9999508489750984,0.02099609375,0.18017578125,0.1630859375,43.353529411764704,451.78047358037537
-0.6260771484375,-0.0038798828124999,0.7825244140625001,1.0021637131178365,0.04052734375,0.16796875,0.1728515625,43.68294117647059,451.5429737701665
-0.6221708984375,-0.0009501953124999,0.7844775390625001,1.0012504876539208,0.029296875,0.14990234375,0.17626953125,43.353529411764704,451.5429737701665
-0.6207060546875,0.0024677734375,0.7864306640625001,1.0018758833354784,0.0322265625,0.16015625,0.15625,43.777058823529416,451.5429737701665
-0.6167998046875,-0.0029033203124999,0.7800830078125001,0.9944746992302882,0.0263671875,0.15673828125,0.166015625,43.447647058823534,451.5429737701665
-0.6182646484375,0.0024677734375,0.7810595703125001,0.9961482408708212,0.0302734375,0.1865234375,0.1884765625,43.68294117647059,451.8877052767077
-0.6163115234375,0.0010029296875,0.7776416015625001,0.9922536773781694,0.04443359375,0.185546875,0.171875,43.447647058823534,451.8877052767077
-0.6148466796875,-0.0004619140624999,0.7835009765625001,0.995947003189294,0.0478515625,0.2041015625,0.17626953125,43.353529411764704,451.8877052767077
-0.6163115234375,-0.0038798828124999,0.7859423828125001,0.9987794433775062,0.03369140625,0.2255859375,0.16552734375,43.447647058823534,451.8877052767077
-0.6216826171875,2.6367187500001e-05,0.7839892578125001,1.0005640577063135,0.02099609375,0.22900390625,0.15380859375,43.49470588235295,451.8877052767077
-0.6221708984375,-0.0053447265624999,0.7815478515625001,0.9989705887795264,0.0185546875,0.244140625,0.14501953125,43.447647058823534,451.6502028601648
-0.6275419921875,-0.0058330078124999,0.7805712890625001,1.001566030398141,0.01953125,0.2568359375,0.15185546875,43.68294117647059,451.6502028601648
-0.6265654296875,-0.0019267578124999,0.7830126953125001,1.0028443703265704,0.02001953125,0.23388671875,0.13818359375,43.63588235294118,451.6502028601648
-0.6260771484375,-0.0004619140624999,0.7791064453125001,0.9994897009412914,0.0068359375,0.2080078125,0.14404296875,43.68294117647059,451.6502028601648
-0.6280302734375,-0.0072978515624999,0.7854541015625001,1.0056905232986753,0.0302734375,0.21435546875,0.12353515625,43.447647058823534,452.1572832094853
-0.6270537109375,-0.0004619140624999,0.7747119140625001,0.9966820553995508,0.02294921875,0.19775390625,0.13134765625,43.49470588235295,452.1572832094853
-0.6334013671875,0.0005146484375,0.7752001953125001,1.001065881763307,0.02783203125,0.166015625,0.15234375,43.49470588235295,452.1572832094853
-0.6246123046875,0.0005146484375,0.7825244140625001,1.0012418562135244,0.01708984375,0.16015625,0.15283203125,43.777058823529416,452.1572832094853
-0.6148466796875,0.0039326171875,0.7874072265625001,0.9990305528078384,0.05078125,0.1611328125,0.14794921875,43.82411764705883,452.1572832094853
-0.6124052734375,0.0019794921875,0.7825244140625001,0.9936742906643194,0.0341796875,0.18212890625,0.14111328125,43.63588235294118,451.89673676257706
-0.6124052734375,-0.0019267578124999,0.7781298828125001,0.990217171056694,0.0400390625,0.20263671875,0.1484375,43.63588235294118,451.89673676257706
-0.6153349609375,0.0039326171875,0.7727587890625001,0.987830312201058,0.04736328125,0.189453125,0.13720703125,43.447647058823534,451.89673676257706
-0.6163115234375,-0.0004619140624999,0.7888720703125001,1.0010790431357472,0.05029296875,0.18359375,0.1435546875,43.63588235294118,451.89673676257706
-0.6167998046875,0.0049091796875,0.7815478515625001,0.9956320321231644,0.0517578125,0.16064453125,0.15966796875,43.353529411764704,451.9408241937301
-0.6236357421875,0.0014912109375,0.7786181640625001,0.9975820808594512,0.0576171875,0.14990234375,0.14794921875,43.49470588235295,451.9408241937301
-0.6216826171875,-0.0004619140624999,0.7849658203125001,1.001329530642424,0.0361328125,0.181640625,0.1533203125,43.353529411764704,451.9408241937301
-0.6211943359375,0.0039326171875,0.7849658203125001,1.0010340691193538,0.0546875,0.16796875,0.15625,43.49470588235295,451.9408241937301
-0.6187529296875,0.0024677734375,0.7898486328125001,1.003355440837582,0.03125,0.185546875,0.12841796875,43.54176470588236,451.9408241937301
-0.6197294921875,-0.0058330078124999,0.7898486328125001,1.003971877207172,0.0439453125,0.1943359375,0.15234375,43.447647058823534,451.77748658685306
-0.6207060546875,-0.0053447265624999,0.7864306640625001,1.0018871003289411,0.05517578125,0.22021484375,0.15478515625,43.353529411764704,451.77748658685306
-0.6221708984375,-0.0053447265624999,0.7830126953125001,1.0001170301445226,0.05615234375,0.2099609375,0.146484375,43.49470588235295,451.77748658685306
-0.6197294921875,-0.0024150390624999,0.7874072265625001,1.0020382309789873,0.04541015625,0.19873046875,0.12646484375,43.63588235294118,451.77748658685306
-0.6143583984375,-0.0038798828124999,0.7854541015625001,0.9971907745675764,0.02685546875,0.2099609375,0.13427734375,43.353529411764704,452.0250211847294
-0.6202177734375,-0.0038798828124999,0.7844775390625001,1.000045073620167,0.03857421875,0.24072265625,0.1376953125,43.447647058823534,452.0250211847294
-0.6128935546875,-0.0024150390624999,0.7800830078125001,0.9920553617963818,0.05859375,0.1875,0.12939453125,43.447647058823534,452.0250211847294
-0.6163115234375,2.6367187500001e-05,0.7800830078125001,0.9941676889211788,0.0458984375,0.216796875,0.119140625,43.87117647058824,452.0250211847294
-0.6104521484375,-0.0009501953124999,0.7825244140625001,0.9924702448975236,0.0556640625,0.18505859375,0.13330078125,43.54176470588236,452.0250211847294
-0.6094755859375,0.0010029296875,0.7859423828125001,0.9945687129720134,0.05615234375,0.203125,0.1142578125,43.63588235294118,451.906763973333
-0.6153349609375,0.0034443359375,0.7859423828125001,0.9981755390225684,0.0419921875,0.189453125,0.12744140625,43.447647058823534,451.906763973333
-0.6143583984375,-0.0038798828124999,0.7839892578125001,0.9960373745933048,0.02880859375,0.21630859375,0.1279296875,43.777058823529416,451.906763973333
-0.6119169921875,0.0014912109375,0.7957080078125001,1.0037907464879294,0.06591796875,0.26123046875,0.091796875,44.01235294117648,451.906763973333
-0.6119169921875,0.0005146484375,0.7776416015625001,0.9895297522922196,0.03466796875,0.125,0.09716796875,43.447647058823534,451.8957421976096
-0.6182646484375,0.0019794921875,0.7800830078125001,0.9953816318250316,0.013671875,0.259765625,0.10546875,43.353529411764704,451.8957421976096
-0.6128935546875,0.0019794921875,0.7835009765625001,0.9947442927914648,0.0283203125,0.25537109375,0.109375,43.353529411764704,451.8957421976096
-0.6119169921875,0.0034443359375,0.7815478515625001,0.9926083381978044,0.02587890625,0.24609375,0.11865234375,44.01235294117648,451.8957421976096
-0.6158232421875,-0.0033916015624999,0.7888720703125001,1.0007841485048676,0.029296875,0.232421875,0.12841796875,43.63588235294118,451.8957421976096
-0.6119169921875,0.0029560546875,0.7854541015625001,0.9956853364635168,0.0625,0.2529296875,0.13623046875,43.54176470588236,451.8847204357925
-0.6133818359375,0.0005146484375,0.7844775390625001,0.995812507862112,0.06201171875,0.23583984375,0.0986328125,43.63588235294118,451.8847204357925
-0.6075224609375,0.0024677734375,0.7888720703125001,0.9956951208921458,0.048828125,0.24365234375,0.11279296875,43.777058823529416,451.8847204357925
-0.6080107421875,0.0034443359375,0.7820361328125001,0.9905904497267148,0.07666015625,0.25439453125,0.11767578125,44.01235294117648,451.8847204357925
-0.6089873046875,0.0005146484375,0.7874072265625001,0.9954275174900524,0.05810546875,0.2744140625,0.1044921875,43.777058823529416,451.9488628028769
-0.6070341796875,2.6367187500001e-05,0.7835009765625001,0.99114291415441,0.0517578125,0.26953125,0.1064453125,43.54176470588236,451.9488628028769
-0.6055693359375,0.0039326171875,0.7854541015625001,0.991800298329801,0.07177734375,0.28076171875,0.103515625,43.54176470588236,451.9488628028769
-0.6080107421875,-0.0019267578124999,0.7786181640625001,0.9878901864170536,0.05615234375,0.2763671875,0.1083984375,43.49470588235295,451.9488628028769
-0.6094755859375,-0.0033916015624999,0.7795947265625001,0.9895655261270356,0.05859375,0.3134765625,0.0908203125,43.447647058823534,451.9488628028769
-0.6089873046875,0.0019794921875,0.7805712890625001,0.9900308040503384,0.0732421875,0.318359375,0.10595703125,43.54176470588236,452.0019843043874
-0.6128935546875,-0.0024150390624999,0.7903369140625001,1.0001383801859565,0.0546875,0.31640625,0.10302734375,43.353529411764704,452.0019843043874
-0.6138701171875,-0.0004619140624999,0.7908251953125001,1.001119984657908,0.06787109375,0.33984375,0.08349609375,43.68294117647059,452.0019843043874
-0.6158232421875,0.0019794921875,0.7859423828125001,0.998472640140247,0.07080078125,0.3515625,0.08837890625,43.447647058823534,452.0019843043874
-0.6158232421875,-0.0048564453124999,0.7844775390625001,0.9973298651764892,0.09033203125,0.31396484375,0.08740234375,43.63588235294118,452.3046349165404
-0.6167998046875,-0.0009501953124999,0.7883837890625001,1.0009954549298488,0.09326171875,0.3291015625,0.08984375,43.63588235294118,452.3046349165404
-0.6207060546875,-0.0043681640624999,0.7756884765625001,0.9934725461002184,0.080078125,0.34765625,0.064453125,43.49470588235295,452.3046349165404
-0.6172880859375,-0.0024150390624999,0.7874072265625001,1.0005301364261368,0.06982421875,0.3408203125,0.060546875,43.447647058823534,452.3046349165404
-0.6158232421875,0.0049091796875,0.7864306640625001,0.9988671358300428,0.068359375,0.330078125,0.07080078125,43.353529411764704,452.3046349165404
-0.6133818359375,0.0053974609375,0.7869189453125001,0.99775138974314,0.0595703125,0.3798828125,0.08251953125,43.353529411764704,452.2174538506004
-0.6187529296875,0.0019794921875,0.7835009765625001,0.9983651068925516,0.0556640625,0.38330078125,0.0859375,42.60058823529412,452.2174538506004
-0.6207060546875,-0.0038798828124999,0.7864306640625001,1.0018803567263634,0.0703125,0.39501953125,0.08349609375,43.63588235294118,452.2174538506004
-0.6138701171875,-0.0072978515624999,0.7888720703125001,0.9996043831098148,0.09423828125,0.40380859375,0.05224609375,43.63588235294118,452.2174538506004
-0.6182646484375,-0.0024150390624999,0.7766650390625001,0.992706195620423,0.0908203125,0.3701171875,0.05615234375,43.87117647058824,452.0551067021707
-0.6202177734375,0.0058857421875,0.7815478515625001,0.997758373921676,0.08447265625,0.38916015625,0.0537109375,43.63588235294118,452.0551067021707
-0.6153349609375,0.0078388671875,0.7722705078125001,0.987471670088674,0.05859375,0.25,0.0556640625,43.49470588235295,452.0551067021707
-0.6167998046875,0.0039326171875,0.7776416015625001,0.9925643178258886,0.0673828125,0.40673828125,0.08984375,43.447647058823534,452.0551067021707
-0.6133818359375,0.0078388671875,0.7805712890625001,0.9927689871291984,0.052734375,0.421875,0.10107421875,43.447647058823534,452.0551067021707
-0.6187529296875,-0.0043681640624999,0.7805712890625001,0.9960752010580496,0.068359375,0.43017578125,0.07861328125,43.49470588235295,452.345746316422
-0.6246123046875,-0.0029033203124999,0.7874072265625001,1.0050667146407326,0.0859375,0.44775390625,0.08251953125,43.68294117647059,452.345746316422
-0.6211943359375,0.0010029296875,0.7893603515625001,1.0044765669181452,0.08203125,0.41796875,0.08544921875,43.49470588235295,452.345746316422
-0.6231474609375,-0.0029033203124999,0.7844775390625001,1.001861365975975,0.08984375,0.38330078125,0.08154296875,43.54176470588236,452.345746316422
-0.6207060546875,0.0019794921875,0.7825244140625001,0.9988114853759448,0.08056640625,0.3779296875,0.0849609375,43.447647058823534,452.3778199356384
-0.6177763671875,2.6367187500001e-05,0.7864306640625001,1.0000604131393254,0.08203125,0.3828125,0.0693359375,43.63588235294118,452.3778199356384
-0.6133818359375,-0.0043681640624999,0.7874072265625001,0.998131503339206,0.08642578125,0.39453125,0.04638671875,43.447647058823534,452.3778199356384
-0.6158232421875,-0.0004619140624999,0.7795947265625001,0.993481965949551,0.08447265625,0.39794921875,0.048828125,43.82411764705883,452.3778199356384
-0.6177763671875,-0.0014384765624999,0.7825244140625001,0.9969925614938482,0.07177734375,0.42724609375,0.05224609375,43.68294117647059,452.3778199356384
-0.6182646484375,-0.0024150390624999,0.7791064453125001,0.994617444572886,0.07470703125,0.44189453125,0.04296875,43.63588235294118,452.1954106084643
-0.6226591796875,0.0024677734375,0.7781298828125001,0.9965925237932723,0.06201171875,0.45068359375,0.05322265625,43.447647058823534,452.1954106084643
-0.6192412109375,2.6367187500001e-05,0.7810595703125001,0.9967515891110068,0.0595703125,0.4755859375,0.03955078125,43.54176470588236,452.1954106084643
-0.6265654296875,-0.0038798828124999,0.7766650390625001,0.997901735679458,0.08837890625,0.4736328125,0.03955078125,43.68294117647059,452.1954106084643
-0.6275419921875,-0.0072978515624999,0.7761767578125001,0.9981545821987738,0.0625,0.45849609375,0.03369140625,43.49470588235295,452.25856518977486
-0.6275419921875,-0.0058330078124999,0.7742236328125001,0.996626915923999,0.06103515625,0.46240234375,0.03955078125,43.447647058823534,452.25856518977486
-0.6265654296875,-0.0038798828124999,0.7771533203125001,0.9982818111349436,0.091796875,0.4404296875,0.0380859375,43.30647058823529,452.25856518977486
-0.6221708984375,-0.0087626953124999,0.7800830078125001,0.9978491422902876,0.10498046875,0.42431640625,0.01611328125,43.447647058823534,452.25856518977486
-0.6294951171875,-0.0053447265624999,0.7752001953125001,0.9986130439151446,0.09814453125,0.39404296875,0.033203125,43.68294117647059,452.25856518977486
-0.6314482421875,-0.0053447265624999,0.7717822265625001,0.9971977005095236,0.0791015625,0.36083984375,0.02294921875,43.54176470588236,452.1182596989466
-0.6255888671875,-0.0009501953124999,0.7712939453125001,0.9931045683591396,0.087890625,0.3369140625,0.02392578125,43.68294117647059,452.1182596989466
-0.6251005859375,2.6367187500001e-05,0.7786181640625001,0.9984973653659244,0.0810546875,0.33154296875,0.0068359375,42.74176470588235,452.1182596989466
-0.6163115234375,-0.0024150390624999,0.7742236328125001,0.9895796885248356,0.08154296875,0.33154296875,0.01953125,43.447647058823534,452.1182596989466
-0.6187529296875,-0.0053447265624999,0.7732470703125001,0.9903508397763676,0.10791015625,0.3408203125,0.013671875,43.49470588235295,452.35379623456015
-0.6231474609375,-0.0053447265624999,0.7737353515625001,0.9934826211023656,0.0986328125,0.390625,-0.001953125,43.63588235294118,452.35379623456015
-0.6216826171875,-0.0029033203124999,0.7727587890625001,0.991793250559449,0.08642578125,0.38525390625,-0.0029296875,43.447647058823534,452.35379623456015
-0.6304716796875,-0.0053447265624999,0.7722705078125001,0.996957793603612,0.103515625,0.40283203125,-0.01318359375,43.447647058823534,452.35379623456015
-0.6324248046875,-0.0063212890624999,0.7766650390625001,1.0016035519013444,0.107421875,0.39892578125,-0.025390625,43.54176470588236,452.35379623456015
-0.6299833984375,-0.0053447265624999,0.7820361328125001,1.0042351126271278,0.10205078125,0.39892578125,0.00244140625,43.54176470588236,452.20444885016144
-0.6324248046875,0.0019794921875,0.7800830078125001,1.004238293957734,0.0908203125,0.3740234375,-0.009765625,43.353529411764704,452.20444885016144
-0.6324248046875,-0.0024150390624999,0.7786181640625001,1.003101795136343,0.08154296875,0.36865234375,0.015625,43.54176470588236,452.20444885016144
-0.6338896484375,-0.0014384765624999,0.7771533203125001,1.0028885475883058,0.1015625,0.3623046875,0.02685546875,43.447647058823534,452.20444885016144
-0.6392607421875,-0.0014384765624999,0.7737353515625001,1.0036547015654735,0.09130859375,0.330078125,0.0341796875,43.63588235294118,452.3327434708284
-0.6329130859375,-0.0024150390624999,0.7727587890625001,0.9988698377856566,0.0859375,0.31103515625,0.03515625,43.49470588235295,452.3327434708284
-0.6290068359375,-0.0024150390624999,0.7722705078125001,0.996020667108246,0.08984375,0.30224609375,0.05419921875,43.447647058823534,452.3327434708284
-0.6319365234375,-0.0009501953124999,0.7664111328125001,0.9933431919655692,0.103515625,0.3154296875,0.056640625,43.49470588235295,452.3327434708284
-0.6285185546875,-0.0038798828124999,0.7693408203125001,0.993446488179516,0.11279296875,0.30615234375,0.03857421875,43.49470588235295,452.3327434708284
-0.6294951171875,0.0014912109375,0.7747119140625001,0.9982208553538374,0.08935546875,0.3251953125,0.02880859375,43.68294117647059,452.2676052561346
-0.6280302734375,-0.0029033203124999,0.7791064453125001,1.0007183953292242,0.08984375,0.3154296875,0.0341796875,43.63588235294118,452.2676052561346
-0.6294951171875,-0.0038798828124999,0.7698291015625001,0.9944425582536524,0.06201171875,0.33154296875,0.0185546875,43.63588235294118,452.2676052561346
-0.6299833984375,-0.0048564453124999,0.7727587890625001,0.9970249813526624,0.0693359375,0.3291015625,0.0361328125,43.777058823529416,452.2676052561346
-0.6299833984375,-0.0053447265624999,0.7805712890625001,1.0030948039530374,0.06982421875,0.35986328125,0.0205078125,43.49470588235295,452.2676052561346
-0.6329130859375,-0.0048564453124999,0.7815478515625001,1.0056935933443951,0.07177734375,0.36767578125,0.0224609375,43.777058823529416,452.2676052561346
-0.6314482421875,-0.0063212890624999,0.7742236328125001,0.9990941271284104,0.078125,0.36962890625,0.0166015625,43.49470588235295,452.2676052561346
-0.6309599609375,-0.0019267578124999,0.7708056640625001,0.9961202520041198,0.08544921875,0.30810546875,0.025390625,43.777058823529416,452.2676052561346
-0.6353544921875,-0.0004619140624999,0.7766650390625001,1.003436159907242,0.07421875,0.32373046875,0.04296875,43.447647058823534,452.2676052561346
-0.6353544921875,-0.0019267578124999,0.7766650390625001,1.0034379034302316,0.1015625,0.30615234375,0.04345703125,43.447647058823534,452.2876681613725
-0.6324248046875,-0.0004619140624999,0.7712939453125001,0.9974245319944488,0.06396484375,0.3125,0.04052734375,43.49470588235295,452.2876681613725
-0.6348662109375,-0.0019267578124999,0.7708056640625001,0.9985991137271444,0.08251953125,0.27490234375,0.048828125,43.63588235294118,452.2876681613725
-0.7579130859375,0.0014912109375,0.7717822265625001,1.0817034135025805,0.07421875,0.27294921875,0.068359375,43.353529411764704,452.2876681613725
-0.6319365234375,0.0024677734375,0.7712939453125001,0.9971179517167136,0.07373046875,0.30908203125,0.056640625,43.63588235294118,452.1914458813974
-0.6343779296875,-0.0033916015624999,0.7673876953125001,0.9956559323143652,0.09423828125,0.29443359375,0.04296875,43.777058823529416,452.1914458813974
-0.6290068359375,-0.0019267578124999,0.7815478515625001,1.003229961840122,0.08447265625,0.29443359375,0.05322265625,43.353529411764704,452.1914458813974
-0.6290068359375,-0.0043681640624999,0.7732470703125001,0.9967846870113156,0.06787109375,0.3232421875,0.044921875,43.777058823529416,452.1914458813974
-0.6304716796875,-0.0014384765624999,0.7727587890625001,0.9973227933704012,0.08154296875,0.32666015625,0.048828125,43.777058823529416,452.1914458813974
-0.6290068359375,-0.0068095703124999,0.7752001953125001,0.9983142354571952,0.07421875,0.34130859375,0.033203125,43.63588235294118,452.0511398392513
-0.6319365234375,-0.0077861328124999,0.7795947265625001,1.0035797582666297,0.07373046875,0.3388671875,0.046875,43.63588235294118,452.0511398392513
-0.6314482421875,-0.0053447265624999,0.7742236328125001,0.999088425650651,0.08056640625,0.31689453125,0.04443359375,43.49470588235295,452.0511398392513
-0.6338896484375,-0.0004619140624999,0.7703173828125001,0.9975997043022408,0.08935546875,0.31103515625,0.04248046875,43.68294117647059,452.0511398392513
-0.6368193359375,-0.0024150390624999,0.7737353515625001,1.0021033346392465,0.091796875,0.28515625,0.0634765625,43.49470588235295,452.3427748542718
-0.6373076171875,-0.0063212890624999,0.7727587890625001,1.00167714543857,0.0888671875,0.27783203125,0.0703125,43.49470588235295,452.3427748542718
-0.6382841796875,-0.0043681640624999,0.7693408203125001,0.9996554769998172,0.0791015625,0.275390625,0.072265625,43.63588235294118,452.3427748542718
-0.6387724609375,-0.0058330078124999,0.7717822265625001,1.001854323776696,0.0732421875,0.24853515625,0.052734375,43.447647058823534,452.3427748542718
-0.6280302734375,-0.0058330078124999,0.7830126953125001,1.0037753380884926,0.06103515625,0.3046875,0.07080078125,43.49470588235295,452.3427748542718
-0.6285185546875,-0.0004619140624999,0.7771533203125001,0.9995014108163172,0.05810546875,0.31982421875,0.06591796875,43.447647058823534,452.3638279054242
-0.6348662109375,-0.0043681640624999,0.7678759765625001,0.9963471794656862,0.04638671875,0.3427734375,0.0498046875,43.447647058823534,452.3638279054242
-0.6446318359375,-0.0121806640624999,0.7673876953125001,1.002288604843029,0.08251953125,0.3349609375,0.0908203125,43.49470588235295,452.3638279054242
-0.6446318359375,-0.0072978515624999,0.7693408203125001,1.0037373961055205,0.08349609375,0.31103515625,0.0615234375,44.01235294117648,452.3638279054242
-0.6314482421875,-0.0077861328124999,0.7708056640625001,0.996458166797126,0.087890625,0.2734375,0.0478515625,43.447647058823534,452.4279773438305
-0.6363310546875,-0.0014384765624999,0.7795947265625001,1.00632361497611,0.0732421875,0.27783203125,0.04541015625,43.63588235294118,452.4279773438305
-0.6290068359375,0.0005146484375,0.7644580078125001,0.989972681556302,0.06787109375,0.32275390625,0.05126953125,43.68294117647059,452.4279773438305
-0.6216826171875,2.6367187500001e-05,0.7727587890625001,0.9917890013917624,0.0498046875,0.25,0.05224609375,43.82411764705883,452.4279773438305
-0.6270537109375,-0.0043681640624999,0.7688525390625001,0.9921439734638416,0.048828125,0.40771484375,0.05029296875,43.54176470588236,452.4279773438305
-0.6299833984375,-0.0072978515624999,0.7664111328125001,0.99212820010482,0.0517578125,0.4033203125,0.044921875,43.49470588235295,452.1894661772485
-0.6334013671875,-0.0063212890624999,0.7688525390625001,0.9961784365630784,0.05517578125,0.40087890625,0.03955078125,43.353529411764704,452.1894661772485
-0.6334013671875,-0.0048564453124999,0.7722705078125001,0.9988105997900923,0.07666015625,0.3505859375,0.05615234375,43.447647058823534,452.1894661772485
-0.6397490234375,-0.0082744140624999,0.7761767578125001,1.005881522986498,0.08203125,0.2958984375,0.052734375,43.777058823529416,452.1894661772485
-0.6329130859375,-0.0082744140624999,0.7659228515625001,0.9936222898187412,0.07177734375,0.23388671875,0.07861328125,43.30647058823529,451.8878016338129
-0.6363310546875,-0.0009501953124999,0.7688525390625001,0.9980242185707174,0.08203125,0.28759765625,0.05322265625,43.447647058823534,451.8878016338129
-0.6324248046875,-0.0058330078124999,0.7634814453125001,0.9914126663002784,0.0849609375,0.27685546875,0.07421875,43.82411764705883,451.8878016338129
-0.6338896484375,-0.0009501953124999,0.7698291015625001,0.9972230617469068,0.078125,0.27001953125,0.08642578125,43.68294117647059,451.8878016338129
-0.6319365234375,-0.0077861328124999,0.7698291015625001,0.996012670165884,0.08154296875,0.27880859375,0.0859375,43.63588235294118,451.8878016338129
-0.6353544921875,-0.0077861328124999,0.7717822265625001,0.9996918324387672,0.087890625,0.29736328125,0.06982421875,43.68294117647059,452.1573919669233
-0.6353544921875,-0.0063212890624999,0.7776416015625001,1.004212004468647,0.07470703125,0.3388671875,0.07470703125,43.87117647058824,452.1573919669233
-0.5098662109375,-0.0063212890624999,0.7820361328125001,0.933586645564034,0.08056640625,0.31884765625,0.06640625,43.447647058823534,452.1573919669233
-0.6387724609375,-0.0038798828124999,0.7761767578125001,1.005234136761736,0.08447265625,0.32666015625,0.07666015625,43.63588235294118,452.1573919669233
-0.6377958984375,-0.0077861328124999,0.7761767578125001,1.0046365468646838,0.0693359375,0.3095703125,0.06396484375,43.63588235294118,452.1904558077057
-0.6373076171875,-0.0038798828124999,0.7747119140625001,1.0031722694563632,0.076171875,0.314453125,0.05615234375,43.82411764705883,452.1904558077057
-0.6412138671875,-0.0058330078124999,0.7678759765625001,1.000411296835208,0.0859375,0.298828125,0.0673828125,43.777058823529416,452.1904558077057
-0.6402373046875,-0.0072978515624999,0.7693408203125001,1.0009207574778602,0.07763671875,0.294921875,0.06201171875,43.54176470588236,452.1904558077057
-0.6397490234375,-0.0077861328124999,0.7659228515625001,0.9979865988073388,0.08203125,0.279296875,0.05224609375,43.447647058823534,452.1904558077057
-0.6436552734375,-0.0087626953124999,0.7673876953125001,1.0016250649669631,0.0615234375,0.28564453125,0.0654296875,43.30647058823529,451.9529386153808
-0.6426787109375,-0.0072978515624999,0.7722705078125001,1.0047342541023927,0.05322265625,0.2958984375,0.07421875,43.353529411764704,451.9529386153808
-0.6353544921875,-0.0029033203124999,0.7629931640625001,0.9928959303057788,0.04541015625,0.27197265625,0.0673828125,43.68294117647059,451.9529386153808
-0.6373076171875,-0.0058330078124999,0.7703173828125001,0.9997919249366086,0.0576171875,0.2861328125,0.078125,43.777058823529416,451.9529386153808
-0.6387724609375,-0.0082744140624999,0.7639697265625001,0.9958656866687438,0.04931640625,0.3017578125,0.08837890625,43.49470588235295,451.908853521406
-0.6358427734375,-0.0053447265624999,0.7620166015625001,0.99246858876822,0.05908203125,0.2890625,0.08837890625,43.49470588235295,451.908853521406
-0.6377958984375,-0.0048564453124999,0.7644580078125001,0.9955919037604852,0.06982421875,0.2861328125,0.09033203125,43.54176470588236,451.908853521406
-0.6382841796875,-0.0063212890624999,0.7649462890625001,0.9962878489097649,0.05615234375,0.2744140625,0.08544921875,43.777058823529416,451.908853521406
-0.6363310546875,-0.0058330078124999,0.7761767578125001,1.0036939745301707,0.05712890625,0.2626953125,0.0888671875,43.447647058823534,451.908853521406
-0.6377958984375,-0.0053447265624999,0.7673876953125001,0.9978457040458488,0.07470703125,0.28173828125,0.09765625,43.68294117647059,452.3187536216588
-0.6392607421875,-0.0072978515624999,0.7708056640625001,1.001423450339752,0.0771484375,0.2734375,0.09814453125,43.54176470588236,452.3187536216588
-0.6368193359375,-0.0068095703124999,0.7722705078125001,1.0009929940357705,0.08740234375,0.2626953125,0.103515625,43.54176470588236,452.3187536216588
-0.6363310546875,-0.0077861328124999,0.7722705078125001,1.000689548391936,0.07177734375,0.23779296875,0.09912109375,43.63588235294118,452.3187536216588
-0.6426787109375,-0.0048564453124999,0.7664111328125001,1.0002227427189905,0.0888671875,0.22802734375,0.10986328125,43.447647058823534,451.6282471227378
-0.6431669921875,-0.0043681640624999,0.7688525390625001,1.0024056501834204,0.05615234375,0.23095703125,0.1142578125,43.63588235294118,451.6282471227378
-0.6451201171875,-0.0048564453124999,0.7698291015625001,1.0044104720051523,0.05419921875,0.2158203125,0.11572265625,43.353529411764704,451.6282471227378
-0.6441435546875,-0.0063212890624999,0.7712939453125001,1.004915532677539,0.06201171875,0.22216796875,0.12255859375,43.63588235294118,451.6282471227378
-0.6407255859375,-0.0024150390624999,0.7688525390625001,1.0008343198109662,0.0625,0.2001953125,0.12646484375,43.447647058823534,451.6282471227378
-0.6412138671875,0.0010029296875,0.7732470703125001,1.004523399970539,0.06494140625,0.1943359375,0.11962890625,43.63588235294118,452.0692223365487
-0.6412138671875,-0.0072978515624999,0.7761767578125001,1.0068062581645496,0.037109375,0.2119140625,0.138671875,43.447647058823534,452.0692223365487
-0.6382841796875,-0.0077861328124999,0.7712939453125001,1.0011801376272107,0.0400390625,0.2021484375,0.14111328125,43.63588235294118,452.0692223365487
-0.6417021484375,-0.0004619140624999,0.7678759765625001,1.0007074377937428,0.0537109375,0.16748046875,0.13818359375,43.54176470588236,452.0692223365487
-0.6446318359375,-0.0048564453124999,0.7683642578125001,1.0029742876310337,0.06884765625,0.16357421875,0.1484375,43.63588235294118,452.1554135164967
-0.6407255859375,-0.0048564453124999,0.7708056640625001,1.0023443686113358,0.02294921875,0.15283203125,0.158203125,43.447647058823534,452.1554135164967
-0.6441435546875,-0.0048564453124999,0.7664111328125001,1.0011645861722542,0.0478515625,0.14111328125,0.16796875,43.447647058823534,452.1554135164967
-0.6441435546875,-0.0068095703124999,0.7727587890625001,1.0060434560030846,0.02001953125,0.1162109375,0.17919921875,43.63588235294118,452.1554135164967
-0.6441435546875,-0.0053447265624999,0.7737353515625001,1.0067849221184342,0.03125,0.1025390625,0.2060546875,43.54176470588236,452.1554135164967
-0.6397490234375,-0.0068095703124999,0.7678759765625001,0.9994792137002596,0.0341796875,0.07421875,0.21875,43.447647058823534,451.9730004441676
-0.6421904296875,-0.0019267578124999,0.7615283203125001,0.996161454291352,0.04541015625,0.0703125,0.22705078125,43.777058823529416,451.9730004441676
-0.6431669921875,-0.0068095703124999,0.7722705078125001,1.0050432265949227,0.0322265625,0.083984375,0.25439453125,43.68294117647059,451.9730004441676
-0.6417021484375,-0.0077861328124999,0.7722705078125001,1.0041135435848147,0.009765625,0.08544921875,0.24609375,43.49470588235295,451.9730004441676
-0.6358427734375,-0.0068095703124999,0.7727587890625001,1.0007489939309828,0.02197265625,0.07666015625,0.275390625,43.54176470588236,451.5941922914634
-0.6324248046875,-0.0102275390624999,0.7781298828125001,1.0027720831101614,0.02978515625,0.0771484375,0.259765625,43.54176470588236,451.5941922914634
-0.6290068359375,-0.0116923828124999,0.7727587890625001,0.9964649805915312,0.0263671875,0.0732421875,0.24462890625,43.68294117647059,451.5941922914634
-0.6251005859375,-0.0068095703124999,0.7761767578125001,0.9966180171738674,0.021484375,0.06201171875,0.23486328125,43.54176470588236,451.5941922914634
-0.6231474609375,-0.0048564453124999,0.7771533203125001,0.9961443803017058,0.029296875,0.06201171875,0.232421875,43.63588235294118,451.5941922914634
-0.6241240234375,-0.0048564453124999,0.7781298828125001,0.9975171658766988,0.037109375,0.0693359375,0.2216796875,43.353529411764704,451.7335050890088
-0.6280302734375,-0.0029033203124999,0.7712939453125001,0.9946480803271778,0.02880859375,0.07958984375,0.21875,43.353529411764704,451.7335050890088
-0.6319365234375,-0.0029033203124999,0.7712939453125001,0.9971191247783951,0.015625,0.09521484375,0.236328125,43.54176470588236,451.7335050890088
-0.5103544921875,-0.0048564453124999,0.7771533203125001,0.9297594183603508,0.01953125,0.07568359375,0.24169921875,43.777058823529416,451.7335050890088
-0.6319365234375,-0.0009501953124999,0.7800830078125001,1.0039293658436348,0.02880859375,0.0712890625,0.25830078125,43.68294117647059,451.43284017171896
-0.6309599609375,-0.0043681640624999,0.7756884765625001,0.999911078964215,0.02294921875,0.07763671875,0.2578125,43.447647058823534,451.43284017171896
-0.6304716796875,-0.0048564453124999,0.7771533203125001,1.0007424280112212,0.02783203125,0.06640625,0.24951171875,42.74176470588235,451.43284017171896
-0.6260771484375,0.0068623046875,0.7874072265625001,1.0059969321345388,0.0380859375,0.07861328125,0.251953125,43.447647058823534,451.43284017171896
-0.6280302734375,0.0019794921875,0.7825244140625001,1.0033794901965858,0.04443359375,0.109375,0.21435546875,43.63588235294118,451.43284017171896
-0.6270537109375,0.0014912109375,0.7820361328125001,1.0023866984028071,0.04150390625,0.11376953125,0.20751953125,43.447647058823534,451.5400775558792
-0.6338896484375,0.0005146484375,0.7761767578125001,1.0021310845530915,0.05078125,0.1357421875,0.16064453125,43.777058823529416,451.5400775558792
-0.6280302734375,-0.0058330078124999,0.7874072265625001,1.0072071230769617,0.02783203125,0.13330078125,0.1669921875,43.447647058823534,451.5400775558792
-0.6182646484375,-0.0004619140624999,0.7766650390625001,0.9927033654491664,0.033203125,0.16064453125,0.130859375,43.54176470588236,451.5400775558792
-0.6167998046875,0.0010029296875,0.7737353515625001,0.989499570079766,0.01806640625,0.16943359375,0.10693359375,43.68294117647059,451.64632653088233
-0.6084990234375,-0.0004619140624999,0.7683642578125001,0.9801300462554682,-0.00537109375,0.19384765625,0.078125,43.447647058823534,451.64632653088233
-0.6124052734375,-0.0024150390624999,0.7708056640625001,0.9844731703294732,-0.041015625,0.21435546875,0.0888671875,43.49470588235295,451.64632653088233
-0.6202177734375,-0.0063212890624999,0.7717822265625001,0.9901302189212042,-0.03076171875,0.208984375,0.10009765625,43.63588235294118,451.64632653088233
-0.6187529296875,-0.0033916015624999,0.7737353515625001,0.9907235160303648,-0.12353515625,0.18896484375,0.13037109375,43.30647058823529,451.64632653088233
-0.6280302734375,-0.0063212890624999,0.7747119140625001,0.997316666279961,0.0048828125,0.18359375,0.14697265625,43.777058823529416,451.80966287327897
-0.6251005859375,-0.0029033203124999,0.7756884765625001,0.99621874328889,0.0224609375,0.16650390625,0.1650390625,43.447647058823534,451.80966287327897
-0.6236357421875,-0.0053447265624999,0.7776416015625001,0.9968332686645603,0.01953125,0.11279296875,0.158203125,43.447647058823534,451.80966287327897
-0.6236357421875,0.0014912109375,0.7786181640625001,0.9975820808594512,0.0283203125,0.09912109375,0.19140625,43.68294117647059,451.80966287327897
-0.6236357421875,0.0014912109375,0.7815478515625001,0.9998703950641672,0.037109375,0.08984375,0.201171875,43.63588235294118,451.6473166467114
-0.6187529296875,-0.0009501953124999,0.7830126953125001,0.9979804466463972,0.03564453125,0.078125,0.2158203125,43.447647058823534,451.6473166467114
-0.6202177734375,0.0068623046875,0.7781298828125001,0.9950895900566888,0.0498046875,0.11865234375,0.22900390625,43.63588235294118,451.6473166467114
-0.6202177734375,0.0024677734375,0.7854541015625001,1.0008068355356408,0.03857421875,0.16015625,0.22607421875,42.88294117647059,451.6473166467114
-0.6167998046875,-0.0009501953124999,0.7786181640625001,0.993322277683194,0.02490234375,0.2021484375,0.21240234375,43.63588235294118,451.6473166467114
-0.6119169921875,0.0029560546875,0.7791064453125001,0.99068561951539,0.03466796875,0.22314453125,0.185546875,43.68294117647059,451.8948630304654
-0.6202177734375,0.0024677734375,0.7791064453125001,0.9958328321164092,0.00048828125,0.22705078125,0.1787109375,43.68294117647059,451.8948630304654
-0.6241240234375,-0.0019267578124999,0.7795947265625001,0.9986503125276336,0.00732421875,0.24560546875,0.16650390625,43.353529411764704,451.8948630304654
-0.6251005859375,-0.0038798828124999,0.7781298828125001,0.9981241959575168,0.02587890625,0.23876953125,0.16845703125,43.30647058823529,451.8948630304654
-0.6265654296875,-0.0043681640624999,0.7766650390625001,0.997903753594861,0.021484375,0.220703125,0.16259765625,43.49470588235295,451.6362955580102
-0.6236357421875,-0.0048564453124999,0.7752001953125001,0.9949273676039702,0.029296875,0.2109375,0.15673828125,42.88294117647059,451.6362955580102
-0.6285185546875,-0.0033916015624999,0.7825244140625001,1.0036889633504402,0.03857421875,0.19189453125,0.173828125,43.68294117647059,451.6362955580102
-0.6319365234375,-0.0068095703124999,0.7849658203125001,1.007750702783675,0.0458984375,0.18701171875,0.177734375,43.353529411764704,451.6362955580102
-0.6309599609375,-0.0048564453124999,0.7722705078125001,0.9972641548778848,0.02685546875,0.14501953125,0.18896484375,43.777058823529416,451.6362955580102
-0.6202177734375,-0.0009501953124999,0.7820361328125001,0.9981239914876467,0.02587890625,0.11474609375,0.18994140625,43.87117647058824,451.67839984053217
-0.6114287109375,-0.0009501953124999,0.7776416015625001,0.9892282001189184,0.0478515625,0.12841796875,0.18994140625,43.447647058823534,451.67839984053217
-0.6158232421875,-0.0058330078124999,0.7786181640625001,0.9927328618548512,0.0234375,0.13134765625,0.18115234375,43.447647058823534,451.67839984053217
-0.6124052734375,-0.0043681640624999,0.7732470703125001,0.9863925848961966,0.0224609375,0.17431640625,0.1650390625,43.63588235294118,451.67839984053217
-0.6089873046875,-0.0019267578124999,0.7864306640625001,0.9946569454058012,0.052734375,0.19287109375,0.166015625,43.353529411764704,451.5280656504104
-0.6148466796875,-0.0019267578124999,0.7859423828125001,0.9978705231739244,0.05078125,0.18603515625,0.15966796875,43.447647058823534,451.5280656504104
-0.6153349609375,-0.0014384765624999,0.7795947265625001,0.9931803064151216,0.0478515625,0.19873046875,0.14453125,43.777058823529416,451.5280656504104
-0.6197294921875,-0.0019267578124999,0.7820361328125001,0.997822062748151,0.03955078125,0.1962890625,0.12548828125,43.777058823529416,451.5280656504104
-0.6231474609375,-0.0029033203124999,0.7849658203125001,1.0022437460022218,0.0361328125,0.1962890625,0.14794921875,43.68294117647059,451.5280656504104
-0.6197294921875,-0.0019267578124999,0.7869189453125001,1.0016535241161897,0.05078125,0.193359375,0.13134765625,43.54176470588236,451.67839984053217
-0.6231474609375,-0.0024150390624999,0.7878955078125001,1.0045386611363665,0.04443359375,0.21533203125,0.13720703125,43.49470588235295,451.67839984053217
-0.6221708984375,-0.0033916015624999,0.7800830078125001,0.9978164304627788,0.04150390625,0.1845703125,0.13427734375,43.49470588235295,451.67839984053217
-0.6177763671875,2.6367187500001e-05,0.7844775390625001,0.9985252374598098,0.05517578125,0.1845703125,0.12744140625,43.54176470588236,451.67839984053217
-0.6211943359375,-0.0024150390624999,0.7800830078125001,0.9972049611249946,0.05419921875,0.19140625,0.138671875,43.54176470588236,451.67839984053217
-0.6172880859375,0.0034443359375,0.7776416015625001,0.9928660055471348,0.07470703125,0.19091796875,0.13330078125,43.54176470588236,451.67839984053217
-0.6187529296875,-0.0004619140624999,0.7844775390625001,0.999129826726748,0.0537109375,0.23974609375,0.13671875,43.49470588235295,451.67839984053217
-0.6128935546875,0.0029560546875,0.7805712890625001,0.9924408218858634,0.0322265625,0.203125,0.1279296875,43.54176470588236,451.67839984053217
-0.6104521484375,0.0049091796875,0.7937548828125001,1.0013604443784712,0.0625,0.1962890625,0.150390625,43.68294117647059,451.67839984053217
-0.6197294921875,0.0010029296875,0.7844775390625001,0.9997352942896888,0.0400390625,0.2265625,0.14892578125,43.49470588235295,451.7736323418264
-0.6153349609375,-0.0014384765624999,0.7849658203125001,0.997401886114946,0.03515625,0.201171875,0.13427734375,43.49470588235295,451.7736323418264
-0.6177763671875,-0.0019267578124999,0.7849658203125001,0.9989107524248244,0.05517578125,0.20166015625,0.15576171875,42.93,451.7736323418264
-0.6119169921875,0.0024677734375,0.7830126953125001,0.9937592144247428,0.06201171875,0.21435546875,0.13720703125,43.54176470588236,451.7736323418264
-0.6158232421875,0.0005146484375,0.7849658203125001,0.9977022950460795,0.0703125,0.22021484375,0.15380859375,43.49470588235295,451.8177160339685
-0.6197294921875,0.0024677734375,0.7869189453125001,1.0016547109081315,0.0537109375,0.21630859375,0.146484375,43.49470588235295,451.8177160339685
-0.6197294921875,2.6367187500001e-05,0.7927783203125001,1.0062614517806563,0.0458984375,0.21142578125,0.15576171875,43.49470588235295,451.8177160339685
-0.6163115234375,-0.0033916015624999,0.7791064453125001,0.9934073937768384,0.04150390625,0.20703125,0.1640625,43.49470588235295,451.8177160339685
-0.6163115234375,-0.0014384765624999,0.7835009765625001,0.9968529196481616,0.0556640625,0.20654296875,0.15673828125,43.447647058823534,451.8177160339685
-0.6143583984375,-0.0038798828124999,0.7869189453125001,0.9983449913296836,0.0673828125,0.1962890625,0.16015625,43.447647058823534,451.7746209760441
-0.6158232421875,-0.0019267578124999,0.7844775390625001,0.9973199021916432,0.0615234375,0.20654296875,0.14111328125,43.49470588235295,451.7746209760441
-0.6124052734375,-0.0024150390624999,0.7786181640625001,0.990601987054231,0.0625,0.22216796875,0.13330078125,43.68294117647059,451.7746209760441
-0.6182646484375,-0.0029033203124999,0.7859423828125001,0.9999825167858548,0.05126953125,0.251953125,0.13427734375,43.63588235294118,451.7746209760441
-0.6094755859375,0.0029560546875,0.7786181640625001,0.9887949603033142,0.06103515625,0.23388671875,0.10595703125,43.82411764705883,452.1083654628691
-0.6089873046875,-0.0004619140624999,0.7844775390625001,0.9931116553181236,0.05224609375,0.23095703125,0.10107421875,43.777058823529416,452.1083654628691
-0.6104521484375,0.0010029296875,0.7859423828125001,0.995167453497605,0.05712890625,0.2451171875,0.11181640625,43.68294117647059,452.1083654628691
-0.6104521484375,0.0019794921875,0.7805712890625001,0.9909325311190328,0.05224609375,0.2451171875,0.10986328125,43.54176470588236,452.1083654628691
-0.6163115234375,-0.0019267578124999,0.7810595703125001,0.9949360073362846,0.05908203125,0.23388671875,0.11328125,43.447647058823534,452.1083654628691
-0.6109404296875,0.0005146484375,0.7908251953125001,0.9993262545489412,0.0439453125,0.2275390625,0.10546875,43.63588235294118,451.9149276244155
-0.6124052734375,0.0014912109375,0.7864306640625001,0.9967525430225418,0.06494140625,0.236328125,0.09423828125,43.777058823529416,451.9149276244155
-0.6065458984375,0.0034443359375,0.7903369140625001,0.9962641357046031,0.05419921875,0.2744140625,0.1103515625,43.49470588235295,451.9149276244155
-0.6080107421875,-0.0014384765624999,0.7854541015625001,0.9932861005226892,0.0595703125,0.3046875,0.0859375,43.30647058823529,451.9149276244155
-0.6182646484375,-0.0092509765624999,0.7815478515625001,0.9965710212307324,0.08447265625,0.302734375,0.095703125,44.01235294117648,452.0652691672981
-0.6055693359375,-0.0077861328124999,0.7805712890625001,0.987960718753864,0.06640625,0.3134765625,0.09033203125,43.63588235294118,452.0652691672981
-0.6109404296875,-0.0029033203124999,0.7839892578125001,0.993929471472186,0.08203125,0.32275390625,0.07080078125,43.68294117647059,452.0652691672981
-0.6182646484375,-0.0043681640624999,0.7722705078125001,0.9892785217529992,0.05859375,0.31787109375,0.05859375,43.63588235294118,452.0652691672981
-0.6104521484375,-0.0009501953124999,0.7703173828125001,0.9828741519982052,0.05029296875,0.33203125,0.06298828125,44.01235294117648,452.0652691672981
-0.6124052734375,-0.0033916015624999,0.7756884765625001,0.9883037663426514,0.04443359375,0.3642578125,0.07373046875,43.353529411764704,451.88992314131616
-0.6153349609375,-0.0029033203124999,0.7869189453125001,0.998942926253812,0.037109375,0.37646484375,0.09375,43.447647058823534,451.88992314131616
-0.6216826171875,-0.0014384765624999,0.7913134765625001,1.0063142471004527,0.04638671875,0.36865234375,0.0849609375,43.54176470588236,451.88992314131616
-0.6270537109375,-0.0058330078124999,0.7957080078125001,1.013104937347345,0.06640625,0.36572265625,0.0849609375,42.60058823529412,451.88992314131616
-0.6241240234375,-0.0004619140624999,0.7903369140625001,1.0070568244772733,0.0712890625,0.3515625,0.09228515625,43.353529411764704,451.9249604234604
-0.6211943359375,0.0005146484375,0.7922900390625001,1.0067801020389229,0.07861328125,0.31982421875,0.09521484375,43.54176470588236,451.9249604234604
-0.6187529296875,-0.0048564453124999,0.7859423828125001,1.0002920584304007,0.095703125,0.32177734375,0.1064453125,43.777058823529416,451.9249604234604
-0.6163115234375,0.0005146484375,0.7825244140625001,0.9960846436868332,0.0810546875,0.3076171875,0.09765625,43.447647058823534,451.9249604234604
-0.6138701171875,2.6367187500001e-05,0.7849658203125001,0.9964977975539632,0.0859375,0.3193359375,0.0830078125,43.447647058823534,451.9249604234604
-0.6124052734375,0.0019794921875,0.7825244140625001,0.9936742906643194,0.07763671875,0.34716796875,0.08740234375,43.68294117647059,452.2898012240554
-0.6109404296875,2.6367187500001e-05,0.7791064453125001,0.9900783112711112,0.06494140625,0.373046875,0.0751953125,43.63588235294118,452.2898012240554
-0.6119169921875,-0.0014384765624999,0.7781298828125001,0.9899144352257992,0.0634765625,0.3955078125,0.08984375,43.68294117647059,452.2898012240554
-0.6187529296875,-0.0014384765624999,0.7815478515625001,0.996832133056336,0.05078125,0.4150390625,0.08056640625,43.63588235294118,452.2898012240554
-0.6187529296875,-0.0024150390624999,0.7800830078125001,0.9956859542487956,0.0634765625,0.4404296875,0.07568359375,43.82411764705883,451.75060251058665
-0.6202177734375,-0.0024150390624999,0.7830126953125001,0.99889178589174,0.0625,0.43994140625,0.0703125,43.30647058823529,451.75060251058665
-0.6255888671875,2.6367187500001e-05,0.7820361328125001,1.001469891943087,0.06591796875,0.43212890625,0.0908203125,43.49470588235295,451.75060251058665
-0.6294951171875,-0.0024150390624999,0.7820361328125001,1.003917550399886,0.06591796875,0.4140625,0.07421875,43.49470588235295,451.75060251058665
-0.6241240234375,0.0029560546875,0.7810595703125001,0.9997967729833276,0.08154296875,0.3720703125,0.0986328125,43.68294117647059,451.75060251058665
-0.6246123046875,-0.0068095703124999,0.7825244140625001,1.0012648800485964,0.0869140625,0.37890625,0.0966796875,43.68294117647059,452.2797662131081
-0.6270537109375,-0.0009501953124999,0.7737353515625001,0.9959235179114746,0.06884765625,0.3427734375,0.10302734375,43.68294117647059,452.2797662131081
-0.6260771484375,0.0014912109375,0.7698291015625001,0.9922760024903442,0.0703125,0.33251953125,0.0927734375,43.63588235294118,452.2797662131081
-0.6221708984375,0.0034443359375,0.7771533203125001,0.9955278868948472,0.078125,0.330078125,0.10791015625,43.447647058823534,452.2797662131081
-0.6202177734375,0.0044208984375,0.7791064453125001,0.9958395874628826,0.07275390625,0.3154296875,0.0908203125,43.63588235294118,452.4181096811152
-0.6148466796875,-0.0019267578124999,0.7810595703125001,0.9940292773832964,0.08056640625,0.34619140625,0.095703125,43.96529411764706,452.4181096811152
-0.6114287109375,-0.0033916015624999,0.7800830078125001,0.991153908632584,0.068359375,0.39453125,0.08642578125,43.447647058823534,452.4181096811152
-0.6109404296875,0.0024677734375,0.7786181640625001,0.9896971981068472,0.0859375,0.4189453125,0.0751953125,43.82411764705883,452.4181096811152
-0.6128935546875,-0.0048564453124999,0.7771533203125001,0.9897622834354196,0.08349609375,0.42431640625,0.0478515625,43.777058823529416,452.4181096811152
-0.6207060546875,-0.0033916015624999,0.7791064453125001,0.9961397303663578,0.07177734375,0.41943359375,0.0439453125,43.30647058823529,452.3218780366367
-0.6207060546875,-0.0038798828124999,0.7805712890625001,0.9972876200600574,0.07763671875,0.421875,0.05615234375,43.63588235294118,452.3218780366367
-0.6241240234375,-0.0024150390624999,0.7820361328125001,1.0005584151211846,0.08984375,0.39599609375,0.0400390625,43.68294117647059,452.3218780366367
-0.6275419921875,-0.0014384765624999,0.7805712890625001,1.001550077870383,0.083984375,0.40087890625,0.0517578125,43.68294117647059,452.3218780366367
-0.6294951171875,-0.0048564453124999,0.7791064453125001,1.001645915856226,0.08642578125,0.38037109375,0.0546875,43.54176470588236,452.1264615126264
-0.6294951171875,-0.0024150390624999,0.7825244140625001,1.0042979605577405,0.083984375,0.38037109375,0.05224609375,43.54176470588236,452.1264615126264
-0.6246123046875,-0.0033916015624999,0.7800830078125001,0.9993405491652914,0.0986328125,0.36572265625,0.04150390625,43.447647058823534,452.1264615126264
-0.6280302734375,0.0024677734375,0.7761767578125001,0.9984380169184484,0.0859375,0.375,0.0400390625,43.30647058823529,452.1264615126264
-0.6241240234375,-0.0009501953124999,0.7727587890625001,0.9933216224246236,0.08447265625,0.376953125,0.05322265625,43.777058823529416,452.1264615126264
-0.6192412109375,0.0019794921875,0.7766650390625001,0.993313736245813,0.0859375,0.3759765625,0.033203125,43.54176470588236,452.2878309334538
-0.6182646484375,-0.0004619140624999,0.7761767578125001,0.9923213936222836,0.0908203125,0.38623046875,0.04150390625,43.49470588235295,452.2878309334538
-0.6197294921875,2.6367187500001e-05,0.7727587890625001,0.9905658939492852,0.0712890625,0.36962890625,0.03125,43.777058823529416,452.2878309334538
-0.6226591796875,0.0010029296875,0.7766650390625001,0.995446654933866,0.0810546875,0.38232421875,0.0224609375,43.447647058823534,452.2878309334538
-0.6216826171875,0.0010029296875,0.7737353515625001,0.99255059147562,0.09326171875,0.4990234375,0.015625,43.82411764705883,452.2878309334538
-0.6260771484375,-0.0029033203124999,0.7786181640625001,0.9991132420664468,0.0859375,0.36669921875,0.021484375,43.30647058823529,452.4181096811152
-0.6319365234375,0.0005146484375,0.7776416015625001,1.0020331805873388,0.08740234375,0.3759765625,0.02880859375,43.63588235294118,452.4181096811152
-0.6319365234375,-0.0024150390624999,0.7742236328125001,0.9993857291723413,0.0849609375,0.373046875,0.02685546875,43.49470588235295,452.4181096811152
-0.6299833984375,-0.0033916015624999,0.7781298828125001,1.001187644647004,0.10400390625,0.35205078125,0.03173828125,43.54176470588236,452.4181096811152
-0.6319365234375,0.0005146484375,0.7786181640625001,1.0027912444399116,0.09716796875,0.37109375,0.03125,43.447647058823534,452.4190944527875
-0.6319365234375,-0.0004619140624999,0.7683642578125001,0.994850549430732,0.10400390625,0.3623046875,0.046875,43.68294117647059,452.4190944527875
-0.6270537109375,-0.0048564453124999,0.7717822265625001,0.9944182956378737,0.07666015625,0.34814453125,0.03466796875,43.447647058823534,452.4190944527875
-0.6290068359375,-0.0014384765624999,0.7761767578125001,0.9990505634047008,0.091796875,0.49853515625,0.03173828125,43.353529411764704,452.4190944527875
-0.6285185546875,0.0019794921875,0.7820361328125001,1.0033045424994915,0.09619140625,0.38720703125,0.0439453125,43.91823529411765,452.4190944527875
-0.6290068359375,2.6367187500001e-05,0.7737353515625001,0.9971539472964438,0.10498046875,0.36083984375,0.0439453125,43.447647058823534,452.19258584726055
-0.6285185546875,-0.0014384765624999,0.7815478515625001,1.0029230713685096,0.07666015625,0.3583984375,0.05126953125,43.447647058823534,452.19258584726055
-0.6324248046875,-0.0004619140624999,0.7776416015625001,1.0023411631921109,0.10986328125,0.35986328125,0.04541015625,43.447647058823534,452.19258584726055
-0.6314482421875,-0.0029033203124999,0.7737353515625001,0.998700008054504,0.09228515625,0.349609375,0.04736328125,43.49470588235295,452.19258584726055
-0.6285185546875,-0.0024150390624999,0.7742236328125001,0.9972279777490812,0.078125,0.3466796875,0.04443359375,43.63588235294118,452.169558766648
-0.6309599609375,-0.0087626953124999,0.7717822265625001,0.9969127656787032,0.091796875,0.3408203125,0.04443359375,43.447647058823534,452.169558766648
-0.6348662109375,-0.0029033203124999,0.7805712890625001,1.0061585721781972,0.0888671875,0.34521484375,0.046875,44.01235294117648,452.169558766648
-0.6275419921875,-0.0019267578124999,0.7893603515625001,1.008415801628077,0.076171875,0.3564453125,0.03173828125,43.49470588235295,452.169558766648
-0.6275419921875,0.0019794921875,0.7668994140625001,0.990932682697156,0.07763671875,0.40283203125,0.0498046875,43.63588235294118,452.169558766648
-0.6377958984375,-0.0068095703124999,0.7678759765625001,0.9982301807165278,0.068359375,0.3994140625,0.01904296875,43.353529411764704,452.0623089443023
-0.6397490234375,-0.0087626953124999,0.7732470703125001,1.0036267381677508,0.0751953125,0.404296875,0.04345703125,44.01235294117648,452.0623089443023
-0.6377958984375,-0.0102275390624999,0.7732470703125001,1.0023967489800818,0.10400390625,0.35302734375,0.03857421875,43.54176470588236,452.0623089443023
-0.5123076171875,-0.0053447265624999,0.7756884765625001,0.92961296968266,0.12744140625,0.30322265625,0.01953125,43.447647058823534,452.0623089443023
-0.6294951171875,0.0010029296875,0.7668994140625001,0.9921692495337014,0.08154296875,0.29541015625,0.0185546875,43.63588235294118,452.4171253526922
-0.6285185546875,0.0019794921875,0.7693408203125001,0.9934408838853446,0.0634765625,0.36181640625,0.02294921875,43.63588235294118,452.4171253526922
-0.6246123046875,0.0019794921875,0.7732470703125001,0.9940097993999936,0.05078125,0.38671875,0.0185546875,43.54176470588236,452.4171253526922
-0.6197294921875,-0.0019267578124999,0.7668994140625001,0.9860035837521336,0.04638671875,0.43408203125,0.02001953125,43.54176470588236,452.4171253526922
-0.6260771484375,-0.0024150390624999,0.7659228515625001,0.9892503438235118,0.05078125,0.4228515625,0.02294921875,43.87117647058824,452.4171253526922
-0.6348662109375,-0.0048564453124999,0.7708056640625001,0.9986090639494732,0.05859375,0.3935546875,0.029296875,43.49470588235295,452.1154408388451
-0.6368193359375,-0.0068095703124999,0.7654345703125001,0.9957285364501716,0.08154296875,0.34619140625,0.0361328125,43.447647058823534,452.1154408388451
-0.6392607421875,-0.0004619140624999,0.7727587890625001,1.0029011197222066,0.07763671875,0.2958984375,0.02490234375,43.353529411764704,452.1154408388451
-0.6397490234375,-0.0024150390624999,0.7747119140625001,1.0047204562430738,0.09130859375,0.28759765625,0.05859375,43.447647058823534,452.1154408388451
-0.6392607421875,-0.0014384765624999,0.7673876953125001,0.998769363083372,0.09765625,0.37353515625,0.06884765625,43.63588235294118,452.2648053143531
-0.6368193359375,2.6367187500001e-05,0.7683642578125001,0.9979591675027896,0.0859375,0.25634765625,0.0703125,43.447647058823534,452.2648053143531
-0.6363310546875,-0.0038798828124999,0.7664111328125001,0.9961517400222138,0.11474609375,0.23974609375,0.0810546875,43.447647058823534,452.2648053143531
-0.6382841796875,-0.0038798828124999,0.7703173828125001,1.000405226792165,0.0888671875,0.27685546875,0.0771484375,43.447647058823534,452.2648053143531
-0.6377958984375,-0.0058330078124999,0.7668994140625001,0.9974729787484192,0.09716796875,0.2841796875,0.05859375,43.49470588235295,452.2648053143531
-0.6353544921875,-0.0019267578124999,0.7712939453125001,0.9992864420246208,0.08349609375,0.29345703125,0.04931640625,43.54176470588236,452.4381826282028
-0.6309599609375,-0.0019267578124999,0.7717822265625001,0.9968761156431072,0.0947265625,0.32763671875,0.052734375,43.49470588235295,452.4381826282028
-0.6338896484375,2.6367187500001e-05,0.7732470703125001,0.9998635501098688,0.06884765625,0.34521484375,0.04052734375,43.63588235294118,452.4381826282028
-0.6358427734375,-0.0019267578124999,0.7752001953125001,1.0026141270403577,0.07421875,0.33740234375,0.06884765625,43.63588235294118,452.4381826282028
-0.6373076171875,-0.0043681640624999,0.7717822265625001,1.0009135252459405,0.0712890625,0.3251953125,0.060546875,43.54176470588236,452.363006410621
-0.6407255859375,-0.0068095703124999,0.7717822265625001,1.0031068995678196,0.0615234375,0.32373046875,0.06591796875,43.447647058823534,452.363006410621
-0.6353544921875,-0.0038798828124999,0.7683642578125001,0.99703260574428,0.07275390625,0.3212890625,0.0556640625,43.54176470588236,452.363006410621
-0.6436552734375,-0.0043681640624999,0.7668994140625001,1.001222204693137,0.05712890625,0.30078125,0.05908203125,44.01235294117648,452.363006410621
-0.6373076171875,-0.0063212890624999,0.7688525390625001,0.9986667033818007,0.048828125,0.29541015625,0.06005859375,43.63588235294118,452.363006410621
-0.6377958984375,-0.0029033203124999,0.7737353515625001,1.002725501615512,0.05908203125,0.296875,0.06298828125,43.30647058823529,452.1996662228025
-0.6338896484375,-0.0058330078124999,0.7776416015625001,1.003282896723077,0.056640625,0.31640625,0.0419921875,43.63588235294118,452.1996662228025
-0.6338896484375,-0.0077861328124999,0.7649462890625001,0.9934885683342718,0.048828125,0.3310546875,0.044921875,43.49470588235295,452.1996662228025
-0.6348662109375,-0.0033916015624999,0.7649462890625001,0.9940872365651752,0.044921875,0.32958984375,0.07470703125,43.63588235294118,452.1996662228025
-0.6334013671875,-0.0087626953124999,0.7664111328125001,0.9943138846878652,0.06494140625,0.3310546875,0.068359375,43.353529411764704,452.2417804389284
-0.6338896484375,-0.0043681640624999,0.7629931640625001,0.9919645838736376,0.0615234375,0.32568359375,0.0830078125,43.63588235294118,452.2417804389284
-0.6358427734375,-0.0072978515624999,0.7693408203125001,0.998115518850013,0.0634765625,0.3076171875,0.095703125,43.353529411764704,452.2417804389284
-0.6343779296875,-0.0043681640624999,0.7629931640625001,0.9922766786224398,0.0703125,0.25244140625,0.1142578125,43.54176470588236,452.2417804389284
-0.6412138671875,-0.0053447265624999,0.7727587890625001,1.0041613095757664,0.06982421875,0.27978515625,0.099609375,43.63588235294118,452.2417804389284
-0.6392607421875,-0.0072978515624999,0.7649462890625001,0.9969204483257584,0.08447265625,0.27783203125,0.09814453125,43.353529411764704,451.95111719964245
-0.6387724609375,-0.0033916015624999,0.7654345703125001,0.9969613037840488,0.0693359375,0.23828125,0.109375,43.63588235294118,451.95111719964245
-0.6402373046875,-0.0082744140624999,0.7722705078125001,1.0031819423606911,0.083984375,0.2666015625,0.10693359375,43.68294117647059,451.95111719964245
-0.6407255859375,-0.0004619140624999,0.7654345703125001,0.998208180325645,0.06787109375,0.25634765625,0.1044921875,43.82411764705883,451.95111719964245
-0.6412138671875,-0.0043681640624999,0.7712939453125001,1.0030297375484676,0.07080078125,0.24267578125,0.1044921875,43.447647058823534,451.9601684484536
-0.6373076171875,-0.0014384765624999,0.7668994140625001,0.997144813670229,0.0615234375,0.2392578125,0.11474609375,43.777058823529416,451.9601684484536
-0.6402373046875,-0.0024150390624999,0.7698291015625001,1.0012724326274614,0.0703125,0.2685546875,0.103515625,43.447647058823534,451.9601684484536
-0.6377958984375,-0.0014384765624999,0.7722705078125001,1.001592439326244,0.0517578125,0.25732421875,0.109375,43.447647058823534,451.9601684484536
-0.6314482421875,-0.0053447265624999,0.7693408203125001,0.9953093722370054,0.0673828125,0.2841796875,0.1162109375,43.49470588235295,451.9601684484536
-0.6363310546875,-0.0009501953124999,0.7766650390625001,1.0040551264411697,0.06396484375,0.27099609375,0.10546875,43.353529411764704,451.9611528656622
-0.6343779296875,-0.0063212890624999,0.7722705078125001,0.9994383690888534,0.0654296875,0.27587890625,0.09765625,43.82411764705883,451.9611528656622
-0.6363310546875,-0.0092509765624999,0.7683642578125001,0.9976905454151704,0.0615234375,0.27294921875,0.11376953125,43.63588235294118,451.9611528656622
-0.6280302734375,-0.0087626953124999,0.7747119140625001,0.9973351287172748,0.07470703125,0.29248046875,0.11376953125,43.49470588235295,451.9611528656622
-0.6377958984375,-0.0063212890624999,0.7649462890625001,0.9959750960288112,0.07958984375,0.2724609375,0.1015625,43.54176470588236,452.0473477176421
-0.6363310546875,-0.0019267578124999,0.7698291015625001,0.9987781381107118,0.07080078125,0.28125,0.0859375,43.447647058823534,452.0473477176421
-0.6387724609375,-0.0019267578124999,0.7644580078125001,0.996207817152864,0.05859375,0.263671875,0.09033203125,43.54176470588236,452.0473477176421
-0.6363310546875,-0.0063212890624999,0.7712939453125001,0.999925757209424,0.0810546875,0.28173828125,0.09765625,43.447647058823534,452.0473477176421
-0.6387724609375,-0.0063212890624999,0.7654345703125001,0.996975574914974,0.06201171875,0.26806640625,0.1064453125,43.54176470588236,452.0473477176421
-0.6387724609375,-0.0058330078124999,0.7747119140625001,1.00411295710327,0.0771484375,0.27099609375,0.11181640625,43.49470588235295,451.6915520353321
-0.6382841796875,-0.0048564453124999,0.7712939453125001,1.0011616398844594,0.05322265625,0.2607421875,0.11279296875,44.01235294117648,451.6915520353321
-0.6314482421875,-0.0053447265624999,0.7693408203125001,0.9953093722370054,0.0771484375,0.27294921875,0.111328125,43.54176470588236,451.6915520353321
-0.6368193359375,-0.0029033203124999,0.7688525390625001,0.9983393825325978,0.06640625,0.2724609375,0.095703125,43.82411764705883,451.6915520353321
-0.6377958984375,-0.0024150390624999,0.7712939453125001,1.0008415411807672,0.05078125,0.2744140625,0.10888671875,43.777058823529416,451.8418973301484
-0.6382841796875,2.6367187500001e-05,0.7703173828125001,1.0003977034148337,0.0654296875,0.26123046875,0.11083984375,42.788823529411765,451.8418973301484
-0.6402373046875,-0.0009501953124999,0.7581103515625001,0.9922882717894352,0.048828125,0.2626953125,0.11376953125,43.447647058823534,451.8418973301484
-0.6470732421875,-0.0043681640624999,0.7703173828125001,1.00603763939299,0.04931640625,0.2470703125,0.1318359375,43.49470588235295,451.8418973301484
-0.6441435546875,-0.0053447265624999,0.7634814453125001,0.9989261246378234,0.048828125,0.2314453125,0.12109375,43.353529411764704,451.8418973301484
-0.6446318359375,-0.0038798828124999,0.7673876953125001,1.0022220972977105,0.0419921875,0.2216796875,0.1162109375,43.447647058823534,452.1225228308518
-0.6451201171875,-0.0029033203124999,0.7737353515625001,1.0074000144562218,0.05029296875,0.19384765625,0.13232421875,43.54176470588236,452.1225228308518
-0.6377958984375,-0.0009501953124999,0.7717822265625001,1.0012154194640632,0.03955078125,0.18896484375,0.1572265625,43.54176470588236,452.1225228308518
-0.6426787109375,0.0053974609375,0.7688525390625001,1.0020974428166711,0.02880859375,0.1689453125,0.169921875,43.54176470588236,452.1225228308518
-0.6495146484375,-0.0038798828124999,0.7722705078125001,1.0091016149340484,0.03173828125,0.15966796875,0.17626953125,43.82411764705883,452.0994985469097
-0.6460966796875,-0.0102275390624999,0.7698291015625001,1.005078289324276,0.0419921875,0.15234375,0.17822265625,43.447647058823534,452.0994985469097
-0.6426787109375,-0.0087626953124999,0.7708056640625001,1.0036204870728067,0.07373046875,0.08447265625,0.1650390625,43.54176470588236,452.0994985469097
-0.6407255859375,-0.0019267578124999,0.7688525390625001,1.0008332606850523,0.044921875,0.0859375,0.16259765625,43.54176470588236,452.0994985469097
-0.6368193359375,-0.0024150390624999,0.7698291015625001,0.9990903586013018,0.037109375,0.06494140625,0.17822265625,43.63588235294118,452.0994985469097
-0.6304716796875,0.0024677734375,0.7668994140625001,0.992791690176304,-0.00439453125,0.1220703125,0.17626953125,43.777058823529416,451.5612780873424
-0.6275419921875,0.0024677734375,0.7673876953125001,0.9913117152447184,-0.00146484375,0.1552734375,0.212890625,43.63588235294118,451.5612780873424
-0.6251005859375,-0.0029033203124999,0.7717822265625001,0.993180233918302,0.123046875,0.17919921875,0.20849609375,43.777058823529416,451.5612780873424
-0.6319365234375,-0.0033916015624999,0.7673876953125001,0.9941021816355012,0.00390625,0.1962890625,0.2138671875,43.63588235294118,451.5612780873424
-0.6314482421875,-0.0058330078124999,0.7688525390625001,0.9949347382440104,0.0234375,0.16845703125,0.21484375,43.49470588235295,451.583319010073
-0.6314482421875,-0.0058330078124999,0.7708056640625001,0.9964448194921062,0.021484375,0.11962890625,0.224609375,43.49470588235295,451.583319010073
-0.6319365234375,-0.0048564453124999,0.7688525390625001,0.9952394593956776,0.02587890625,0.09765625,0.37451171875,43.54176470588236,451.583319010073
-0.6314482421875,0.0005146484375,0.7693408203125001,0.9952951548278572,0.0439453125,0.08935546875,0.27587890625,43.63588235294118,451.583319010073
-0.6314482421875,0.0014912109375,0.7678759765625001,0.9941642830305044,0.02197265625,0.08203125,0.2783203125,43.54176470588236,451.583319010073
-0.6280302734375,0.0005146484375,0.7673876953125001,0.9916179527086152,0.01611328125,0.0791015625,0.2919921875,43.49470588235295,451.6464848774371
-0.6324248046875,0.0014912109375,0.7717822265625001,0.9978031682310158,0.0087890625,0.08056640625,0.28955078125,44.01235294117648,451.6464848774371
-0.6334013671875,0.0005146484375,0.7810595703125001,1.00561006816497,0.0224609375,0.0595703125,0.2880859375,43.63588235294118,451.6464848774371
-0.6368193359375,0.0029560546875,0.7776416015625001,1.0051239054782668,0.03369140625,0.080078125,0.30322265625,43.63588235294118,451.6464848774371
-0.7593779296875,0.0019794921875,0.7825244140625001,1.0904142410522952,0.0283203125,0.09130859375,0.3037109375,43.54176470588236,451.6244441551172
-0.6324248046875,-0.0019267578124999,0.7830126953125001,1.0065156367390606,0.0537109375,0.09228515625,0.3095703125,43.54176470588236,451.6244441551172
-0.6304716796875,-0.0029033203124999,0.7854541015625001,1.0071946752332286,0.04296875,0.1162109375,0.2783203125,43.63588235294118,451.6244441551172
-0.6363310546875,-0.0038798828124999,0.7825244140625001,1.0086013698454923,0.04541015625,0.1220703125,0.29931640625,43.353529411764704,451.6244441551172
-0.6299833984375,-0.0043681640624999,0.7839892578125001,1.005752116343552,0.033203125,0.111328125,0.267578125,43.82411764705883,451.6244441551172
-0.6265654296875,-0.0043681640624999,0.7786181640625001,0.9994246164392874,0.02099609375,0.12353515625,0.24169921875,43.49470588235295,451.5703274657674
-0.6334013671875,-0.0072978515624999,0.7776416015625001,1.002984053249658,0.0283203125,0.1181640625,0.232421875,43.82411764705883,451.5703274657674
-0.6314482421875,-0.0112041015624999,0.7722705078125001,0.9976242537601436,0.02734375,0.1064453125,0.21533203125,43.54176470588236,451.5703274657674
-0.6324248046875,-0.0048564453124999,0.7717822265625001,0.9978138723644134,0.0283203125,0.12890625,0.20947265625,43.63588235294118,451.5703274657674
-0.6251005859375,-0.0058330078124999,0.7771533203125001,0.9973725732103774,0.02880859375,0.1123046875,0.205078125,43.54176470588236,451.70060176211615
-0.6270537109375,-0.0009501953124999,0.7854541015625001,1.0050549263264053,0.0390625,0.09521484375,0.197265625,43.447647058823534,451.70060176211615
-0.6231474609375,-0.0072978515624999,0.7747119140625001,0.9942557852487778,0.0439453125,0.123046875,0.2001953125,43.49470588235295,451.70060176211615
-0.6221708984375,-0.0048564453124999,0.7737353515625001,0.9928678694474632,0.05859375,0.00048828125,0.171875,43.447647058823534,451.70060176211615
-0.6207060546875,-0.0024150390624999,0.7756884765625001,0.9934658783326418,0.04736328125,0.14501953125,0.1767578125,43.54176470588236,451.70060176211615
-0.6192412109375,-0.0033916015624999,0.7795947265625001,0.9956099225944663,0.0556640625,0.13720703125,0.1650390625,43.49470588235295,451.4630802139837
-0.6241240234375,0.0039326171875,0.7820361328125001,1.0005632289536162,0.05322265625,0.13916015625,0.1650390625,43.63588235294118,451.4630802139837
-0.6207060546875,2.6367187500001e-05,0.7766650390625001,0.9942256232480156,0.041015625,0.12890625,0.16552734375,43.63588235294118,451.4630802139837
-0.6246123046875,2.6367187500001e-05,0.7771533203125001,0.997049555004666,0.05224609375,0.12060546875,0.16796875,43.353529411764704,451.4630802139837
-0.6255888671875,0.0024677734375,0.7752001953125001,0.9961439973554108,0.0458984375,0.13671875,0.1669921875,43.54176470588236,451.6785610231892
-0.6304716796875,0.0010029296875,0.7742236328125001,0.998457699835762,0.05810546875,0.1318359375,0.16162109375,43.68294117647059,451.6785610231892
-0.6251005859375,0.0014912109375,0.7766650390625001,0.9969762029012632,0.060546875,0.13671875,0.14697265625,43.49470588235295,451.6785610231892
-0.6304716796875,0.0039326171875,0.7810595703125001,1.003774903423406,0.048828125,0.150390625,0.15283203125,43.54176470588236,451.6785610231892
-0.6280302734375,0.0010029296875,0.7781298828125001,0.9999545713419856,0.03857421875,0.14208984375,0.15087890625,43.63588235294118,451.6785610231892
-0.6294951171875,0.0058857421875,0.7810595703125001,1.003171369657622,0.02490234375,0.13525390625,0.1455078125,43.54176470588236,451.6354645093264
-0.6255888671875,0.0039326171875,0.7791064453125001,0.9991915478797658,0.03076171875,0.13525390625,0.17431640625,43.68294117647059,451.6354645093264
-0.6270537109375,0.0058857421875,0.7786181640625001,0.999738587716632,0.0419921875,0.15673828125,0.15869140625,43.353529411764704,451.6354645093264
-0.6211943359375,0.0010029296875,0.7835009765625001,0.9998785872010566,0.01416015625,0.1298828125,0.1728515625,43.353529411764704,451.6354645093264
-0.6211943359375,0.0034443359375,0.7820361328125001,0.9987365916372606,0.041015625,0.12841796875,0.1826171875,43.68294117647059,451.4510743078279
-0.6153349609375,0.0029560546875,0.7805712890625001,0.993950396005738,0.02490234375,0.1328125,0.18603515625,43.63588235294118,451.4510743078279
-0.6177763671875,0.0005146484375,0.7791064453125001,0.9943111976870614,0.04736328125,0.1337890625,0.1787109375,43.82411764705883,451.4510743078279
-0.6163115234375,0.0014912109375,0.7820361328125001,0.9957020792668068,0.0380859375,0.109375,0.18994140625,43.447647058823534,451.4510743078279
-0.6182646484375,-0.0014384765624999,0.7839892578125001,0.9984449915181912,0.05322265625,0.13427734375,0.20166015625,43.63588235294118,451.4510743078279
-0.6167998046875,-0.0009501953124999,0.7849658203125001,0.9983056851448588,0.04443359375,0.14599609375,0.16015625,43.54176470588236,451.50420568228935
-0.6143583984375,0.0029560546875,0.7820361328125001,0.9944976083502342,0.04443359375,0.13525390625,0.162109375,43.353529411764704,451.50420568228935
-0.6202177734375,-0.0019267578124999,0.7830126953125001,0.9988907247061534,0.04736328125,0.16650390625,0.15966796875,43.54176470588236,451.50420568228935
-0.6163115234375,-0.0009501953124999,0.7810595703125001,0.9949345954231018,0.0673828125,0.173828125,0.1748046875,43.49470588235295,451.50420568228935
-0.6202177734375,-0.0019267578124999,0.7815478515625001,0.9977428742744284,0.07275390625,0.1748046875,0.142578125,43.54176470588236,451.7738068471703
-0.6148466796875,0.0014912109375,0.7839892578125001,0.9963321833596454,0.03759765625,0.1787109375,0.12158203125,43.54176470588236,451.7738068471703
-0.6158232421875,2.6367187500001e-05,0.7795947265625001,0.9934818589172184,0.03515625,0.21533203125,0.12939453125,44.01235294117648,451.7738068471703
-0.6153349609375,0.0010029296875,0.7815478515625001,0.9947136091870225,0.04296875,0.201171875,0.1083984375,43.63588235294118,451.7738068471703
-0.6182646484375,0.0034443359375,0.7752001953125001,0.9915636045005556,0.04052734375,0.19140625,0.11328125,43.777058823529416,451.7738068471703
-0.6153349609375,-0.0004619140624999,0.7776416015625001,0.9916470077589332,0.05517578125,0.1875,0.12255859375,43.54176470588236,451.78384365207
-0.6216826171875,-0.0004619140624999,0.7820361328125001,0.999034535390059,0.0322265625,0.17431640625,0.09619140625,43.87117647058824,451.78384365207
-0.6177763671875,0.0010029296875,0.7820361328125001,0.9966088293546636,0.03955078125,0.20361328125,0.09375,43.68294117647059,451.78384365207
-0.6109404296875,0.0024677734375,0.7918017578125001,1.000102155885813,0.0224609375,0.18115234375,0.09765625,43.68294117647059,451.78384365207
-0.6197294921875,0.0044208984375,0.7966845703125001,1.0093515207319916,0.0498046875,0.22216796875,0.11181640625,43.49470588235295,451.50322117635903
-0.6163115234375,0.0039326171875,0.7869189453125001,0.9995482909252223,0.0380859375,0.25927734375,0.10986328125,43.30647058823529,451.50322117635903
-0.6207060546875,-0.0038798828124999,0.7844775390625001,1.0003479740120018,0.046875,0.234375,0.12353515625,43.68294117647059,451.50322117635903
-0.6182646484375,-0.0053447265624999,0.7810595703125001,0.9961595223589044,0.06103515625,0.2802734375,0.1240234375,43.68294117647059,451.50322117635903
-0.6109404296875,-0.0033916015624999,0.7815478515625001,0.9920064293490568,0.0810546875,0.2548828125,0.10498046875,43.777058823529416,451.50322117635903
-0.6182646484375,-0.0004619140624999,0.7732470703125001,0.9900315250632228,0.0625,0.23046875,0.099609375,43.447647058823534,451.8810592642901
-0.6109404296875,0.0083271484375,0.7722705078125001,0.9847432595681088,0.033203125,0.2353515625,0.099609375,43.777058823529416,451.8810592642901
-0.6138701171875,0.0083271484375,0.7786181640625001,0.9915402702790004,0.01025390625,0.25146484375,0.10498046875,43.777058823529416,451.8810592642901
-0.6197294921875,0.0053974609375,0.7820361328125001,0.9978348005035096,0.00732421875,0.21484375,0.11572265625,43.63588235294118,451.8810592642901
-0.6241240234375,0.0024677734375,0.7908251953125001,1.0074429889967005,0.0302734375,0.255859375,0.11865234375,43.54176470588236,451.9151031865585
-0.6246123046875,0.0014912109375,0.7830126953125001,1.0016244984512093,0.04052734375,0.25,0.12890625,43.447647058823534,451.9151031865585
-0.6260771484375,-0.0014384765624999,0.7893603515625001,1.0075040593612146,0.0498046875,0.240234375,0.1513671875,43.30647058823529,451.9151031865585
-0.6236357421875,-0.0033916015624999,0.7825244140625001,1.0006385463786471,0.0595703125,0.22265625,0.13525390625,43.777058823529416,451.9151031865585
-0.6158232421875,-0.0004619140624999,0.7820361328125001,0.9953989109936054,0.0673828125,0.21630859375,0.1357421875,43.777058823529416,451.9151031865585
-0.6124052734375,-0.0014384765624999,0.7903369140625001,0.9998373497117996,0.06591796875,0.22314453125,0.13232421875,43.63588235294118,451.9021168931477
-0.6084990234375,0.0034443359375,0.7918017578125001,0.9986155159266286,0.07275390625,0.24072265625,0.109375,43.49470588235295,451.9021168931477
-0.6089873046875,0.0014912109375,0.7805712890625001,0.9900299481779826,0.05859375,0.26318359375,0.099609375,43.447647058823534,451.9021168931477
-0.6060576171875,0.0039326171875,0.7830126953125001,0.9901667444675568,0.0537109375,0.25927734375,0.09912109375,43.68294117647059,451.9021168931477
-0.6060576171875,-0.0009501953124999,0.7781298828125001,0.9863026172265372,0.03955078125,0.2705078125,0.09375,43.68294117647059,451.9121546585199
-0.6089873046875,0.0019794921875,0.7766650390625001,0.986953919168378,0.0322265625,0.28271484375,0.095703125,43.82411764705883,451.9121546585199
-0.6167998046875,0.0039326171875,0.7820361328125001,0.9960110328529558,0.0419921875,0.30126953125,0.091796875,43.777058823529416,451.9121546585199
-0.6182646484375,0.0044208984375,0.7776416015625001,0.993477317471934,0.04296875,0.28662109375,0.08984375,43.447647058823534,451.9121546585199
-0.6192412109375,0.0019794921875,0.7844775390625001,0.9994341424057004,0.0400390625,0.29296875,0.1044921875,43.54176470588236,451.9121546585199
-0.6216826171875,0.0014912109375,0.7869189453125001,1.002862366785641,0.05126953125,0.28125,0.107421875,43.63588235294118,451.8901144651997
-0.6182646484375,0.0019794921875,0.7766650390625001,0.992705231576232,0.04541015625,0.27734375,0.1123046875,43.63588235294118,451.8901144651997
-0.6202177734375,-0.0019267578124999,0.7786181640625001,0.9954496693914244,0.0634765625,0.12548828125,0.1240234375,43.49470588235295,451.8901144651997
-0.6241240234375,0.0034443359375,0.7815478515625001,1.0001798360114158,0.05517578125,0.2490234375,0.12744140625,43.82411764705883,451.8901144651997
-0.6207060546875,0.0049091796875,0.7830126953125001,0.9992041770286352,0.09326171875,0.23046875,0.12060546875,43.49470588235295,451.9332128288274
-0.6158232421875,0.0049091796875,0.7859423828125001,0.9984827463529448,0.09716796875,0.22509765625,0.12158203125,43.63588235294118,451.9332128288274
-0.6065458984375,0.0029560546875,0.7800830078125001,0.9881478453391812,0.078125,0.24658203125,0.12744140625,43.49470588235295,451.9332128288274
-0.6055693359375,0.0024677734375,0.7781298828125001,0.9860052865270644,0.0869140625,0.283203125,0.0986328125,43.49470588235295,451.9332128288274
-0.6041044921875,-0.0024150390624999,0.7839892578125001,0.9897409894816852,0.07568359375,0.3125,0.095703125,43.777058823529416,451.9332128288274
-0.6099638671875,-0.0019267578124999,0.7825244140625001,0.9921714016609516,0.060546875,0.31005859375,0.0927734375,43.96529411764706,451.7488179700468
-0.6163115234375,-0.0048564453124999,0.7878955078125001,1.000321353472994,0.07177734375,0.3203125,0.0849609375,43.777058823529416,451.7488179700468
-0.6177763671875,2.6367187500001e-05,0.7839892578125001,0.9981416717660916,0.08056640625,0.33056640625,0.08935546875,43.353529411764704,451.7488179700468
-0.6187529296875,-0.0004619140624999,0.7766650390625001,0.993007544917671,0.07763671875,0.35498046875,0.09130859375,43.63588235294118,451.7488179700468
-0.6231474609375,-0.0029033203124999,0.7830126953125001,1.000714778726804,0.08544921875,0.34228515625,0.07080078125,43.82411764705883,451.8690564821146
-0.6241240234375,0.0014912109375,0.7825244140625001,1.000938299270106,0.09130859375,0.33642578125,0.0966796875,43.777058823529416,451.8690564821146
-0.6246123046875,0.0014912109375,0.7820361328125001,1.000861263063678,0.083984375,0.31494140625,0.1064453125,43.777058823529416,451.8690564821146
-0.6241240234375,0.0039326171875,0.7786181640625001,0.99789403621718,0.07275390625,0.3095703125,0.09521484375,43.777058823529416,451.8690564821146
-0.6226591796875,-0.0029033203124999,0.7815478515625001,0.9992646934621012,0.0888671875,0.3115234375,0.09716796875,43.68294117647059,451.8690564821146
-0.6187529296875,0.0029560546875,0.7844775390625001,0.9991340928772956,0.08349609375,0.32470703125,0.09375,43.353529411764704,451.9111727023092
-0.6158232421875,2.6367187500001e-05,0.7815478515625001,0.9950152313384516,0.078125,0.3310546875,0.09326171875,43.68294117647059,451.9111727023092
-0.6124052734375,0.0063740234375,0.7830126953125001,0.9940773250252654,0.064453125,0.345703125,0.083984375,43.353529411764704,451.9111727023092
-0.6109404296875,0.0053974609375,0.7805712890625001,0.991246124088267,0.080078125,0.3564453125,0.087890625,43.68294117647059,451.9111727023092
-0.6133818359375,0.0024677734375,0.7781298828125001,0.9908226284707028,0.06787109375,0.3798828125,0.07470703125,43.54176470588236,452.12666721690096
-0.6089873046875,0.0068623046875,0.7776416015625001,0.987744445176413,0.09033203125,0.41259765625,0.0771484375,43.68294117647059,452.12666721690096
-0.6114287109375,0.0034443359375,0.7771533203125001,0.9888499457862584,0.091796875,0.4111328125,0.06640625,43.63588235294118,452.12666721690096
-0.6114287109375,2.6367187500001e-05,0.7752001953125001,0.9873096839727948,0.11279296875,0.427734375,0.05078125,43.49470588235295,452.12666721690096
-0.6094755859375,-0.0014384765624999,0.7717822265625001,0.9834176957460397,0.1103515625,0.44677734375,0.04833984375,43.63588235294118,452.12666721690096
-0.6109404296875,0.0005146484375,0.7756884765625001,0.987391050274213,0.1044921875,0.4775390625,0.04296875,43.91823529411765,452.2880460052325
-0.6128935546875,0.0019794921875,0.7810595703125001,0.9928224816872084,0.12353515625,0.4755859375,0.05859375,43.447647058823534,452.2880460052325
-0.6158232421875,0.0014912109375,0.7805712890625001,0.9942494790730732,0.11474609375,0.48095703125,0.029296875,43.49470588235295,452.2880460052325
-0.6187529296875,2.6367187500001e-05,0.7815478515625001,0.9968310955091902,0.103515625,0.478515625,0.0322265625,43.447647058823534,452.2880460052325
-0.6192412109375,0.0005146484375,0.7859423828125001,1.0005825159812387,0.10302734375,0.45751953125,0.02978515625,43.54176470588236,452.15776637787087
-0.6187529296875,2.6367187500001e-05,0.7815478515625001,0.9968310955091902,0.09521484375,0.462890625,0.02001953125,43.777058823529416,452.15776637787087
-0.6231474609375,0.0010029296875,0.7732470703125001,0.9930885135211642,0.10400390625,0.48388671875,0.00634765625,43.54176470588236,452.15776637787087
-0.6202177734375,0.0010029296875,0.7771533203125001,0.994302959680032,0.11181640625,0.47509765625,0.0048828125,43.82411764705883,452.15776637787087
-0.6231474609375,-0.0004619140624999,0.7781298828125001,0.9968947216046684,0.09765625,0.46630859375,-0.005859375,43.54176470588236,452.15776637787087
-0.6236357421875,0.0039326171875,0.7795947265625001,0.9983511116314524,0.1005859375,0.486328125,0.00390625,43.54176470588236,452.3622472880701
-0.6270537109375,0.0019794921875,0.7805712890625001,1.001245130873805,0.09716796875,0.44921875,0.01513671875,43.54176470588236,452.3622472880701
-0.6324248046875,0.0024677734375,0.7781298828125001,1.0027229617474391,0.1103515625,0.4501953125,0.0146484375,43.447647058823534,452.3622472880701
-0.6334013671875,0.0053974609375,0.7786181640625001,1.003729380833113,0.11572265625,0.4482421875,0.0439453125,43.447647058823534,452.3622472880701
-0.6265654296875,0.0010029296875,0.7737353515625001,0.9956162100955293,0.10888671875,0.40966796875,0.01318359375,43.63588235294118,452.21090645023287
-0.6377958984375,0.0010029296875,0.7825244140625001,1.0095192284129684,0.11572265625,0.40478515625,0.0146484375,43.54176470588236,452.21090645023287
-0.6299833984375,0.0014912109375,0.7835009765625001,1.0053631613955791,0.1025390625,0.4013671875,0.02392578125,43.49470588235295,452.21090645023287
-0.6251005859375,0.0039326171875,0.7825244140625001,1.0015541256573248,0.09619140625,0.419921875,0.01611328125,43.54176470588236,452.21090645023287
-0.6334013671875,0.0044208984375,0.7727587890625001,0.9991861600179068,0.07470703125,0.458984375,0.01416015625,43.54176470588236,452.21090645023287
-0.6329130859375,-0.0029033203124999,0.7698291015625001,0.9966063662411012,0.0810546875,0.4482421875,0.01318359375,43.447647058823534,452.373267193801
-0.6417021484375,-0.0058330078124999,0.7698291015625001,1.0022237858392555,0.109375,0.43603515625,0.03662109375,43.353529411764704,452.373267193801
-0.6334013671875,-0.0063212890624999,0.7795947265625001,1.0044925028761862,0.138671875,0.3876953125,0.02490234375,43.777058823529416,452.373267193801
-0.6329130859375,0.0010029296875,0.7795947265625001,1.0041652841554256,0.1357421875,0.34619140625,0.0029296875,43.96529411764706,452.373267193801
-0.6255888671875,0.0029560546875,0.7771533203125001,0.997666002368026,0.10107421875,0.3828125,-0.0029296875,43.68294117647059,452.3291876542715
-0.6251005859375,0.0049091796875,0.7752001953125001,0.9958464667794672,0.0810546875,0.42578125,-0.00634765625,43.82411764705883,452.3291876542715
-0.6192412109375,0.0039326171875,0.7737353515625001,0.991030542949525,0.08056640625,0.458984375,-0.00048828125,43.54176470588236,452.3291876542715
-0.6177763671875,0.0039326171875,0.7688525390625001,0.9863048880321852,0.06884765625,0.5009765625,0.00341796875,43.49470588235295,452.3291876542715
-0.6304716796875,0.0063740234375,0.7756884765625001,0.9996138152979938,0.07666015625,0.46044921875,0.00927734375,43.63588235294118,452.3291876542715
-0.6368193359375,-0.0009501953124999,0.7727587890625001,1.0013470505116355,0.07763671875,0.4462890625,0.0146484375,43.49470588235295,452.2329462535831
-0.6431669921875,-0.0004619140624999,0.7678759765625001,1.001647397333977,0.0712890625,0.36376953125,0.0078125,43.447647058823534,452.2329462535831
-0.6446318359375,-0.0029033203124999,0.7737353515625001,1.0070873981092874,0.080078125,0.31591796875,0.037109375,43.353529411764704,452.2329462535831
-0.6417021484375,-0.0004619140624999,0.7756884765625001,1.0067146931210236,0.1044921875,0.2822265625,0.05859375,43.82411764705883,452.2329462535831
-0.6451201171875,-0.0009501953124999,0.7752001953125001,1.0085217951455905,0.1162109375,0.26513671875,0.0888671875,43.30647058823529,452.4264091105908
-0.6382841796875,2.6367187500001e-05,0.7752001953125001,1.0041623561691164,0.1201171875,0.267578125,0.07958984375,43.87117647058824,452.4264091105908
-0.6358427734375,-0.0053447265624999,0.7712939453125001,0.9996093980702871,0.0859375,0.26708984375,0.09130859375,43.777058823529416,452.4264091105908
-0.6407255859375,-0.0014384765624999,0.7756884765625001,1.006093414331704,0.09375,0.28271484375,0.0927734375,43.82411764705883,452.4264091105908
-0.6343779296875,0.0024677734375,0.7717822265625001,0.99904416960318,0.10986328125,0.29052734375,0.076171875,43.54176470588236,452.4264091105908
-0.6290068359375,0.0029560546875,0.7737353515625001,0.9971583285381344,0.09423828125,0.32373046875,0.068359375,43.63588235294118,452.3612685234535
-0.6358427734375,0.0024677734375,0.7771533203125001,1.0041261901330798,0.1025390625,0.3251953125,0.07666015625,43.447647058823534,452.3612685234535
-0.6338896484375,0.0044208984375,0.7752001953125001,1.0013845283165457,0.083984375,0.33544921875,0.060546875,43.447647058823534,452.3612685234535
-0.6387724609375,2.6367187500001e-05,0.7776416015625001,1.006358146003732,0.0703125,0.34130859375,0.06787109375,43.777058823529416,452.3612685234535
-0.6373076171875,-0.0014384765624999,0.7805712890625001,1.0076976756193907,0.0654296875,0.32421875,0.056640625,43.49470588235295,452.4685321239347
-0.6387724609375,-0.0009501953124999,0.7732470703125001,1.0029666950951792,0.06005859375,0.30712890625,0.06298828125,43.87117647058824,452.4685321239347
-0.6358427734375,-0.0058330078124999,0.7678759765625001,0.9969772173398176,0.068359375,0.294921875,0.0517578125,43.63588235294118,452.4685321239347
-0.6417021484375,0.0010029296875,0.7771533203125001,1.0078442024688163,0.06640625,0.27294921875,0.05078125,43.777058823529416,452.4685321239347
-0.6412138671875,-0.0014384765624999,0.7649462890625001,0.99814834460558,0.06005859375,0.25,0.060546875,43.447647058823534,452.4685321239347
-0.5127958984375,-0.0048564453124999,0.7649462890625001,0.9209375894521225,0.05908203125,0.23388671875,0.08740234375,43.777058823529416,452.1768677955795
-0.6358427734375,0.0010029296875,0.7688525390625001,0.997713017467199,0.0654296875,0.25048828125,0.0751953125,43.447647058823534,452.1768677955795
-0.6368193359375,0.0019794921875,0.7659228515625001,0.9960826268733084,0.068359375,0.2607421875,0.0712890625,43.777058823529416,452.1768677955795
-0.6309599609375,0.0034443359375,0.7625048828125001,0.9897151267254664,0.0849609375,0.27685546875,0.072265625,43.49470588235295,452.1768677955795
-0.6309599609375,0.0010029296875,0.7649462890625001,0.9915918027720376,0.07080078125,0.25927734375,0.0673828125,43.353529411764704,451.9172893200932
-0.6275419921875,-0.0024150390624999,0.7688525390625001,0.9924459739427548,0.0869140625,0.27490234375,0.0556640625,43.353529411764704,451.9172893200932
-0.6334013671875,-0.0038798828124999,0.7722705078125001,0.9988063289159764,0.06982421875,0.27294921875,0.06591796875,43.777058823529416,451.9172893200932
-0.6314482421875,-0.0004619140624999,0.7708056640625001,0.99642785372405,0.07470703125,0.265625,0.06201171875,43.49470588235295,451.9172893200932
-0.6324248046875,-0.0029033203124999,0.7747119140625001,1.0000740535796546,0.0751953125,0.28173828125,0.05859375,43.68294117647059,451.9172893200932
-0.6299833984375,-0.0033916015624999,0.7752001953125001,0.99891237257357,0.07666015625,0.27978515625,0.05029296875,43.447647058823534,452.2420077771063
-0.6329130859375,-0.0038798828124999,0.7708056640625001,0.9973642261442908,0.06982421875,0.267578125,0.0517578125,43.447647058823534,452.2420077771063
-0.5098662109375,-0.0024150390624999,0.7766650390625001,0.9290737152515892,0.07177734375,0.26171875,0.04541015625,43.49470588235295,452.2420077771063
-0.5098662109375,-0.0029033203124999,0.7673876953125001,0.9213337382521224,0.076171875,0.2392578125,0.05810546875,43.54176470588236,452.2420077771063
-0.6382841796875,-0.0014384765624999,0.7742236328125001,1.0034096854523331,0.0625,0.2392578125,0.05224609375,43.82411764705883,451.99246883176914
-0.6368193359375,-0.0019267578124999,0.7722705078125001,1.00097168604138,0.0654296875,0.2421875,0.0712890625,43.63588235294118,451.99246883176914
-0.6402373046875,-0.0014384765624999,0.7732470703125001,1.003900845340415,0.05615234375,0.2373046875,0.06298828125,43.54176470588236,451.99246883176914
-0.6368193359375,0.0019794921875,0.7712939453125001,1.0002185436637938,0.06396484375,0.24462890625,0.07080078125,43.447647058823534,451.99246883176914
-0.6358427734375,-0.0004619140624999,0.7693408203125001,0.9980889457840936,0.0595703125,0.27685546875,0.06982421875,43.68294117647059,451.99246883176914
-0.6377958984375,-0.0014384765624999,0.7761767578125001,1.004607404236522,0.0556640625,0.26953125,0.0673828125,43.82411764705883,452.1758891849221
-0.6338896484375,-0.0033916015624999,0.7722705078125001,0.9991142710392804,0.0537109375,0.29248046875,0.0703125,43.63588235294118,452.1758891849221
-0.6343779296875,-0.0004619140624999,0.7752001953125001,1.0016840389323065,0.06103515625,0.2841796875,0.0869140625,43.447647058823534,452.1758891849221
-0.6329130859375,-0.0024150390624999,0.7776416015625001,1.0026521167609894,0.06005859375,0.28369140625,0.0732421875,43.447647058823534,452.1758891849221
-0.6387724609375,-0.0043681640624999,0.7761767578125001,1.0052361399580454,0.0712890625,0.28173828125,0.0888671875,43.49470588235295,451.949369112765
-0.6363310546875,2.6367187500001e-05,0.7693408203125001,0.998399974786681,0.07275390625,0.2529296875,0.09375,43.777058823529416,451.949369112765
-0.6338896484375,-0.0019267578124999,0.7673876953125001,0.995340983637726,0.08349609375,0.2744140625,0.08740234375,43.63588235294118,451.949369112765
-0.6353544921875,-0.0038798828124999,0.7737353515625001,1.0011776957618563,0.05810546875,0.25732421875,0.09033203125,43.447647058823534,451.949369112765
-0.6324248046875,-0.0053447265624999,0.7712939453125001,0.9974387448669578,0.0625,0.2783203125,0.08837890625,43.30647058823529,451.949369112765
-0.6353544921875,-0.0038798828124999,0.7698291015625001,0.9981619256643688,0.0771484375,0.259765625,0.0908203125,43.447647058823534,451.960388857458
-0.6348662109375,-0.0048564453124999,0.7727587890625001,1.0001174115695382,0.0673828125,0.27197265625,0.07470703125,43.63588235294118,451.960388857458
-0.6343779296875,-0.0048564453124999,0.7688525390625001,0.9967914373420976,0.0654296875,0.26220703125,0.07568359375,43.63588235294118,451.960388857458
-0.6334013671875,-0.0019267578124999,0.7717822265625001,0.998423161584522,0.06591796875,0.2783203125,0.0654296875,43.447647058823534,451.960388857458
-0.6275419921875,0.0005146484375,0.7703173828125001,0.993578425231129,0.05078125,0.29638671875,0.06103515625,43.68294117647059,452.1327887673407
-0.6334013671875,-0.0009501953124999,0.7717822265625001,0.998421754602681,0.056640625,0.2841796875,0.060546875,43.777058823529416,452.1327887673407
-0.6299833984375,-0.0009501953124999,0.7688525390625001,0.9939890401814534,0.04638671875,0.29638671875,0.0615234375,43.54176470588236,452.1327887673407
-0.5123076171875,-0.0019267578124999,0.7752001953125001,0.929192202849626,0.05810546875,0.30322265625,0.0859375,43.63588235294118,452.1327887673407
-0.6368193359375,0.0019794921875,0.7732470703125001,1.001725419843214,0.06640625,0.29931640625,0.0634765625,43.63588235294118,452.1327887673407
-0.6368193359375,0.0039326171875,0.7644580078125001,0.9949625007056688,0.095703125,0.27490234375,0.09912109375,43.447647058823534,451.7218733702797
-0.6417021484375,-0.0014384765624999,0.7712939453125001,1.0033334772645863,0.08349609375,0.2685546875,0.0966796875,43.447647058823534,451.7218733702797
-0.6417021484375,-0.0053447265624999,0.7644580078125001,0.9981013270805664,0.07861328125,0.2568359375,0.0771484375,43.447647058823534,451.7218733702797
-0.6436552734375,-0.0014384765624999,0.7678759765625001,1.0019619232388708,0.0830078125,0.2607421875,0.09716796875,43.63588235294118,451.7218733702797
-0.6304716796875,-0.0004619140624999,0.7737353515625001,0.9980787276112664,0.04736328125,0.26904296875,0.07080078125,43.63588235294118,451.99246883176914
-0.6324248046875,0.0019794921875,0.7668994140625001,0.994032073558368,0.0556640625,0.29736328125,0.0859375,43.68294117647059,451.99246883176914
-0.6387724609375,-0.0033916015624999,0.7732470703125001,1.0029719794491634,0.056640625,0.30322265625,0.09619140625,43.82411764705883,451.99246883176914
-0.6402373046875,-0.0126689453124999,0.7703173828125001,1.0017251013885722,0.05810546875,0.287109375,0.06689453125,43.49470588235295,451.99246883176914
-0.6446318359375,-0.0087626953124999,0.7761767578125001,1.0089981903361451,0.08935546875,0.26953125,0.07275390625,43.777058823529416,451.99246883176914
-0.6343779296875,-0.0014384765624999,0.7664111328125001,0.9948987141354436,0.078125,0.1279296875,0.05908203125,43.353529411764704,451.8511710268896
-0.6363310546875,0.0010029296875,0.7673876953125001,0.9968962292759938,0.056640625,0.24951171875,0.0810546875,43.447647058823534,451.8511710268896
-0.6285185546875,0.0063740234375,0.7639697265625001,0.9893057893620288,0.02490234375,0.279296875,0.08544921875,43.353529411764704,451.8511710268896
-0.6260771484375,0.0024677734375,0.7688525390625001,0.9915205053473294,0.0517578125,0.3076171875,0.08447265625,43.63588235294118,451.8511710268896
-0.6265654296875,0.0039326171875,0.7678759765625001,0.9910767974981748,0.0439453125,0.32861328125,0.0966796875,43.54176470588236,451.5805774774315
-0.6319365234375,-0.0009501953124999,0.7698291015625001,0.9959826896778536,0.052734375,0.3369140625,0.07373046875,43.68294117647059,451.5805774774315
-0.6329130859375,-0.0019267578124999,0.7732470703125001,0.9992465754224338,0.06591796875,0.2978515625,0.0849609375,43.447647058823534,451.5805774774315
-0.6377958984375,-0.0048564453124999,0.7717822265625001,1.001226746727504,0.06787109375,0.3046875,0.0634765625,43.49470588235295,451.5805774774315
-0.6392607421875,-0.0024150390624999,0.7654345703125001,0.9972713824958924,0.056640625,0.271484375,0.0859375,43.02411764705882,451.5805774774315
-0.6402373046875,-0.0024150390624999,0.7620166015625001,0.9952783227741124,0.0751953125,0.283203125,0.0810546875,43.447647058823534,451.8942705978324
-0.6377958984375,-0.0043681640624999,0.7668994140625001,0.9974654882302348,0.064453125,0.29248046875,0.08544921875,43.49470588235295,451.8942705978324
-0.6377958984375,0.0010029296875,0.7639697265625001,0.9952056857934628,0.0791015625,0.28857421875,0.10791015625,43.447647058823534,451.8942705978324
-0.6412138671875,-0.0033916015624999,0.7737353515625001,1.0049045331235464,0.0927734375,0.29541015625,0.107421875,43.54176470588236,451.8942705978324
-0.6343779296875,-0.0053447265624999,0.7688525390625001,0.9967939358761568,0.06005859375,0.30810546875,0.107421875,43.49470588235295,452.054673065712
-0.6387724609375,-0.0029033203124999,0.7717822265625001,1.001841550026129,0.07763671875,0.32763671875,0.09423828125,43.68294117647059,452.054673065712
-0.6343779296875,-0.0019267578124999,0.7747119140625001,1.001307954557762,0.0771484375,0.30810546875,0.09130859375,43.777058823529416,452.054673065712
-0.6358427734375,-0.0063212890624999,0.7654345703125001,0.9951010364066482,0.06640625,0.32666015625,0.072265625,43.54176470588236,452.054673065712
-0.6368193359375,-0.0038798828124999,0.7664111328125001,0.9964637196674332,0.06591796875,0.30078125,0.08056640625,43.63588235294118,452.054673065712
-0.6348662109375,-0.0024150390624999,0.7727587890625001,1.0001085362485178,0.078125,0.29345703125,0.08642578125,43.30647058823529,451.9794918723581
-0.6402373046875,-0.0033916015624999,0.7688525390625001,1.000524630430219,0.0625,0.2861328125,0.07568359375,44.01235294117648,451.9794918723581
-0.6363310546875,-0.0043681640624999,0.7620166015625001,0.992776708567362,0.0634765625,0.283203125,0.09228515625,43.63588235294118,451.9794918723581
-0.6421904296875,0.0024677734375,0.7625048828125001,0.9969093911689564,0.0517578125,0.27685546875,0.103515625,43.63588235294118,451.9794918723581
-0.6377958984375,-0.0053447265624999,0.7698291015625001,0.9997244719312676,0.04296875,0.27001953125,0.08154296875,43.49470588235295,451.8612116556948
-0.6397490234375,2.6367187500001e-05,0.7625048828125001,0.9953353756384667,0.0537109375,0.25830078125,0.109375,43.49470588235295,451.8612116556948
-0.6397490234375,-0.0019267578124999,0.7683642578125001,0.9998330651006982,0.06396484375,0.125,0.10205078125,43.49470588235295,451.8612116556948
-0.6412138671875,-0.0043681640624999,0.7703173828125001,1.002278990398345,0.056640625,0.2216796875,0.10009765625,43.63588235294118,451.8612116556948
-0.6382841796875,-0.0009501953124999,0.7673876953125001,0.9981440135709412,0.06494140625,0.21240234375,0.11474609375,43.54176470588236,451.8612116556948
-0.6387724609375,0.0044208984375,0.7693408203125001,0.9999675489705928,0.06591796875,0.2158203125,0.11328125,43.777058823529416,451.7960728315144
-0.6417021484375,0.0044208984375,0.7683642578125001,1.0010918161367877,0.05126953125,0.21826171875,0.1279296875,43.777058823529416,451.7960728315144
-0.6382841796875,-0.0004619140624999,0.7703173828125001,1.0003978097072412,0.0712890625,0.22509765625,0.0,43.777058823529416,451.7960728315144
-0.6377958984375,-0.0024150390624999,0.7605517578125001,0.9925867301092912,0.037109375,0.2099609375,0.13427734375,43.63588235294118,451.7960728315144
-0.6407255859375,0.0005146484375,0.7766650390625001,1.0068456307895075,0.04248046875,0.18994140625,0.14453125,43.63588235294118,451.49340049433096
-0.6368193359375,0.0024677734375,0.7717822265625001,1.000596203154593,0.05224609375,0.18896484375,0.1435546875,43.353529411764704,451.49340049433096
-0.6412138671875,-0.0048564453124999,0.7698291015625001,1.001906010635303,0.048828125,0.1953125,0.14208984375,43.63588235294118,451.49340049433096
-0.6392607421875,-0.0038798828124999,0.7786181640625001,1.0074301938103754,0.04443359375,0.19482421875,0.13818359375,43.49470588235295,451.49340049433096
-0.6387724609375,-0.0004619140624999,0.7766650390625001,1.0056038251313018,0.0556640625,0.17041015625,0.1494140625,43.54176470588236,451.49340049433096
-0.6397490234375,-0.0029033203124999,0.7708056640625001,1.0017128400938582,0.03857421875,0.177734375,0.15478515625,43.447647058823534,451.9785139201133
-0.6407255859375,-0.0019267578124999,0.7737353515625001,1.0045891613630749,0.041015625,0.13134765625,0.15625,43.68294117647059,451.9785139201133
-0.6417021484375,-0.0019267578124999,0.7747119140625001,1.005964169091203,0.03125,0.125,0.154296875,43.63588235294118,451.9785139201133
-0.6421904296875,2.6367187500001e-05,0.7698291015625001,1.0025195231465422,0.0302734375,0.134765625,0.1767578125,43.63588235294118,451.9785139201133
-0.6368193359375,-0.0004619140624999,0.7712939453125001,1.000216691554486,0.044921875,0.1396484375,0.1865234375,43.49470588235295,451.7399966049421
-0.6329130859375,-0.0019267578124999,0.7659228515625001,0.9935897047032184,0.02197265625,0.14111328125,0.1884765625,43.82411764705883,451.7399966049421
-0.6338896484375,-0.0043681640624999,0.7727587890625001,0.9994955294181338,0.03173828125,0.15185546875,0.181640625,43.63588235294118,451.7399966049421
-0.6338896484375,2.6367187500001e-05,0.7712939453125001,0.9983538637012268,0.0341796875,0.17578125,0.1796875,43.63588235294118,451.7399966049421
-0.6309599609375,2.6367187500001e-05,0.7727587890625001,0.9976305022776828,0.05078125,0.14208984375,0.17431640625,43.777058823529416,451.7399966049421
-0.6334013671875,-0.0024150390624999,0.7766650390625001,1.0022034260920396,0.0322265625,0.15087890625,0.15869140625,43.49470588235295,451.6858774833911
-0.7584013671875,-0.0014384765624999,0.7717822265625001,1.0820455203938788,0.033203125,0.171875,0.17138671875,43.777058823529416,451.6858774833911
-0.6353544921875,-0.0019267578124999,0.7737353515625001,1.0011720318686743,0.02099609375,0.1630859375,0.17919921875,43.447647058823534,451.6858774833911
-0.6338896484375,-0.0024150390624999,0.7722705078125001,0.9991114332479972,0.0390625,0.140625,0.2001953125,43.49470588235295,451.6858774833911
-0.6353544921875,-0.0004619140624999,0.7732470703125001,1.0007929735236465,0.046875,0.12744140625,0.19384765625,43.82411764705883,451.7079164418048
-0.6334013671875,-0.0033916015624999,0.7668994140625001,0.9946574818527024,0.03076171875,0.13134765625,0.20458984375,43.63588235294118,451.7079164418048
-0.6329130859375,-0.0043681640624999,0.7708056640625001,0.9973662451472066,0.03076171875,0.115234375,0.2080078125,43.49470588235295,451.7079164418048
-0.6319365234375,-0.0033916015624999,0.7708056640625001,0.996743018217968,0.0263671875,0.1123046875,0.2158203125,44.01235294117648,451.7079164418048
-0.6309599609375,-0.0033916015624999,0.7727587890625001,0.997636267053655,0.02880859375,0.1328125,0.1943359375,43.82411764705883,451.7079164418048
-0.6329130859375,-0.0029033203124999,0.7712939453125001,0.9977383192478316,0.033203125,0.13818359375,0.21337890625,43.447647058823534,451.8372159010198
-0.6334013671875,0.0010029296875,0.7737353515625001,0.9999323437515648,0.0302734375,0.13818359375,0.20703125,43.54176470588236,451.8372159010198
-0.6338896484375,0.0019794921875,0.7752001953125001,1.0013767261116446,0.03125,0.14453125,0.2177734375,43.63588235294118,451.8372159010198
-0.6255888671875,-0.0014384765624999,0.7766650390625001,0.9972823486183416,0.01025390625,0.13330078125,0.2119140625,43.68294117647059,451.8372159010198
-0.6304716796875,0.0014912109375,0.7722705078125001,0.996944582128322,0.0390625,0.13525390625,0.2099609375,43.63588235294118,451.5675990639907
-0.6265654296875,0.0014912109375,0.7742236328125001,0.9959963328220272,0.01513671875,0.123046875,0.216796875,44.01235294117648,451.5675990639907
-0.6255888671875,0.0014912109375,0.7732470703125001,0.9946228864277477,0.02392578125,0.13623046875,0.20263671875,43.63588235294118,451.5675990639907
-0.6270537109375,0.0014912109375,0.7766650390625001,0.998201965041396,0.01220703125,0.15966796875,0.19677734375,43.63588235294118,451.5675990639907
-0.6290068359375,-0.0004619140624999,0.7698291015625001,0.9941260778358206,0.02783203125,0.13818359375,0.1982421875,43.447647058823534,451.5675990639907
-0.6290068359375,-0.0024150390624999,0.7825244140625001,1.0039919773950574,0.021484375,0.13330078125,0.18798828125,43.447647058823534,451.51348062420334
-0.6299833984375,0.0014912109375,0.7732470703125001,0.9973927700579076,0.0439453125,0.1396484375,0.19580078125,43.49470588235295,451.51348062420334
-0.6290068359375,0.0010029296875,0.7727587890625001,0.9963968845783312,0.04052734375,0.1162109375,0.17919921875,43.353529411764704,451.51348062420334
