AccX,AccY,AccZ,Magnitude,GyroX,GyroY,GyroZ,Temperature,Altitude
-0.3077177734375,0.0454365234375,0.9480517578125,0.997775947416448,0.09716796875,0.33544921875,0.19677734375,39.87117647058824,453.825042813465
-0.3057646484375,0.0449482421875,0.9480517578125,0.9971531979596844,0.1005859375,0.31640625,0.20166015625,40.059411764705885,453.825042813465
-0.3013701171875,0.0449482421875,0.9563525390625,1.0037203151180334,0.09033203125,0.3369140625,0.1884765625,39.25941176470588,453.825042813465
-0.3028349609375,0.0454365234375,0.9519580078125,0.9999987699324672,0.10107421875,0.3271484375,0.19921875,40.059411764705885,453.825042813465
-0.3042998046875,0.0429951171875,0.9504931640625,0.9989415429164812,0.0703125,0.3515625,0.19580078125,39.73,453.839097423608
-0.2920927734375,0.0371357421875,0.9583056640625,1.0025203226950048,0.0556640625,0.328125,0.22021484375,39.82411764705883,453.839097423608
-0.2935576171875,0.0234638671875,0.9670947265625,1.010939581684876,0.06640625,0.30224609375,0.23095703125,39.63588235294118,453.839097423608
-0.3008818359375,0.0283466796875,0.9680712890625,1.0141476392289028,0.064453125,0.310546875,0.2294921875,39.82411764705883,453.839097423608
-0.3038115234375,0.0288349609375,0.9627001953125,1.009913146166742,0.07958984375,0.2890625,0.22119140625,39.73,453.839097423608
-0.3057646484375,0.0317646484375,0.9670947265625,1.0147774254827815,0.09619140625,0.30419921875,0.17431640625,39.91823529411765,453.8622594081867
-0.2935576171875,0.0307880859375,0.9739306640625,1.0176762349813029,0.078125,0.3251953125,0.15966796875,39.87117647058824,453.8622594081867
-0.2974638671875,0.0371357421875,0.9744189453125,1.0194881542293095,0.1005859375,0.33935546875,0.109375,39.73,453.8622594081867
-0.2886748046875,0.0327412109375,0.9695361328125,1.0121291629945448,0.11083984375,0.32958984375,0.083984375,39.87117647058824,453.8622594081867
-0.2823271484375,0.0346943359375,0.9563525390625,0.9977587356983074,0.12158203125,0.32421875,0.068359375,40.01235294117648,453.5130915740394
-0.2798857421875,0.0317646484375,0.9431689453125,0.9843336227987436,0.126953125,0.265625,0.1220703125,39.73,453.5130915740394
-0.2769560546875,0.0395771484375,0.9334033203125,0.9744294562855276,0.12841796875,0.2119140625,0.158203125,39.63588235294118,453.5130915740394
-0.2803740234375,0.0376240234375,0.9202197265625,0.962719847781752,0.08984375,0.14599609375,0.21142578125,39.73,453.5130915740394
-0.2901396484375,0.0478779296875,0.9329150390625,0.9781634739937816,0.05419921875,0.109375,0.23291015625,39.63588235294118,453.5130915740394
-0.2959990234375,0.0386005859375,0.9568408203125,1.0023221949687486,0.046875,0.1171875,0.2041015625,39.82411764705883,454.1411111972677
-0.3057646484375,0.0498310546875,0.8377001953125001,0.893149915452035,0.017578125,0.1640625,0.13525390625,39.63588235294118,454.1411111972677
-0.2955107421875,0.0630146484375,0.9710009765625,1.0169269104273118,-0.0009765625,0.208984375,0.0517578125,40.20058823529412,454.1411111972677
-0.2930693359375,0.0722919921875,0.9651416015625,1.0112438276043578,0.0048828125,0.21435546875,0.0224609375,39.73,454.1411111972677
-0.2950224609375,0.0766865234375,0.9695361328125,1.0163264181175096,0.0283203125,0.24365234375,0.052734375,39.73,453.46841177249536
-0.2833037109375,0.0810810546875,0.9719775390625,1.015665036565791,0.0302734375,0.23046875,0.0732421875,39.68294117647059,453.46841177249536
-0.2916044921875,0.0844990234375,0.9592822265625,1.0061787391038075,0.07763671875,0.201171875,0.12646484375,39.73,453.46841177249536
-0.2911162109375,0.0766865234375,0.9548876953125,1.001219247620997,0.1298828125,0.22998046875,0.1279296875,40.15352941176471,453.46841177249536
-0.2891630859375,0.0918232421875,0.9480517578125,0.995413950859688,0.1220703125,0.21240234375,0.10546875,39.54176470588236,453.46841177249536
-0.2876982421875,0.0927998046875,0.9539111328125,1.0006640453276228,0.15380859375,0.20263671875,0.10791015625,39.91823529411765,453.8924678879961
-0.2735380859375,0.1040302734375,0.9470751953125,0.9912602119655778,0.130859375,0.216796875,0.0908203125,39.91823529411765,453.8924678879961
-0.2667021484375,0.1001240234375,0.9490283203125,0.9908630625902132,0.1015625,0.22314453125,0.00048828125,39.73,453.8924678879961
-0.2637724609375,0.1025654296875,0.9421923828125,0.9837794797341034,0.12255859375,0.24169921875,0.1416015625,40.059411764705885,453.8924678879961
-0.2632841796875,0.0927998046875,0.9436572265625,0.9840829864738988,0.1650390625,0.21923828125,0.1806640625,39.82411764705883,453.87923244269945
-0.2750029296875,0.0747333984375,0.9334033203125,0.975937216499671,0.1669921875,0.23388671875,0.27099609375,39.82411764705883,453.87923244269945
-0.2940458984375,0.0649677734375,0.9402392578125,0.9872860091711742,0.17578125,0.25830078125,0.298828125,39.87117647058824,453.87923244269945
-0.2984404296875,0.0503193359375,0.9441455078125,0.9914683381549682,0.17041015625,0.2685546875,0.3134765625,39.91823529411765,453.87923244269945
-0.3072294921875,0.0400654296875,0.9465869140625,0.9960030047144436,0.158203125,0.2998046875,0.32177734375,39.87117647058824,453.87923244269945
-0.3077177734375,0.0356708984375,0.9661181640625,1.014567369875538,0.24755859375,0.322265625,0.29052734375,39.82411764705883,453.9847342708001
-0.3008818359375,0.0322529296875,0.9685595703125,1.0147303937078471,0.10400390625,0.36083984375,0.26416015625,39.63588235294118,453.9847342708001
-0.2950224609375,0.0278583984375,0.9651416015625,1.009610149457576,0.0712890625,0.3896484375,0.22900390625,40.15352941176471,453.9847342708001
-0.2920927734375,0.0283466796875,0.9675830078125,1.0111076102726164,0.06005859375,0.43505859375,0.2158203125,39.63588235294118,453.9847342708001
-0.2867216796875,0.0259052734375,0.9641650390625,1.006227920177673,0.0517578125,0.41162109375,0.2041015625,39.73,453.8659975769812
-0.2940458984375,0.0215107421875,0.9597705078125,1.0040344267424488,0.048828125,0.38525390625,0.22802734375,39.91823529411765,453.8659975769812
-0.2950224609375,0.0190693359375,0.9646533203125,1.008939007284705,0.0458984375,0.3486328125,0.2275390625,39.82411764705883,453.8659975769812
-0.3008818359375,0.0215107421875,0.9587939453125,1.0051260720897093,0.02685546875,0.31298828125,0.18505859375,39.73,453.8659975769812
-0.2969755859375,0.0298115234375,0.9641650390625,1.009305428561136,0.0107421875,0.30712890625,0.15966796875,39.82411764705883,453.8659975769812
-0.2935576171875,0.0361591796875,0.9700244140625,1.0141158339961822,-0.0205078125,0.322265625,0.0888671875,39.82411764705883,453.7381573022956
-0.2925810546875,0.0444599609375,0.9739306640625,1.0179004372186091,-0.03662109375,0.3564453125,0.0341796875,39.73,453.7381573022956
-0.2911162109375,0.0459248046875,0.9675830078125,1.0114715087256172,-0.06201171875,0.34326171875,0.00927734375,39.91823529411765,453.7381573022956
-0.2901396484375,0.0537373046875,0.9578173828125,1.0022389197832524,-0.0390625,0.337890625,-0.01513671875,40.01235294117648,453.7381573022956
-0.2955107421875,0.0473896484375,0.9504931640625,0.9964986866307348,-0.03125,0.3466796875,0.00341796875,39.82411764705883,453.9715001585224
-0.2945341796875,0.0469013671875,0.9368212890625,0.9831501659914266,-0.029296875,0.3046875,0.02734375,39.82411764705883,453.9715001585224
-0.2955107421875,0.0454365234375,0.9382861328125,0.9847699951961016,0.0107421875,0.26220703125,0.04736328125,39.73,453.9715001585224
-0.2925810546875,0.0483662109375,0.9407275390625,0.9863626446054656,0.00048828125,0.26904296875,0.0439453125,39.91823529411765,453.9715001585224
-0.2959990234375,0.0595966796875,0.9465869140625,0.9935763543785124,-0.005859375,0.24755859375,0.0341796875,39.68294117647059,453.9715001585224
-0.2862333984375,0.0688740234375,0.9451220703125,0.9899135908135296,-0.01025390625,0.2685546875,0.03759765625,39.63588235294118,453.9268218443647
-0.2876982421875,0.0757099609375,0.9509814453125,0.9964276120579892,0.005859375,0.3115234375,0.07470703125,40.059411764705885,453.9268218443647
-0.2847685546875,0.0781513671875,0.9705126953125,1.014443521195151,0.00244140625,0.30078125,0.126953125,40.059411764705885,453.9268218443647
-0.2837919921875,0.0888935546875,0.9783251953125,1.0225263550041002,0.00439453125,0.296875,0.13720703125,39.82411764705883,453.9268218443647
-0.2911162109375,0.0864521484375,0.9905322265625,1.0360389539486103,0.01025390625,0.30859375,0.12744140625,39.68294117647059,453.9562031347055
-0.2891630859375,0.0937763671875,0.9939501953125,1.039397079115359,0.02294921875,0.30078125,0.08642578125,39.63588235294118,453.9562031347055
-0.2906279296875,0.0947529296875,0.9817431640625,1.0282326348556807,0.0625,0.31494140625,0.09521484375,39.73,453.9562031347055
-0.2925810546875,0.0888935546875,0.9431689453125,0.9915005784309574,0.10498046875,0.2958984375,0.123046875,39.87117647058824,453.9562031347055
-0.2901396484375,0.0786396484375,0.9114306640625,0.959724473635647,0.14208984375,0.20263671875,0.1728515625,40.01235294117648,453.9562031347055
-0.2906279296875,0.0674091796875,0.8918994140625001,0.9404749628914184,0.1513671875,0.0947265625,0.21923828125,40.01235294117648,453.9562031347055
-0.2984404296875,0.0644794921875,0.8816455078125001,0.933018272292016,0.13720703125,0.08349609375,0.23193359375,39.91823529411765,453.9562031347055
-0.2979521484375,0.0566669921875,0.8879931640625001,0.9383594674664024,0.12890625,0.06689453125,0.2548828125,39.82411764705883,453.9562031347055
-0.2886748046875,0.0547138671875,0.9031298828125,0.9497211882194152,0.1455078125,0.15380859375,0.26513671875,39.91823529411765,453.9562031347055
-0.2876982421875,0.0459248046875,0.9143603515625,0.9596531762844644,0.14697265625,0.2294921875,0.2666015625,39.82411764705883,454.9090544148136
-0.2984404296875,0.0351826171875,0.9231494140625,0.97082920604407,0.16748046875,0.26318359375,0.2685546875,39.82411764705883,454.9090544148136
-0.2940458984375,0.0263935546875,0.9470751953125,0.992023707223355,0.17822265625,0.26611328125,0.2763671875,39.73,454.9090544148136
-0.2999052734375,0.0249287109375,0.9627001953125,1.0086408080775595,0.16064453125,0.25048828125,0.25244140625,39.73,454.9090544148136
-0.3028349609375,0.0268818359375,0.9817431640625,1.0277408656139138,0.1494140625,0.31591796875,0.20166015625,39.91823529411765,454.9090544148136
-0.2823271484375,0.0293232421875,0.9915087890625,1.031338038697993,0.11083984375,0.3388671875,0.1435546875,39.73,454.2433401682151
-0.2750029296875,0.0332294921875,0.9822314453125,1.0205436897303466,0.08349609375,0.38818359375,0.11181640625,39.82411764705883,454.2433401682151
-0.2691435546875,0.0376240234375,0.9851611328125,1.0219570821584716,0.06884765625,0.37060546875,0.125,40.01235294117648,454.2433401682151
-0.2715849609375,0.0332294921875,0.9651416015625,1.003175409001382,0.0537109375,0.32275390625,0.12451171875,39.63588235294118,454.2433401682151
-0.2706083984375,0.0342060546875,0.9524462890625,0.9907335126213912,0.0185546875,0.23828125,0.1513671875,39.82411764705883,453.870974266981
-0.2715849609375,0.0337177734375,0.9495166015625,0.9881685361798388,0.017578125,0.14697265625,0.14453125,39.91823529411765,453.870974266981
-0.2842802734375,0.0327412109375,0.9460986328125,0.9884279861320376,-0.00634765625,0.08642578125,0.10546875,39.82411764705883,453.870974266981
-0.2886748046875,0.0449482421875,0.9514697265625,0.9953130803430804,-0.0166015625,0.08349609375,0.04736328125,39.63588235294118,453.870974266981
-0.2876982421875,0.0586201171875,0.9587939453125,1.0027424526092246,-0.04345703125,0.11767578125,-0.021484375,40.01235294117648,453.870974266981
-0.2857451171875,0.0747333984375,0.9661181640625,1.0102572245571977,-0.025390625,0.1748046875,-0.0498046875,40.059411764705885,454.7212343669313
-0.2759794921875,0.0840107421875,0.9631884765625,1.0054623445429245,-0.01318359375,0.220703125,-0.04443359375,39.82411764705883,454.7212343669313
-0.2725615234375,0.0805927734375,0.9426806640625,0.9845972849780944,0.01904296875,0.28125,-0.00439453125,39.68294117647059,454.7212343669313
-0.2754912109375,0.0737568359375,0.9343798828125,0.9769346158039558,0.076171875,0.27490234375,0.0478515625,39.82411764705883,454.7212343669313
-0.2779326171875,0.0644794921875,0.9270556640625,0.9699671895893254,0.14111328125,0.2587890625,0.11376953125,39.73,454.4138048072137
-0.2901396484375,0.0571552734375,0.9192431640625,0.965637476257414,0.162109375,0.2041015625,0.17431640625,39.91823529411765,454.4138048072137
-0.2964873046875,0.0488544921875,0.9207080078125,0.9685012745979324,0.15869140625,0.185546875,0.2041015625,40.059411764705885,454.4138048072137
-0.3003935546875,0.0488544921875,0.9343798828125,0.982694670032046,0.154296875,0.17724609375,0.21533203125,39.91823529411765,454.4138048072137
-0.2955107421875,0.0561787109375,0.9651416015625,1.0109307381702437,0.1611328125,0.17333984375,0.2001953125,39.87117647058824,454.4138048072137
-0.2828154296875,0.0595966796875,0.9846728515625,1.0262148683893275,0.1201171875,0.20703125,0.1865234375,39.82411764705883,454.3376802592111
-0.2671904296875,0.0678974609375,0.9954150390625,1.032885226397468,0.12158203125,0.27392578125,0.177734375,39.91823529411765,454.3376802592111
-0.2457060546875,0.0635029296875,0.9934619140625,1.025363673084686,0.12890625,0.34326171875,0.1171875,39.91823529411765,454.3376802592111
-0.2320341796875,0.0522724609375,0.9695361328125,0.9982848208526118,0.1416015625,0.30322265625,0.13916015625,39.68294117647059,454.3376802592111
-0.2452177734375,0.0469013671875,0.9343798828125,0.9671593767618673,0.1220703125,0.20947265625,0.14208984375,39.82411764705883,453.9653094998266
-0.2549833984375,0.0288349609375,0.9109423828125,0.9463952732633016,0.1171875,0.11572265625,0.18505859375,39.91823529411765,453.9653094998266
-0.2623076171875,0.0215107421875,0.8967822265625001,0.9346049218479626,0.08056640625,0.02880859375,0.1982421875,39.91823529411765,453.9653094998266
-0.2730498046875,0.0102802734375,0.8821337890625001,0.9234835687047144,0.04345703125,-0.033203125,0.23291015625,40.01235294117648,453.9653094998266
-0.2710966796875,0.0097919921875,0.8821337890625001,0.922902657193244,0.025390625,-0.05810546875,0.23779296875,39.87117647058824,453.9653094998266
-0.2603544921875,0.0141865234375,0.8894580078125001,0.9268879472251408,0.03125,-0.0498046875,0.21435546875,39.82411764705883,454.7638523501912
-0.2588896484375,0.0180927734375,0.9114306640625,0.9476587222793672,0.0205078125,0.01123046875,0.23095703125,40.059411764705885,454.7638523501912
-0.2593779296875,0.0224873046875,0.9412158203125,0.9765601925573326,0.0390625,0.14111328125,0.24560546875,40.01235294117648,454.7638523501912
-0.2564482421875,0.0239521484375,0.9392626953125,0.9739372757737188,0.05615234375,0.21044921875,0.26025390625,39.91823529411765,454.7638523501912
-0.2657255859375,0.0302998046875,0.9548876953125,0.9916343458377924,0.06689453125,0.22607421875,0.2314453125,39.63588235294118,454.6359989165279
-0.2745146484375,0.0386005859375,0.9700244140625,1.008858593321571,0.060546875,0.28759765625,0.203125,39.73,454.6359989165279
-0.2754912109375,0.0473896484375,0.9768603515625,1.0160695510336146,0.0634765625,0.2890625,0.19580078125,39.82411764705883,454.6359989165279
-0.2750029296875,0.0542255859375,0.9788134765625,1.0181565927731064,0.0478515625,0.28515625,0.1630859375,40.01235294117648,454.6359989165279
-0.2735380859375,0.0547138671875,0.9710009765625,1.0102769858837186,0.04150390625,0.26708984375,0.1259765625,39.63588235294118,454.6359989165279
-0.2593779296875,0.0561787109375,0.9597705078125,0.995787319480539,0.01611328125,0.236328125,0.05908203125,39.82411764705883,453.63350182787184
-0.2520537109375,0.0517841796875,0.9573291015625,0.991308066728873,-0.01171875,0.2021484375,0.03173828125,39.91823529411765,453.63350182787184
-0.2510771484375,0.0449482421875,0.9495166015625,0.9831794625530236,0.02392578125,0.14404296875,0.0693359375,39.54176470588236,453.63350182787184
-0.2481474609375,0.0498310546875,0.9382861328125,0.9718236277273944,0.017578125,0.078125,0.08349609375,39.82411764705883,453.63350182787184
-0.2549833984375,0.0537373046875,0.9470751953125,0.9822706638040374,0.03369140625,0.025390625,0.11572265625,39.82411764705883,454.1966012447362
-0.2584013671875,0.0591083984375,0.9407275390625,0.9773604105348256,0.03271484375,0.044921875,0.1611328125,40.01235294117648,454.1966012447362
-0.2579130859375,0.0615498046875,0.9548876953125,0.9910186925654286,0.05224609375,0.119140625,0.130859375,39.68294117647059,454.1966012447362
-0.1368193359375,0.0605732421875,0.9573291015625,0.9689518342280732,0.06640625,0.2255859375,0.1142578125,39.82411764705883,454.1966012447362
-0.2530302734375,0.0600849609375,0.9509814453125,0.9859007207297136,0.0625,0.23291015625,0.12939453125,40.15352941176471,454.1966012447362
-0.2564482421875,0.0478779296875,0.9417041015625,0.977171741288017,0.091796875,0.24658203125,0.0009765625,39.63588235294118,454.2057095532041
-0.2642607421875,0.0390888671875,0.9348681640625,0.9722860502841124,0.08935546875,0.22412109375,0.15283203125,39.82411764705883,454.2057095532041
-0.2647490234375,0.0376240234375,0.9363330078125,0.9737695384791716,0.0859375,0.1875,0.2021484375,39.82411764705883,454.2057095532041
-0.2632841796875,0.0337177734375,0.9377978515625,0.9746385267957262,0.08837890625,0.1748046875,0.2294921875,40.01235294117648,454.2057095532041
-0.2637724609375,0.0410419921875,0.9363330078125,0.9736425718871105,0.0888671875,0.1630859375,0.2490234375,40.01235294117648,454.1184165084271
-0.2603544921875,0.0390888671875,0.9495166015625,0.9853396256027728,0.107421875,0.20361328125,0.21826171875,39.68294117647059,454.1184165084271
-0.2584013671875,0.0415302734375,0.9573291015625,0.9924590867509986,0.11767578125,0.23193359375,0.2080078125,39.68294117647059,454.1184165084271
-0.2520537109375,0.0473896484375,0.9661181640625,0.9995804914602378,0.125,0.24658203125,0.205078125,39.91823529411765,454.1184165084271
-0.2515654296875,0.0459248046875,0.9695361328125,1.002693655075397,0.115234375,0.22607421875,0.1953125,39.73,454.1184165084271
-0.2476591796875,0.0454365234375,0.9797900390625,1.0116264466648088,0.103515625,0.24462890625,0.17578125,39.91823529411765,453.82217051576015
-0.2505888671875,0.0395771484375,0.9695361328125,1.0021783493299865,0.0908203125,0.25830078125,0.1640625,40.059411764705885,453.82217051576015
-0.2535185546875,0.0366474609375,0.9592822265625,0.9928932894136772,0.0859375,0.24853515625,0.1591796875,40.01235294117648,453.82217051576015
-0.2593779296875,0.0283466796875,0.9441455078125,0.9795362089176708,0.1025390625,0.1962890625,0.16357421875,39.07117647058824,453.82217051576015
-0.2608427734375,0.0298115234375,0.9402392578125,0.9762056859678868,0.06787109375,0.1591796875,0.16015625,39.91823529411765,453.94795359036107
-0.2623076171875,0.0288349609375,0.9446337890625,0.9808005589544836,0.06103515625,0.15087890625,0.1630859375,39.87117647058824,453.94795359036107
-0.2564482421875,0.0356708984375,0.9519580078125,0.9865405022373592,0.04443359375,0.1640625,0.1220703125,39.73,453.94795359036107
-0.2408232421875,0.0415302734375,0.9504931640625,0.981406058937398,0.03076171875,0.20166015625,0.11669921875,39.87117647058824,453.94795359036107
-0.2305693359375,0.0473896484375,0.9553759765625,0.9839467739905652,0.02734375,0.240234375,0.1171875,39.82411764705883,453.94795359036107
-0.2320341796875,0.0635029296875,0.9543994140625,0.9842513521377504,0.02880859375,0.23583984375,0.1357421875,38.97705882352941,454.2259874027213
-0.2427763671875,0.0591083984375,0.9436572265625,0.9761778160121422,0.05078125,0.22021484375,0.16357421875,40.01235294117648,454.2259874027213
-0.2496123046875,0.0620380859375,0.9558642578125,0.9898643877429046,0.044921875,0.1787109375,0.16943359375,39.82411764705883,454.2259874027213
-0.2574248046875,0.0586201171875,0.9470751953125,0.98318628640949,0.06884765625,0.16162109375,0.1806640625,39.82411764705883,454.2259874027213
-0.2740263671875,0.0649677734375,0.9597705078125,1.000235316896014,0.06494140625,0.15185546875,0.1904296875,39.91823529411765,454.01084631250353
-0.2706083984375,0.0703388671875,0.9602587890625,1.000136692414546,0.05517578125,0.17529296875,0.18994140625,39.82411764705883,454.01084631250353
-0.2632841796875,0.0703388671875,0.9724658203125,1.0099286545033783,0.0556640625,0.212890625,0.166015625,39.63588235294118,454.01084631250353
-0.2559599609375,0.0776630859375,0.9680712890625,1.0043450986725593,0.0322265625,0.23583984375,0.14453125,40.20058823529412,454.01084631250353
-0.2579130859375,0.0761982421875,0.9646533203125,1.0014396439128022,0.029296875,0.26708984375,0.1416015625,39.91823529411765,454.01084631250353
-0.2535185546875,0.0742451171875,0.9475634765625,0.983697380860718,0.03369140625,0.24658203125,0.15380859375,40.059411764705885,454.3021115875289
-0.2584013671875,0.0698505859375,0.9373095703125,0.97478182252214,0.03564453125,0.18505859375,0.171875,39.87117647058824,454.3021115875289
-0.2667021484375,0.0674091796875,0.9353564453125,0.9749695960772088,0.0283203125,0.10498046875,0.181640625,39.68294117647059,454.3021115875289
-0.2730498046875,0.0708271484375,0.9470751953125,0.9881923428016832,0.029296875,0.083984375,0.1435546875,39.82411764705883,454.3021115875289
-0.2779326171875,0.0718037109375,0.9500048828125,0.9924271207341532,0.03271484375,0.11376953125,0.09765625,39.73,454.5536963801986
-0.2588896484375,0.0752216796875,0.9651416015625,1.002088051136091,0.048828125,0.19140625,0.04443359375,39.91823529411765,454.5536963801986
-0.2501005859375,0.0722919921875,0.9587939453125,0.9935100728168929,0.060546875,0.24462890625,0.037109375,39.91823529411765,454.5536963801986
-0.2374052734375,0.0708271484375,0.9583056640625,0.9898118480731533,0.0712890625,0.28564453125,0.0859375,39.82411764705883,454.5536963801986
-0.2393583984375,0.0630146484375,0.9490283203125,0.9807742051947697,0.1083984375,0.26171875,0.1630859375,39.91823529411765,454.5536963801986
-0.2403349609375,0.0464130859375,0.9436572265625,0.9748866750749552,0.15087890625,0.26513671875,0.26708984375,40.15352941176471,454.42584320515925
-0.2427763671875,0.0429951171875,0.9470751953125,0.9786421052371173,0.154296875,0.271484375,0.2939453125,39.63588235294118,454.42584320515925
-0.2559599609375,0.0322529296875,0.9495166015625,0.9839397998451698,0.14306640625,0.32763671875,0.32373046875,39.91823529411765,454.42584320515925
-0.2584013671875,0.0346943359375,0.9651416015625,0.9997366025994752,0.1279296875,0.3212890625,0.31201171875,39.73,454.42584320515925
-0.2535185546875,0.0361591796875,0.9719775390625,1.005146496928933,0.1279296875,0.34765625,0.2939453125,39.91823529411765,453.92561517462417
-0.2447294921875,0.0400654296875,0.9871142578125,1.0177879548211988,0.08544921875,0.40478515625,0.244140625,39.82411764705883,453.92561517462417
-0.2461943359375,0.0366474609375,0.9905322265625,1.0213269698288283,0.03369140625,0.4033203125,0.2470703125,39.87117647058824,453.92561517462417
-0.2452177734375,0.0346943359375,0.9880908203125,1.0186554483934291,0.021484375,0.35205078125,0.3740234375,39.82411764705883,453.92561517462417
-0.2574248046875,0.0298115234375,0.9880908203125,1.0215085541413207,-0.00830078125,0.32275390625,0.2490234375,40.059411764705885,453.92561517462417
-0.2608427734375,0.0224873046875,0.9788134765625,1.013222805323214,-0.00634765625,0.2783203125,0.2138671875,40.15352941176471,453.3046141922261
-0.2750029296875,0.0229755859375,0.9719775390625,1.0103934012689677,0.01708984375,0.22412109375,0.20166015625,39.82411764705883,453.3046141922261
-0.2813505859375,0.0244404296875,0.9744189453125,1.0145184906124725,0.00634765625,0.20361328125,0.185546875,39.91823529411765,453.3046141922261
-0.2847685546875,0.0229755859375,0.9612353515625,1.0027933029201292,0.0244140625,0.2001953125,0.1708984375,39.73,453.3046141922261
-0.2740263671875,0.0273701171875,0.9641650390625,1.0027231900077052,0.017578125,0.203125,0.17919921875,40.059411764705885,453.8829998637083
-0.2715849609375,0.0283466796875,0.9705126953125,1.00819483088313,0.005859375,0.25341796875,0.14892578125,39.87117647058824,453.8829998637083
-0.2696318359375,0.0278583984375,0.9685595703125,1.0057758490630326,0.02685546875,0.26513671875,0.14501953125,40.01235294117648,453.8829998637083
-0.2686552734375,0.0239521484375,0.9602587890625,0.9974198230095132,0.03125,0.2646484375,0.10986328125,40.01235294117648,453.8829998637083
-0.2701201171875,0.0298115234375,0.9627001953125,1.0003225833168914,0.03125,0.2705078125,0.12353515625,39.63588235294118,453.8829998637083
-0.2667021484375,0.0342060546875,0.9612353515625,0.9981350065256432,0.01953125,0.2568359375,0.150390625,39.73,454.24420558654185
-0.2618193359375,0.0420185546875,0.9661181640625,1.001847907888356,0.029296875,0.23876953125,0.15869140625,39.82411764705883,454.24420558654185
-0.2559599609375,0.0503193359375,0.9700244140625,1.0044873822251896,0.01513671875,0.23779296875,0.13232421875,39.54176470588236,454.24420558654185
-0.2535185546875,0.0620380859375,0.9675830078125,1.002166282951643,-0.00341796875,0.23291015625,0.09228515625,39.87117647058824,454.24420558654185
-0.2481474609375,0.0698505859375,0.9675830078125,1.0013356798461863,-0.0078125,0.25439453125,0.0615234375,39.82411764705883,453.8292155265116
-0.2457060546875,0.0747333984375,0.9675830078125,1.001086121749572,0.001953125,0.25146484375,0.0595703125,39.82411764705883,453.8292155265116
-0.2510771484375,0.0791279296875,0.9617236328125,0.9971024569392098,0.009765625,0.2119140625,0.0751953125,39.87117647058824,453.8292155265116
-0.2442412109375,0.0874287109375,0.9504931640625,0.98525874954042,0.0244140625,0.18359375,0.09326171875,39.82411764705883,453.8292155265116
-0.2481474609375,-0.0322001953125,0.9602587890625,0.9923260335795238,0.02392578125,0.13232421875,0.1318359375,40.24764705882353,453.8292155265116
-0.2442412109375,0.1035419921875,0.9617236328125,0.9976407465498014,0.04150390625,0.17578125,0.11328125,40.059411764705885,453.9976164311904
-0.2403349609375,0.1103779296875,0.9666064453125,1.0021338238631583,0.07080078125,0.228515625,0.09716796875,39.73,453.9976164311904
-0.2334990234375,0.1123310546875,0.9680712890625,1.0021487317262856,0.078125,0.29931640625,0.0693359375,39.82411764705883,453.9976164311904
-0.2300810546875,0.1050068359375,0.9568408203125,0.989701006736891,0.13427734375,0.34130859375,0.09619140625,39.73,453.9976164311904
-0.2388701171875,0.0927998046875,0.9500048828125,0.9839613884715194,0.13916015625,0.310546875,0.15478515625,40.01235294117648,453.75309302593496
-0.2554716796875,0.0752216796875,0.9421923828125,0.9791070250219116,0.19384765625,0.25634765625,0.23095703125,39.87117647058824,453.75309302593496
-0.2715849609375,0.0610615234375,0.9465869140625,0.9866679717748512,0.19970703125,0.20703125,0.32080078125,40.01235294117648,453.75309302593496
-0.2857451171875,0.0571552734375,0.9646533203125,1.0077068153327853,0.1923828125,0.20654296875,0.33935546875,39.91823529411765,453.75309302593496
-0.2906279296875,0.0591083984375,0.9822314453125,1.0260297307782906,0.18603515625,0.23876953125,0.3232421875,40.01235294117648,453.75309302593496
-0.2842802734375,0.0649677734375,0.9993212890625,1.040999099050841,0.1455078125,0.330078125,0.2939453125,39.73,454.2400870792621
-0.2671904296875,0.0649677734375,1.0120166015625005,1.048708319381576,0.12255859375,0.3837890625,0.25048828125,39.82411764705883,454.2400870792621
-0.2574248046875,0.0581318359375,1.0188525390625005,1.052476763055587,0.09423828125,0.4423828125,0.232421875,39.91823529411765,454.2400870792621
-0.2481474609375,0.0493427734375,0.9959033203125,1.0275384640341667,0.04833984375,0.4541015625,0.23291015625,40.059411764705885,454.2400870792621
-0.2593779296875,0.0307880859375,0.9788134765625,1.0130649725190564,0.04443359375,0.3603515625,0.24072265625,40.01235294117648,453.8383231775016
-0.2696318359375,0.0161396484375,0.9563525390625,0.9937665692575915,0.03662109375,0.2744140625,0.23779296875,39.63588235294118,453.8383231775016
-0.2828154296875,0.0083271484375,0.9480517578125,0.9893715399999116,0.05810546875,0.24072265625,0.18701171875,39.87117647058824,453.8383231775016
-0.2813505859375,0.0058857421875,0.9377978515625,0.9791106191660436,0.05712890625,0.232421875,0.13671875,40.15352941176471,453.8383231775016
-0.2754912109375,0.0093037109375,0.9216845703125,0.9620210047047604,0.072265625,0.27294921875,0.119140625,40.059411764705885,453.8383231775016
-0.2671904296875,0.0117451171875,0.9163134765625,0.9545465210372904,0.02392578125,0.29150390625,0.16357421875,39.91823529411765,454.23097706061486
-0.3790068359375,0.0063740234375,0.9172900390625,0.9925259823427394,0.06201171875,0.216796875,0.2119140625,39.91823529411765,454.23097706061486
-0.1368193359375,2.6367187500001e-05,0.9226611328125,0.9327502867244012,0.04541015625,0.1904296875,0.27734375,39.68294117647059,454.23097706061486
-0.2559599609375,-0.0048564453124999,0.9241259765625,0.9589306060512378,0.05322265625,0.189453125,0.2919921875,39.73,454.23097706061486
-0.2544951171875,-0.0038798828124999,0.9456103515625,0.9792659266741968,0.02099609375,0.232421875,0.22412109375,39.82411764705883,454.69066253851
-0.2476591796875,0.0063740234375,0.9675830078125,0.9987955618973042,0.01123046875,0.3251953125,0.1513671875,39.68294117647059,454.69066253851
-0.2549833984375,0.0244404296875,0.9905322265625,1.0231167870487272,-0.01025390625,0.3779296875,0.099609375,39.91823529411765,454.69066253851
-0.2584013671875,0.0386005859375,1.0144580078125005,1.047562084753927,-0.02294921875,0.45751953125,0.08203125,39.91823529411765,454.69066253851
-0.2608427734375,0.0449482421875,1.0305712890625005,1.0640190218084715,-0.02734375,0.49951171875,0.037109375,39.91823529411765,454.69066253851
-0.2549833984375,0.0532490234375,1.0476611328125005,1.0795581694293994,-0.01806640625,0.51318359375,-0.0390625,39.87117647058824,453.3989471138222
-0.2461943359375,0.0581318359375,1.0422900390625005,1.072548128023204,-0.01611328125,0.4287109375,-0.076171875,40.01235294117648,453.3989471138222
-0.2525419921875,0.0649677734375,1.0139697265625005,1.0469636458773004,-0.01611328125,0.36328125,-0.06640625,39.91823529411765,453.3989471138222
-0.2510771484375,0.0669208984375,0.9871142578125,1.0207412498238284,0.0087890625,0.28662109375,-0.0478515625,40.059411764705885,453.3989471138222
-0.2496123046875,0.0713154296875,0.9631884765625,0.9975591383701058,0.06103515625,0.2197265625,-0.0166015625,39.87117647058824,453.2690435676884
-0.2471708984375,0.0766865234375,0.9529345703125,0.9874505411452263,0.08544921875,0.18212890625,0.0107421875,39.87117647058824,453.2690435676884
-0.2457060546875,0.0835224609375,0.9456103515625,0.9805745273936642,0.08056640625,0.18310546875,0.0478515625,39.91823529411765,453.2690435676884
-0.2422880859375,0.0869404296875,0.9441455078125,0.9786076306794405,0.095703125,0.20068359375,0.09033203125,39.68294117647059,453.2690435676884
-0.2432646484375,0.0786396484375,0.9495166015625,0.9833329345285824,0.115234375,0.20361328125,0.14306640625,39.87117647058824,453.2690435676884
-0.2579130859375,0.0742451171875,0.9529345703125,0.99000797603891,0.14013671875,0.21630859375,0.19580078125,39.82411764705883,454.4196682610343
-0.2745146484375,0.0727802734375,0.9641650390625,1.0051216259531943,0.169921875,0.2041015625,0.25537109375,39.91823529411765,454.4196682610343
-0.2730498046875,0.0766865234375,0.9705126953125,1.0111043024730662,0.18408203125,0.1962890625,0.29052734375,40.01235294117648,454.4196682610343
-0.2808623046875,0.0810810546875,0.9812548828125,1.0238744633337549,0.1533203125,0.19580078125,0.27490234375,39.82411764705883,454.4196682610343
-0.2735380859375,0.0918232421875,0.9919970703125,1.033108309797554,0.12939453125,0.2041015625,0.263671875,39.82411764705883,454.0634429732228
-0.2754912109375,0.0937763671875,1.0002978515625005,1.0417702271553209,0.07080078125,0.23779296875,0.22509765625,39.82411764705883,454.0634429732228
-0.2779326171875,0.0986591796875,1.0090869140625005,1.0513023226291682,0.025390625,0.28076171875,0.166015625,39.82411764705883,454.0634429732228
-0.2759794921875,0.1030537109375,1.0042041015625005,1.0465231125211754,0.017578125,0.30859375,0.10546875,40.059411764705885,454.0634429732228
-0.2706083984375,0.1113544921875,1.0090869140625005,1.050659377899148,0.02734375,0.32373046875,0.0380859375,39.63588235294118,454.0634429732228
-0.2588896484375,0.1069599609375,0.9954150390625,1.034077068357887,0.04931640625,0.35107421875,-0.00927734375,40.059411764705885,453.1887980879672
-0.2486357421875,0.0996357421875,0.9749072265625,1.0110346748841843,0.1025390625,0.3525390625,-0.015625,39.73,453.1887980879672
-0.2378935546875,0.0937763671875,0.9597705078125,0.9932506119159472,0.1240234375,0.3564453125,-0.00537109375,39.91823529411765,453.1887980879672
-0.2374052734375,0.0820576171875,0.9436572265625,0.9765160918479808,0.1474609375,0.49951171875,0.02685546875,40.059411764705885,453.1887980879672
-0.2378935546875,0.0674091796875,0.9329150390625,0.9651258005964728,0.16455078125,0.34521484375,0.0908203125,39.87117647058824,453.9690991510324
-0.2491240234375,0.0512958984375,0.9382861328125,0.9721496362589632,0.181640625,0.3291015625,0.15673828125,39.87117647058824,453.9690991510324
-0.2540068359375,0.0386005859375,0.9353564453125,0.9700005967654528,0.20947265625,0.3291015625,0.2060546875,40.15352941176471,453.9690991510324
-0.2486357421875,0.0273701171875,0.9529345703125,0.985217311512874,0.203125,0.35302734375,0.2509765625,39.82411764705883,453.9690991510324
-0.2632841796875,0.0219990234375,0.9666064453125,1.00206313993959,0.18359375,0.36181640625,0.30078125,39.54176470588236,453.9690991510324
-0.2632841796875,0.0307880859375,0.9807666015625,1.0159574756109977,0.1728515625,0.37353515625,0.3583984375,39.91823529411765,453.9153138073004
-0.2657255859375,0.0371357421875,1.0027392578125005,1.0380150141149251,0.1220703125,0.44775390625,0.369140625,39.87117647058824,453.9153138073004
-0.2662138671875,0.0415302734375,1.0212939453125005,1.0562366730173165,0.08203125,0.50732421875,0.33349609375,39.87117647058824,453.9153138073004
-0.2608427734375,0.0439716796875,1.0349658203125005,1.0682353253306285,0.078125,0.5869140625,0.26220703125,40.01235294117648,453.9153138073004
-0.2554716796875,0.0503193359375,1.0388720703125005,1.0710055990362162,0.02880859375,0.64453125,0.20068359375,40.15352941176471,452.9575208220479
-0.2544951171875,0.0512958984375,1.0466845703125005,1.0784004931374305,0.00732421875,0.6669921875,0.14404296875,39.91823529411765,452.9575208220479
-0.2540068359375,0.0478779296875,1.0339892578125005,1.0658074657862866,-0.05029296875,0.66748046875,0.0859375,39.63588235294118,452.9575208220479
-0.2530302734375,0.0444599609375,1.0071337890625005,1.0393841813659703,-0.04638671875,0.6123046875,0.0126953125,39.73,452.9575208220479
-0.2642607421875,0.0327412109375,0.9729541015625,1.0087345589908348,-0.05517578125,0.62353515625,0.01220703125,39.91823529411765,452.9575208220479
-0.2833037109375,0.0298115234375,0.9241259765625,0.967035955959352,-0.0517578125,0.3447265625,0.0322265625,39.82411764705883,453.1482469873769
-0.3062529296875,0.0224873046875,0.9246142578125,0.974273093934368,-0.10009765625,0.26513671875,0.052734375,39.91823529411765,453.1482469873769
-0.3047880859375,0.0234638671875,0.9080126953125,0.9580884015796812,-0.13037109375,0.203125,0.09423828125,39.82411764705883,453.1482469873769
-0.3047880859375,0.0293232421875,0.9182666015625,0.9679716841968958,-0.185546875,0.1484375,0.119140625,40.01235294117648,453.1482469873769
-0.2959990234375,0.0322529296875,0.9241259765625,0.9709091069234932,-0.20263671875,0.1240234375,0.14892578125,40.01235294117648,454.664210783717
-0.2925810546875,0.0415302734375,0.9534228515625,0.9981701112813448,-0.17431640625,0.13134765625,0.13232421875,40.01235294117648,454.664210783717
-0.2964873046875,0.0561787109375,0.9636767578125,1.0098186287405622,-0.162109375,0.2021484375,0.1181640625,39.87117647058824,454.664210783717
-0.2847685546875,0.0669208984375,0.9744189453125,1.017380861511762,-0.12109375,0.2470703125,0.08251953125,40.20058823529412,454.664210783717
-0.2676787109375,0.0776630859375,0.9876025390625,1.0261784554204956,-0.11376953125,0.32861328125,0.01318359375,39.87117647058824,454.664210783717
-0.2613310546875,0.0786396484375,0.9880908203125,1.0250861347400442,-0.1142578125,0.32861328125,0.0087890625,39.73,454.1912949604171
-0.2520537109375,0.0893818359375,0.9890673828125,1.0245850250401338,-0.11865234375,0.31494140625,-0.03173828125,40.01235294117648,454.1912949604171
-0.2476591796875,0.0967060546875,0.9885791015625,1.0237068771590954,-0.1171875,0.31982421875,-0.0771484375,39.87117647058824,454.1912949604171
-0.2496123046875,0.1059833984375,0.9851611328125,1.0218029364805017,-0.103515625,0.27783203125,-0.07958984375,39.87117647058824,454.1912949604171
-0.2413115234375,0.1255146484375,0.9685595703125,1.0060282399416287,-0.09765625,0.234375,-0.10986328125,40.01235294117648,453.45359121899673
-0.2364287109375,0.1357685546875,0.9568408203125,0.9949251183952482,-0.04541015625,0.22412109375,-0.12744140625,39.68294117647059,453.45359121899673
-0.2286162109375,0.1386982421875,0.9568408203125,0.9935023551585672,0.02099609375,0.25244140625,-0.103515625,39.82411764705883,453.45359121899673
-0.2212919921875,0.1382099609375,0.9353564453125,0.97106324145047,0.06884765625,0.234375,-0.048828125,40.01235294117648,453.45359121899673
-0.2164091796875,0.1269794921875,0.9236376953125,0.9571119666430876,0.14599609375,0.2265625,0.05419921875,39.73,453.45359121899673
-0.2256865234375,0.1191669921875,0.9221728515625,0.9568374715944364,0.22802734375,0.1640625,0.14306640625,40.059411764705885,453.5702677689291
-0.2442412109375,0.1103779296875,0.9265673828125,0.964553871680748,0.244140625,0.18115234375,0.24267578125,39.82411764705883,453.5702677689291
-0.2530302734375,0.0869404296875,0.9417041015625,0.97897373432066,0.26025390625,0.26953125,0.30224609375,39.87117647058824,453.5702677689291
-0.2652373046875,0.0737568359375,0.9524462890625,0.9914357428468716,0.2412109375,0.3466796875,0.36328125,39.87117647058824,453.5702677689291
-0.2774443359375,0.0566669921875,0.9719775390625,1.012386706742721,0.23828125,0.36962890625,0.41259765625,39.82411764705883,453.725444787746
-0.2896513671875,0.0376240234375,0.9851611328125,1.0275485094425576,0.2421875,0.41455078125,0.47705078125,40.059411764705885,453.725444787746
-0.2911162109375,0.0298115234375,1.0076220703125005,1.0492566948945912,0.23291015625,0.40966796875,0.50146484375,39.91823529411765,453.725444787746
-0.2964873046875,0.0254169921875,1.0232470703125005,1.0656384528703122,0.2001953125,0.4345703125,0.47216796875,40.01235294117648,453.725444787746
-0.3023466796875,0.0195576171875,1.0393603515625005,1.0826199497091455,0.1298828125,0.49560546875,0.45361328125,39.91823529411765,453.725444787746
-0.2916044921875,0.0249287109375,1.0466845703125005,1.0868317304087134,0.0625,0.544921875,0.35400390625,39.87117647058824,453.6108238123085
-0.2793974609375,0.0195576171875,1.0618212890625005,1.098139286008257,0.0,0.591796875,0.2373046875,40.01235294117648,453.6108238123085
-0.2652373046875,0.0146748046875,1.0515673828125005,1.0846013729871622,-0.0546875,0.57666015625,0.14794921875,39.91823529411765,453.6108238123085
-0.2505888671875,0.0117451171875,1.0305712890625005,1.0606648433770236,-0.08837890625,0.529296875,0.05859375,39.87117647058824,453.6108238123085
-0.2540068359375,0.0049091796875,0.9954150390625,1.0273240349276282,-0.09130859375,0.46435546875,-0.001953125,39.63588235294118,453.2161202263271
-0.2535185546875,0.0044208984375,0.9719775390625,1.0045056188771806,-0.1435546875,0.34375,-0.03759765625,39.91823529411765,453.2161202263271
-0.2618193359375,0.0024677734375,0.9470751953125,0.9826020965541964,-0.14892578125,0.25732421875,-0.0458984375,39.91823529411765,453.2161202263271
-0.2461943359375,0.0176044921875,0.9275439453125,0.9598225563502686,-0.1962890625,0.23779296875,-0.1015625,39.91823529411765,453.2161202263271
-0.2403349609375,0.0136982421875,0.9270556640625,0.9577999475664112,-0.2060546875,0.19189453125,-0.0908203125,39.91823529411765,453.2161202263271
-0.2447294921875,0.0302998046875,0.9338916015625,0.9659006812190494,-0.18408203125,0.22021484375,-0.07958984375,39.82411764705883,454.24802338381886
-0.2374052734375,0.0449482421875,0.9382861328125,0.9688975566900336,-0.17041015625,0.294921875,-0.0732421875,39.91823529411765,454.24802338381886
-0.2286162109375,0.0600849609375,0.9475634765625,0.9766023328609716,-0.150390625,0.35791015625,-0.04638671875,39.82411764705883,454.24802338381886
-0.2291044921875,0.0678974609375,0.9700244140625,0.999022671123908,-0.10400390625,0.41845703125,0.025390625,39.87117647058824,454.24802338381886
-0.2330107421875,0.0776630859375,0.9729541015625,1.0034765790188611,-0.05712890625,0.5166015625,0.07470703125,39.87117647058824,454.0998879084759
-0.2383818359375,0.0888935546875,0.9714892578125,1.004250636950256,-0.017578125,0.5654296875,0.1259765625,39.87117647058824,454.0998879084759
-0.2437529296875,0.0947529296875,0.9880908203125,1.0221140237769135,0.02392578125,0.57568359375,0.169921875,39.82411764705883,454.0998879084759
-0.2520537109375,0.0942646484375,0.9973681640625,1.033034438839196,0.052734375,0.58642578125,0.21337890625,40.059411764705885,454.0998879084759
-0.2540068359375,0.1050068359375,1.0051806640625005,1.0420816070259151,0.025390625,0.59228515625,0.177734375,39.54176470588236,454.0998879084759
-0.2549833984375,0.1035419921875,1.0046923828125005,1.0417025783333518,0.0615234375,0.55615234375,0.134765625,39.68294117647059,453.164398579923
-0.2525419921875,0.1045185546875,1.0022509765625005,1.0388496552015989,0.04052734375,0.51025390625,0.138671875,39.82411764705883,453.164398579923
-0.2505888671875,0.1006123046875,1.0012744140625005,1.037047765760598,0.02197265625,0.45458984375,0.1123046875,39.82411764705883,453.164398579923
-0.2584013671875,0.0923115234375,0.9939501953125,1.0311302898690728,0.07177734375,0.4140625,0.140625,40.059411764705885,453.164398579923
-0.2662138671875,0.0879169921875,0.9905322265625,1.0294432050662556,0.1181640625,0.39453125,0.1474609375,39.91823529411765,453.40685595560126
-0.2735380859375,0.0766865234375,0.9836962890625,1.0238956472466396,0.1572265625,0.40869140625,0.17822265625,39.87117647058824,453.40685595560126
-0.2764677734375,0.0674091796875,0.9710009765625,1.0118405624113709,0.154296875,0.43212890625,0.2041015625,39.63588235294118,453.40685595560126
-0.2759794921875,0.0581318359375,0.9504931640625,0.9914541065460758,0.17333984375,0.4453125,0.20556640625,39.82411764705883,453.40685595560126
-0.2852568359375,0.0381123046875,0.9495166015625,0.9921722566472346,0.1669921875,0.4228515625,0.2412109375,39.87117647058824,453.40685595560126
-0.2891630859375,0.0317646484375,0.9343798828125,0.9786163950005934,0.15234375,0.39599609375,0.2783203125,39.82411764705883,454.1627866730672
-0.2940458984375,0.0171162109375,0.9260791015625,0.971791365168255,0.12109375,0.3603515625,0.29638671875,39.91823529411765,454.1627866730672
-0.2989287109375,0.0063740234375,0.9309619140625,0.9777980813196818,0.1171875,0.3427734375,0.30859375,40.01235294117648,454.1627866730672
-0.3003935546875,0.0034443359375,0.9417041015625,0.9884608065307788,0.12451171875,0.32470703125,0.32373046875,39.91823529411765,454.1627866730672
-0.2959990234375,2.6367187500001e-05,0.9451220703125,0.990389393300922,0.12646484375,0.32275390625,0.29248046875,39.73,454.4428914421066
-0.2886748046875,0.0078388671875,0.9636767578125,1.0060156481129712,0.11083984375,0.35107421875,0.2919921875,39.91823529411765,454.4428914421066
-0.2798857421875,0.0044208984375,0.9783251953125,1.0175832942841012,0.08056640625,0.34814453125,0.25048828125,39.82411764705883,454.4428914421066
-0.2710966796875,0.0053974609375,0.9876025390625,1.0241490699526392,0.0634765625,0.35986328125,0.21875,39.91823529411765,454.4428914421066
-0.2608427734375,0.0112568359375,0.9846728515625,1.0186983328807977,0.044921875,0.31005859375,0.21875,39.73,454.4428914421066
-0.2574248046875,0.0195576171875,0.9905322265625,1.023623037215026,0.05078125,0.27783203125,0.17626953125,40.15352941176471,454.0014270981944
-0.2588896484375,0.0298115234375,0.9973681640625,1.0308519931023847,0.0595703125,0.2607421875,0.11962890625,39.91823529411765,454.0014270981944
-0.2647490234375,0.0361591796875,0.9988330078125,1.0339569184364252,0.083984375,0.2529296875,0.07421875,39.82411764705883,454.0014270981944
-0.2691435546875,0.0503193359375,1.0022509765625005,1.0389789740988504,0.05908203125,0.2578125,0.02734375,39.73,454.0014270981944
-0.2627958984375,0.0620380859375,1.0022509765625005,1.0379872004812232,0.06298828125,0.28076171875,-0.015625,39.82411764705883,453.87357481919656
-0.2598662109375,0.0644794921875,0.9988330078125,1.034096431671407,0.06103515625,0.29931640625,-0.013671875,40.62411764705882,453.87357481919656
-0.2691435546875,0.0649677734375,0.9797900390625,1.018158919452825,0.08544921875,0.24365234375,-0.0078125,40.01235294117648,453.87357481919656
-0.2764677734375,0.0644794921875,0.9631884765625,1.0041534126043872,0.06982421875,0.18359375,0.0234375,39.73,453.87357481919656
-0.2759794921875,0.0674091796875,0.9553759765625,0.996720589837976,0.060546875,0.11572265625,0.03125,39.82411764705883,453.87357481919656
-0.2793974609375,0.0708271484375,0.9617236328125,1.0039879342124496,0.05224609375,0.08203125,0.0478515625,40.01235294117648,454.12928092551215
-0.2764677734375,0.0776630859375,0.9705126953125,1.0121071467140017,0.06201171875,0.09130859375,0.08251953125,40.01235294117648,454.12928092551215
-0.2740263671875,0.0854755859375,0.9783251953125,1.0195669244775347,0.0634765625,0.1162109375,0.08935546875,39.73,454.12928092551215
-0.2754912109375,0.0913349609375,0.9924853515625,1.0340525399898228,0.0654296875,0.1572265625,0.10302734375,39.82411764705883,454.12928092551215
-0.2735380859375,0.0971943359375,1.0081103515625005,1.0490740223283344,0.07470703125,0.18310546875,0.11572265625,39.82411764705883,454.1181123710214
-0.2647490234375,0.0981708984375,1.0100634765625005,1.048788728675447,0.11083984375,0.23291015625,0.10693359375,39.73,454.1181123710214
-0.2608427734375,0.0932880859375,1.0120166015625005,1.0492469782041602,0.12255859375,0.2734375,0.11767578125,39.91823529411765,454.1181123710214
-0.2584013671875,0.0898701171875,1.0115283203125005,1.0478728202038128,0.15185546875,0.3056640625,0.099609375,39.91823529411765,454.1181123710214
-0.2554716796875,0.0893818359375,0.9973681640625,1.0334399578124085,0.13330078125,0.31982421875,0.09912109375,39.82411764705883,454.1181123710214
-0.2535185546875,0.0805927734375,0.9880908203125,1.023274314095207,0.1328125,0.3134765625,0.08251953125,39.91823529411765,453.66960172920506
-0.2540068359375,0.0757099609375,0.9734423828125,1.0088813327363213,0.1474609375,0.2646484375,0.10986328125,40.01235294117648,453.66960172920506
-0.2530302734375,0.0644794921875,0.9617236328125,0.9965411532388848,0.15478515625,0.1982421875,0.11572265625,39.91823529411765,453.66960172920506
-0.2559599609375,0.0581318359375,0.9573291015625,0.9926599723223732,0.146484375,0.1796875,0.13720703125,40.15352941176471,453.66960172920506
-0.2540068359375,0.0512958984375,0.9578173828125,0.9922524279220876,0.150390625,0.17626953125,0.14111328125,39.91823529411765,454.0957753040741
-0.2564482421875,0.0459248046875,0.9573291015625,0.9921460564378146,0.16845703125,0.15283203125,0.16064453125,40.059411764705885,454.0957753040741
-0.2496123046875,0.0454365234375,0.9607470703125,0.9936829038619632,0.1474609375,0.2177734375,0.17529296875,39.82411764705883,454.0957753040741
-0.2452177734375,0.0498310546875,0.9597705078125,0.9918539802246992,0.1201171875,0.23681640625,0.1494140625,39.91823529411765,454.0957753040741
-0.2374052734375,0.0469013671875,0.9690478515625,0.9988066583267696,0.119140625,0.27734375,0.14990234375,39.82411764705883,454.0957753040741
-0.2403349609375,0.0478779296875,0.9622119140625,0.99292746822908,0.10498046875,0.32421875,0.134765625,39.73,454.1251697185651
-0.2374052734375,0.0439716796875,0.9646533203125,0.9944097751231156,0.10791015625,0.31787109375,0.14697265625,39.91823529411765,454.1251697185651
-0.2447294921875,0.0429951171875,0.9460986328125,0.978183892454788,0.10302734375,0.3203125,0.15966796875,40.24764705882353,454.1251697185651
-0.2540068359375,0.0337177734375,0.9436572265625,0.97782683650644,0.0966796875,0.2705078125,0.169921875,39.91823529411765,454.1251697185651
-0.2696318359375,0.0312763671875,0.9441455078125,0.982390084446091,0.0849609375,0.2412109375,0.18994140625,39.73,453.9323598398421
-0.2696318359375,0.0317646484375,0.9500048828125,0.9880382569561652,0.0673828125,0.2353515625,0.18896484375,40.15352941176471,453.9323598398421
-0.2671904296875,0.0332294921875,0.9622119140625,0.9991730042547436,0.0712890625,0.22998046875,0.15185546875,39.91823529411765,453.9323598398421
-0.2647490234375,0.0400654296875,0.9695361328125,1.0058317935401384,0.01904296875,0.23193359375,0.16015625,39.73,453.9323598398421
-0.2540068359375,0.0449482421875,0.9783251953125,1.0117608437580332,-0.01416015625,0.2734375,0.13427734375,39.82411764705883,453.9323598398421
-0.2588896484375,0.0449482421875,0.9876025390625,1.0219603562303852,-0.03759765625,0.29150390625,0.1083984375,39.91823529411765,454.3068138784226
-0.2637724609375,0.0449482421875,0.9959033203125,1.0312224197690008,-0.04541015625,0.2890625,0.0712890625,40.01235294117648,454.3068138784226
-0.2691435546875,0.0527607421875,0.9876025390625,1.0249784017766892,-0.05712890625,0.28173828125,0.01611328125,39.82411764705883,454.3068138784226
-0.2818388671875,0.0552021484375,0.9836962890625,1.0247628083439515,-0.04736328125,0.2646484375,0.00244140625,39.87117647058824,454.3068138784226
-0.2857451171875,0.0639912109375,0.9744189453125,1.0174661803016702,-0.06640625,0.2421875,0.00732421875,39.87117647058824,453.9323598398421
-0.2725615234375,0.0698505859375,0.9710009765625,1.010945985154356,-0.05322265625,0.2431640625,-0.0068359375,39.82411764705883,453.9323598398421
-0.2618193359375,0.0796162109375,0.9563525390625,0.9947352837243126,-0.04052734375,0.2236328125,0.025390625,39.91823529411765,453.9323598398421
-0.2559599609375,0.0864521484375,0.9436572265625,0.9815693744286318,-0.0390625,0.20263671875,0.0615234375,39.82411764705883,453.9323598398421
-0.2520537109375,0.0840107421875,0.9465869140625,0.9831661425591436,-0.033203125,0.193359375,0.076171875,39.73,453.9323598398421
-0.2549833984375,0.0893818359375,0.9358447265625,0.9740692985148108,-0.03662109375,0.1591796875,0.0908203125,40.059411764705885,454.0378775516534
-0.2510771484375,0.0918232421875,0.9348681640625,0.972342391573524,-0.03857421875,0.134765625,0.10400390625,40.01235294117648,454.0378775516534
-0.2569365234375,0.0927998046875,0.9426806640625,0.9814657483700095,-0.00244140625,0.248046875,0.09912109375,39.91823529411765,454.0378775516534
-0.2574248046875,0.0918232421875,0.9377978515625,0.9768131081580872,0.02099609375,0.125,0.11083984375,39.91823529411765,454.0378775516534
-0.2554716796875,0.0957294921875,0.9421923828125,0.9808957136345972,0.056640625,0.134765625,0.14208984375,39.91823529411765,454.3788305867053
-0.2579130859375,0.0840107421875,0.9397509765625,0.9781149536996516,0.09423828125,0.16064453125,0.166015625,39.91823529411765,454.3788305867053
-0.2525419921875,0.0727802734375,0.9368212890625,0.9729894930883852,0.1142578125,0.1875,0.19287109375,39.82411764705883,454.3788305867053
-0.2525419921875,0.0674091796875,0.9485400390625,0.9838951473754012,0.154296875,0.2041015625,0.201171875,39.87117647058824,454.3788305867053
-0.2505888671875,0.0527607421875,0.9617236328125,0.995234053971508,0.18603515625,0.23095703125,0.24853515625,39.87117647058824,454.3788305867053
-0.2491240234375,0.0454365234375,0.9578173828125,0.9907277100866624,0.1572265625,0.27587890625,0.2568359375,39.68294117647059,454.01348603972514
-0.2442412109375,0.0361591796875,0.9773486328125,1.0080533743092934,0.18505859375,0.30029296875,0.24365234375,40.15352941176471,454.01348603972514
-0.2520537109375,0.0342060546875,0.9734423828125,1.0061268309861968,0.12939453125,0.38037109375,0.23681640625,39.87117647058824,454.01348603972514
-0.2422880859375,0.0361591796875,0.9768603515625,1.0071083106189431,0.12353515625,0.4013671875,0.21435546875,40.15352941176471,454.01348603972514
-0.2300810546875,0.0327412109375,0.9836962890625,1.0107757752019486,0.0625,0.42431640625,0.18017578125,40.059411764705885,453.8065634964681
-0.2300810546875,0.0259052734375,0.9924853515625,1.0191347055144984,0.01806640625,0.43896484375,0.17138671875,39.82411764705883,453.8065634964681
-0.2417998046875,0.0302998046875,0.9851611328125,1.0148535270251673,-0.00439453125,0.35595703125,0.17236328125,39.82411764705883,453.8065634964681
-0.2427763671875,0.0302998046875,0.9685595703125,0.9989825243080056,-0.0283203125,0.30224609375,0.1748046875,39.87117647058824,453.8065634964681
-0.2442412109375,0.0322529296875,0.9744189453125,1.00508024633736,-0.07080078125,0.232421875,0.1787109375,39.63588235294118,453.8065634964681
-0.2476591796875,0.0356708984375,0.9749072265625,1.0065046361952883,-0.0576171875,0.181640625,0.19091796875,39.87117647058824,454.28242294936354
-0.2569365234375,0.0503193359375,0.9817431640625,1.0160551426122446,-0.08154296875,0.14501953125,0.2041015625,39.87117647058824,454.28242294936354
-0.2540068359375,0.0547138671875,0.9944384765625,1.027823410724594,-0.08935546875,0.103515625,0.21240234375,39.87117647058824,454.28242294936354
-0.2618193359375,0.0678974609375,0.9988330078125,1.034807618530265,-0.11279296875,0.11279296875,0.25830078125,40.01235294117648,454.28242294936354
-0.2608427734375,0.0635029296875,0.9983447265625,1.0338103150910305,-0.1064453125,0.07666015625,0.29296875,39.73,454.26920102196993
-0.2618193359375,0.0581318359375,0.9885791015625,1.0243130942569942,-0.13427734375,0.0947265625,0.32373046875,40.01235294117648,454.26920102196993
-0.2486357421875,0.0674091796875,0.9993212890625,1.0319916514065448,-0.11865234375,0.08642578125,0.33203125,39.91823529411765,454.26920102196993
-0.2413115234375,0.0620380859375,0.9939501953125,1.024703355226415,-0.09130859375,0.125,0.3427734375,39.87117647058824,454.26920102196993
-0.2559599609375,0.0610615234375,0.9924853515625,1.0267770859898335,-0.07080078125,0.166015625,0.33544921875,40.01235294117648,454.26920102196993
-0.2437529296875,0.0556904296875,0.9827197265625,1.0140290802857148,-0.037109375,0.203125,0.2744140625,39.73,455.0455015954306
-0.2461943359375,0.0527607421875,0.9695361328125,1.0016963910251948,-0.06201171875,0.205078125,0.2666015625,39.91823529411765,455.0455015954306
-0.2471708984375,0.0512958984375,0.9710009765625,1.0032784352891475,-0.0341796875,0.1953125,0.22314453125,40.15352941176471,455.0455015954306
-0.2408232421875,0.0522724609375,0.9685595703125,0.9994177732030268,-0.00341796875,0.2490234375,0.21630859375,39.73,455.0455015954306
-0.2364287109375,0.0517841796875,0.9597705078125,0.9898179450222852,-0.02978515625,0.09912109375,0.19482421875,39.87117647058824,455.15308410289146
-0.2271513671875,0.0473896484375,0.9597705078125,0.9874223767268212,-0.03466796875,0.09912109375,0.171875,39.73,455.15308410289146
-0.2374052734375,0.0547138671875,0.9460986328125,0.9769634047026672,-0.05810546875,-0.00732421875,0.21142578125,39.73,455.15308410289146
-0.2247099609375,0.0420185546875,0.9509814453125,0.9780725099966826,-0.03466796875,0.14208984375,0.1708984375,40.059411764705885,455.15308410289146
-0.2183623046875,0.0415302734375,0.9495166015625,0.9751864623563176,-0.00439453125,0.150390625,0.15966796875,39.82411764705883,455.15308410289146
-0.2320341796875,0.0420185546875,0.9509814453125,0.9797811637350092,0.037109375,0.11865234375,0.18212890625,39.68294117647059,454.8973474060792
-0.2466826171875,0.0493427734375,0.9651416015625,0.9973892590055332,0.02783203125,0.08935546875,0.20068359375,39.87117647058824,454.8973474060792
-0.2471708984375,0.0522724609375,0.9607470703125,0.9934086753803368,0.025390625,0.10791015625,0.19677734375,40.01235294117648,454.8973474060792
-0.2569365234375,0.0669208984375,0.9773486328125,1.0127710174488085,0.02099609375,0.1044921875,0.23291015625,39.87117647058824,454.8973474060792
-0.2627958984375,0.0752216796875,0.9744189453125,1.0120337278542186,0.0029296875,0.1455078125,0.2373046875,40.01235294117648,454.69335521987176
-0.2681669921875,0.0835224609375,0.9773486328125,1.0169070199582704,-0.00732421875,0.12255859375,0.2763671875,39.73,454.69335521987176
-0.2559599609375,0.0864521484375,0.9832080078125,1.0196506569405088,0.00732421875,0.15478515625,0.3076171875,40.059411764705885,454.69335521987176
-0.2544951171875,0.0718037109375,0.9963916015625,1.030883000752733,0.03759765625,0.16748046875,0.296875,39.82411764705883,454.69335521987176
-0.2520537109375,0.0708271484375,1.0076220703125005,1.041081070202509,0.04296875,0.20361328125,0.279296875,40.01235294117648,454.69335521987176
-0.2422880859375,0.0840107421875,0.9998095703125,1.0321727075827078,0.03125,0.23095703125,0.181640625,40.01235294117648,454.395008267532
-0.2457060546875,0.0967060546875,1.0071337890625005,1.0411733743208704,0.041015625,0.21484375,0.2392578125,39.91823529411765,454.395008267532
-0.2325224609375,0.1030537109375,0.9988330078125,1.0307056513254338,0.06103515625,0.16455078125,0.26416015625,40.059411764705885,454.395008267532
-0.2310576171875,0.0976826171875,0.9832080078125,1.014705623709453,0.0751953125,0.134765625,0.32373046875,39.91823529411765,454.395008267532
-0.2388701171875,0.2158466796875,0.9695361328125,1.0215914226569769,0.1005859375,0.02587890625,0.3955078125,40.01235294117648,454.7359769013335
-0.2520537109375,0.0757099609375,0.9617236328125,0.9970834555304762,0.13623046875,-0.041015625,0.42626953125,40.24764705882353,454.7359769013335
-0.2491240234375,0.0698505859375,0.9670947265625,1.0011064346783995,0.19189453125,0.01025390625,0.41748046875,39.63588235294118,454.7359769013335
-0.2652373046875,0.0688740234375,0.9651416015625,1.0032909697435668,0.263671875,0.06103515625,0.41845703125,40.15352941176471,454.7359769013335
-0.2627958984375,0.0571552734375,0.9670947265625,1.0037931159667737,0.31298828125,0.14013671875,0.3857421875,39.87117647058824,454.7359769013335
-0.2554716796875,0.0600849609375,0.9719775390625,1.0067851399852936,0.3037109375,0.1337890625,0.46484375,39.82411764705883,455.25657028936615
-0.2437529296875,0.0483662109375,0.9924853515625,1.0231236260383345,0.35986328125,0.091796875,0.5546875,40.01235294117648,455.25657028936615
-0.2437529296875,0.0366474609375,1.0022509765625005,1.032117022020706,0.37646484375,0.15576171875,0.5625,39.87117647058824,455.25657028936615
-0.2417998046875,0.0171162109375,1.0027392578125005,1.0316230558601016,0.3779296875,0.17041015625,0.4931640625,40.15352941176471,455.25657028936615
-0.2291044921875,0.0039326171875,0.9978564453125,1.023827045584426,0.34375,0.2431640625,0.3935546875,39.82411764705883,455.3347467892691
-0.2330107421875,0.0156513671875,0.9895556640625,1.0167395849222076,0.24072265625,0.2822265625,0.326171875,39.82411764705883,455.3347467892691
-0.2164091796875,0.0239521484375,0.9710009765625,0.9951128252379816,0.130859375,0.24853515625,0.2705078125,39.82411764705883,455.3347467892691
-0.2178740234375,0.0302998046875,0.9485400390625,0.973712161759128,0.07666015625,0.22802734375,0.2529296875,39.82411764705883,455.3347467892691
-0.2227568359375,0.0215107421875,0.9485400390625,0.9745827444045132,0.068359375,0.19091796875,0.23828125,39.82411764705883,455.3347467892691
-0.2266630859375,0.0122333984375,0.9475634765625,0.9743727996404932,0.09326171875,0.17626953125,0.2509765625,39.87117647058824,455.3418186770366
-0.2325224609375,0.0049091796875,0.9285205078125,0.9572048518023812,0.07275390625,0.1318359375,0.21630859375,40.01235294117648,455.3418186770366
-0.2359404296875,0.0083271484375,0.9119189453125,0.941983752822778,0.0654296875,0.08935546875,0.15966796875,39.91823529411765,455.3418186770366
-0.2271513671875,0.0171162109375,0.9094775390625,0.9375713852028488,0.09033203125,0.10107421875,0.11767578125,39.91823529411765,455.3418186770366
-0.2212919921875,0.0273701171875,0.9006884765625001,0.9278787641355132,0.1279296875,0.111328125,0.14306640625,39.73,455.2545224426628
-0.2051787109375,0.0322529296875,0.9124072265625,0.9357486318338244,0.17578125,0.1416015625,0.20263671875,40.059411764705885,455.2545224426628
-0.2090849609375,0.0302998046875,0.9260791015625,0.9498721500313312,0.220703125,0.1591796875,0.2666015625,39.87117647058824,455.2545224426628
-0.2056669921875,0.0244404296875,0.9236376953125,0.9465742646411582,0.26953125,0.197265625,0.3046875,40.15352941176471,455.2545224426628
-0.2183623046875,0.0190693359375,0.9446337890625,0.9697312674757425,0.35205078125,0.22119140625,0.33544921875,40.15352941176471,455.2545224426628
-0.2330107421875,0.0249287109375,0.9358447265625,0.9647387205034405,0.3642578125,0.24755859375,0.33642578125,39.82411764705883,454.09461625531605
-0.2427763671875,0.0288349609375,0.9436572265625,0.9748132029679616,0.373046875,0.20068359375,0.33740234375,40.01235294117648,454.09461625531605
-0.2559599609375,0.0351826171875,0.9500048828125,0.9845113486003504,0.35400390625,0.23193359375,0.353515625,39.91823529411765,454.09461625531605
-0.2544951171875,0.0478779296875,0.9734423828125,1.007298433176146,0.32421875,0.2353515625,0.3603515625,39.73,454.09461625531605
-0.2540068359375,0.0493427734375,0.9929736328125,1.0261339178949005,0.33349609375,0.27734375,0.37158203125,40.059411764705885,453.8571312435615
-0.2554716796875,0.0635029296875,1.0281298828125005,1.0612961213220813,0.33154296875,0.31298828125,0.36474609375,39.91823529411765,453.8571312435615
-0.2442412109375,0.0747333984375,1.0598681640625005,1.0902107021835044,0.32177734375,0.34228515625,0.29345703125,39.68294117647059,453.8571312435615
-0.2359404296875,0.0757099609375,1.0745166015625005,1.102717466797232,0.31982421875,0.3642578125,0.23193359375,40.01235294117648,453.8571312435615
-0.2374052734375,0.0825458984375,1.0779345703125005,1.1068504989742665,0.3095703125,0.32373046875,0.17822265625,39.91823529411765,453.8571312435615
-0.2417998046875,0.0820576171875,1.0681689453125005,1.098264764897528,0.27392578125,0.25537109375,0.11865234375,39.63588235294118,453.4826825483753
-0.2427763671875,0.0942646484375,1.0398486328125005,1.0719661223993189,0.23681640625,0.16162109375,0.07958984375,40.15352941176471,453.4826825483753
-0.2457060546875,0.1074482421875,1.0085986328125005,1.043641601398931,0.19775390625,0.12890625,0.04833984375,39.63588235294118,453.4826825483753
-0.2422880859375,0.1118427734375,0.9915087890625,1.0267920925609209,0.2255859375,0.13671875,0.009765625,39.82411764705883,453.4826825483753
-0.2461943359375,0.1152607421875,0.9856494140625,1.0224487552826644,0.24365234375,0.18896484375,0.01904296875,40.01235294117648,453.3142705040712
-0.2383818359375,0.1147724609375,0.9700244140625,1.005458095283876,0.2587890625,0.20703125,0.02294921875,40.24764705882353,453.3142705040712
-0.2349638671875,0.1006123046875,0.9646533203125,0.9979413224875332,0.28466796875,0.2255859375,0.109375,39.91823529411765,453.3142705040712
-0.2364287109375,0.0879169921875,0.9714892578125,1.0037028000937065,0.26904296875,0.26904296875,0.1728515625,39.82411764705883,453.3142705040712
-0.2496123046875,0.0703388671875,0.9768603515625,1.01069778140819,0.265625,0.28857421875,0.20947265625,39.91823529411765,453.3142705040712
-0.2623076171875,0.0713154296875,0.9851611328125,1.0219753588763798,0.28857421875,0.287109375,0.23876953125,39.73,454.2072026731146
-0.2740263671875,0.0825458984375,0.9905322265625,1.031047218667359,0.255859375,0.29052734375,0.20751953125,40.15352941176471,454.2072026731146
-0.2793974609375,0.0942646484375,0.9929736328125,1.0358307779672415,0.224609375,0.30419921875,0.1396484375,39.82411764705883,454.2072026731146
-0.2667021484375,0.1069599609375,1.0042041015625005,1.0445077054861196,0.19580078125,0.36181640625,0.09326171875,39.73,454.2072026731146
-0.2369169921875,0.1069599609375,0.9876025390625,1.021238889581483,0.18359375,0.431640625,0.10400390625,39.91823529411765,453.94236904297856
-0.2325224609375,0.1015888671875,0.9817431640625,1.0140052430635256,0.20556640625,0.388671875,0.1767578125,40.059411764705885,453.94236904297856
-0.2305693359375,0.1030537109375,0.9568408203125,0.9896093377838284,0.22412109375,0.251953125,0.24365234375,39.73,453.94236904297856
-0.2408232421875,0.0942646484375,0.9612353515625,0.9954170276905192,0.26513671875,0.2490234375,0.197265625,39.82411764705883,453.94236904297856
-0.2344755859375,0.0927998046875,0.9607470703125,0.9932902583156769,0.28369140625,0.2705078125,0.13671875,39.87117647058824,453.94236904297856
-0.2305693359375,0.1089130859375,0.9509814453125,0.9845760449511964,0.29345703125,0.3408203125,0.0302734375,39.73,453.4826825483753
-0.2232451171875,0.1235615234375,0.9387744140625,0.9728325821643964,0.2998046875,0.4091796875,-0.0751953125,40.059411764705885,453.4826825483753
-0.2198271484375,0.1367451171875,0.9407275390625,0.9757005201471266,0.318359375,0.50341796875,-0.09912109375,40.059411764705885,453.4826825483753
-0.2276396484375,0.1303974609375,0.9334033203125,0.9695695259908363,0.34375,0.5048828125,-0.03466796875,40.01235294117648,453.4826825483753
-0.2481474609375,0.1162373046875,0.9329150390625,0.9723264593127808,0.36181640625,0.49560546875,0.08984375,40.01235294117648,453.7760031538175
-0.3838896484375,0.0967060546875,0.9290087890625,1.009841895222248,0.25,0.51611328125,0.173828125,40.01235294117648,453.7760031538175
-0.2579130859375,0.0732685546875,0.9309619140625,0.9688021090185102,0.392578125,0.57763671875,0.2421875,40.01235294117648,453.7760031538175
-0.2584013671875,0.0693623046875,0.9309619140625,0.9686446620463276,0.35009765625,0.62939453125,0.26220703125,40.059411764705885,453.7760031538175
-0.2574248046875,0.0625263671875,0.9431689453125,0.9796656246209506,0.34521484375,0.69482421875,0.2333984375,39.91823529411765,453.7760031538175
-0.2623076171875,0.0742451171875,0.9573291015625,0.9953876793286288,0.31005859375,0.755859375,0.1796875,39.91823529411765,454.1199105226575
-0.2608427734375,0.0835224609375,0.9729541015625,1.0107693296113187,0.25634765625,0.80419921875,0.1064453125,39.73,454.1199105226575
-0.2681669921875,0.0898701171875,0.9822314453125,1.0221393182061185,0.16015625,0.8310546875,0.0615234375,39.87117647058824,454.1199105226575
-0.2813505859375,0.0835224609375,0.9876025390625,1.0302877893341875,0.10986328125,0.6943359375,0.0556640625,39.73,454.1199105226575
-0.2999052734375,0.0874287109375,0.9866259765625,1.034899884123929,0.08251953125,0.52294921875,0.08935546875,39.82411764705883,453.99410335738565
-0.3150419921875,0.0913349609375,0.9983447265625,1.0508500011828883,0.076171875,0.49609375,0.11181640625,39.82411764705883,453.99410335738565
-0.3394560546875,0.0923115234375,0.9954150390625,1.0557475694573744,0.115234375,0.07275390625,0.125,40.01235294117648,453.99410335738565
-0.3487333984375,0.1084248046875,1.0066455078125005,1.0708436393126577,0.15966796875,-0.01025390625,0.1171875,39.87117647058824,453.99410335738565
-0.3482451171875,0.1274677734375,1.0105517578125005,1.0764467242404443,0.1962890625,-0.02685546875,0.07666015625,39.87117647058824,453.99410335738565
-0.3287138671875,0.1367451171875,1.0007861328125005,1.062226396389105,0.23681640625,0.0341796875,0.025390625,40.01235294117648,453.5881992797277
-0.2925810546875,0.1308857421875,0.9924853515625,1.0429582561810238,0.21533203125,0.02685546875,0.01513671875,39.87117647058824,453.5881992797277
-0.2750029296875,0.1333271484375,0.9876025390625,1.0338092256358908,0.18994140625,0.044921875,-0.00537109375,40.01235294117648,453.5881992797277
-0.2496123046875,0.1294208984375,0.9793017578125,1.0188660385244117,0.20751953125,0.14697265625,-0.01953125,39.73,453.5881992797277
-0.2330107421875,0.1181904296875,0.9783251953125,1.012612053763793,0.22802734375,0.1953125,-0.01025390625,39.73,453.6308172618168
-0.2261748046875,0.1050068359375,0.9710009765625,1.002509039537481,0.3740234375,0.20166015625,0.033203125,39.87117647058824,453.6308172618168
-0.2217802734375,0.1035419921875,0.9705126953125,1.0009007571157602,0.2626953125,0.20068359375,0.06005859375,39.73,453.6308172618168
-0.2276396484375,0.0967060546875,0.9636767578125,0.9949094250744548,0.248046875,0.21240234375,0.10107421875,39.73,453.6308172618168
-0.2305693359375,0.0923115234375,0.9670947265625,0.9984767629639704,0.24072265625,0.23583984375,0.1396484375,39.82411764705883,453.6308172618168
-0.2452177734375,0.0742451171875,0.9597705078125,0.9933798475419636,0.1982421875,0.216796875,0.17138671875,39.87117647058824,453.5120773350486
-0.2559599609375,0.0649677734375,0.9529345703125,0.9888481220517245,0.15625,0.18310546875,0.21044921875,39.91823529411765,453.5120773350486
-0.2603544921875,0.0429951171875,0.9627001953125,0.9982107531773556,0.09619140625,0.15625,0.24169921875,40.20058823529412,453.5120773350486
-0.2686552734375,0.0425068359375,0.9695361328125,1.0069671294914315,0.06201171875,0.109375,0.2412109375,39.68294117647059,453.5120773350486
-0.2872099609375,0.0678974609375,0.9832080078125,1.0265464497479424,0.01611328125,0.09423828125,0.13525390625,39.73,454.5978610362033
-0.2745146484375,0.0825458984375,0.9905322265625,1.031177098957537,-0.0673828125,0.16455078125,0.01318359375,40.059411764705885,454.5978610362033
-0.2520537109375,0.1147724609375,0.9836962890625,1.0219403994863636,-0.1220703125,0.26123046875,-0.11572265625,40.01235294117648,454.5978610362033
-0.2417998046875,0.1279560546875,0.9807666015625,1.018205786773263,-0.17626953125,0.29443359375,-0.16552734375,40.15352941176471,454.5978610362033
-0.2408232421875,0.1211201171875,0.9651416015625,1.0020799508182172,-0.201171875,0.29150390625,-0.12060546875,40.01235294117648,454.5978610362033
-0.2330107421875,0.1108662109375,0.9641650390625,0.9980979637554622,-0.1318359375,0.22021484375,-0.10693359375,39.63588235294118,453.92504326717386
-0.2354521484375,0.1040302734375,0.9426806640625,0.977193351590478,-0.087890625,0.14404296875,-0.05029296875,40.01235294117648,453.92504326717386
-0.2476591796875,0.1108662109375,0.9387744140625,0.9772020192925892,-0.0302734375,0.03857421875,-0.03955078125,39.91823529411765,453.92504326717386
-0.2627958984375,0.1177021484375,0.9343798828125,0.977742934204629,-0.0107421875,0.04345703125,-0.0546875,39.91823529411765,453.92504326717386
-0.2525419921875,0.1255146484375,0.9543994140625,0.9951932608057914,0.0009765625,0.20556640625,-0.06982421875,39.87117647058824,454.3959199394769
-0.2403349609375,0.1216083984375,0.9651416015625,1.002021859584905,0.01806640625,0.36328125,-0.041015625,39.87117647058824,454.3959199394769
-0.2320341796875,0.1343037109375,0.9695361328125,1.0059212991799371,0.12451171875,0.47265625,-0.02587890625,39.91823529411765,454.3959199394769
-0.2232451171875,0.1240498046875,0.9622119140625,0.9955292582113736,-0.03173828125,0.5185546875,-0.02734375,39.91823529411765,454.3959199394769
-0.2281279296875,0.1137958984375,0.9426806640625,0.9765442607491064,-0.01171875,0.49267578125,0.060546875,40.15352941176471,454.3959199394769
-0.2359404296875,0.0923115234375,0.9304736328125,0.964349773204601,0.00390625,0.42236328125,0.11376953125,39.87117647058824,453.95854700281416
-0.2437529296875,0.0825458984375,0.9109423828125,0.946596715018708,0.01513671875,0.38525390625,0.17626953125,39.73,453.95854700281416
-0.2681669921875,0.0698505859375,0.9094775390625,0.9507586623922414,0.037109375,0.3193359375,0.26025390625,39.87117647058824,453.95854700281416
-0.2720732421875,0.0698505859375,0.9070361328125,0.9495354125558906,0.03515625,0.2626953125,0.29150390625,39.63588235294118,453.95854700281416
-0.2720732421875,0.0742451171875,0.9114306640625,0.95406605742685,-0.00439453125,0.24951171875,0.27685546875,39.91823529411765,454.5105675970537
-0.2637724609375,0.0796162109375,0.9290087890625,0.9690056668298912,-0.0390625,0.2890625,0.21142578125,39.82411764705883,454.5105675970537
-0.2613310546875,0.0766865234375,0.9485400390625,0.9868652130487224,-0.0849609375,0.32861328125,0.1904296875,39.91823529411765,454.5105675970537
-0.2584013671875,0.0810810546875,0.9612353515625,0.9986585027360904,-0.15771484375,0.3466796875,0.16162109375,40.01235294117648,454.5105675970537
-0.2603544921875,0.0879169921875,0.9573291015625,0.99598838739012,-0.1708984375,0.36376953125,0.10986328125,39.91823529411765,454.5105675970537
-0.2745146484375,0.0844990234375,0.9631884765625,1.0051021930885662,-0.19189453125,0.38671875,0.11767578125,40.01235294117648,453.97677936062337
-0.2740263671875,0.0864521484375,0.9627001953125,1.004667153806754,-0.1767578125,0.37841796875,0.08447265625,39.91823529411765,453.97677936062337
-0.2740263671875,0.0791279296875,0.9583056640625,0.999850701327392,-0.16796875,0.39794921875,0.1005859375,39.73,453.97677936062337
-0.2681669921875,0.0742451171875,0.9446337890625,0.9847633566312528,-0.1181640625,0.392578125,0.1005859375,39.91823529411765,453.97677936062337
-0.2696318359375,0.0737568359375,0.9338916015625,0.9748307141588788,-0.08935546875,0.365234375,0.11865234375,39.73,454.3197950423087
-0.2725615234375,0.0678974609375,0.9226611328125,0.9644705362338324,-0.05615234375,0.30419921875,0.15380859375,39.73,454.3197950423087
-0.2686552734375,0.0688740234375,0.9163134765625,0.9573660085778596,-0.0263671875,0.27392578125,0.15869140625,40.059411764705885,454.3197950423087
-0.2652373046875,0.0669208984375,0.9109423828125,0.951128413648592,-0.12451171875,0.2705078125,0.17041015625,40.15352941176471,454.3197950423087
-0.2618193359375,0.0625263671875,0.9187548828125,0.9573763345499148,-0.0322265625,0.283203125,0.18505859375,39.82411764705883,454.3197950423087
-0.2588896484375,0.0610615234375,0.9329150390625,0.9700942375983824,-0.0078125,0.302734375,0.2119140625,39.91823529411765,454.47706426984
-0.2613310546875,0.0591083984375,0.9431689453125,0.9804873187919472,-0.02294921875,0.38525390625,0.19384765625,39.73,454.47706426984
-0.2579130859375,0.0576435546875,0.9514697265625,0.9874900403850834,-0.01318359375,0.4345703125,0.1318359375,40.15352941176471,454.47706426984
-0.2603544921875,0.0586201171875,0.9568408203125,0.9933605262731076,-0.0107421875,0.4814453125,0.0771484375,39.91823529411765,454.47706426984
-0.2559599609375,0.0591083984375,0.9666064453125,1.0016672723457825,-0.0234375,0.466796875,0.0947265625,39.82411764705883,453.81541656366784
-0.2662138671875,0.0708271484375,0.9749072265625,1.0130796653977896,0.00390625,0.42724609375,0.08935546875,39.82411764705883,453.81541656366784
-0.2715849609375,0.0757099609375,0.9802783203125,1.020017634390346,0.001953125,0.353515625,0.0556640625,40.01235294117648,453.81541656366784
-0.2681669921875,0.0781513671875,0.9959033203125,1.0343329228549327,-0.00146484375,0.3515625,0.02490234375,39.73,453.81541656366784
-0.2618193359375,0.0918232421875,1.0027392578125005,1.0404166913477222,-0.001953125,0.35498046875,0.00439453125,40.15352941176471,453.81541656366784
-0.2574248046875,0.0986591796875,1.0056689453125005,1.042770919891308,0.01220703125,0.35009765625,-0.03515625,39.91823529411765,453.15380728157976
-0.2510771484375,0.1015888671875,1.0071337890625005,1.0429182621257214,0.02392578125,0.35693359375,-0.04638671875,39.82411764705883,453.15380728157976
-0.2505888671875,0.0986591796875,0.9949267578125,1.030731617593163,0.04736328125,0.3681640625,-0.04736328125,40.059411764705885,453.15380728157976
-0.2515654296875,0.0937763671875,0.9817431640625,1.0177911439191196,0.07470703125,0.3701171875,-0.0263671875,39.87117647058824,453.15380728157976
-0.2549833984375,0.0859638671875,0.9504931640625,0.9878479512911436,0.111328125,0.30712890625,0.017578125,39.91823529411765,453.0259571894361
-0.2647490234375,0.0801044921875,0.9338916015625,0.973992966375373,0.14208984375,0.26123046875,0.07958984375,39.91823529411765,453.0259571894361
-0.2696318359375,0.0713154296875,0.9109423828125,0.9526821307585522,0.17919921875,0.197265625,0.15625,39.91823529411765,453.0259571894361
-0.2735380859375,0.0610615234375,0.9114306640625,0.9535499197715184,0.19091796875,0.2109375,0.2216796875,39.91823529411765,453.0259571894361
-0.2779326171875,0.0503193359375,0.9187548828125,0.961191505350362,0.18896484375,0.2138671875,0.27001953125,39.91823529411765,453.0259571894361
-0.2823271484375,0.0547138671875,0.9417041015625,0.9846364003565464,0.18408203125,0.1982421875,0.29345703125,39.87117647058824,454.3380309971722
-0.2813505859375,0.0630146484375,0.9553759765625,0.997933993166796,0.17919921875,0.25537109375,0.236328125,39.87117647058824,454.3380309971722
-0.2784208984375,0.0713154296875,0.9651416015625,1.0070265131886476,0.14111328125,0.31640625,0.21728515625,39.73,454.3380309971722
-0.2647490234375,0.0683857421875,0.9851611328125,1.0224045739090049,0.1357421875,0.39501953125,0.2041015625,39.91823529411765,454.3380309971722
-0.2603544921875,0.0713154296875,0.9856494140625,1.0219467302924716,0.12841796875,0.45556640625,0.1826171875,39.82411764705883,453.7413456896148
-0.2491240234375,0.0708271484375,0.9749072265625,1.008723631334798,0.09521484375,0.462890625,0.15087890625,40.059411764705885,453.7413456896148
-0.2496123046875,0.0625263671875,0.9656298828125,0.9993282342781844,0.09375,0.48046875,0.13037109375,40.059411764705885,453.7413456896148
-0.2559599609375,0.0654560546875,0.9592822265625,0.994998686882092,0.1005859375,0.48095703125,0.1259765625,39.91823529411765,453.7413456896148
-0.2525419921875,0.0644794921875,0.9441455078125,0.9794619965334608,0.13330078125,0.42919921875,0.1005859375,39.87117647058824,453.7413456896148
-0.2579130859375,0.0727802734375,0.9460986328125,0.983320268838756,0.126953125,0.37939453125,0.08837890625,40.059411764705885,452.8443249048716
-0.2618193359375,0.0805927734375,0.9451220703125,0.9840225036008516,0.1064453125,0.29052734375,0.1103515625,40.01235294117648,452.8443249048716
-0.3829130859375,0.0835224609375,0.9485400390625,1.0263170263461112,0.2490234375,0.24267578125,0.08642578125,39.82411764705883,452.8443249048716
-0.2623076171875,0.0937763671875,0.9519580078125,0.9918786930445744,0.11376953125,0.26513671875,0.06103515625,39.63588235294118,452.8443249048716
-0.2559599609375,0.0932880859375,0.9690478515625,1.0066140805685693,0.11572265625,0.26220703125,0.05078125,39.82411764705883,453.7372422194464
-0.2603544921875,0.0849873046875,0.9710009765625,1.008885622875847,0.12255859375,0.2470703125,0.09814453125,39.91823529411765,453.7372422194464
-0.2676787109375,0.0849873046875,0.9627001953125,1.002829197970389,0.14013671875,0.22216796875,0.14306640625,40.15352941176471,453.7372422194464
-0.2754912109375,0.0903583984375,0.9607470703125,1.0035412201728695,0.14599609375,0.21826171875,0.171875,40.15352941176471,453.7372422194464
-0.2779326171875,0.1035419921875,0.9734423828125,1.0176234846437693,0.1689453125,0.24267578125,0.18359375,39.87117647058824,453.7372422194464
-0.2803740234375,0.1069599609375,0.9836962890625,1.0284495200920738,0.19091796875,0.32275390625,0.125,39.73,454.2821923829932
-0.2784208984375,0.1216083984375,1.0139697265625005,1.0585090484462143,0.21044921875,0.44580078125,0.0947265625,39.91823529411765,454.2821923829932
-0.2681669921875,0.1264912109375,1.0295947265625005,1.0714377551256236,0.37353515625,0.5703125,0.04541015625,40.059411764705885,454.2821923829932
-0.2623076171875,0.1347919921875,1.0359423828125005,1.0771029605844094,0.2861328125,0.66796875,0.01220703125,39.54176470588236,454.2821923829932
-0.2540068359375,0.1323505859375,1.0369189453125005,1.075749529141876,0.28759765625,0.63916015625,0.12451171875,40.059411764705885,453.0868003120714
-0.2637724609375,0.1338154296875,1.0232470703125005,1.0651371025715846,0.27978515625,0.5771484375,0.02783203125,39.82411764705883,453.0868003120714
-0.2544951171875,0.1372333984375,0.9968798828125,1.0379644844960971,0.271484375,0.486328125,0.07568359375,40.01235294117648,453.0868003120714
-0.2574248046875,0.1347919921875,0.9744189453125,1.0168228420969887,0.25341796875,0.36376953125,0.142578125,39.87117647058824,453.0868003120714
-0.2691435546875,0.1294208984375,0.9539111328125,0.9995671419598686,0.294921875,0.2958984375,0.18408203125,39.87117647058824,453.0868003120714
-0.2642607421875,0.1157490234375,0.9504931640625,0.9933120512798412,0.29931640625,0.26025390625,0.236328125,39.91823529411765,453.2775519239445
-0.2667021484375,0.1152607421875,0.9377978515625,0.9817738461916944,0.30322265625,0.2607421875,0.2548828125,40.01235294117648,453.2775519239445
-0.2681669921875,0.1118427734375,0.9426806640625,0.9864426876744532,0.25341796875,0.251953125,0.27783203125,40.059411764705885,453.2775519239445
-0.2618193359375,0.0967060546875,0.9456103515625,0.9859413586345438,0.22705078125,0.27392578125,0.3134765625,40.01235294117648,453.2775519239445
-0.2579130859375,0.0913349609375,0.9539111328125,0.9923747700797748,0.1708984375,0.26708984375,0.32666015625,40.059411764705885,454.0223660738432
-0.2647490234375,0.0844990234375,0.9578173828125,0.9973195421683004,0.11181640625,0.30322265625,0.3212890625,39.87117647058824,454.0223660738432
-0.2706083984375,0.0859638671875,0.9695361328125,1.0102569002960369,0.087890625,0.31396484375,0.31787109375,40.15352941176471,454.0223660738432
-0.2637724609375,0.0874287109375,0.9778369140625,1.0165553212435077,0.0546875,0.3701171875,0.3046875,40.20058823529412,454.0223660738432
-0.2549833984375,0.0835224609375,0.9836962890625,1.0196327398015066,0.0478515625,0.39990234375,0.25390625,40.24764705882353,454.0223660738432
-0.2505888671875,0.0844990234375,0.9802783203125,1.0153228307267113,0.03759765625,0.4599609375,0.24560546875,39.91823529411765,453.9056715619263
-0.2501005859375,0.0776630859375,0.9744189453125,1.0089966000872062,0.0390625,0.48876953125,0.23876953125,39.91823529411765,453.9056715619263
-0.2540068359375,0.0654560546875,0.9651416015625,1.000151128012592,0.0390625,0.46337890625,0.205078125,39.91823529411765,453.9056715619263
-0.2564482421875,0.0591083984375,0.9504931640625,0.986253901698973,0.0517578125,0.4306640625,0.17578125,39.87117647058824,453.9056715619263
-0.2574248046875,0.0659443359375,0.9373095703125,0.9742512079079187,0.0322265625,0.42431640625,0.15966796875,39.91823529411765,453.9147892866371
-0.1353544921875,0.0478779296875,0.9211962890625,0.932317401794592,0.0078125,0.39404296875,0.17431640625,39.82411764705883,453.9147892866371
-0.2701201171875,0.0346943359375,0.9168017578125,0.956396381101279,-0.125,0.32080078125,0.2197265625,39.68294117647059,453.9147892866371
-0.2681669921875,0.0371357421875,0.9177783203125,0.9568749365942976,0.0146484375,0.30615234375,0.21826171875,40.20058823529412,453.9147892866371
-0.2715849609375,0.0302998046875,0.9163134765625,0.9561939429329068,-0.01904296875,0.27099609375,0.25244140625,40.15352941176471,453.9147892866371
-0.2710966796875,0.0332294921875,0.9221728515625,0.9617693991012288,-0.02978515625,0.2763671875,0.205078125,39.82411764705883,454.1299435595823
-0.2686552734375,0.0400654296875,0.9338916015625,0.9725915988074302,-0.03369140625,0.32373046875,0.17138671875,39.91823529411765,454.1299435595823
-0.2657255859375,0.0454365234375,0.9377978515625,0.9757762935627996,-0.0703125,0.33642578125,0.16064453125,40.01235294117648,454.1299435595823
-0.2671904296875,0.0439716796875,0.9387744140625,0.9770474066438748,-0.10205078125,0.3232421875,0.19140625,40.24764705882353,454.1299435595823
-0.2725615234375,0.0454365234375,0.9529345703125,0.9921887708583113,-0.0908203125,0.3125,0.18212890625,39.73,454.08732234327965
-0.2715849609375,0.0576435546875,0.9617236328125,1.000996261888378,-0.0751953125,0.30615234375,0.17431640625,39.87117647058824,454.08732234327965
-0.2706083984375,0.0674091796875,0.9700244140625,1.0093167325910866,-0.07568359375,0.35693359375,0.12353515625,40.01235294117648,454.08732234327965
-0.2632841796875,0.0732685546875,0.9763720703125,1.013898052106834,-0.06396484375,0.37646484375,0.0966796875,39.91823529411765,454.08732234327965
-0.2593779296875,0.0810810546875,0.9856494140625,1.0224264351433607,-0.021484375,0.38720703125,0.0458984375,39.63588235294118,454.08732234327965
-0.2574248046875,0.0898701171875,0.9724658203125,1.0099672963555582,-0.05322265625,0.4990234375,0.01025390625,40.20058823529412,453.8721687356977
-0.2579130859375,0.0854755859375,0.9734423828125,1.010650932985688,-0.04541015625,0.3544921875,-0.00146484375,40.01235294117648,453.8721687356977
-0.2671904296875,0.0820576171875,0.9504931640625,0.9907378226274718,-0.03125,0.310546875,0.0263671875,39.82411764705883,453.8721687356977
-0.2671904296875,0.0844990234375,0.9451220703125,0.9857923404400484,-0.00927734375,0.23388671875,0.05859375,40.20058823529412,453.8721687356977
-0.2681669921875,0.0825458984375,0.9431689453125,0.9840198272644908,0.01416015625,0.16748046875,0.10888671875,39.68294117647059,454.0020804268646
-0.2759794921875,0.0854755859375,0.9636767578125,1.0060535022788009,0.033203125,0.11865234375,0.1552734375,40.15352941176471,454.0020804268646
-0.2730498046875,0.1054951171875,0.9788134765625,1.0216463367969633,0.06298828125,0.17236328125,0.126953125,40.01235294117648,454.0020804268646
-0.2574248046875,0.1137958984375,0.9846728515625,1.0241082272757214,0.0712890625,0.28076171875,0.0859375,40.059411764705885,454.0020804268646
-0.2525419921875,0.1142841796875,0.9876025390625,1.0257665946537609,0.10498046875,0.34423828125,0.06103515625,40.059411764705885,454.0020804268646
-0.2496123046875,0.1045185546875,0.9724658203125,1.009415772910961,0.14404296875,0.30224609375,0.12646484375,40.15352941176471,453.8295483568201
-0.2510771484375,0.0981708984375,0.9436572265625,0.981410322449872,0.17626953125,0.1728515625,0.21484375,39.87117647058824,453.8295483568201
-0.2627958984375,0.0918232421875,0.9314501953125,0.9721587619257934,0.27294921875,0.0556640625,0.28173828125,39.91823529411765,453.8295483568201
-0.2750029296875,0.0786396484375,0.9309619140625,0.973910104207773,0.3134765625,0.02783203125,0.3310546875,39.82411764705883,453.8295483568201
-0.2764677734375,0.0820576171875,0.9338916015625,0.9774054459419338,0.33984375,0.03515625,0.31494140625,39.91823529411765,453.8833363304292
-0.2759794921875,0.0884052734375,0.9456103515625,0.9890192664765356,0.35546875,0.0888671875,0.29833984375,39.82411764705883,453.8833363304292
-0.2632841796875,0.0796162109375,0.9573291015625,0.9960603942614262,0.4970703125,0.1806640625,0.29150390625,40.01235294117648,453.8833363304292
-0.2413115234375,0.0781513671875,0.9451220703125,0.9785676345193464,0.32763671875,0.18408203125,0.30859375,39.91823529411765,453.8833363304292
-0.2305693359375,0.0766865234375,0.9553759765625,0.9857922185452372,0.29541015625,0.23828125,0.30859375,39.87117647058824,453.8833363304292
-0.2227568359375,0.0678974609375,0.9451220703125,0.9733891313089704,0.22509765625,0.24462890625,0.27880859375,39.91823529411765,454.1593486649055
-0.2295927734375,0.0586201171875,0.9573291015625,0.9862191280097252,0.177734375,0.25341796875,0.29248046875,39.87117647058824,454.1593486649055
-0.2320341796875,0.0381123046875,0.9534228515625,0.981991620225658,0.16015625,0.2412109375,0.3212890625,40.01235294117648,454.1593486649055
-0.2505888671875,0.0459248046875,0.9563525390625,0.989704019904532,0.12646484375,0.20263671875,0.37109375,39.82411764705883,454.1593486649055
-0.2642607421875,0.0532490234375,0.9602587890625,0.9973796370140684,0.09716796875,0.18798828125,0.376953125,39.91823529411765,453.7960456395457
-0.2593779296875,0.0644794921875,0.9841845703125,1.0198302720369363,0.0830078125,0.1904296875,0.361328125,40.059411764705885,453.7960456395457
-0.2510771484375,0.0698505859375,0.9851611328125,1.019049211975421,0.03369140625,0.263671875,0.3115234375,40.20058823529412,453.7960456395457
-0.2413115234375,0.0722919921875,0.9871142578125,1.0187501859901118,0.0390625,0.28515625,0.232421875,39.91823529411765,453.7960456395457
-0.2354521484375,0.0644794921875,0.9636767578125,0.9941168003130236,0.0029296875,0.25341796875,0.22509765625,40.15352941176471,453.7960456395457
-0.2378935546875,0.0620380859375,0.9451220703125,0.9765745210993524,0.0302734375,0.2119140625,0.203125,39.91823529411765,453.82749849690833
-0.2525419921875,0.0615498046875,0.9368212890625,0.9722139496611972,0.0517578125,0.1865234375,0.20751953125,39.91823529411765,453.82749849690833
-0.2588896484375,0.0678974609375,0.9294970703125,0.9672635209648776,0.09375,0.17626953125,0.18017578125,39.91823529411765,453.82749849690833
-0.2632841796875,0.0737568359375,0.9421923828125,0.9810632580782586,0.1064453125,0.2431640625,0.12353515625,40.059411764705885,453.82749849690833
-0.2447294921875,0.0732685546875,0.9534228515625,0.9870541724413692,0.12451171875,0.3173828125,0.1025390625,39.91823529411765,454.4779926240938
-0.2422880859375,0.0766865234375,0.9524462890625,0.9857678595963224,0.11767578125,0.3349609375,0.140625,40.01235294117648,454.4779926240938
-0.2408232421875,0.0771748046875,0.9534228515625,0.9863908547517166,0.119140625,0.33251953125,0.18115234375,40.059411764705885,454.4779926240938
-0.2408232421875,0.0796162109375,0.9460986328125,0.9795086513305666,0.10595703125,0.26904296875,0.23828125,40.15352941176471,454.4779926240938
-0.2457060546875,0.0781513671875,0.9514697265625,0.9857858500040924,0.10498046875,0.205078125,0.2724609375,39.91823529411765,454.4779926240938
-0.2544951171875,0.0786396484375,0.9695361328125,1.0054612234231963,0.1318359375,0.12744140625,0.30322265625,40.01235294117648,453.7513755460235
-0.2632841796875,0.0835224609375,0.9846728515625,1.0226803925758043,0.14306640625,0.279296875,0.33837890625,40.57705882352941,453.7513755460235
-0.2637724609375,0.1025654296875,0.9924853515625,1.0320478436497726,0.17626953125,0.30859375,0.29052734375,39.91823529411765,453.7513755460235
-0.2564482421875,0.1084248046875,1.0081103515625005,1.045852819530573,0.16552734375,0.375,0.2529296875,40.059411764705885,453.7513755460235
-0.2359404296875,0.1157490234375,0.9993212890625,1.0332999378502807,0.1484375,0.37939453125,0.20849609375,39.91823529411765,453.7757605578406
-0.2291044921875,0.1123310546875,0.9841845703125,1.016723365832073,0.1396484375,0.30810546875,0.2373046875,39.91823529411765,453.7757605578406
-0.2359404296875,0.1113544921875,0.9573291015625,0.9922432756083166,0.166015625,0.2255859375,0.275390625,39.82411764705883,453.7757605578406
-0.2369169921875,0.1152607421875,0.9485400390625,0.9844505602525068,0.142578125,0.16748046875,0.27978515625,39.91823529411765,453.7757605578406
-0.2422880859375,0.1103779296875,0.9421923828125,0.9790879889873294,0.1884765625,0.1669921875,0.2861328125,39.87117647058824,453.7757605578406
-0.2525419921875,0.1040302734375,0.9519580078125,0.9903654902347196,0.197265625,0.193359375,0.2822265625,39.82411764705883,453.9624309084424
-0.2569365234375,0.0986591796875,0.9705126953125,1.0087838730746508,0.20947265625,0.2255859375,0.31298828125,40.01235294117648,453.9624309084424
-0.2588896484375,0.0957294921875,0.9719775390625,1.0104099772788089,0.2001953125,0.27685546875,0.34375,39.63588235294118,453.9624309084424
-0.2608427734375,0.0893818359375,1.0037158203125005,1.0409003376864283,0.19873046875,0.2978515625,0.36474609375,40.059411764705885,453.9624309084424
-0.2637724609375,0.0820576171875,1.0012744140625005,1.0386817683697536,0.2001953125,0.291015625,0.3515625,40.01235294117648,453.9086422026337
-0.2608427734375,0.0849873046875,1.0217822265625005,1.0579700907547591,0.185546875,0.29736328125,0.33642578125,39.73,453.9086422026337
-0.2598662109375,0.0771748046875,1.0071337890625005,1.0429788430917264,0.14892578125,0.3583984375,0.296875,39.91823529411765,453.9086422026337
-0.2559599609375,0.0820576171875,0.9998095703125,1.0353106447004603,0.12744140625,0.3671875,0.30517578125,40.01235294117648,453.9086422026337
-0.2671904296875,0.0854755859375,0.9949267578125,1.0337195243001087,0.126953125,0.34765625,0.29150390625,39.87117647058824,453.9086422026337
-0.2662138671875,0.0869404296875,0.9910205078125,1.029830135654476,0.11962890625,0.25927734375,0.29541015625,39.68294117647059,453.50272330653
-0.2525419921875,0.0825458984375,0.9993212890625,1.0340378725851496,0.07373046875,0.2216796875,0.27587890625,39.91823529411765,453.50272330653
-0.2540068359375,0.0898701171875,0.9983447265625,1.034063974675372,0.0380859375,0.21240234375,0.22314453125,40.01235294117648,453.50272330653
-0.2486357421875,0.0879169921875,0.9851611328125,1.0198488061535564,0.02880859375,0.25390625,0.17822265625,39.91823529411765,453.50272330653
-0.2432646484375,0.0732685546875,0.9734423828125,1.0060497219029951,0.0048828125,0.2861328125,0.15869140625,39.91823529411765,454.3034075198638
-0.2437529296875,0.0757099609375,0.9509814453125,0.9846386130175114,0.00830078125,0.2724609375,0.1396484375,39.87117647058824,454.3034075198638
-0.2501005859375,0.0639912109375,0.9460986328125,0.9806874125699842,0.0185546875,0.271484375,0.1708984375,39.91823529411765,454.3034075198638
-0.2598662109375,0.0605732421875,0.9407275390625,0.977838364969746,-0.00390625,0.2861328125,0.1923828125,40.01235294117648,454.3034075198638
-0.2603544921875,0.0664326171875,0.9392626953125,0.9769402054549164,0.01806640625,0.35595703125,0.21630859375,39.73,454.3034075198638
-0.2564482421875,0.0644794921875,0.9436572265625,0.9800062586929974,0.0390625,0.35107421875,0.2373046875,39.91823529411765,454.4850672987575
-0.2515654296875,0.0591083984375,0.9368212890625,0.9718091869397136,0.064453125,0.380859375,0.2431640625,39.73,454.4850672987575
-0.2549833984375,0.0527607421875,0.9421923828125,0.9775104682942324,0.0703125,0.36083984375,0.29931640625,40.01235294117648,454.4850672987575
-0.2637724609375,0.0508076171875,0.9407275390625,0.9783279756113918,0.07177734375,0.34765625,0.35009765625,40.01235294117648,454.4850672987575
-0.2686552734375,0.0537373046875,0.9495166015625,0.9882535760135932,0.07861328125,0.31005859375,0.35400390625,40.01235294117648,453.8548536714644
-0.2627958984375,0.0556904296875,0.9636767578125,1.0004179135453155,0.05908203125,0.31884765625,0.30517578125,39.91823529411765,453.8548536714644
-0.2579130859375,0.0600849609375,0.9646533203125,1.0003426367093406,0.02685546875,0.32275390625,0.29052734375,40.01235294117648,453.8548536714644
-0.2598662109375,0.0669208984375,0.9768603515625,1.013047383240047,0.02734375,0.3583984375,0.26171875,39.82411764705883,453.8548536714644
-0.2520537109375,0.0708271484375,0.9895556640625,1.023605378273936,0.017578125,0.38134765625,0.25830078125,39.91823529411765,453.8548536714644
-0.2564482421875,0.0722919921875,0.9919970703125,1.027156278549705,0.0234375,0.35400390625,0.27978515625,39.91823529411765,453.4286517197768
-0.2715849609375,0.0776630859375,0.9963916015625,1.0356573610944129,0.0390625,0.32080078125,0.2958984375,40.059411764705885,453.4286517197768
-0.2754912109375,0.0776630859375,0.9939501953125,1.034342280380582,0.03173828125,0.2734375,0.27783203125,39.73,453.4286517197768
-0.2642607421875,0.0820576171875,0.9919970703125,1.0298666806478214,0.0322265625,0.25439453125,0.25390625,39.73,453.4286517197768
-0.2544951171875,0.0820576171875,0.9885791015625,1.0241044171650122,0.0439453125,0.21728515625,0.22998046875,39.63588235294118,454.2069949709105
-0.2544951171875,0.0898701171875,0.9822314453125,1.0186378231718365,0.01513671875,0.232421875,0.197265625,39.91823529411765,454.2069949709105
-0.2544951171875,0.0937763671875,0.9763720703125,1.0133430768508174,0.0322265625,0.2109375,0.1923828125,40.15352941176471,454.2069949709105
-0.2603544921875,0.0981708984375,0.9763720703125,1.015245983291022,0.0146484375,0.22119140625,0.18603515625,39.91823529411765,454.2069949709105
-0.2598662109375,0.1006123046875,1.0862353515625005,1.1214100598914083,0.0,0.18896484375,0.18994140625,40.059411764705885,454.2069949709105
-0.2530302734375,0.1094013671875,0.9622119140625,1.0009219479970306,0.00732421875,0.17431640625,0.171875,39.82411764705883,454.11058310139407
-0.2466826171875,0.1142841796875,0.9602587890625,0.9980030707974292,0.04248046875,0.1650390625,0.17431640625,39.82411764705883,454.11058310139407
-0.2471708984375,0.1152607421875,0.9597705078125,0.9977664653568382,0.05517578125,0.1171875,0.1708984375,40.01235294117648,454.11058310139407
-0.2564482421875,0.1235615234375,0.9519580078125,0.9936081720847502,0.0869140625,0.13134765625,0.1904296875,39.91823529411765,454.11058310139407
-0.2461943359375,0.1167255859375,0.9534228515625,0.9915904635189512,0.10888671875,0.10107421875,0.236328125,39.91823529411765,453.8954267307788
-0.2496123046875,0.1230732421875,0.9573291015625,0.996961551060226,0.0,0.0927734375,0.2861328125,39.91823529411765,453.8954267307788
-0.2603544921875,0.1255146484375,0.9534228515625,0.9962698040471614,0.14501953125,0.1044921875,0.28515625,40.059411764705885,453.8954267307788
-0.2486357421875,0.1201435546875,0.9651416015625,1.0038687748369828,0.15966796875,0.14111328125,0.283203125,39.87117647058824,453.8954267307788
-0.2466826171875,0.1211201171875,0.9666064453125,1.0049131387984016,0.1611328125,0.1513671875,0.28271484375,40.01235294117648,453.8954267307788
-0.2442412109375,0.1303974609375,0.9631884765625,1.002192251178362,0.14111328125,0.1572265625,0.2705078125,40.01235294117648,454.0659137971976
-0.2344755859375,0.1289326171875,0.9651416015625,1.0015491656639628,0.13720703125,0.20458984375,0.2734375,39.91823529411765,454.0659137971976
-0.2413115234375,0.1279560546875,0.9607470703125,0.9988187705429696,0.24853515625,0.22119140625,0.24365234375,39.91823529411765,454.0659137971976
-0.2427763671875,0.1245380859375,0.9543994140625,0.9926370640252052,0.14697265625,0.20263671875,0.26123046875,39.73,454.0659137971976
-0.2408232421875,0.1162373046875,0.9480517578125,0.9850426795170274,0.1162109375,0.166015625,0.287109375,40.059411764705885,454.1805674162098
-0.2432646484375,0.1030537109375,0.9324267578125,0.9691323001541848,0.00048828125,0.1435546875,0.2451171875,40.059411764705885,454.1805674162098
-0.2486357421875,0.0986591796875,0.9246142578125,0.9625304627802176,0.119140625,0.1494140625,0.25537109375,40.059411764705885,454.1805674162098
-0.2413115234375,0.0893818359375,0.9251025390625,0.9602265731165588,0.09912109375,0.14990234375,0.283203125,40.24764705882353,454.1805674162098
-0.2388701171875,0.0781513671875,0.9168017578125,0.9506271783441368,0.0625,0.18017578125,0.30615234375,39.87117647058824,454.1805674162098
-0.2417998046875,0.0761982421875,0.9285205078125,0.9625090394836616,0.0263671875,0.2109375,0.33740234375,39.87117647058824,454.45864184914
-0.2383818359375,0.0678974609375,0.9377978515625,0.9700003996400896,0.0205078125,0.22705078125,0.3369140625,40.059411764705885,454.45864184914
-0.2325224609375,0.0678974609375,0.9587939453125,0.9889199106146564,0.0439453125,0.2802734375,0.34033203125,39.87117647058824,454.45864184914
-0.2388701171875,0.0659443359375,0.9627001953125,0.9940821165186172,0.02099609375,0.3203125,0.3125,39.82411764705883,454.45864184914
-0.2266630859375,0.0659443359375,0.9627001953125,0.9912196910996444,0.00927734375,0.275390625,0.32275390625,39.58882352941177,454.088248421269
-0.2388701171875,0.0649677734375,0.9539111328125,0.9855080891470264,-0.02001953125,0.2314453125,0.330078125,40.059411764705885,454.088248421269
-0.2383818359375,0.0610615234375,0.9485400390625,0.9799401078913602,-0.0146484375,0.2001953125,0.3310546875,40.059411764705885,454.088248421269
-0.2461943359375,0.0571552734375,0.9426806640625,0.9759739805582616,-0.0244140625,0.14208984375,0.3134765625,40.20058823529412,454.088248421269
-0.2515654296875,0.0610615234375,0.9417041015625,0.9766372355987664,-0.0224609375,0.001953125,0.326171875,39.91823529411765,454.088248421269
-0.2398466796875,0.0635029296875,0.9500048828125,0.9818698127570712,-0.0439453125,0.15380859375,0.29296875,40.059411764705885,454.1602791242278
-0.2466826171875,0.0674091796875,0.9558642578125,0.9894810713156962,-0.02783203125,0.14990234375,0.30224609375,39.73,454.1602791242278
-0.2437529296875,0.0805927734375,0.9710009765625,1.0043672547165785,-0.0625,0.162109375,0.24462890625,39.91823529411765,454.1602791242278
-0.2334990234375,0.0884052734375,0.9812548828125,1.0125208300875586,-0.06787109375,0.21728515625,0.1943359375,39.91823529411765,454.1602791242278
-0.2291044921875,0.0932880859375,0.9836962890625,1.0143223966933337,-0.07275390625,0.23876953125,0.13134765625,39.96529411764706,454.4636760195555
-0.2271513671875,0.0942646484375,0.9749072265625,1.0054489882455409,-0.08349609375,0.2666015625,0.091796875,39.82411764705883,454.4636760195555
-0.2305693359375,0.0879169921875,0.9553759765625,0.98672938173681,-0.0498046875,0.23291015625,0.07568359375,40.15352941176471,454.4636760195555
-0.2339873046875,0.0913349609375,0.9387744140625,0.9717970643826652,-0.06298828125,0.18603515625,0.1005859375,39.73,454.4636760195555
-0.2398466796875,0.0830341796875,0.9343798828125,0.9682390563069616,-0.02197265625,0.16162109375,0.13232421875,39.87117647058824,454.4636760195555
-0.2466826171875,0.0815693359375,0.9270556640625,0.9627762328070436,-0.03271484375,0.130859375,0.16552734375,40.01235294117648,454.2079325497231
-0.2413115234375,0.0815693359375,0.9294970703125,0.9637684429511753,-0.015625,0.1591796875,0.193359375,39.82411764705883,454.2079325497231
-0.2422880859375,0.0830341796875,0.9407275390625,0.9749699966328302,0.0146484375,0.13427734375,0.2099609375,39.68294117647059,454.2079325497231
-0.2315458984375,0.0840107421875,0.9495166015625,0.9809449956694428,0.03369140625,0.193359375,0.23388671875,39.87117647058824,454.2079325497231
-0.2227568359375,0.0879169921875,0.9670947265625,0.9963042786303692,0.04052734375,0.2470703125,0.2734375,39.87117647058824,454.1561873859447
-0.2256865234375,-0.0322001953125,0.9812548828125,1.0073889042881312,0.0654296875,0.30224609375,0.2841796875,40.01235294117648,454.1561873859447
-0.2203154296875,0.0976826171875,0.9773486328125,1.0066236299230464,0.03759765625,0.30078125,0.33203125,39.91823529411765,454.1561873859447
-0.2232451171875,0.0908466796875,0.9812548828125,1.0104220141117657,0.01806640625,0.2802734375,0.34423828125,40.01235294117648,454.1561873859447
-0.2242216796875,0.0903583984375,0.9895556640625,1.018656180508541,0.00634765625,0.25244140625,0.32421875,40.20058823529412,454.1561873859447
-0.2315458984375,0.0937763671875,0.9915087890625,1.0224955691416462,-0.01806640625,0.2158203125,0.28076171875,39.82411764705883,453.81520861997313
-0.2344755859375,0.1035419921875,0.9861376953125,1.018904950750137,-0.03271484375,0.24365234375,0.22021484375,39.87117647058824,453.81520861997313
-0.2310576171875,0.1030537109375,0.9797900390625,1.0119269788104528,-0.0380859375,0.25439453125,0.146484375,39.91823529411765,453.81520861997313
-0.2281279296875,0.1094013671875,0.9788134765625,1.0109831024039757,-0.05810546875,0.251953125,0.12841796875,39.82411764705883,453.81520861997313
-0.2291044921875,0.1103779296875,0.9631884765625,0.9961948589936512,-0.03955078125,0.267578125,0.1474609375,40.01235294117648,453.7502527430301
-0.2286162109375,0.1069599609375,0.9583056640625,0.9909871598166348,-0.04638671875,0.19921875,0.208984375,39.58882352941177,453.7502527430301
-0.2281279296875,0.0981708984375,0.9641650390625,0.9956375345244488,-0.02490234375,0.18505859375,0.2373046875,40.01235294117648,453.7502527430301
-0.2305693359375,0.0947529296875,0.9524462890625,0.9845274348173094,0.0029296875,0.203125,0.2353515625,39.91823529411765,453.7502527430301
-0.2320341796875,0.0844990234375,0.9504931640625,0.9820474532499358,0.03369140625,0.18310546875,0.20166015625,39.82411764705883,453.7502527430301
-0.2212919921875,0.0864521484375,0.9436572265625,0.973104866404131,0.05029296875,0.22802734375,0.21484375,40.15352941176471,454.3246364725948
-0.2193388671875,0.0840107421875,0.9255908203125,0.9549270705707096,0.0419921875,0.2138671875,0.25927734375,39.91823529411765,454.3246364725948
-0.2203154296875,0.0732685546875,0.9260791015625,0.9547406307553848,0.05126953125,0.1572265625,0.34033203125,40.01235294117648,454.3246364725948
-0.2383818359375,0.0786396484375,0.9192431640625,0.952899831402516,0.05419921875,0.0859375,0.388671875,40.01235294117648,454.3246364725948
-0.2447294921875,0.0727802734375,0.9290087890625,0.9634556672226084,0.05322265625,0.09326171875,0.4306640625,39.91823529411765,454.4119286877682
-0.2432646484375,0.0727802734375,0.9363330078125,0.970151616449852,0.06201171875,0.08642578125,0.4287109375,39.87117647058824,454.4119286877682
-0.2544951171875,0.0698505859375,0.9475634765625,0.9836276791262551,0.0400390625,0.11328125,0.39404296875,40.01235294117648,454.4119286877682
-0.2540068359375,0.0742451171875,0.9519580078125,0.9880566070663712,0.02099609375,0.1376953125,0.373046875,40.059411764705885,454.4119286877682
-0.2540068359375,0.0820576171875,0.9617236328125,0.9980807938997436,0.017578125,0.17578125,0.30859375,39.82411764705883,454.4119286877682
-0.2403349609375,0.0796162109375,0.9631884765625,0.9959074635103724,-0.0126953125,0.18896484375,0.27880859375,40.059411764705885,454.6453421195724
-0.2413115234375,0.0830341796875,0.9597705078125,0.9931190029431354,-0.01123046875,0.216796875,0.224609375,39.87117647058824,454.6453421195724
-0.2232451171875,0.0737568359375,0.9553759765625,0.9838809428931544,-0.12451171875,0.20361328125,0.2451171875,39.73,454.6453421195724
-0.2281279296875,0.0727802734375,0.9358447265625,0.9659941370111844,0.12451171875,0.16845703125,0.373046875,40.01235294117648,454.6453421195724
-0.2417998046875,0.0718037109375,0.9280322265625,0.9616999178485256,0.03857421875,0.1259765625,0.2509765625,40.01235294117648,454.0262732671807
-0.2422880859375,0.0727802734375,0.9216845703125,0.9557734731310724,0.068359375,0.10302734375,0.27099609375,39.91823529411765,454.0262732671807
-0.2408232421875,0.0722919921875,0.9329150390625,0.9662051729426432,0.0732421875,0.09716796875,0.28369140625,39.63588235294118,454.0262732671807
-0.2334990234375,0.0737568359375,0.9524462890625,0.983420458574411,0.087890625,0.1435546875,0.31298828125,39.91823529411765,454.0262732671807
-0.2320341796875,0.0708271484375,0.9753955078125,1.00511329817083,0.099609375,0.21240234375,0.32080078125,39.87117647058824,454.0262732671807
-0.2364287109375,0.0683857421875,0.9856494140625,1.0159133390855013,0.09619140625,0.228515625,0.35400390625,39.91823529411765,454.2688014945528
-0.2359404296875,0.0639912109375,1.0007861328125005,1.030211456482682,0.095703125,0.1845703125,0.373046875,39.91823529411765,454.2688014945528
-0.2354521484375,0.0586201171875,1.0071337890625005,1.0359500477408643,0.08251953125,0.1796875,0.357421875,39.91823529411765,454.2688014945528
-0.2393583984375,0.0605732421875,1.0227587890625005,1.0521392974203856,0.072265625,0.14794921875,0.341796875,39.91823529411765,454.2688014945528
-0.2457060546875,0.0649677734375,1.0173876953125005,1.0486515147887807,0.0283203125,0.16064453125,0.3466796875,40.01235294117648,453.8943144776301
-0.2330107421875,0.0639912109375,1.0271533203125005,1.0551932640426638,0.0322265625,0.21337890625,0.29248046875,40.059411764705885,453.8943144776301
-0.2408232421875,0.0732685546875,1.0305712890625005,1.0608681807480316,0.01318359375,0.2490234375,0.2255859375,39.91823529411765,453.8943144776301
-0.2359404296875,0.0879169921875,1.0208056640625005,1.0513997753749529,0.0009765625,0.34765625,0.15283203125,39.87117647058824,453.8943144776301
-0.2286162109375,0.0796162109375,1.0237353515625005,1.051968717684257,-0.0205078125,0.25,0.1298828125,39.87117647058824,453.8943144776301
-0.2100615234375,0.0888935546875,0.9959033203125,1.0216904282136174,-0.03369140625,0.42041015625,0.13623046875,39.82411764705883,454.259678596586
-0.2095732421875,0.0869404296875,0.9900439453125,1.0157098974634284,-0.00390625,0.40673828125,0.15625,40.01235294117648,454.259678596586
-0.2144560546875,0.0830341796875,0.9846728515625,1.011170954385424,0.01708984375,0.439453125,0.16796875,40.059411764705885,454.259678596586
-0.2266630859375,0.0815693359375,0.9900439453125,1.0189292049705592,0.01806640625,0.39990234375,0.17041015625,40.01235294117648,454.259678596586
-0.2217802734375,0.0786396484375,0.9895556640625,1.017148512396573,0.02978515625,0.43896484375,0.1103515625,40.15352941176471,454.30025857869873
-0.2247099609375,0.0840107421875,0.9959033203125,1.0243904503444423,0.03173828125,0.54052734375,0.06689453125,40.01235294117648,454.30025857869873
-0.2105498046875,0.0805927734375,0.9954150390625,1.020626040906311,0.00439453125,0.61083984375,0.03759765625,39.87117647058824,454.30025857869873
-0.2120146484375,0.0796162109375,0.9685595703125,0.9946841676834188,-0.02734375,0.56689453125,0.07275390625,39.91823529411765,454.30025857869873
-0.2261748046875,0.0761982421875,0.9641650390625,0.993265038616726,-0.0419921875,0.50634765625,0.1064453125,39.82411764705883,454.30025857869873
-0.2349638671875,0.0757099609375,0.9558642578125,0.9872266692266292,-0.08154296875,0.4228515625,0.15380859375,39.82411764705883,454.5204636990212
-0.2422880859375,0.0703388671875,0.9597705078125,0.9923761889984776,-0.103515625,0.35302734375,0.197265625,39.73,454.5204636990212
-0.2486357421875,0.0615498046875,0.9543994140625,0.9881732400308368,-0.10107421875,0.31201171875,0.22802734375,39.91823529411765,454.5204636990212
-0.2471708984375,0.0595966796875,0.9426806640625,0.9763667608340072,-0.0703125,0.34765625,0.2412109375,39.73,454.5204636990212
-0.2491240234375,0.0659443359375,0.9260791015625,0.9612668395647138,-0.07763671875,0.35986328125,0.251953125,40.059411764705885,454.8026350487786
-0.2452177734375,0.0678974609375,0.9280322265625,0.96228147397212,-0.0771484375,0.3251953125,0.27587890625,40.059411764705885,454.8026350487786
-0.2295927734375,0.0649677734375,0.9255908203125,0.955851463276024,-0.06640625,0.32763671875,0.294921875,40.01235294117648,454.8026350487786
-0.2178740234375,0.0620380859375,0.9377978515625,0.9647707627156172,-0.0537109375,0.29931640625,0.31103515625,39.91823529411765,454.8026350487786
-0.2115263671875,0.0600849609375,0.9397509765625,0.9651349669847086,-0.041015625,0.36181640625,0.3056640625,40.01235294117648,454.8026350487786
-0.2198271484375,0.0503193359375,0.9397509765625,0.966430498644122,-0.0029296875,0.3447265625,0.31494140625,39.91823529411765,454.7376753118039
-0.2334990234375,0.0488544921875,0.9426806640625,0.9723967244651128,-0.125,0.310546875,0.35498046875,40.059411764705885,454.7376753118039
-0.2505888671875,0.0503193359375,0.9392626953125,0.9734172932166388,-0.00146484375,0.23046875,0.2509765625,40.01235294117648,454.7376753118039
-0.2647490234375,0.0405537109375,0.9397509765625,0.9771737546782991,-0.00732421875,0.1357421875,0.47119140625,39.91823529411765,454.7376753118039
-0.2593779296875,0.0268818359375,0.9495166015625,0.9846732047512736,-0.0244140625,0.08837890625,0.5380859375,39.73,454.9284729482254
-0.2427763671875,0.0141865234375,0.9778369140625,1.0076242615257316,-0.01513671875,0.06787109375,0.505859375,40.15352941176471,454.9284729482254
-0.2339873046875,0.0078388671875,0.9797900390625,1.00737283427726,-0.0146484375,0.05029296875,0.4384765625,39.91823529411765,454.9284729482254
-0.2339873046875,0.0097919921875,0.9973681640625,1.024494605428122,-0.0078125,0.09033203125,0.3427734375,39.73,454.9284729482254
-0.2237333984375,0.0273701171875,1.0002978515625005,1.0253787342888503,-0.015625,0.14453125,0.2548828125,39.87117647058824,454.9284729482254
-0.2159208984375,0.0327412109375,1.0164111328125005,1.0396082974759775,-0.0244140625,0.19091796875,0.21142578125,40.059411764705885,455.1081082805471
-0.2178740234375,0.0464130859375,1.0261767578125005,1.050077141408983,-0.0419921875,0.1962890625,0.1806640625,39.82411764705883,455.1081082805471
-0.2305693359375,0.0493427734375,1.0154345703125005,1.0424510993571334,-0.0400390625,0.23193359375,0.14794921875,39.87117647058824,455.1081082805471
-0.2281279296875,0.0610615234375,1.0012744140625005,1.028747449184792,-0.021484375,0.173828125,0.12060546875,39.91823529411765,455.1081082805471
-0.2359404296875,0.0649677734375,0.9871142578125,1.0169971759662222,-0.02099609375,0.123046875,0.10888671875,40.15352941176471,455.1060690087656
-0.2354521484375,0.0849873046875,0.9749072265625,1.0065310012938828,-0.0078125,0.1005859375,0.0947265625,40.01235294117648,455.1060690087656
-0.2315458984375,0.0840107421875,0.9568408203125,0.9880362661878468,0.0126953125,0.05419921875,0.12255859375,39.87117647058824,455.1060690087656
-0.2398466796875,0.0835224609375,0.9534228515625,0.9866699372737286,0.03466796875,-0.001953125,0.19970703125,40.20058823529412,455.1060690087656
-0.2408232421875,0.0893818359375,0.9436572265625,0.9779948403835712,0.06884765625,-0.0703125,0.23388671875,40.059411764705885,455.1060690087656
-0.2413115234375,0.0903583984375,0.9431689453125,0.9777338855301124,0.05126953125,-0.15087890625,0.27978515625,39.91823529411765,454.74271876562585
-0.2403349609375,0.0908466796875,0.9534228515625,0.9874356417208374,0.076171875,-0.1552734375,0.31640625,39.87117647058824,454.74271876562585
-0.2305693359375,0.1064716796875,0.9714892578125,1.0041363529397884,0.07470703125,-0.13330078125,0.36474609375,39.73,454.74271876562585
-0.2227568359375,0.1118427734375,0.9851611328125,1.0162046405776184,0.08447265625,0.01513671875,0.39208984375,40.01235294117648,454.74271876562585
-0.2032255859375,0.1220966796875,0.9895556640625,1.0175601457646264,0.07421875,0.1357421875,0.41845703125,39.73,454.3520064452509
-0.1944365234375,0.1269794921875,0.9968798828125,1.023571616370306,0.07568359375,0.21728515625,0.42822265625,40.059411764705885,454.3520064452509
-0.1861357421875,0.1250263671875,1.0017626953125005,1.0265508291027583,0.04345703125,0.24462890625,0.43994140625,40.15352941176471,454.3520064452509
-0.1885771484375,0.1040302734375,1.0022509765625005,1.0251295814309456,0.04736328125,0.26904296875,0.525390625,40.01235294117648,454.3520064452509
-0.1905302734375,0.0810810546875,0.9968798828125,1.0181578577419466,0.03564453125,0.2490234375,0.58203125,40.059411764705885,454.3520064452509
-0.2012724609375,0.0688740234375,0.9924853515625,1.0150277866651958,0.04150390625,0.216796875,0.60693359375,40.01235294117648,453.7349925025763
-0.2120146484375,0.0605732421875,0.9934619140625,1.0176374125954235,0.06201171875,0.20654296875,0.6201171875,39.82411764705883,453.7349925025763
-0.2164091796875,0.0542255859375,0.9797900390625,1.0048690799648368,0.0791015625,0.2578125,0.591796875,39.82411764705883,453.7349925025763
-0.2110380859375,0.0444599609375,0.9705126953125,0.9941874338400488,0.078125,0.29638671875,0.55322265625,39.87117647058824,453.7349925025763
-0.2144560546875,0.0386005859375,0.9656298828125,0.9899103369534682,0.1123046875,0.30419921875,0.5712890625,39.87117647058824,454.3276299787228
-0.2164091796875,0.0439716796875,0.9636767578125,0.9886553166880602,0.1083984375,0.32861328125,0.56689453125,40.24764705882353,454.3276299787228
-0.2164091796875,0.0356708984375,0.9592822265625,0.9840364506699244,0.12109375,0.349609375,0.599609375,40.01235294117648,454.3276299787228
-0.2120146484375,0.0278583984375,0.9700244140625,0.9933144846386144,0.099609375,0.36328125,0.6103515625,40.059411764705885,454.3276299787228
