AccX,AccY,AccZ,Magnitude,GyroX,GyroY,GyroZ,Temperature,Altitude
-0.6578154296875,-0.1132548828125,0.7366259765625001,0.9940652078020236,0.4873046875,0.36572265625,0.32666015625,47.21235294117647,417.9428683199559
-0.6285185546875,-0.0810283203125,0.7405322265625001,0.9746738638420254,0.4990234375,0.32275390625,0.25341796875,47.63588235294118,417.9428683199559
-0.6348662109375,-0.0893291015625,0.7590869140625001,0.9936034104596416,0.5087890625,0.3515625,0.271484375,47.91823529411765,417.9428683199559
-0.6309599609375,-0.0947001953125,0.7639697265625001,0.9953533756422682,0.52099609375,0.36669921875,0.2880859375,48.15352941176471,417.9428683199559
-0.6202177734375,-0.0839580078125,0.7659228515625001,0.9891192284599696,0.49609375,0.41162109375,0.287109375,47.96529411764706,417.19347045588455
-0.6177763671875,-0.0907939453125,0.7678759765625001,0.9897093996434544,0.5126953125,0.40771484375,0.306640625,47.91823529411765,417.19347045588455
-0.6060576171875,-0.0873759765625,0.7561572265625001,0.9729923678600634,0.4931640625,0.31494140625,0.30029296875,48.53,417.19347045588455
-0.6114287109375,-0.0917705078125,0.7615283203125001,0.9809140009709488,0.501953125,0.32421875,0.310546875,48.1064705882353,417.19347045588455
-0.6251005859375,-0.0927470703125,0.7629931640625001,0.9907125365094877,0.529296875,0.30224609375,0.35009765625,47.82411764705883,417.19347045588455
-0.6221708984375,-0.0961650390625,0.7712939453125001,0.9956097085083792,0.54345703125,0.33642578125,0.35107421875,47.96529411764706,417.1713324969216
-0.6426787109375,-0.0898173828125,0.7766650390625001,1.012082837839635,0.572265625,0.4296875,0.3525390625,47.96529411764706,417.1713324969216
-0.6465849609375,-0.0756572265625,0.7898486328125001,1.0235511664775012,0.5615234375,0.44384765625,0.34765625,47.25941176470588,417.1713324969216
-0.6392607421875,-0.0717509765625,0.8001025390625001,1.0266287411494213,0.55908203125,0.49365234375,0.28369140625,48.34176470588236,417.1713324969216
-0.6480498046875,-0.0746806640625,0.8030322265625001,1.0346045175999616,0.50244140625,0.46142578125,0.2802734375,47.96529411764706,416.6934167795625
-0.6280302734375,-0.0610087890625,0.8167041015625001,1.032060892683113,0.474609375,0.41015625,0.1865234375,48.15352941176471,416.6934167795625
-0.6172880859375,-0.0585673828125,0.8118212890625001,1.0215324393992524,0.41943359375,0.337890625,0.0498046875,47.68294117647059,416.6934167795625
-0.6163115234375,-0.0575908203125,0.8020556640625001,1.0131386305737515,0.44677734375,0.24365234375,0.05712890625,48.01235294117648,416.6934167795625
-0.6182646484375,-0.0580791015625,0.7942431640625001,1.008189744644263,0.43701171875,0.18994140625,0.09765625,48.01235294117648,416.6934167795625
-0.6138701171875,-0.0512431640625,0.7810595703125001,0.9947444068783088,0.474609375,0.10595703125,0.10888671875,47.96529411764706,416.1937540734643
-0.6153349609375,-0.0497783203125,0.7649462890625001,0.9829841405005364,0.48193359375,0.0927734375,0.10546875,47.82411764705883,416.1937540734643
-0.6294951171875,-0.0444072265625,0.7644580078125001,0.9912780387169556,0.48388671875,0.099609375,0.1494140625,48.53,416.1937540734643
-0.6368193359375,-0.0439189453125,0.7566455078125001,0.9899394753590124,0.50927734375,0.0966796875,0.1630859375,48.53,416.1937540734643
-0.5157255859375,-0.0282939453125,0.7649462890625001,0.9229930944933522,0.484375,0.07861328125,0.177734375,48.1064705882353,415.9004535316268
-0.6334013671875,-0.0361064453125,0.7590869140625001,0.9892997070903378,0.3857421875,0.10546875,0.17431640625,47.82411764705883,415.9004535316268
-0.6392607421875,-0.0229228515625,0.7590869140625001,0.9926694801024152,0.33642578125,0.1181640625,0.0,47.68294117647059,415.9004535316268
-0.6460966796875,-0.0268291015625,0.7595751953125001,0.9975546087948696,0.28466796875,0.171875,0.111328125,47.96529411764706,415.9004535316268
-0.6534208984375,-0.0292705078125,0.7747119140625001,1.0139004797971316,0.22216796875,0.21728515625,0.158203125,48.24764705882353,415.9004535316268
-0.6480498046875,-0.0405009765625,0.7742236328125001,1.0104608414299925,0.169921875,0.27197265625,0.16162109375,47.96529411764706,415.54216522665234
-0.6470732421875,-0.0492900390625,0.7761767578125001,1.011723108401775,0.13330078125,0.27490234375,0.19287109375,48.53,415.54216522665234
-0.6456083984375,-0.0585673828125,0.7795947265625001,1.0139074317444363,0.06982421875,0.279296875,0.2021484375,47.25941176470588,415.54216522665234
-0.6377958984375,-0.0629619140625,0.7761767578125001,1.0065774535794232,0.00341796875,0.28466796875,0.21875,47.82411764705883,415.54216522665234
-0.6397490234375,-0.0649150390625,0.7737353515625001,1.006061215604332,-0.02734375,0.265625,0.23681640625,47.21235294117647,415.4769786471968
-0.6412138671875,-0.0624736328125,0.7732470703125001,1.006463715201499,-0.06298828125,0.25390625,0.22607421875,47.82411764705883,415.4769786471968
-0.6465849609375,-0.0619853515625,0.7815478515625001,1.016233900143483,-0.080078125,0.27685546875,0.18212890625,47.82411764705883,415.4769786471968
-0.6529326171875,-0.0654033203125,0.7839892578125001,1.0223686973204005,-0.083984375,0.3046875,0.138671875,48.53,415.4769786471968
-0.6534208984375,-0.0595439453125,0.8020556640625001,1.036242076057996,-0.125,0.3583984375,0.091796875,47.96529411764706,415.4769786471968
-0.6548857421875,-0.0551494140625,0.8269580078125001,1.0563031477171354,-0.142578125,0.41650390625,0.06298828125,48.53,415.3901288641604
-0.6485380859375,-0.0531962890625,0.8254931640625001,1.0511281834274138,-0.146484375,0.400390625,0.033203125,47.21235294117647,415.3901288641604
-0.6285185546875,-0.0492900390625,0.8347705078125001,1.0460912399264155,-0.16455078125,0.318359375,0.001953125,47.777058823529416,415.3901288641604
-0.6187529296875,-0.0478251953125,0.8401416015625001,1.0445000469026058,-0.1357421875,0.236328125,0.00537109375,47.777058823529416,415.3901288641604
-0.6094755859375,-0.0424541015625,0.8313525390625001,1.0317024206615992,-0.091796875,0.130859375,0.00048828125,47.96529411764706,415.683225563245
-0.6070341796875,-0.0361064453125,0.8230517578125001,1.0233319924346287,-0.0048828125,0.048828125,-0.02294921875,47.96529411764706,415.683225563245
-0.6080107421875,-0.0336650390625,0.8147509765625001,1.0171674155614805,0.0146484375,0.00634765625,-0.0458984375,47.96529411764706,415.683225563245
-0.6080107421875,-0.0258525390625,0.8108447265625001,1.0138119090766236,0.07080078125,0.02197265625,-0.04296875,47.16529411764706,415.683225563245
-0.6065458984375,-0.0243876953125,0.8098681640625001,1.0121161641609988,0.10595703125,0.0205078125,-0.04443359375,47.82411764705883,415.683225563245
-0.6021513671875,-0.0219462890625,0.8001025390625001,1.0016146872044407,0.1103515625,0.0654296875,-0.05517578125,47.91823529411765,416.29101978824656
-0.6001982421875,-0.0234111328125,0.7898486328125001,0.9922937437172044,0.12060546875,0.0859375,-0.0771484375,48.01235294117648,416.29101978824656
-0.6006865234375,-0.0302470703125,0.7893603515625001,0.9923854842352308,0.14404296875,0.13623046875,-0.06787109375,47.96529411764706,416.29101978824656
-0.5982451171875,-0.0199931640625,0.7869189453125001,0.9887054027058076,0.1357421875,0.1953125,-0.1005859375,48.1064705882353,416.29101978824656
-0.5914091796875,-0.0214580078125,0.7913134765625001,0.9881307009233916,0.12353515625,0.20751953125,-0.1279296875,48.01235294117648,416.38866592947335
-0.5899443359375,-0.0214580078125,0.7918017578125001,0.9876460850319736,0.0009765625,0.21826171875,-0.14990234375,48.43588235294118,416.38866592947335
-0.5840849609375,-0.0141337890624999,0.7981494140625001,0.989139774124434,0.24951171875,0.22802734375,-0.16455078125,47.96529411764706,416.38866592947335
-0.5792021484375,-0.0112041015624999,0.7927783203125001,0.9818849860365252,0.1484375,0.2119140625,-0.13720703125,47.21235294117647,416.38866592947335
-0.5777373046875,-0.0068095703124999,0.7957080078125001,0.9833503938944428,0.13427734375,0.1982421875,-0.1640625,47.82411764705883,416.38866592947335
-0.5757841796875,-0.0107158203124999,0.7898486328125001,0.9774983954662804,0.13720703125,0.19873046875,-0.15771484375,48.01235294117648,415.9326197390192
-0.5796904296875,-0.0024150390624999,0.8005908203125001,0.988429303619431,0.16015625,0.17724609375,-0.12744140625,48.1064705882353,415.9326197390192
-0.5787138671875,-0.0014384765624999,0.8054736328125001,0.9918163047893992,0.142578125,0.2216796875,-0.13037109375,47.96529411764706,415.9326197390192
-0.5762724609375,0.0029560546875,0.8049853515625001,0.9900000523860994,0.1337890625,0.283203125,-0.1171875,47.96529411764706,415.9326197390192
-0.5889677734375,0.0078388671875,0.8059619140625001,0.9982580292219032,0.1337890625,0.30615234375,-0.11572265625,47.91823529411765,416.1497602106264
-0.5948271484375,0.0068623046875,0.8142626953125001,1.0084097206599552,0.09619140625,0.28955078125,-0.10693359375,48.53,416.1497602106264
-0.5977568359375,0.0044208984375,0.8279345703125001,1.021179921449472,0.07568359375,0.27099609375,-0.0654296875,47.91823529411765,416.1497602106264
-0.5992216796875,0.0014912109375,0.8171923828125001,1.0133470460036584,0.091796875,0.25830078125,-0.041015625,47.21235294117647,416.1497602106264
-0.5918974609375,0.0014912109375,0.8220751953125001,1.0129918334924544,0.119140625,0.21923828125,-0.02197265625,47.96529411764706,416.1497602106264
-0.5889677734375,-0.0029033203124999,0.8274462890625001,1.0156568459376747,0.1201171875,0.19189453125,0.009765625,47.68294117647059,416.0519298834876
-0.5894560546875,-0.0048564453124999,0.8132861328125001,1.004448286022699,0.10595703125,0.2119140625,0.0380859375,48.01235294117648,416.0519298834876
-0.5840849609375,-0.0043681640624999,0.8186572265625001,1.0056709089228155,0.10205078125,0.2919921875,0.029296875,47.25941176470588,416.0519298834876
-0.5855498046875,-0.0038798828124999,0.8181689453125001,1.0061232779008629,0.07861328125,0.38427734375,0.05615234375,47.96529411764706,416.0519298834876
-0.5943388671875,-0.0082744140624999,0.8313525390625001,1.0219854202401637,0.04833984375,0.4521484375,0.0654296875,47.96529411764706,416.45367292440767
-0.5977568359375,-0.0053447265624999,0.8357470703125001,1.0275285721321652,0.0322265625,0.466796875,0.091796875,48.01235294117648,416.45367292440767
-0.5962919921875,-0.0053447265624999,0.8469775390625001,1.0358395907307918,0.02294921875,0.478515625,0.09521484375,47.777058823529416,416.45367292440767
-0.6001982421875,-0.0048564453124999,0.8582080078125001,1.047273841771835,0.00439453125,0.4716796875,0.10693359375,48.53,416.45367292440767
-0.5987333984375,-0.0082744140624999,0.8723681640625001,1.058100355354998,0.0087890625,0.42578125,0.0732421875,48.01235294117648,416.45367292440767
-0.5958037109375,-0.0077861328124999,0.8723681640625001,1.0564416214353003,0.02099609375,0.4970703125,0.0498046875,47.21235294117647,416.7902383243828
-0.5914091796875,-0.0058330078124999,0.8699267578125001,1.0519369780347825,0.03662109375,0.29345703125,0.01806640625,47.96529411764706,416.7902383243828
-0.5840849609375,-0.0087626953124999,0.8533251953125001,1.034116006731168,0.04150390625,0.27001953125,-0.02392578125,48.01235294117648,416.7902383243828
-0.5875029296875,-0.0092509765624999,0.8621142578125001,1.0433054521482923,0.10498046875,0.31396484375,-0.06640625,47.96529411764706,416.7902383243828
-0.5850615234375,-0.0136455078124999,0.8552783203125001,1.0363320854277556,0.11083984375,0.3564453125,-0.08984375,47.96529411764706,416.8663106283433
-0.5787138671875,-0.0199931640625,0.8596728515625001,1.0365070566078851,0.126953125,0.421875,-0.10986328125,47.96529411764706,416.8663106283433
-0.5811552734375,-0.0190166015625,0.8533251953125001,1.0326020394780937,0.11767578125,0.4375,-0.119140625,48.01235294117648,416.8663106283433
-0.5845732421875,-0.0229228515625,0.8567431640625001,1.0374296032855366,0.11328125,0.453125,-0.1279296875,48.01235294117648,416.8663106283433
-0.5889677734375,-0.0268291015625,0.8674853515625001,1.0488725728200217,0.126953125,0.45361328125,-0.1201171875,48.53,416.8663106283433
-0.5870146484375,-0.0243876953125,0.8606494140625001,1.0420644754951498,0.1044921875,0.41796875,-0.12841796875,47.96529411764706,417.0725023003608
-0.5855498046875,-0.0253642578125,0.8616259765625001,1.0420706515545048,0.1123046875,0.39892578125,-0.1533203125,48.1064705882353,417.0725023003608
-0.5953154296875,-0.0263408203125,0.8650439453125001,1.050426259649179,0.0947265625,0.390625,-0.17626953125,47.35352941176471,417.0725023003608
-0.5982451171875,-0.0317119140625,0.8684619140625001,1.055049269896574,0.10595703125,0.361328125,-0.1826171875,48.53,417.0725023003608
-0.6011748046875,-0.0385478515625,0.8640673828125001,1.053332580285819,0.12744140625,0.3505859375,-0.20703125,47.68294117647059,416.6599448475828
-0.5958037109375,-0.0346416015625,0.8645556640625001,1.0505420499857498,0.12109375,0.3466796875,-0.2158203125,48.53,416.6599448475828
-0.5845732421875,-0.0287822265625,0.8591845703125001,1.0395924287481977,0.13623046875,0.28759765625,-0.24658203125,48.01235294117648,416.6599448475828
-0.5782255859375,-0.0317119140625,0.8460009765625001,1.0252161362712626,0.1572265625,0.236328125,-0.25927734375,48.53,416.6599448475828
-0.5591826171875,-0.0243876953125,0.8362353515625001,1.0062651351657652,0.1845703125,0.18701171875,-0.27783203125,47.96529411764706,416.6599448475828
-0.5601591796875,-0.0238994140625,0.8245166015625001,0.9970843067829712,0.21044921875,0.15673828125,-0.27978515625,47.96529411764706,417.33310164886296
-0.5523466796875,-0.0204814453125,0.8098681640625001,0.980506393312078,0.24072265625,0.1591796875,-0.30126953125,47.82411764705883,417.33310164886296
-0.5513701171875,-0.0214580078125,0.8049853515625001,0.975946140141371,0.240234375,0.13623046875,-0.294921875,47.96529411764706,417.33310164886296
-0.5518583984375,-0.0229228515625,0.7966845703125001,0.9694222267019524,0.2705078125,0.17236328125,-0.2724609375,48.53,417.33310164886296
-0.5508818359375,-0.0209697265625,0.7961962890625001,0.9684209091685664,0.2890625,0.19384765625,-0.2734375,47.96529411764706,417.6045875528657
-0.5533232421875,-0.0243876953125,0.7864306640625001,0.961891136982417,0.275390625,0.19873046875,-0.2529296875,47.82411764705883,417.6045875528657
-0.5547880859375,-0.0307353515625,0.7878955078125001,0.9641129671179528,0.228515625,0.18994140625,-0.21826171875,48.15352941176471,417.6045875528657
-0.5582060546875,-0.0248759765625,0.7883837890625001,0.966313516699558,0.23779296875,0.18896484375,-0.20751953125,48.43588235294118,417.6045875528657
-0.5630888671875,-0.0229228515625,0.7918017578125001,0.9718768199464496,0.216796875,0.138671875,-0.22216796875,47.82411764705883,417.6045875528657
-0.5582060546875,-0.0282939453125,0.8025439453125001,0.977993522979004,0.19580078125,0.171875,-0.2431640625,48.53,417.7130478971328
-0.5469755859375,-0.0331767578125,0.7957080078125001,0.9661439968077008,0.20166015625,0.166015625,-0.25634765625,48.01235294117648,417.7130478971328
-0.5342802734375,-0.0385478515625,0.7942431640625001,0.957999765712156,0.2294921875,0.1298828125,-0.2490234375,47.21235294117647,417.7130478971328
-0.5298857421875,-0.0380595703125,0.7893603515625001,0.9514815790570216,0.26025390625,0.1005859375,-0.267578125,47.68294117647059,417.7130478971328
-0.5240263671875,-0.0439189453125,0.7893603515625001,0.9484841969605844,0.29443359375,0.1005859375,-0.2353515625,47.96529411764706,417.3112548900436
-0.5235380859375,-0.0429423828125,0.7839892578125001,0.9437029893107848,0.30419921875,0.1474609375,-0.26025390625,48.53,417.3112548900436
-0.5318388671875,-0.0468486328125,0.7927783203125001,0.9557953966227252,0.3359375,0.1923828125,-0.22021484375,47.96529411764706,417.3112548900436
-0.5318388671875,-0.0419658203125,0.8035205078125001,0.9644993090723508,0.2998046875,0.208984375,-0.21044921875,47.96529411764706,417.3112548900436
-0.5352568359375,-0.0287822265625,0.8230517578125001,0.9822130588736668,0.27099609375,0.203125,-0.1845703125,47.07117647058824,417.3112548900436
-0.5303740234375,-0.0248759765625,0.8342822265625001,0.9889096280779668,0.25244140625,0.1953125,-0.197265625,47.91823529411765,416.80094021937737
-0.5162138671875,-0.0146220703124999,0.9597705078125,1.0898853101512846,0.2119140625,0.08056640625,-0.26171875,47.07117647058824,416.80094021937737
-0.5108427734375,-0.0087626953124999,0.8274462890625001,0.972473385386849,0.2119140625,-0.01025390625,-0.29345703125,48.53,416.80094021937737
-0.5147490234375,-0.0009501953124999,0.8298876953125001,0.9765659459719476,0.25537109375,-0.072265625,-0.33642578125,47.91823529411765,416.80094021937737
-0.5225615234375,0.0078388671875,0.8220751953125001,0.974135319328988,0.271484375,-0.07568359375,-0.37255859375,47.82411764705883,416.43182145716673
-0.5372099609375,0.0180927734375,0.8210986328125001,0.9813892476421818,0.31640625,-0.03759765625,-0.40234375,47.96529411764706,416.43182145716673
-0.5459990234375,0.0156513671875,0.8274462890625001,0.9914773119808864,0.37353515625,0.0478515625,-0.4521484375,47.16529411764706,416.43182145716673
-0.5420927734375,0.0205341796875,0.8362353515625001,0.996782719930205,0.400390625,0.13525390625,-0.4765625,47.777058823529416,416.43182145716673
-0.5484404296875,0.0229755859375,0.8489306640625001,1.010939194437815,0.4248046875,0.19091796875,-0.458984375,48.43588235294118,416.43182145716673
-0.5479521484375,0.0161396484375,0.8474658203125001,1.009311825862997,0.41650390625,0.21630859375,-0.4462890625,47.16529411764706,416.3123207862718
-0.5464873046875,0.0268818359375,0.8669970703125001,1.0252096991437591,0.43896484375,0.2314453125,-0.40869140625,47.25941176470588,416.3123207862718
-0.5367216796875,0.0288349609375,0.8665087890625001,1.0196759769364967,0.419921875,0.25634765625,-0.38427734375,48.1064705882353,416.3123207862718
-0.5494169921875,0.0185810546875,0.8787158203125001,1.0365065266389446,0.43115234375,0.25732421875,-0.318359375,47.96529411764706,416.3123207862718
-0.5396513671875,0.0210224609375,0.8821337890625001,1.0343237229112412,0.4052734375,0.25537109375,-0.271484375,47.96529411764706,416.0191963551405
-0.5562529296875,0.0195576171875,0.8860400390625001,1.0463588165623952,0.41259765625,0.2626953125,-0.205078125,47.96529411764706,416.0191963551405
-0.5626005859375,0.0156513671875,0.8889697265625001,1.0521556725773342,0.49853515625,0.37451171875,-0.17578125,47.96529411764706,416.0191963551405
-0.5743193359375,0.0132099609375,0.9011767578125,1.0687079823418135,0.390625,0.23388671875,-0.130859375,48.1064705882353,416.0191963551405
-0.5879912109375,0.0102802734375,0.9080126953125,1.0818162519625818,0.34130859375,0.2666015625,-0.125,47.96529411764706,416.0191963551405
-0.5875029296875,0.0088154296875,0.9026416015625,1.0770326202410423,0.32177734375,0.1953125,-0.107421875,48.1064705882353,415.6934399585487
-0.5938505859375,0.0063740234375,0.8967822265625001,1.0756009987311694,0.28857421875,0.1826171875,-0.10888671875,48.01235294117648,415.6934399585487
-0.6021513671875,0.0044208984375,0.8972705078125001,1.0806017663963314,0.2626953125,0.14404296875,-0.13427734375,47.91823529411765,415.6934399585487
-0.6011748046875,0.0019794921875,0.9021533203125,1.0841105467300105,0.30419921875,0.1474609375,-0.18212890625,48.01235294117648,415.6934399585487
-0.6006865234375,-0.0004619140624999,0.8982470703125001,1.080588872850827,0.32177734375,0.17041015625,-0.2109375,47.777058823529416,416.1278144085104
-0.5958037109375,-0.0038798828124999,0.8938525390625001,1.0742297133509262,0.32568359375,0.212890625,-0.25,47.91823529411765,416.1278144085104
-0.5835966796875,-0.0121806640624999,0.8943408203125001,1.0679789117751874,0.35009765625,0.26025390625,-0.23876953125,47.82411764705883,416.1278144085104
-0.5806669921875,-0.0165751953125,0.8943408203125001,1.0664400572901231,0.392578125,0.294921875,-0.24267578125,47.777058823529416,416.1278144085104
-0.5792021484375,-0.0229228515625,0.8962939453125001,1.0674003102314609,0.3935546875,0.3134765625,-0.2080078125,47.35352941176471,416.1278144085104
-0.5796904296875,-0.0351298828125,0.8899462890625001,1.0626756327091598,0.390625,0.30810546875,-0.1591796875,48.1064705882353,415.7693218728988
-0.5909208984375,-0.0473369140625,0.9124072265625,1.088078691422002,0.3564453125,0.29931640625,-0.1875,48.1064705882353,415.7693218728988
-0.5923857421875,-0.0541728515625,0.9158251953125,1.0920583106055404,0.3427734375,0.26513671875,-0.22265625,48.01235294117648,415.7693218728988
-0.5918974609375,-0.0561259765625,0.9187548828125,1.0943506130126506,0.29150390625,0.21630859375,-0.22705078125,48.53,415.7693218728988
-0.5806669921875,-0.0614970703125,0.9221728515625,1.0914938449812768,0.2255859375,0.16552734375,-0.2197265625,47.82411764705883,415.7042267460301
-0.5723662109375,-0.0566142578125,0.9192431640625,1.084350611327465,0.18603515625,0.12353515625,-0.232421875,47.96529411764706,415.7042267460301
-0.5699248046875,-0.0536845703125,0.9143603515625,1.0787729921522975,0.158203125,0.12109375,-0.24560546875,47.82411764705883,415.7042267460301
-0.5635771484375,-0.0541728515625,0.9094775390625,1.0713091496606093,0.15087890625,0.11474609375,-0.283203125,48.01235294117648,415.7042267460301
-0.5645537109375,-0.0595439453125,0.8958056640625001,1.0605348470102889,0.18212890625,0.09814453125,-0.302734375,48.388823529411766,415.7042267460301
-0.5577177734375,-0.0492900390625,0.8826220703125001,1.04522741150507,0.228515625,0.0927734375,-0.35888671875,47.777058823529416,415.7477476657375
-0.5552763671875,-0.0507548828125,0.8699267578125001,1.033286245937894,0.27587890625,0.07373046875,-0.3701171875,47.96529411764706,415.7477476657375
-0.5523466796875,-0.0580791015625,0.8616259765625001,1.0251143156191873,0.328125,0.103515625,-0.4072265625,48.388823529411766,415.7477476657375
-0.5484404296875,-0.0556376953125,0.8606494140625001,1.0220566872642731,0.35009765625,0.1357421875,-0.40966796875,48.43588235294118,415.7477476657375
-0.5367216796875,-0.0575908203125,0.8596728515625001,1.015098160644791,0.38818359375,0.16357421875,-0.39794921875,48.43588235294118,415.6500126806289
-0.5250029296875,-0.0580791015625,0.8596728515625001,1.0089790235343674,0.37939453125,0.1630859375,-0.3974609375,48.1064705882353,415.6500126806289
-0.5167021484375,-0.0585673828125,0.8606494140625001,1.0055489358830625,0.36181640625,0.1826171875,-0.3740234375,47.96529411764706,415.6500126806289
-0.5079130859375,-0.0629619140625,0.8630908203125001,1.0034269627614518,0.36279296875,0.16943359375,-0.33544921875,47.777058823529416,415.6500126806289
-0.4957060546875,-0.0644267578125,0.8635791015625001,0.9978197053734568,0.3466796875,0.13037109375,-0.32470703125,48.53,415.6500126806289
-0.4874052734375,-0.0644267578125,0.8552783203125001,0.9865169602665156,0.33154296875,0.08154296875,-0.30029296875,48.1064705882353,416.1818499208756
-0.4810576171875,-0.0746806640625,0.8538134765625001,0.9828484549505452,0.306640625,0.04296875,-0.28125,48.53,416.1818499208756
-0.4791044921875,-0.0737041015625,0.8240283203125001,0.956031422966012,0.2900390625,-0.0029296875,-0.26318359375,47.96529411764706,416.1818499208756
-0.4791044921875,-0.0780986328125,0.8088916015625001,0.943369563829452,0.2607421875,-0.02734375,-0.244140625,47.96529411764706,416.1818499208756
-0.4839873046875,-0.0800517578125,0.7918017578125001,0.9314515654088016,0.2802734375,-0.0087890625,-0.2333984375,47.35352941176471,416.3557507384197
-0.4903349609375,-0.0761455078125,0.7800830078125001,0.9245301570827208,0.27978515625,0.02880859375,-0.20703125,48.01235294117648,416.3557507384197
-0.4961943359375,-0.0761455078125,0.7610400390625001,0.9116956172060562,0.29052734375,0.02001953125,-0.19091796875,48.1064705882353,416.3557507384197
-0.4937529296875,-0.0888408203125,0.7629931640625001,0.913150160343244,0.3046875,0.056640625,-0.16455078125,47.25941176470588,416.3557507384197
-0.5049833984375,-0.0780986328125,0.7654345703125001,0.920324785374245,0.3564453125,0.12744140625,-0.130859375,47.777058823529416,416.3557507384197
-0.5167021484375,-0.0829814453125,0.7791064453125001,0.9385488179064312,0.3837890625,0.24072265625,-0.1396484375,48.43588235294118,416.4533115602764
-0.5386748046875,-0.0683330078125,0.8152392578125001,0.9795177347248468,0.36376953125,0.43017578125,-0.19189453125,47.96529411764706,416.4533115602764
-0.5464873046875,-0.0492900390625,0.8489306640625001,1.010822019210597,0.28662109375,0.546875,-0.25537109375,47.91823529411765,416.4533115602764
-0.5474638671875,-0.0322001953125,0.8748095703125001,1.0324947083469225,0.27294921875,0.58349609375,-0.2724609375,48.53,416.4533115602764
-0.5469755859375,-0.0219462890625,0.9236376953125,1.073671515603107,0.2373046875,0.63916015625,-0.27880859375,48.388823529411766,415.7475615730673
-0.5352568359375,-0.0151103515624999,0.9578173828125,1.0973341979360498,0.216796875,0.61474609375,-0.30419921875,47.21235294117647,415.7475615730673
-0.5230498046875,-0.0097392578124999,0.9739306640625,1.105539185071064,0.2021484375,0.54638671875,-0.3271484375,48.1064705882353,415.7475615730673
-0.5176787109375,2.6367187500001e-05,0.9876025390625,1.1150560629922772,0.201171875,0.5029296875,-0.3193359375,48.20058823529412,415.7475615730673
-0.5230498046875,0.0058857421875,0.9705126953125,1.1025019872578294,0.2509765625,0.390625,-0.30224609375,47.82411764705883,415.7475615730673
-0.5264677734375,0.0034443359375,0.9578173828125,1.0929749854118695,0.3271484375,0.34033203125,-0.29833984375,47.82411764705883,413.6849869684259
-0.5342802734375,-0.0019267578124999,0.9539111328125,1.093346044161566,0.38427734375,0.3134765625,-0.25634765625,47.16529411764706,413.6849869684259
-0.5464873046875,-0.0048564453124999,0.9470751953125,1.0934456478590473,0.4228515625,0.330078125,-0.24853515625,48.01235294117648,413.6849869684259
-0.5621123046875,-0.0077861328124999,0.9392626953125,1.0946439045420062,0.45068359375,0.32861328125,-0.21826171875,47.91823529411765,413.6849869684259
-0.5748076171875,-0.0082744140624999,0.9304736328125,1.0937337171652617,0.4521484375,0.3857421875,-0.2255859375,47.96529411764706,414.3037558338206
-0.5884794921875,-0.0116923828124999,0.9138720703125,1.0870174724623092,0.41357421875,0.42333984375,-0.20068359375,47.82411764705883,414.3037558338206
-0.6011748046875,-0.0097392578124999,0.9065478515625,1.0878120270094356,0.40380859375,0.4912109375,-0.14892578125,47.21235294117647,414.3037558338206
-0.6094755859375,-0.0155986328124999,0.9026416015625,1.0892500484603125,0.37060546875,0.53466796875,-0.11083984375,48.43588235294118,414.3037558338206
-0.6207060546875,-0.0077861328124999,0.9128955078125,1.1039541830955386,0.32470703125,0.59130859375,-0.05517578125,47.82411764705883,414.3037558338206
-0.6275419921875,-0.0278056640625,0.9138720703125,1.1089383516723856,0.29443359375,0.630859375,0.00390625,47.96529411764706,415.6498259070755
-0.6226591796875,-0.0409892578125,0.9207080078125,1.1122444915373564,0.251953125,0.6650390625,0.0810546875,48.01235294117648,415.6498259070755
-0.6221708984375,-0.0424541015625,0.9182666015625,1.110005643745629,0.21240234375,0.66845703125,0.1328125,47.82411764705883,415.6498259070755
-0.6148466796875,-0.0527080078125,0.9192431640625,1.1071687171727451,0.17724609375,0.68359375,0.15185546875,48.43588235294118,415.6498259070755
-0.6124052734375,-0.0541728515625,0.9099658203125,1.0981861003115423,0.1337890625,0.654296875,0.15771484375,47.21235294117647,415.49778366983816
-0.6065458984375,-0.0551494140625,0.8865283203125001,1.0755797727267344,0.10595703125,0.57470703125,0.1591796875,48.1064705882353,415.49778366983816
-0.6031279296875,-0.0654033203125,0.8728564453125001,1.0629766074569105,0.083984375,0.5205078125,0.13818359375,48.53,415.49778366983816
-0.6075224609375,-0.0575908203125,0.8635791015625001,1.05743515535626,0.11083984375,0.4580078125,0.08447265625,48.53,415.49778366983816
-0.6138701171875,-0.0590556640625,0.8420947265625001,1.0437660756788514,0.12646484375,0.42529296875,0.03369140625,47.96529411764706,415.49778366983816
-0.6294951171875,-0.0561259765625,0.8250048828125001,1.039253234044747,0.1513671875,0.40771484375,-0.0009765625,48.43588235294118,415.75844171607656
-0.6363310546875,-0.0571025390625,0.8167041015625001,1.0369105557549796,0.1826171875,0.43798828125,-0.037109375,48.1064705882353,415.75844171607656
-0.6382841796875,-0.0561259765625,0.8137744140625001,1.0357536465140753,0.20849609375,0.48046875,-0.0986328125,48.01235294117648,415.75844171607656
-0.6334013671875,-0.0629619140625,0.8127978515625001,1.0323767926886112,0.23095703125,0.50146484375,-0.1201171875,48.1064705882353,415.75844171607656
-0.6265654296875,-0.0644267578125,0.8040087890625001,1.0213545798063763,0.2744140625,0.53466796875,-0.1630859375,48.1064705882353,416.3663606949833
-0.6211943359375,-0.0649150390625,0.8069384765625001,1.0204146560366163,0.28857421875,0.56494140625,-0.2060546875,47.96529411764706,416.3663606949833
-0.6167998046875,-0.0619853515625,0.8005908203125001,1.012536342280862,0.2958984375,0.56201171875,-0.2548828125,47.91823529411765,416.3663606949833
-0.6099638671875,-0.0673564453125,0.8001025390625001,1.0083436333977247,0.3046875,0.51953125,-0.22216796875,47.82411764705883,416.3663606949833
-0.6011748046875,-0.0693095703125,0.7961962890625001,1.0000717439488296,0.29736328125,0.49609375,-0.22607421875,47.82411764705883,416.3663606949833
-0.5987333984375,-0.0649150390625,0.7883837890625001,0.9920910460021038,0.3232421875,0.4287109375,-0.2001953125,47.16529411764706,416.3881207474213
-0.6011748046875,-0.0605205078125,0.7766650390625001,0.9840134453140827,0.3232421875,0.40673828125,-0.1826171875,48.01235294117648,416.3881207474213
-0.6075224609375,-0.0571025390625,0.7776416015625001,0.9884688669814696,0.31396484375,0.37744140625,-0.17333984375,48.53,416.3881207474213
-0.6104521484375,-0.0473369140625,0.7825244140625001,0.9935980412464483,0.34326171875,0.40087890625,-0.16552734375,47.91823529411765,416.3881207474213
-0.6211943359375,-0.0478251953125,0.7756884765625001,0.994918220246952,0.32568359375,0.412109375,-0.18505859375,48.43588235294118,416.3555702623236
-0.6260771484375,-0.0419658203125,0.7844775390625001,1.004558975453253,0.33544921875,0.42138671875,-0.23681640625,47.96529411764706,416.3555702623236
-0.6363310546875,-0.0424541015625,0.7820361328125001,1.009108554578503,0.31640625,0.4462890625,-0.22998046875,48.1064705882353,416.3555702623236
-0.6382841796875,-0.0365947265625,0.7771533203125001,1.0063365000457214,0.32275390625,0.40771484375,-0.3017578125,47.91823529411765,416.3555702623236
-0.6358427734375,-0.0370830078125,0.7795947265625001,1.006697134040409,0.34130859375,0.412109375,-0.3388671875,48.1064705882353,416.3555702623236
-0.6304716796875,-0.0351298828125,0.7820361328125001,1.0051413634801465,0.36474609375,0.3984375,-0.3994140625,47.96529411764706,416.2578296708924
-0.6216826171875,-0.0248759765625,0.7752001953125001,0.994003739195973,0.3837890625,0.3876953125,-0.44482421875,48.1064705882353,416.2578296708924
-0.6260771484375,-0.0273173828125,0.7742236328125001,0.9960627835657454,0.40576171875,0.38720703125,-0.49560546875,47.82411764705883,416.2578296708924
-0.6114287109375,-0.0224345703125,0.7634814453125001,0.9783927104390464,0.43017578125,0.37841796875,-0.513671875,48.388823529411766,416.2578296708924
-0.6055693359375,-0.0214580078125,0.7673876953125001,0.977782461309312,0.435546875,0.39208984375,-0.498046875,48.01235294117648,416.21430955544525
-0.5928740234375,-0.0248759765625,0.7571337890625001,0.9619615358303292,0.45703125,0.400390625,-0.48974609375,48.1064705882353,416.21430955544525
-0.5860380859375,-0.0199931640625,0.7542041015625001,0.955334596668736,0.470703125,0.38232421875,-0.45751953125,47.91823529411765,416.21430955544525
-0.5826201171875,-0.0185283203125,0.7468798828125001,0.9474276009042552,0.4697265625,0.357421875,-0.4140625,48.43588235294118,416.21430955544525
-0.5850615234375,-0.0151103515624999,0.7502978515625001,0.9515630168258192,0.62451171875,0.34423828125,-0.37158203125,48.01235294117648,416.21430955544525
-0.5894560546875,-0.0180400390625,0.7517626953125001,0.9554742453256624,0.4921875,0.388671875,-0.30908203125,48.1064705882353,416.3010808690967
-0.5845732421875,-0.0112041015624999,0.7610400390625001,0.9597048235940464,0.466796875,0.43896484375,-0.30126953125,48.01235294117648,416.3010808690967
-0.5972685546875,-0.0107158203124999,0.7546923828125001,0.9624994274796604,0.45751953125,0.46875,-0.25390625,47.82411764705883,416.3010808690967
-0.6031279296875,-0.0058330078124999,0.7532275390625001,0.9649606464262782,0.45849609375,0.53369140625,-0.24365234375,48.1064705882353,416.3010808690967
-0.6104521484375,-0.0087626953124999,0.7542041015625001,0.9703362495417748,0.4384765625,0.5263671875,-0.25732421875,48.1064705882353,416.1818499208756
-0.6187529296875,-0.0053447265624999,0.7507861328125001,0.9729149866881696,0.46533203125,0.5166015625,-0.2861328125,47.21235294117647,416.1818499208756
-0.6211943359375,-0.0082744140624999,0.7410205078125001,0.9669861746310568,0.4677734375,0.51171875,-0.3046875,48.01235294117648,416.1818499208756
-0.6236357421875,-0.0029033203124999,0.7376025390625001,0.9659127671969336,0.50341796875,0.462890625,-0.31591796875,48.388823529411766,416.1818499208756
-0.6265654296875,-0.0009501953124999,0.7293017578125001,0.96149165076927,0.52490234375,0.43212890625,-0.33984375,48.01235294117648,416.1818499208756
-0.6226591796875,-0.0029033203124999,0.7293017578125001,0.9589546064680796,0.55712890625,0.40234375,-0.35693359375,47.96529411764706,415.6387609023918
-0.6251005859375,-0.0092509765624999,0.7224658203125001,0.9554021062498133,0.5673828125,0.42578125,-0.39453125,47.96529411764706,415.6387609023918
-0.6192412109375,-0.0175517578125,0.7302783203125001,0.9576398940332927,0.57958984375,0.41796875,-0.40283203125,47.96529411764706,415.6387609023918
-0.6128935546875,-0.0185283203125,0.7380908203125001,0.9595623309929696,0.59912109375,0.43505859375,-0.42822265625,47.96529411764706,415.6387609023918
-0.6080107421875,-0.0141337890624999,0.7376025390625001,0.9559991277402426,0.609375,0.4384765625,-0.4228515625,48.01235294117648,415.9753106429988
-0.6104521484375,-0.0141337890624999,0.7459033203125001,0.963962319169393,0.5546875,0.49072265625,-0.42724609375,47.96529411764706,415.9753106429988
-0.6192412109375,-0.0107158203124999,0.7625048828125001,0.9823381304017552,0.54248046875,0.56494140625,-0.478515625,47.96529411764706,415.9753106429988
-0.6290068359375,-0.0063212890624999,0.7776416015625001,1.0002079877866437,0.48974609375,0.62841796875,-0.52783203125,47.96529411764706,415.9753106429988
-0.6334013671875,-0.0068095703124999,0.7971728515625001,1.018198515747849,0.47509765625,0.7021484375,-0.5634765625,47.96529411764706,415.9753106429988
-0.6382841796875,0.0049091796875,0.8254931640625001,1.0434892227514698,0.44189453125,0.7802734375,-0.66015625,48.53,415.97540119501855
-0.6402373046875,0.0102802734375,0.8303759765625001,1.048586549974579,0.40966796875,0.8681640625,-0.740234375,48.53,415.97540119501855
-0.6211943359375,0.0234638671875,0.8416064453125001,1.0462955437426684,0.39599609375,0.8896484375,-0.875,47.96529411764706,415.97540119501855
-0.6148466796875,0.0483662109375,0.8484423828125001,1.0489185892316653,0.3505859375,0.7919921875,-0.91943359375,47.96529411764706,415.97540119501855
-0.6197294921875,0.0761982421875,0.8337939453125001,1.0416732495553611,0.33544921875,0.7412109375,-0.94580078125,47.96529411764706,415.3457430297137
-0.6226591796875,0.0844990234375,0.8147509765625001,1.028913841300888,0.34375,0.583984375,-0.91943359375,47.82411764705883,415.3457430297137
-0.6338896484375,0.0971943359375,0.8010791015625001,1.026153279142415,0.34375,0.46240234375,-0.84814453125,47.63588235294118,415.3457430297137
-0.6807646484375,0.1157490234375,0.7942431640625001,1.0524545342431564,0.431640625,0.4140625,-0.72705078125,48.53,415.3457430297137
-0.7095732421875,0.1206318359375,0.7918017578125001,1.0700449754777122,0.470703125,0.310546875,-0.521484375,47.96529411764706,415.3457430297137
-0.7256865234375,0.1279560546875,0.7966845703125001,1.0852188658533397,0.58154296875,0.318359375,-0.462890625,47.21235294117647,414.8462058155692
-0.7505888671875,0.1103779296875,0.7888720703125001,1.0944798208404956,0.6806640625,0.27099609375,-0.2939453125,48.01235294117648,414.8462058155692
-0.7681669921875,0.0879169921875,0.7898486328125001,1.105292173209176,0.78515625,0.21826171875,-0.1884765625,47.91823529411765,414.8462058155692
-0.7759794921875,0.0698505859375,0.7815478515625001,1.103558027895834,0.849609375,0.25634765625,-0.1142578125,47.21235294117647,414.8462058155692
-0.7833037109375,0.0469013671875,0.7756884765625001,1.1033843638933658,0.8603515625,0.36474609375,-0.09521484375,48.1064705882353,414.86796600908326
-0.7862333984375,0.0268818359375,0.7805712890625001,1.1082315314187032,0.84765625,0.46923828125,-0.1103515625,47.35352941176471,414.86796600908326
-0.7676787109375,-0.0048564453124999,0.7869189453125001,1.099361457746938,0.80419921875,0.56103515625,-0.08740234375,47.777058823529416,414.86796600908326
-0.7564482421875,-0.0322001953125,0.7913134765625001,1.0951839178312253,0.7109375,0.5107421875,-0.07763671875,47.96529411764706,414.86796600908326
-0.7354521484375,-0.0531962890625,0.7874072265625001,1.0787631103510185,0.64794921875,0.4697265625,-0.0234375,48.1064705882353,414.86796600908326
-0.7164091796875,-0.0649150390625,0.7888720703125001,1.0676025563645548,0.59130859375,0.4169921875,0.021484375,47.96529411764706,414.8788461265474
-0.7037138671875,-0.0922587890625,0.7752001953125001,1.0510281793766538,0.5380859375,0.357421875,0.09912109375,48.388823529411766,414.8788461265474
-0.6797880859375,-0.0961650390625,0.7620166015625001,1.025684579964681,0.474609375,0.25146484375,0.0986328125,47.63588235294118,414.8788461265474
-0.6646513671875,-0.1083720703125,0.7595751953125001,1.01511596522863,0.4208984375,0.17724609375,0.10498046875,47.96529411764706,414.8788461265474
-0.6568388671875,-0.1142314453125,0.7576220703125001,1.009196374335015,0.49951171875,0.09912109375,0.0947265625,48.53,416.1273596155314
-0.6519560546875,-0.1137431640625,0.7376025390625001,0.9909801765151944,0.2939453125,-0.0068359375,0.04296875,47.21235294117647,416.1273596155314
-0.6495146484375,-0.1113017578125,0.7327197265625001,0.9854621035437467,0.27197265625,-0.06640625,-0.0166015625,48.43588235294118,416.1273596155314
-0.6382841796875,-0.1073955078125,0.7249072265625001,0.9718183864592116,0.2294921875,-0.115234375,-0.07958984375,48.01235294117648,416.1273596155314
-0.6387724609375,-0.1039775390625,0.7146533203125001,0.964142600301078,0.22021484375,-0.11376953125,-0.1435546875,48.01235294117648,416.1273596155314
-0.6368193359375,-0.0986064453125,0.7249072265625001,0.9699240098088,0.25244140625,-0.015625,-0.24365234375,47.96529411764706,416.8112955677124
-0.6299833984375,-0.0932353515625,0.7332080078125001,0.9711672851822284,0.29541015625,0.056640625,-0.29345703125,47.21235294117647,416.8112955677124
-0.6270537109375,-0.0795634765625,0.7468798828125001,0.9784458403781044,0.3447265625,0.09912109375,-0.3232421875,47.82411764705883,416.8112955677124
-0.6265654296875,-0.0805400390625,0.7478564453125001,0.9789587316976742,0.38818359375,0.1337890625,-0.35595703125,48.53,416.8112955677124
-0.6324248046875,-0.0693095703125,0.7654345703125001,0.9953165484158332,0.43701171875,0.189453125,-0.3486328125,48.01235294117648,417.3325886351817
-0.6260771484375,-0.0717509765625,0.7703173828125001,0.9952435223081854,0.486328125,0.142578125,-0.357421875,48.01235294117648,417.3325886351817
-0.6260771484375,-0.0663798828125,0.7761767578125001,0.9994144505690103,0.51806640625,0.0849609375,-0.35888671875,47.96529411764706,417.3325886351817
-0.6280302734375,-0.0595439453125,0.7820361328125001,1.0047626678980908,0.54541015625,0.01416015625,-0.3603515625,47.35352941176471,417.3325886351817
-0.6211943359375,-0.0444072265625,0.7766650390625001,0.995521465199902,0.60107421875,-0.04248046875,-0.40087890625,48.1064705882353,417.3325886351817
-0.6358427734375,-0.0414775390625,0.7771533203125001,1.0049794535472436,0.638671875,-0.06103515625,-0.3916015625,47.96529411764706,416.57246033019686
-0.6387724609375,-0.0336650390625,0.7761767578125001,1.005790212258776,0.650390625,-0.0751953125,-0.404296875,47.96529411764706,416.57246033019686
-0.6412138671875,-0.0185283203125,0.7712939453125001,1.003191343763927,0.63671875,-0.0986328125,-0.44091796875,48.1064705882353,416.57246033019686
-0.6465849609375,-0.0131572265624999,0.7693408203125001,1.0050524971962786,0.64013671875,-0.134765625,-0.46728515625,47.96529411764706,416.57246033019686
-0.6382841796875,0.0112568359375,0.7649462890625001,0.996331388417106,0.6142578125,-0.138671875,-0.49267578125,48.1064705882353,415.8233543001252
-0.6436552734375,0.0083271484375,0.7781298828125001,1.0098750254119555,0.642578125,-0.12451171875,-0.48828125,47.82411764705883,415.8233543001252
-0.6373076171875,0.0205341796875,0.7810595703125001,1.0082840392654218,0.67236328125,-0.181640625,-0.50830078125,48.43588235294118,415.8233543001252
-0.6329130859375,0.0293232421875,0.7805712890625001,1.0053508662113984,0.7294921875,-0.21337890625,-0.49365234375,48.15352941176471,415.8233543001252
-0.6343779296875,0.0429951171875,0.7952197265625001,1.0181642064474192,0.779296875,-0.228515625,-0.48095703125,47.777058823529416,415.8233543001252
-0.6368193359375,0.0386005859375,0.7986376953125001,1.0221795538126648,0.86767578125,-0.22412109375,-0.50244140625,47.07117647058824,415.23684953564856
-0.6382841796875,0.0342060546875,0.8113330078125001,1.032878500978071,0.93896484375,-0.17041015625,-0.44384765625,48.53,415.23684953564856
-0.6324248046875,0.0537373046875,0.7878955078125001,1.0117451075889703,0.97314453125,-0.177734375,-0.498046875,47.91823529411765,415.23684953564856
-0.6251005859375,0.0683857421875,0.7903369140625001,1.00998009386511,1.03759765625,-0.17529296875,-0.49853515625,48.01235294117648,415.23684953564856
-0.6246123046875,0.0815693359375,0.7776416015625001,1.000759985317661,1.06982421875,-0.18896484375,-0.470703125,47.25941176470588,415.26958259137416
-0.6314482421875,0.0884052734375,0.7737353515625001,1.002601001989719,1.12646484375,-0.21142578125,-0.427734375,47.82411764705883,415.26958259137416
-0.6314482421875,0.1006123046875,0.7683642578125001,0.9996166020529912,1.16845703125,-0.22705078125,-0.4111328125,47.96529411764706,415.26958259137416
-0.6324248046875,0.1069599609375,0.7542041015625001,0.9900633280964768,1.19091796875,-0.2470703125,-0.4404296875,48.01235294117648,415.26958259137416
-0.6255888671875,0.1186787109375,0.7585986328125001,0.990413021362159,1.197265625,-0.2021484375,-0.46044921875,47.96529411764706,415.26958259137416
-0.6358427734375,0.1094013671875,0.7673876953125001,1.002570978331318,1.212890625,-0.09765625,-0.525390625,48.388823529411766,415.4866254614462
-0.6465849609375,0.1089130859375,0.7693408203125001,1.0108508642713268,1.19189453125,0.00244140625,-0.5576171875,48.1064705882353,415.4866254614462
-0.6500029296875,0.1123310546875,0.7732470703125001,1.0163823622025343,1.17236328125,0.08056640625,-0.56787109375,48.1064705882353,415.4866254614462
-0.6456083984375,0.1152607421875,0.7922900390625001,1.0285031593633074,1.00048828125,0.09521484375,-0.56982421875,47.777058823529416,415.4866254614462
-0.6436552734375,0.1157490234375,0.8059619140625001,1.0379135582359094,1.08349609375,0.0576171875,-0.5869140625,48.53,414.585467700703
-0.6475615234375,0.1137958984375,0.8118212890625001,1.0446718329279263,1.00048828125,-0.0029296875,-0.525390625,47.07117647058824,414.585467700703
-0.6597685546875,0.0971943359375,0.8210986328125001,1.0578016115979976,0.916015625,-0.0224609375,-0.484375,48.1064705882353,414.585467700703
-0.6636748046875,0.0849873046875,0.8201220703125001,1.058436251528026,0.76611328125,-0.00927734375,-0.423828125,47.35352941176471,414.585467700703
-0.6622099609375,0.0678974609375,0.8064501953125001,1.0457026418089297,0.7490234375,-0.04150390625,-0.37939453125,48.53,414.585467700703
-0.6705107421875,0.0591083984375,0.7927783203125001,1.0399884246049025,0.54931640625,-0.07568359375,-0.30322265625,48.53,414.4224601263179
-0.6749052734375,0.0527607421875,0.7805712890625001,1.0332339335013223,0.5029296875,-0.1044921875,-0.2626953125,48.53,414.4224601263179
-0.6744169921875,0.0483662109375,0.7805712890625001,1.0326999114071709,0.49609375,-0.162109375,-0.2412109375,47.96529411764706,414.4224601263179
-0.6695341796875,0.0454365234375,0.7722705078125001,1.0231042139825623,0.48388671875,-0.18310546875,-0.23046875,48.1064705882353,414.4224601263179
-0.6548857421875,0.0434833984375,0.7625048828125001,1.0060714873074634,0.48486328125,-0.12744140625,-0.24951171875,47.96529411764706,415.23684953564856
-0.6524443359375,0.0361591796875,0.7625048828125001,1.0041936038859751,0.5517578125,0.04052734375,-0.1259765625,47.96529411764706,415.23684953564856
-0.6402373046875,0.0420185546875,0.7595751953125001,0.9942956514968592,0.58642578125,0.087890625,-0.26318359375,48.53,415.23684953564856
-0.6553740234375,0.0571552734375,0.7756884765625001,1.0170911702252774,0.6171875,0.12646484375,-0.2470703125,48.53,415.23684953564856
-0.5162138671875,0.0591083984375,0.8049853515625001,0.9581085406532612,0.63330078125,0.30517578125,-0.33544921875,47.96529411764706,415.23684953564856
-0.6119169921875,0.0390888671875,0.7981494140625001,1.0064853859019072,0.57080078125,0.32080078125,-0.4658203125,48.53,415.36703869560455
-0.6104521484375,0.0283466796875,0.7859423828125001,0.9955705845806492,0.55126953125,0.30517578125,-0.5517578125,48.53,415.36703869560455
-0.6041044921875,0.0234638671875,0.7766650390625001,0.9842262816275862,0.52001953125,0.26318359375,-0.611328125,48.01235294117648,415.36703869560455
-0.6099638671875,0.0073505859375,0.7537158203125001,0.9696378128854606,0.515625,0.29248046875,-0.65087890625,47.91823529411765,415.36703869560455
-0.6153349609375,-0.0199931640625,0.7263720703125001,0.9521833989790266,0.53857421875,0.2705078125,-0.59375,47.21235294117647,416.6048390075595
-0.6294951171875,-0.0253642578125,0.7195361328125001,0.9563679702708844,0.56103515625,0.34814453125,-0.59765625,47.96529411764706,416.6048390075595
-0.6324248046875,-0.0365947265625,0.6985400390625001,0.943005033798678,0.6015625,0.4111328125,-0.6044921875,48.388823529411766,416.6048390075595
-0.6431669921875,-0.0507548828125,0.6980517578125001,0.9505346361674296,0.625,0.416015625,-0.6396484375,48.43588235294118,416.6048390075595
-0.6456083984375,-0.0370830078125,0.6941455078125001,0.948695599029388,0.625,0.4287109375,-0.68212890625,47.21235294117647,416.6048390075595
-0.6451201171875,-0.0444072265625,0.7161181640625001,0.9648715936699724,0.63818359375,0.62451171875,-0.7275390625,47.96529411764706,416.8003299319627
-0.6397490234375,-0.0444072265625,0.7278369140625001,0.970050198820778,0.6201171875,0.58642578125,-0.765625,47.91823529411765,416.8003299319627
-0.6407255859375,-0.0322001953125,0.7415087890625001,0.9805107920416026,0.5693359375,0.66455078125,-0.7978515625,47.35352941176471,416.8003299319627
-0.6387724609375,-0.0190166015625,0.7590869140625001,0.9922725588708308,0.48486328125,0.64599609375,-0.8330078125,48.43588235294118,416.8003299319627
-0.6421904296875,-0.0151103515624999,0.7615283203125001,0.9962741858266408,0.4462890625,0.61328125,-0.837890625,47.96529411764706,416.3876786246245
-0.6451201171875,-0.0180400390625,0.7581103515625001,0.9956087151866478,0.3984375,0.509765625,-0.87451171875,47.777058823529416,416.3876786246245
-0.6387724609375,-0.0126689453124999,0.7600634765625001,0.9929185502506008,0.349609375,0.388671875,-0.8818359375,48.01235294117648,416.3876786246245
-0.7564482421875,-0.0072978515624999,0.7556689453125001,1.0692533641077278,0.3466796875,0.29638671875,-0.9052734375,48.1064705882353,416.3876786246245
-0.6280302734375,0.0063740234375,0.7473681640625001,0.9762283673315968,0.32763671875,0.20166015625,-0.966796875,47.35352941176471,416.3876786246245
-0.6265654296875,0.0102802734375,0.7522509765625001,0.979066623596508,0.35205078125,0.11474609375,-0.966796875,48.15352941176471,415.7796533154981
-0.6246123046875,0.0249287109375,0.7424853515625001,0.9705907835338872,0.36474609375,0.00537109375,-0.96826171875,48.1064705882353,415.7796533154981
-0.6192412109375,0.0405537109375,0.7317431640625001,0.9594541880393992,0.40771484375,-0.04638671875,-0.94921875,48.01235294117648,415.7796533154981
-0.6055693359375,0.0512958984375,0.7327197265625001,0.9519578181401316,0.45849609375,-0.109375,-0.94189453125,47.91823529411765,415.7796533154981
-0.5987333984375,0.0542255859375,0.7249072265625001,0.941760364263287,0.5283203125,-0.12451171875,-0.94091796875,47.07117647058824,416.2573845389773
-0.5826201171875,0.0678974609375,0.7131884765625001,0.9234143540442044,0.60791015625,-0.09912109375,-0.958984375,48.53,416.2573845389773
-0.5884794921875,0.0718037109375,0.7092822265625001,0.9244161198005536,0.67138671875,-0.068359375,-0.9716796875,48.53,416.2573845389773
-0.5904326171875,0.0747333984375,0.7078173828125001,0.9247708925417344,0.734375,-0.0224609375,-0.9677734375,48.01235294117648,416.2573845389773
-0.6021513671875,0.0732685546875,0.7087939453125001,0.9329219726340622,0.79296875,0.0185546875,-0.97265625,47.35352941176471,416.2573845389773
-0.6060576171875,0.0805927734375,0.7175830078125001,0.9427228667973282,0.83349609375,0.10986328125,-0.98779296875,47.96529411764706,416.7241722674197
-0.6133818359375,0.0884052734375,0.7161181640625001,0.9470364269286916,0.87841796875,0.18212890625,-0.9609375,47.82411764705883,416.7241722674197
-0.6192412109375,0.0888935546875,0.7180712890625001,0.9523592376641292,0.865234375,0.22705078125,-0.9091796875,47.96529411764706,416.7241722674197
-0.6187529296875,0.0903583984375,0.7263720703125001,0.9584551177259798,0.8779296875,0.27685546875,-0.830078125,48.01235294117648,416.7241722674197
-0.6172880859375,0.0952412109375,0.7332080078125001,0.9631767501458904,0.8798828125,0.35205078125,-0.755859375,47.96529411764706,415.5949677577755
-0.6089873046875,0.1059833984375,0.7429736328125001,0.9664925437216324,0.90185546875,0.4462890625,-0.71923828125,47.96529411764706,415.5949677577755
-0.6114287109375,0.1069599609375,0.7537158203125001,0.9764082340864344,0.89453125,0.556640625,-0.689453125,47.96529411764706,415.5949677577755
-0.6099638671875,0.1142841796875,0.7644580078125001,0.984638430445324,0.89111328125,0.6259765625,-0.67236328125,47.35352941176471,415.5949677577755
-0.5962919921875,0.1269794921875,0.7649462890625001,0.97817726232704,0.8779296875,0.58984375,-0.70556640625,47.21235294117647,415.5949677577755
-0.5923857421875,0.1382099609375,0.7703173828125001,0.9815353947323958,0.87890625,0.609375,-0.716796875,47.96529411764706,414.9545321165086
-0.5884794921875,0.1499287109375,0.7615283203125001,0.974018538697604,0.87109375,0.6083984375,-0.76318359375,47.21235294117647,414.9545321165086
-0.6011748046875,0.1557880859375,0.7571337890625001,0.97925106487114,0.8671875,0.595703125,-0.7763671875,47.91823529411765,414.9545321165086
-0.6270537109375,0.1518818359375,0.7795947265625001,1.0119448533256616,0.931640625,0.716796875,-0.69189453125,47.82411764705883,414.9545321165086
-0.6548857421875,0.1411396484375,0.7839892578125001,1.0312297959460484,0.97998046875,0.79736328125,-0.57421875,48.388823529411766,414.7588824109492
-0.6729521484375,0.1260029296875,0.8020556640625001,1.054530521431797,0.9912109375,0.89013671875,-0.45166015625,48.1064705882353,414.7588824109492
-0.6880888671875,0.1001240234375,0.8132861328125001,1.070011889205817,1.05322265625,0.99462890625,-0.3046875,48.1064705882353,414.7588824109492
-0.6954130859375,0.0742451171875,0.8074267578125001,1.068199263597812,1.05322265625,1.01220703125,-0.18798828125,48.1064705882353,414.7588824109492
-0.7012724609375,0.0532490234375,0.8103564453125001,1.0729846650469408,1.03466796875,1.12451171875,-0.11083984375,47.96529411764706,414.7588824109492
-0.7125029296875,0.0312763671875,0.8020556640625001,1.0732809157962586,1.00390625,0.98828125,-0.10107421875,47.96529411764706,414.9868915742733
-0.7105498046875,0.0234638671875,0.8030322265625001,1.0725168226665556,0.9169921875,0.93310546875,-0.09130859375,47.82411764705883,414.9868915742733
-0.7256865234375,-0.0004619140624999,0.8010791015625001,1.080901878351402,0.8515625,0.892578125,-0.083984375,48.1064705882353,414.9868915742733
-0.7437529296875,-0.0199931640625,0.7918017578125001,1.0865165303403967,0.763671875,0.8056640625,-0.09033203125,47.777058823529416,414.9868915742733
-0.7627958984375,-0.0356181640625,0.7918017578125001,1.1000346630716782,0.705078125,0.75146484375,-0.08349609375,47.82411764705883,415.50811087489103
-0.7720732421875,-0.0546611328125,0.8010791015625001,1.1139177068807398,0.685546875,0.65869140625,-0.12451171875,47.96529411764706,415.50811087489103
-0.7789091796875,-0.0795634765625,0.7830126953125001,1.1073114909657136,0.64501953125,0.54443359375,-0.1337890625,47.82411764705883,415.50811087489103
-0.7798857421875,-0.1049541015625,0.7898486328125001,1.1149430465534618,0.580078125,0.46826171875,-0.17578125,48.53,415.50811087489103
-0.7701201171875,-0.1176494140625,0.7795947265625001,1.1021317150006154,0.5224609375,0.35888671875,-0.24951171875,48.1064705882353,415.50811087489103
-0.7584013671875,-0.1279033203125,0.7717822265625001,1.089577761491396,0.4951171875,0.2861328125,-0.33935546875,47.63588235294118,415.551539227009
-0.7374052734375,-0.1230205078125,0.7771533203125001,1.0783635128789468,0.47998046875,0.193359375,-0.44384765625,48.15352941176471,415.551539227009
-0.7154326171875,-0.1181376953125,0.7693408203125001,1.057206527878359,0.48681640625,0.0595703125,-0.58056640625,48.1064705882353,415.551539227009
-0.6812529296875,-0.1005595703125,0.7654345703125001,1.0296153955816307,0.513671875,-0.06298828125,-0.74951171875,48.01235294117648,415.551539227009
-0.6519560546875,-0.0746806640625,0.7629931640625001,1.006370939184261,0.5419921875,-0.1572265625,-0.91162109375,47.96529411764706,416.6156325717358
-0.6417021484375,-0.0512431640625,0.7542041015625001,0.9915802216594164,0.60546875,-0.18017578125,-1.0966796875,47.91823529411765,416.6156325717358
-0.6246123046875,-0.0219462890625,0.7566455078125001,0.9813942099194805,0.6982421875,-0.2001953125,-1.1845703125,48.15352941176471,416.6156325717358
-0.6177763671875,0.0190693359375,0.7551806640625001,0.9758632664478976,0.7744140625,-0.1806640625,-1.26904296875,48.1064705882353,416.6156325717358
-0.6187529296875,0.0542255859375,0.7605517578125001,0.9819544686383443,0.7509765625,-0.19970703125,-1.27294921875,47.777058823529416,416.6156325717358
-0.6177763671875,0.0854755859375,0.7644580078125001,0.9865848981995418,0.8701171875,-0.26171875,-1.263671875,47.07117647058824,417.397532992289
-0.6104521484375,0.1015888671875,0.7781298828125001,0.994212370670469,0.89404296875,-0.3447265625,-1.2705078125,47.96529411764706,417.397532992289
-0.6143583984375,0.0986591796875,0.8020556640625001,1.0151173152508228,0.880859375,-0.3642578125,-1.26416015625,48.15352941176471,417.397532992289
-0.6314482421875,0.1162373046875,0.8132861328125001,1.0361816092692486,0.93017578125,-0.30908203125,-1.2529296875,47.07117647058824,417.397532992289
-0.6460966796875,0.1294208984375,0.8225634765625001,1.0539456159736935,0.95947265625,-0.271484375,-1.25341796875,47.777058823529416,416.6481002828788
-0.6651396484375,0.1484638671875,0.8250048828125001,1.070086598574291,0.99609375,-0.27294921875,-1.212890625,48.01235294117648,416.6481002828788
-0.6846708984375,0.1689716796875,0.8318408203125001,1.090543359083811,1.0361328125,-0.23974609375,-1.138671875,48.1064705882353,416.6481002828788
-0.6963896484375,0.1855732421875,0.8230517578125001,1.0939881931287612,1.0615234375,-0.23681640625,-1.017578125,48.1064705882353,416.6481002828788
-0.6968779296875,0.1938740234375,0.8157275390625001,1.0902464876505418,1.11962890625,-0.2099609375,-0.89892578125,48.01235294117648,416.6481002828788
-0.6973662109375,0.1953388671875,0.8069384765625001,1.0842631646184564,1.1865234375,-0.16064453125,-0.787109375,47.96529411764706,415.1605982823758
-0.6871123046875,0.2021748046875,0.8020556640625001,1.0753098433280217,1.271484375,-0.07958984375,-0.728515625,47.82411764705883,415.1605982823758
-0.6851591796875,0.1943623046875,0.7830126953125001,1.058455803524186,1.3564453125,-0.02880859375,-0.67431640625,47.82411764705883,415.1605982823758
-0.6744169921875,0.1933857421875,0.7698291015625001,1.0415724507902322,1.40185546875,0.05029296875,-0.619140625,48.01235294117648,415.1605982823758
-0.6651396484375,0.1850849609375,0.7693408203125001,1.033708127320235,1.44580078125,0.18896484375,-0.55029296875,47.35352941176471,414.14006400406976
-0.6382841796875,0.1845966796875,0.7546923828125001,1.0055064499376438,1.45703125,0.30517578125,-0.576171875,47.96529411764706,414.14006400406976
-0.6153349609375,0.1758076171875,0.7473681640625001,0.983923068673183,1.45751953125,0.49951171875,-0.55517578125,47.68294117647059,414.14006400406976
-0.5909208984375,0.1714130859375,0.7390673828125001,0.9616603093494696,1.39599609375,0.3984375,-0.53515625,48.53,414.14006400406976
-0.5655302734375,0.1557880859375,0.7351611328125001,0.9405085374905012,1.3486328125,0.4091796875,-0.5380859375,48.1064705882353,414.14006400406976
-0.5611357421875,0.1386982421875,0.7200244140625001,0.9233340026189144,1.29345703125,0.40087890625,-0.50244140625,47.96529411764706,414.7479091807907
-0.5557646484375,0.1255146484375,0.7219775390625001,0.9197172599967834,1.205078125,0.3974609375,-0.47412109375,47.96529411764706,414.7479091807907
-0.5567412109375,0.1094013671875,0.7112353515625001,0.90982699476927,1.17578125,0.40869140625,-0.44287109375,48.1064705882353,414.7479091807907
-0.5689482421875,0.0908466796875,0.7122119140625001,0.9160791625351268,1.1279296875,0.46875,-0.37890625,48.1064705882353,414.7479091807907
-0.5850615234375,0.0815693359375,0.7122119140625001,0.9253087880836662,1.1064453125,0.5166015625,-0.32080078125,48.01235294117648,416.0075035072805
-0.6001982421875,0.0737568359375,0.7175830078125001,0.9384046962125192,1.0673828125,0.57861328125,-0.2666015625,47.96529411764706,416.0075035072805
-0.6163115234375,0.0654560546875,0.7175830078125001,0.948182346449426,1.0517578125,0.60107421875,-0.24560546875,47.91823529411765,416.0075035072805
-0.6260771484375,0.0532490234375,0.7234423828125001,0.9582154953569196,1.01953125,0.63916015625,-0.22802734375,47.96529411764706,416.0075035072805
-0.6358427734375,0.0434833984375,0.7239306640625001,0.9645011378128792,0.9599609375,0.662109375,-0.12548828125,47.96529411764706,416.0075035072805
-0.6417021484375,0.0371357421875,0.7361376953125001,0.9772714142535424,0.9169921875,0.63525390625,-0.2939453125,47.96529411764706,416.9194978144356
-0.6475615234375,0.0346943359375,0.7341845703125001,0.9795747071396802,0.82275390625,0.623046875,-0.3544921875,47.96529411764706,416.9194978144356
-0.6529326171875,0.0283466796875,0.7483447265625001,0.9935513910264164,0.7197265625,0.5703125,-0.3662109375,47.82411764705883,416.9194978144356
-0.6670927734375,0.0180927734375,0.7566455078125001,1.0088867832001926,0.6572265625,0.5654296875,-0.2509765625,47.40058823529412,416.9194978144356
-0.6705107421875,0.0093037109375,0.7644580078125001,1.0168909775067811,0.61181640625,0.53466796875,-0.41796875,48.53,416.2572095905268
-0.6661162109375,0.0044208984375,0.7629931640625001,1.0128617473391084,0.55322265625,0.55078125,-0.47998046875,48.1064705882353,416.2572095905268
-0.6670927734375,0.0068623046875,0.7625048828125001,1.0131503125948609,0.494140625,0.47119140625,-0.5537109375,48.1064705882353,416.2572095905268
-0.6709990234375,0.0058857421875,0.7590869140625001,1.0131570828435763,0.49169921875,0.3583984375,-0.61572265625,47.21235294117647,416.2572095905268
-0.6709990234375,0.0029560546875,0.7566455078125001,1.011316395697326,0.50146484375,0.3017578125,-0.71533203125,48.53,416.2572095905268
-0.6709990234375,0.0039326171875,0.7385791015625001,0.9978748639969302,0.52197265625,0.2373046875,-0.77734375,47.07117647058824,416.2029859471068
-0.6763701171875,0.0117451171875,0.7361376953125001,0.9997565652007392,0.576171875,0.20068359375,-0.8876953125,48.53,416.2029859471068
-0.6812529296875,0.0161396484375,0.7395556640625001,1.0056384154885956,0.59521484375,0.21142578125,-0.9619140625,48.29470588235294,416.2029859471068
-0.6871123046875,0.0234638671875,0.7366259765625001,1.0076168426852627,0.66748046875,0.21142578125,-1.01025390625,48.1064705882353,416.2029859471068
-0.6797880859375,0.0356708984375,0.7429736328125001,1.0076676405603744,0.69873046875,0.16796875,-1.0537109375,48.53,416.3657456774636
-0.6758818359375,0.0503193359375,0.7434619140625001,1.0060238115377351,0.724609375,0.15966796875,-1.0732421875,47.82411764705883,416.3657456774636
-0.6709990234375,0.0683857421875,0.7463916015625001,1.005990418479047,0.779296875,0.13818359375,-1.1083984375,47.25941176470588,416.3657456774636
-0.6690458984375,0.0766865234375,0.7502978515625001,1.0081915012299374,0.828125,0.1396484375,-1.111328125,48.53,416.3657456774636
-0.6651396484375,0.0835224609375,0.7590869140625001,1.012718962252385,0.87060546875,0.154296875,-1.2490234375,47.21235294117647,416.3657456774636
-0.6607451171875,0.0923115234375,0.7542041015625001,1.0069405911274871,0.9296875,0.197265625,-1.12939453125,47.96529411764706,416.5937025449863
-0.6656279296875,0.1015888671875,0.7620166015625001,1.0168825594793969,0.94580078125,0.1806640625,-1.11669921875,47.07117647058824,416.5937025449863
-0.6690458984375,0.1069599609375,0.7654345703125001,1.0222293915209415,0.9521484375,0.22021484375,-1.09619140625,47.96529411764706,416.5937025449863
-0.6705107421875,0.1113544921875,0.7625048828125001,1.0214686361470295,0.9765625,0.18701171875,-1.07763671875,47.35352941176471,416.5937025449863
-0.6749052734375,0.1045185546875,0.7585986328125001,1.0207316699763482,0.98828125,0.181640625,-1.04833984375,47.35352941176471,416.007592024118
-0.6768583984375,0.1123310546875,0.7517626953125001,1.0177930572793756,0.99365234375,0.1630859375,-1.0283203125,48.53,416.007592024118
-0.6807646484375,0.1113544921875,0.7502978515625001,1.019209102957716,0.98876953125,0.16650390625,-0.986328125,47.91823529411765,416.007592024118
-0.6822294921875,0.1191669921875,0.7390673828125001,1.012846705269237,0.9970703125,0.2099609375,-0.96337890625,47.25941176470588,416.007592024118
-0.6895537109375,0.1147724609375,0.7429736328125001,1.0201308039226789,1.025390625,0.21044921875,-0.8984375,47.82411764705883,416.007592024118
-0.6954130859375,0.1152607421875,0.7405322265625001,1.0223856304547438,1.03271484375,0.30029296875,-0.833984375,47.96529411764706,415.725075667442
-0.6949248046875,0.1123310546875,0.7390673828125001,1.0206661287387195,1.0302734375,0.31591796875,-0.7890625,47.96529411764706,415.725075667442
-0.6924833984375,0.1064716796875,0.7376025390625001,1.017313610111687,1.03173828125,0.2890625,-0.7431640625,47.25941176470588,415.725075667442
-0.6919951171875,0.1054951171875,0.7351611328125001,1.015110020224362,1.01025390625,0.2666015625,-0.697265625,47.96529411764706,415.725075667442
-0.6871123046875,0.0996357421875,0.7380908203125001,1.0133255446320304,1.01904296875,0.25,-0.62353515625,47.82411764705883,416.0074154339037
-0.6851591796875,0.0874287109375,0.7312548828125001,1.0058929290154912,1.0185546875,0.25439453125,-0.548828125,47.82411764705883,416.0074154339037
-0.6880888671875,0.0791279296875,0.7341845703125001,1.009333691941846,1.01318359375,0.27783203125,-0.49462890625,47.447647058823534,416.0074154339037
-0.6944365234375,0.0688740234375,0.7322314453125001,1.0115080848381113,1.02587890625,0.33740234375,-0.46435546875,47.07117647058824,416.0074154339037
-0.7007841796875,0.0654560546875,0.7429736328125001,1.0234220931024205,1.01708984375,0.34716796875,-0.43798828125,48.53,416.0074154339037
-0.7037138671875,0.0561787109375,0.7434619140625001,1.0252340572259886,1.01708984375,0.359375,-0.46484375,48.01235294117648,416.3006411749644
-0.7061552734375,0.0620380859375,0.7532275390625001,1.0343383005151308,1.01025390625,0.34716796875,-0.48095703125,48.15352941176471,416.3006411749644
-0.7081083984375,0.0581318359375,0.7522509765625001,1.034735882255187,0.9853515625,0.29443359375,-0.52001953125,47.21235294117647,416.3006411749644
-0.6988310546875,0.0625263671875,0.7590869140625001,1.0336766093369043,0.98583984375,0.26513671875,-0.60205078125,47.91823529411765,416.3006411749644
-0.6988310546875,0.0708271484375,0.7600634765625001,1.034928894347677,1.0087890625,0.2451171875,-0.7158203125,48.01235294117648,416.38741867269664
-0.6954130859375,0.0801044921875,0.7639697265625001,1.0361784753920122,1.0087890625,0.26708984375,-0.7783203125,47.91823529411765,416.38741867269664
-0.7017607421875,0.0962177734375,0.7717822265625001,1.047556110401057,1.00390625,0.25390625,-0.86669921875,47.16529411764706,416.38741867269664
-0.7056669921875,0.0986591796875,0.7805712890625001,1.0568779848725474,0.98583984375,0.2734375,-0.904296875,47.96529411764706,416.38741867269664
-0.7061552734375,0.1084248046875,0.7893603515625001,1.0646600270011015,0.9892578125,0.30126953125,-0.9482421875,48.01235294117648,416.38741867269664
-0.7046904296875,0.1079365234375,0.7947314453125001,1.06763147431753,0.9765625,0.296875,-0.99267578125,48.53,416.2136046089988
-0.6968779296875,0.1162373046875,0.7957080078125001,1.0640964211872384,0.9580078125,0.26318359375,-1.0439453125,48.1064705882353,416.2136046089988
-0.6963896484375,0.1250263671875,0.7761767578125001,1.0502573467066691,0.9501953125,0.25244140625,-1.0458984375,47.82411764705883,416.2136046089988
-0.7046904296875,0.1313740234375,0.7717822265625001,1.0533259424153,0.9716796875,0.25244140625,-1.0556640625,47.96529411764706,416.2136046089988
-0.7051787109375,0.1411396484375,0.7620166015625001,1.0477913512610213,0.9853515625,0.2509765625,-1.05078125,48.1064705882353,415.5947877997192
-0.7085966796875,0.1469990234375,0.7532275390625001,1.0445428152823024,1.01416015625,0.2548828125,-1.02978515625,47.96529411764706,415.5947877997192
-0.7115263671875,0.1592060546875,0.7473681640625001,1.0441147023705548,1.00244140625,0.2685546875,-1.025390625,47.96529411764706,415.5947877997192
-0.7076201171875,0.1621357421875,0.7380908203125001,1.0352740159845228,1.03662109375,0.251953125,-0.986328125,48.01235294117648,415.5947877997192
-0.7032255859375,0.1679951171875,0.7278369140625001,1.0259118663842453,1.08154296875,0.248046875,-0.95947265625,47.96529411764706,415.5947877997192
-0.7081083984375,0.1772724609375,0.7297900390625001,1.0321998500578289,1.09326171875,0.26513671875,-0.953125,47.96529411764706,415.7793849381606
-0.7042021484375,0.1865498046875,0.7195361328125001,1.023930535688678,1.095703125,0.29296875,-0.943359375,48.53,415.7793849381606
-0.7115263671875,0.1870380859375,0.7249072265625001,1.0328327569925058,1.10791015625,0.33935546875,-0.90478515625,47.91823529411765,415.7793849381606
-0.7090849609375,0.1904560546875,0.7190478515625001,1.0276695983785409,1.109375,0.38720703125,-0.88232421875,47.16529411764706,415.7793849381606
-0.7081083984375,0.1889912109375,0.7249072265625001,1.030837362958813,1.1123046875,0.41015625,-0.85205078125,47.91823529411765,416.1268284984157
-0.7085966796875,0.1845966796875,0.7229541015625001,1.0290033146602786,1.1171875,0.4736328125,-0.830078125,47.91823529411765,416.1268284984157
-0.7100615234375,0.1675068359375,0.7288134765625001,1.0312201466085182,1.0908203125,0.51806640625,-0.78515625,48.1064705882353,416.1268284984157
-0.7100615234375,0.1479755859375,0.7332080078125001,1.0313477220706433,1.0625,0.57177734375,-0.71533203125,47.777058823529416,416.1268284984157
-0.7076201171875,0.1362568359375,0.7253955078125001,1.0224924441494443,1.05517578125,0.58154296875,-0.66845703125,48.01235294117648,416.1268284984157
-0.7002958984375,0.1196552734375,0.7190478515625001,1.0108222112055292,1.0546875,0.580078125,-0.5986328125,47.96529411764706,415.8880040240831
-0.7027373046875,0.1001240234375,0.7156298828125001,1.0079636246626154,1.03662109375,0.57958984375,-0.55126953125,48.53,415.8880040240831
-0.7061552734375,0.0913349609375,0.7117236328125001,1.0067511483961007,1.03564453125,0.54931640625,-0.37646484375,47.35352941176471,415.8880040240831
-0.7081083984375,0.0849873046875,0.7058642578125001,1.0034364436041572,1.013671875,0.56201171875,-0.478515625,47.96529411764706,415.8880040240831
-0.7159208984375,0.0771748046875,0.7058642578125001,1.0083367660436182,1.017578125,0.54541015625,-0.5107421875,47.25941176470588,416.26791593291847
-0.7168974609375,0.0698505859375,0.7068408203125001,1.0091803699609372,0.9736328125,0.52392578125,-0.5185546875,47.96529411764706,416.26791593291847
-0.7227568359375,0.0669208984375,0.7097705078125001,1.0151994997548426,0.96337890625,0.47802734375,-0.55419921875,47.82411764705883,416.26791593291847
-0.7247099609375,0.0654560546875,0.7058642578125001,1.0137718545286594,0.90625,0.44091796875,-0.607421875,47.96529411764706,416.26791593291847
-0.7237333984375,0.0644794921875,0.7097705078125001,1.0157370775388015,0.86962890625,0.3857421875,-0.66796875,48.53,416.26791593291847
-0.7203154296875,0.0659443359375,0.7092822265625001,1.0130568841904106,0.83984375,0.31640625,-0.73193359375,47.82411764705883,416.4742834935429
-0.7149443359375,0.0693623046875,0.7014697265625001,1.0040001544244617,0.82861328125,0.2578125,-0.794921875,47.777058823529416,416.4742834935429
-0.7120146484375,0.0718037109375,0.6965869140625001,0.9986761043186572,0.869140625,0.22412109375,-0.87646484375,47.25941176470588,416.4742834935429
-0.7051787109375,0.0761982421875,0.6897509765625001,0.9893632276069602,0.90673828125,0.25341796875,-0.95068359375,48.01235294117648,416.4742834935429
-0.7022490234375,0.0830341796875,0.6780322265625001,0.9796816146956112,0.93115234375,0.27587890625,-1.02197265625,47.777058823529416,416.6153767774428
-0.6959013671875,0.0908466796875,0.6668017578125001,0.968068394425474,0.97509765625,0.27001953125,-1.0546875,47.91823529411765,416.6153767774428
-0.7002958984375,0.0991474609375,0.6697314453125001,0.9740558368076794,1.0146484375,0.25,-1.08935546875,48.53,416.6153767774428
-0.7032255859375,0.1103779296875,0.6682666015625001,0.9763655887233696,1.060546875,0.21630859375,-1.0673828125,48.1064705882353,416.6153767774428
-0.7056669921875,0.1289326171875,0.6741259765625001,0.9843959345274216,1.103515625,0.27587890625,-1.09228515625,47.96529411764706,416.6153767774428
-0.7105498046875,0.1323505859375,0.6775439453125001,0.9906883972112888,1.12744140625,0.2998046875,-1.1005859375,47.16529411764706,416.5501001462197
-0.7061552734375,0.1528583984375,0.6907275390625001,0.9995626510608554,1.13916015625,0.326171875,-1.1015625,48.01235294117648,416.5501001462197
-0.7046904296875,0.1567646484375,0.6975634765625001,1.0038717849042516,1.13330078125,0.35400390625,-1.0830078125,48.1064705882353,416.5501001462197
-0.7125029296875,0.1616474609375,0.7073291015625001,1.0169094278046715,1.11328125,0.39990234375,-1.072265625,47.82411764705883,416.5501001462197
-0.7095732421875,0.1689716796875,0.5877001953125001,0.9367161438425444,1.091796875,0.40087890625,-1.0419921875,47.07117647058824,416.246156912861
-0.7129912109375,0.1714130859375,0.7190478515625001,1.0270193404904244,1.07861328125,0.42236328125,-1.01025390625,47.82411764705883,416.246156912861
-0.7120146484375,0.1738544921875,0.7092822265625001,1.019937018134359,1.09619140625,0.42822265625,-1.00341796875,48.388823529411766,416.246156912861
-0.7198271484375,0.1797138671875,0.7136767578125001,1.0294574844688391,1.12744140625,0.4326171875,-0.982421875,48.29470588235294,416.246156912861
-0.7198271484375,0.1792255859375,0.7112353515625001,1.0276812052356197,1.1328125,0.44091796875,-0.96337890625,48.01235294117648,416.246156912861
-0.7203154296875,0.1816669921875,0.7043994140625001,1.023736171495339,1.1376953125,0.41015625,-0.93017578125,48.53,415.79017594323153
-0.7198271484375,0.1855732421875,0.7048876953125001,1.024429214170804,1.11669921875,0.37841796875,-0.8798828125,47.35352941176471,415.79017594323153
-0.7222685546875,0.1919208984375,0.7073291015625001,1.0289897736443452,1.11962890625,0.39501953125,-0.87548828125,48.53,415.79017594323153
-0.7276396484375,0.1875263671875,0.7039111328125001,1.0296195798770371,1.14404296875,0.41455078125,-0.83642578125,48.53,415.79017594323153
-0.7305693359375,0.1885029296875,0.6990283203125001,1.0285453328423817,1.14599609375,0.3994140625,-0.8330078125,48.388823529411766,416.2895889040084
-0.7300810546875,0.1787373046875,0.7102587890625001,1.0341338974915644,1.14208984375,0.412109375,-0.85986328125,47.96529411764706,416.2895889040084
-0.7281279296875,0.1816669921875,0.7073291015625001,1.031255368935683,1.12255859375,0.380859375,-0.86962890625,47.96529411764706,416.2895889040084
-0.7256865234375,0.1792255859375,0.7034228515625001,1.026424107790617,1.0927734375,0.38427734375,-0.87841796875,47.96529411764706,416.2895889040084
-0.7222685546875,0.1875263671875,0.7053759765625001,1.0268365360622944,1.08544921875,0.349609375,-0.8955078125,48.01235294117648,416.2895889040084
-0.7203154296875,0.1855732421875,0.7087939453125001,1.0274631883301355,1.05712890625,0.3466796875,-0.89892578125,48.1064705882353,416.2570364159882
-0.7212919921875,0.1831318359375,0.7112353515625001,1.029395518078394,1.04150390625,0.39453125,-0.8974609375,48.1064705882353,416.2570364159882
-0.7198271484375,0.1894794921875,0.7170947265625001,1.0335755649448386,1.01171875,0.41064453125,-0.88916015625,48.01235294117648,416.2570364159882
-0.7222685546875,0.1904560546875,0.7166064453125001,1.0351184334755688,1.0078125,0.4150390625,-0.8974609375,48.53,416.2570364159882
-0.7251982421875,0.1919208984375,0.7180712890625001,1.0384471570112643,1.01953125,0.4140625,-0.90283203125,47.82411764705883,416.094016671983
-0.7276396484375,0.1880146484375,0.7302783203125001,1.0479100109855672,1.021484375,0.384765625,-0.927734375,47.35352941176471,416.094016671983
-0.7217802734375,0.1928974609375,0.7214892578125001,1.038615878320026,1.02001953125,0.39892578125,-0.962890625,48.01235294117648,416.094016671983
-0.7247099609375,0.1997333984375,0.7195361328125001,1.040591276321397,1.01513671875,0.36572265625,-1.0009765625,47.91823529411765,416.094016671983
-0.7256865234375,0.2036396484375,0.7151416015625001,1.0389983383047017,1.04345703125,0.3671875,-1.00732421875,48.43588235294118,416.094016671983
-0.7271513671875,0.2119404296875,0.7268603515625001,1.049758937667279,1.01806640625,0.36669921875,-1.03662109375,48.1064705882353,415.9638096874735
-0.7291044921875,0.2124287109375,0.7249072265625001,1.049861802753627,1.013671875,0.35009765625,-1.02734375,48.15352941176471,415.9638096874735
-0.7320341796875,0.2104755859375,0.7297900390625001,1.0548779614824315,1.02001953125,0.357421875,-1.021484375,47.82411764705883,415.9638096874735
-0.7300810546875,0.2104755859375,0.7317431640625001,1.0548774226617732,0.87744140625,0.31640625,-1.0224609375,48.1064705882353,415.9638096874735
-0.7198271484375,0.2129169921875,0.7244189453125001,1.0432006410645602,1.0263671875,0.302734375,-0.9931640625,47.25941176470588,415.9419638899087
-0.7188505859375,0.2090107421875,0.7073291015625001,1.0299252949460316,0.9951171875,0.2900390625,-0.97900390625,48.53,415.9419638899087
-0.7188505859375,0.1992451171875,0.7122119140625001,1.0313537667349248,1.0087890625,0.2783203125,-0.986328125,47.96529411764706,415.9419638899087
-0.7222685546875,0.2051044921875,0.7029345703125001,1.0285216224981766,1.0224609375,0.29248046875,-0.98388671875,48.53,415.9419638899087
-0.7330107421875,0.2036396484375,0.7009814453125001,1.0344799859109983,1.0283203125,0.3291015625,-1.0185546875,48.53,415.9419638899087
-0.7349638671875,0.2007099609375,0.7029345703125001,1.0366163150515997,1.02880859375,0.384765625,-1.0,47.21235294117647,416.18096612459175
-0.7374052734375,0.1904560546875,0.7107470703125001,1.0417300245353227,1.0146484375,0.42626953125,-0.98046875,47.91823529411765,416.18096612459175
-0.7427763671875,0.1855732421875,0.7107470703125001,1.0446604988349286,0.998046875,0.45849609375,-0.96533203125,48.01235294117648,416.18096612459175
-0.7354521484375,0.1845966796875,0.7278369140625001,1.0510529816641057,0.9638671875,0.44140625,-0.9892578125,48.01235294117648,416.18096612459175
-0.7310576171875,0.1792255859375,0.7312548828125001,1.049428775067479,0.9365234375,0.4365234375,-0.9716796875,47.07117647058824,416.0722578509
-0.7271513671875,0.1792255859375,0.7288134765625001,1.045007179437734,0.91015625,0.41796875,-0.97802734375,47.96529411764706,416.0722578509
-0.7266630859375,0.1714130859375,0.7195361328125001,1.0368962980537615,0.90771484375,0.39892578125,-0.9853515625,47.25941176470588,416.0722578509
-0.7315458984375,0.1665302734375,0.7161181640625001,1.0371677580758782,0.89599609375,0.37353515625,-0.98193359375,47.96529411764706,416.0722578509
-0.7310576171875,0.1572529296875,0.7131884765625001,1.0333496633012016,0.91259765625,0.38037109375,-0.994140625,48.1064705882353,416.0722578509
-0.7247099609375,0.1552998046875,0.7034228515625001,1.0218249678483724,0.9189453125,0.3564453125,-1.0380859375,47.96529411764706,416.2677444108576
-0.7315458984375,0.1523701171875,0.7000048828125001,1.0239057037119206,0.9306640625,0.33447265625,-1.0390625,47.91823529411765,416.2677444108576
-0.7247099609375,0.1435810546875,0.6936572265625001,1.013400411836105,0.923828125,0.2978515625,-1.0380859375,48.01235294117648,416.2677444108576
-0.7261748046875,0.1469990234375,0.6868212890625001,1.0102782007763909,0.9345703125,0.27783203125,-1.02392578125,48.1064705882353,416.2677444108576
-0.7242216796875,0.1406513671875,0.6853564453125001,1.0069723459720643,0.9453125,0.220703125,-1.01025390625,47.82411764705883,416.2895032432842
-0.7271513671875,0.1401630859375,0.6809619140625001,1.006033761792236,0.98291015625,0.22705078125,-1.1240234375,47.35352941176471,416.2895032432842
-0.7295927734375,0.1386982421875,0.6868212890625001,1.011566261076159,0.97607421875,0.22314453125,-1.029296875,47.82411764705883,416.2895032432842
-0.7349638671875,0.1391865234375,0.6790087890625001,1.0102463610436545,0.99560546875,0.23291015625,-1.044921875,47.96529411764706,416.2895032432842
-0.7408232421875,0.1538349609375,0.6956103515625001,1.0277927965172484,0.8779296875,0.24658203125,-1.0732421875,48.53,416.2895032432842
-0.7427763671875,0.1465107421875,0.8352587890625001,1.127315117407172,0.9912109375,0.271484375,-1.12841796875,48.1064705882353,416.2242269116911
-0.7427763671875,0.1592060546875,0.7156298828125001,1.0436423854346142,0.986328125,0.29736328125,-1.14208984375,47.82411764705883,416.2242269116911
-0.7359404296875,0.1596943359375,0.7288134765625001,1.047988397167764,0.8759765625,0.30029296875,-1.13818359375,47.96529411764706,416.2242269116911
-0.7364287109375,0.1660419921875,0.7297900390625001,1.049995566932312,1.01806640625,0.32470703125,-1.1357421875,48.01235294117648,416.2242269116911
-0.7330107421875,0.1699482421875,0.7376025390625001,1.0536814788238131,1.03564453125,0.3291015625,-1.10205078125,48.1064705882353,415.9202917918731
-0.7295927734375,0.1606708984375,0.7395556640625001,1.0512199260401518,1.017578125,0.29931640625,-1.06689453125,48.01235294117648,415.9202917918731
-0.7212919921875,0.1596943359375,0.7371142578125001,1.0436004254477882,1.04248046875,0.29052734375,-1.05126953125,48.1064705882353,415.9202917918731
-0.7149443359375,0.1650654296875,0.7253955078125001,1.0317900185219793,1.060546875,0.2626953125,-1.06982421875,47.91823529411765,415.9202917918731
-0.7115263671875,0.1636005859375,0.7234423828125001,1.0278150632149552,1.091796875,0.2197265625,-1.03759765625,47.777058823529416,415.9202917918731
-0.7125029296875,0.1640888671875,0.7170947265625001,1.02411446040562,1.08056640625,0.2265625,-1.0400390625,47.96529411764706,415.214451480376
-0.7178740234375,0.1665302734375,0.7019580078125001,1.0177526665303347,1.083984375,0.22802734375,-1.02734375,47.21235294117647,415.214451480376
-0.7129912109375,0.1582294921875,0.7000048828125001,1.0116322825183954,1.0703125,0.23828125,-1.0126953125,47.35352941176471,415.214451480376
-0.7120146484375,0.1587177734375,0.7019580078125001,1.0123740592916377,1.0654296875,0.28076171875,-1.0185546875,48.1064705882353,415.214451480376
-0.7183623046875,0.1562763671875,0.7039111328125001,1.0178200168176277,1.06298828125,0.29833984375,-0.9853515625,47.91823529411765,415.9853950315693
-0.7344755859375,0.1548115234375,0.7146533203125001,1.036412255022563,1.05908203125,0.3564453125,-0.9814453125,48.388823529411766,415.9853950315693
-0.7525419921875,0.1640888671875,0.7341845703125001,1.064082510722434,1.0302734375,0.38330078125,-1.03515625,48.01235294117648,415.9853950315693
-0.7598662109375,0.1738544921875,0.7507861328125001,1.082267000421724,0.9853515625,0.43505859375,-1.08349609375,47.96529411764706,415.9853950315693
-0.7593779296875,0.1758076171875,0.7683642578125001,1.094507556411272,0.92724609375,0.44970703125,-1.1650390625,47.91823529411765,415.9853950315693
-0.7476591796875,0.1919208984375,0.7844775390625001,1.1005602616493106,0.87744140625,0.44091796875,-1.2470703125,47.447647058823534,415.996188207394
-0.7227568359375,0.1963154296875,0.7805712890625001,1.0817618634137862,0.82666015625,0.3564453125,-1.30615234375,48.53,415.996188207394
-0.7027373046875,0.1977802734375,0.7590869140625001,1.0531712581823498,0.78857421875,0.23583984375,-1.29345703125,47.96529411764706,415.996188207394
-0.7012724609375,0.1977802734375,0.7332080078125001,1.03367987488909,0.79150390625,0.13232421875,-1.22314453125,48.01235294117648,415.996188207394
-0.7076201171875,0.2021748046875,0.7102587890625001,1.022774867377669,0.873046875,0.1396484375,-1.17724609375,48.15352941176471,415.8983602118207
-0.7198271484375,0.2134052734375,0.6990283203125001,1.0258330892291945,0.93408203125,0.2255859375,-1.158203125,48.01235294117648,415.8983602118207
-0.7310576171875,0.2202412109375,0.6951220703125001,1.0325435212515828,1.0009765625,0.27001953125,-1.17431640625,48.1064705882353,415.8983602118207
-0.7364287109375,0.2256123046875,0.7053759765625001,1.0444057768085035,1.03955078125,0.3193359375,-1.2197265625,48.1064705882353,415.8983602118207
-0.7261748046875,0.2353779296875,0.7092822265625001,1.0420239410226428,1.05517578125,0.2919921875,-1.259765625,47.96529411764706,415.8983602118207
-0.7305693359375,0.2466083984375,0.7239306640625001,1.0576496883004507,1.08251953125,0.3203125,-1.27587890625,47.25941176470588,416.0395341281461
-0.7154326171875,0.2573505859375,0.7302783203125001,1.054219891169094,1.0478515625,0.3154296875,-1.28125,47.82411764705883,416.0395341281461
-0.7164091796875,0.2641865234375,0.7317431640625001,1.0575843654568218,1.01220703125,0.32470703125,-1.21630859375,47.82411764705883,416.0395341281461
-0.7164091796875,0.2666279296875,0.7293017578125001,1.0565101133346342,0.9873046875,0.3525390625,-1.169921875,48.388823529411766,416.0395341281461
-0.7173857421875,0.2695576171875,0.7253955078125001,1.0552261628827575,0.98681640625,0.36767578125,-1.083984375,48.1064705882353,415.7246365416724
-0.7208037109375,0.2451435546875,0.7346728515625001,1.0580158557077817,0.9931640625,0.39892578125,-1.0185546875,47.96529411764706,415.7246365416724
-0.7125029296875,0.2334248046875,0.7356494140625001,1.0503940330500587,0.99169921875,0.4501953125,-1.02734375,48.1064705882353,415.7246365416724
-0.7208037109375,0.2197529296875,0.7371142578125001,1.0541284404084652,1.01318359375,0.54833984375,-1.07568359375,47.96529411764706,415.7246365416724
-0.7291044921875,0.2070576171875,0.7459033203125001,1.0634086611536364,1.0205078125,0.6572265625,-1.08203125,48.1064705882353,415.7246365416724
-0.7310576171875,0.2070576171875,0.7478564453125001,1.06611789182936,1.05224609375,0.6982421875,-1.015625,48.53,415.5835538156157
-0.7149443359375,0.1997333984375,0.7463916015625001,1.0526819352603805,1.05712890625,0.73193359375,-0.8466796875,48.01235294117648,415.5835538156157
-0.7046904296875,0.1889912109375,0.7307666015625001,1.032630672343206,1.0224609375,0.6748046875,-0.6943359375,47.96529411764706,415.5835538156157
-0.7115263671875,0.1543232421875,0.7327197265625001,1.0329393166958685,0.98291015625,0.62744140625,-0.55859375,47.91823529411765,415.5835538156157
-0.7183623046875,0.1372333984375,0.7180712890625001,1.024940867864348,0.92529296875,0.568359375,-0.49658203125,48.388823529411766,415.33385747903606
-0.7242216796875,0.1279560546875,0.7234423828125001,1.0316194426773868,0.92822265625,0.56884765625,-0.5810546875,48.53,415.33385747903606
-0.7378935546875,0.1216083984375,0.7200244140625001,1.0381284397731982,0.9365234375,0.60888671875,-0.73583984375,48.53,415.33385747903606
-0.7417998046875,0.1216083984375,0.7131884765625001,1.036191756339765,0.92138671875,0.62158203125,-0.892578125,47.21235294117647,415.33385747903606
-0.7452177734375,0.1338154296875,0.7122119140625001,1.0394719378617998,0.95068359375,0.62158203125,-1.02099609375,48.388823529411766,415.33385747903606
-0.7501005859375,0.1391865234375,0.7087939453125001,1.0413513500457268,0.93212890625,0.5966796875,-1.041015625,48.53,415.6920854023631
-0.7584013671875,0.1299091796875,0.7053759765625001,1.043841126336019,0.943359375,0.5341796875,-0.93798828125,47.82411764705883,415.6920854023631
-0.7549833984375,0.1133076171875,0.7043994140625001,1.0387574705197258,0.97216796875,0.5087890625,-0.8388671875,48.1064705882353,415.6920854023631
-0.7520537109375,0.0952412109375,0.6887744140625001,1.024239164386349,0.97509765625,0.458984375,-0.787109375,47.96529411764706,415.6920854023631
-0.7520537109375,0.0771748046875,0.6780322265625001,1.0155138772418228,0.98779296875,0.3701171875,-0.82177734375,48.1064705882353,416.0937603075663
-0.7486357421875,0.0805927734375,0.6614306640625001,1.002218136421975,1.12451171875,0.35400390625,-0.87109375,47.96529411764706,416.0937603075663
-0.7457060546875,0.0791279296875,0.6502001953125001,0.9925215580724884,0.99365234375,0.3154296875,-1.01171875,47.82411764705883,416.0937603075663
-0.7427763671875,0.0859638671875,0.6462939453125001,0.9883331330384948,0.9638671875,0.30224609375,-1.0986328125,48.01235294117648,416.0937603075663
-0.7388701171875,-0.0317119140625,0.6360400390625001,0.9754391969040428,0.9638671875,0.2578125,-1.15283203125,47.91823529411765,416.0937603075663
-0.7310576171875,0.1025654296875,0.6409228515625001,0.9776231424582036,0.94775390625,0.2744140625,-1.20166015625,48.1064705882353,415.8764309465889
-0.7256865234375,0.1035419921875,0.6360400390625001,0.9705095598372993,0.98974609375,0.30615234375,-1.26708984375,48.1064705882353,415.8764309465889
-0.7242216796875,0.1040302734375,0.6458056640625001,0.9759017854559298,1.00048828125,0.31103515625,-1.287109375,47.96529411764706,415.8764309465889
-0.7120146484375,0.1186787109375,0.6414111328125001,0.9656385127547356,1.01123046875,0.32958984375,-1.3203125,47.21235294117647,415.8764309465889
-0.7193388671875,0.1279560546875,0.6409228515625001,0.9719070220102296,1.0068359375,0.31787109375,-1.3095703125,47.96529411764706,415.99601706023583
-0.7178740234375,0.1303974609375,0.6487353515625001,0.9763217541938782,1.0302734375,0.35205078125,-1.29052734375,48.43588235294118,415.99601706023583
-0.7149443359375,0.1372333984375,0.6521533203125001,0.9773854727437056,0.9833984375,0.388671875,-1.2509765625,47.96529411764706,415.99601706023583
-0.7120146484375,0.1455341796875,0.6594775390625001,0.9813540042078708,0.97900390625,0.37548828125,-1.2060546875,47.21235294117647,415.99601706023583
-0.7115263671875,0.1460224609375,0.6550830078125001,0.9781237536354778,0.97412109375,0.3779296875,-1.14404296875,48.53,415.99601706023583
-0.7125029296875,0.1421162109375,0.6638720703125001,0.98416643306176,0.98291015625,0.3603515625,-1.07080078125,48.20058823529412,415.6376024300983
-0.7061552734375,0.1445576171875,0.6575244140625001,0.9756487738826674,0.98681640625,0.37353515625,-1.03466796875,48.01235294117648,415.6376024300983
-0.7149443359375,0.1533466796875,0.6477587890625001,0.9768582581255124,1.00537109375,0.34912109375,-0.9716796875,47.25941176470588,415.6376024300983
-0.7266630859375,0.1479755859375,0.6482470703125001,0.9849671459833044,1.00341796875,0.32080078125,-0.89306640625,47.21235294117647,415.6376024300983
-0.7349638671875,0.1504169921875,0.6550830078125001,0.9959572805771396,1.02294921875,0.3642578125,-0.8125,48.1064705882353,415.61593037136674
-0.7496123046875,0.1386982421875,0.6589892578125001,1.0076818206344091,1.0166015625,0.376953125,-0.77099609375,47.96529411764706,415.61593037136674
-0.7549833984375,0.1367451171875,0.6746142578125001,1.0216670474448954,0.98193359375,0.42333984375,-0.75341796875,48.29470588235294,415.61593037136674
-0.7584013671875,0.1367451171875,0.6760791015625001,1.025160871471424,0.94287109375,0.4189453125,-0.74462890625,48.1064705882353,415.61593037136674
-0.7515654296875,0.1211201171875,0.6731494140625001,1.016194278443624,0.9189453125,0.39892578125,-0.6259765625,48.1064705882353,415.61593037136674
-0.7427763671875,0.1269794921875,0.6765673828125001,1.0127111861603046,0.931640625,0.400390625,-0.73876953125,47.96529411764706,415.93074187259424
-0.7403349609375,0.1172138671875,0.6692431640625001,1.0048489228196271,0.89794921875,0.34716796875,-0.6884765625,47.63588235294118,415.93074187259424
-0.7476591796875,0.1162373046875,0.6726611328125001,1.0124121490621278,0.90185546875,0.3603515625,-0.6787109375,48.1064705882353,415.93074187259424
-0.7388701171875,0.1103779296875,0.6707080078125001,1.0039728926512814,0.88720703125,0.3857421875,-0.68505859375,47.96529411764706,415.93074187259424
-0.7481474609375,0.1084248046875,0.6780322265625001,1.01548424992023,0.90625,0.4013671875,-0.70654296875,47.96529411764706,415.7679808970401
-0.7574248046875,0.1128193359375,0.6838916015625001,1.0267074851217348,0.8955078125,0.38134765625,-0.74853515625,48.01235294117648,415.7679808970401
-0.7662138671875,0.1352802734375,0.6965869140625001,1.0443264678704958,0.755859375,0.3466796875,-0.7919921875,48.53,415.7679808970401
-0.7686552734375,0.1367451171875,0.7053759765625001,1.0521812699194952,0.8701171875,0.30078125,-0.85302734375,48.01235294117648,415.7679808970401
-0.7627958984375,0.1274677734375,0.7039111328125001,1.045751642999218,0.861328125,0.2275390625,-0.87939453125,48.15352941176471,415.7679808970401
-0.7598662109375,0.1401630859375,0.6931689453125001,1.038039274752974,0.880859375,0.19287109375,-0.92041015625,48.1064705882353,415.7135848047484
-0.7706083984375,0.1372333984375,0.7009814453125001,1.0507355975988992,0.90380859375,0.20849609375,-0.9599609375,48.53,415.7135848047484
-0.7779326171875,0.1484638671875,0.7053759765625001,1.060554546006928,0.90380859375,0.2275390625,-1.015625,48.1064705882353,415.7135848047484
-0.7891630859375,0.1543232421875,0.7112353515625001,1.0735221304648976,0.8994140625,0.29736328125,-1.0654296875,48.1064705882353,415.7135848047484
-0.7891630859375,0.1728779296875,0.7166064453125001,1.0799027512896018,0.91064453125,0.341796875,-1.1552734375,48.1064705882353,415.69182646448695
-0.7876982421875,0.1767841796875,0.7283251953125001,1.0872804408523364,0.921875,0.37158203125,-1.15185546875,47.96529411764706,415.69182646448695
-0.7808623046875,0.1787373046875,0.7273486328125001,1.0820023089730628,0.927734375,0.31591796875,-1.14111328125,47.96529411764706,415.69182646448695
-0.7652373046875,0.1826435546875,0.7146533203125001,1.0628622529697611,0.94921875,0.2607421875,-1.087890625,47.82411764705883,415.69182646448695
-0.7696318359375,0.1816669921875,0.7131884765625001,1.0648820883273975,0.97607421875,0.2421875,-1.05078125,48.01235294117648,415.69182646448695
-0.7735380859375,0.1806904296875,0.7073291015625001,1.063637466289016,0.98828125,0.22607421875,-1.021484375,48.53,415.6268096200857
-0.7808623046875,0.1806904296875,0.7097705078125001,1.0705928936915945,0.99169921875,0.2294921875,-0.95751953125,47.07117647058824,415.6268096200857
-0.7735380859375,0.1855732421875,0.7073291015625001,1.0644778328030344,0.9853515625,0.2734375,-0.9326171875,47.07117647058824,415.6268096200857
-0.7789091796875,0.1777607421875,0.7288134765625001,1.0814191949857477,0.9599609375,0.30615234375,-0.91552734375,47.96529411764706,415.6268096200857
-0.7759794921875,0.1645771484375,0.7239306640625001,1.0739205820047224,0.9375,0.25390625,-0.833984375,48.53,415.8873952898485
-0.7750029296875,0.1562763671875,0.7141650390625001,1.0654029974543306,0.9052734375,0.22021484375,-0.78955078125,48.1064705882353,415.8873952898485
-0.7710966796875,0.1435810546875,0.7117236328125001,1.059129896752086,0.9033203125,0.21533203125,-0.7265625,47.96529411764706,415.8873952898485
-0.7803740234375,0.1333271484375,0.7014697265625001,1.05774265407526,0.89501953125,0.21923828125,-0.66552734375,48.01235294117648,415.8873952898485
-0.7837919921875,0.1308857421875,0.6980517578125001,1.0577037492182506,0.908203125,0.22607421875,-0.701171875,47.21235294117647,415.8873952898485
-0.7754912109375,0.1191669921875,0.7019580078125001,1.0527736865064683,0.8994140625,0.2275390625,-0.7431640625,47.96529411764706,416.1697457990197
-0.7613310546875,0.1084248046875,0.7043994140625001,1.0428611833003936,0.89111328125,0.21923828125,-0.77685546875,47.96529411764706,416.1697457990197
-0.7471708984375,0.1064716796875,0.6941455078125001,1.0253967798192327,0.86669921875,0.185546875,-0.79248046875,48.53,416.1697457990197
-0.7422880859375,0.1098896484375,0.6863330078125001,1.0169170737928577,0.8701171875,0.203125,-0.8203125,48.01235294117648,416.1697457990197
-0.7408232421875,0.1118427734375,0.6843798828125001,1.01474317249925,0.83154296875,0.19921875,-0.86328125,47.96529411764706,416.1261451767377
-0.7354521484375,0.1050068359375,0.6882861328125001,1.0127458214462923,0.81787109375,0.25537109375,-0.896484375,47.82411764705883,416.1261451767377
-0.7266630859375,0.1050068359375,0.6902392578125001,1.0077181694716864,0.79833984375,0.27294921875,-0.9228515625,47.82411764705883,416.1261451767377
-0.7232451171875,0.1059833984375,0.6892626953125001,1.0046885305553033,0.77001953125,0.25244140625,-0.96533203125,48.1064705882353,416.1261451767377
-0.7134794921875,0.1123310546875,0.6814501953125001,0.9929982982416352,0.748046875,0.20849609375,-0.99169921875,48.15352941176471,416.1261451767377
-0.7071318359375,0.1172138671875,0.6775439453125001,0.986326681118896,0.75341796875,0.20458984375,-0.95947265625,47.25941176470588,415.9957636655352
-0.6988310546875,0.1167255859375,0.6648486328125001,0.9716035250866202,0.7470703125,0.17041015625,-0.947265625,48.1064705882353,415.9957636655352
-0.6944365234375,0.1108662109375,0.6531298828125001,0.959745823452371,0.779296875,0.17236328125,-0.88671875,48.01235294117648,415.9957636655352
-0.6895537109375,0.1050068359375,0.6389697265625001,0.9459350227815008,0.80810546875,0.18896484375,-0.81591796875,47.21235294117647,415.9957636655352
-0.6973662109375,0.0942646484375,0.6296923828125001,0.944308187550259,0.82470703125,0.23876953125,-0.77001953125,47.82411764705883,416.0392800048761
-0.7002958984375,0.0879169921875,0.6248095703125001,0.942619086395864,0.85986328125,0.2822265625,-0.7451171875,48.01235294117648,416.0392800048761
-0.7129912109375,0.0859638671875,0.6326220703125001,0.9570563918507762,0.87451171875,0.30126953125,-0.7197265625,47.96529411764706,416.0392800048761
-0.7237333984375,0.0937763671875,0.6267626953125001,0.9619851949443752,0.8564453125,0.33251953125,-0.69873046875,48.01235294117648,416.0392800048761
-0.7315458984375,0.0898701171875,0.6438525390625001,0.9786634414042716,0.90478515625,0.40087890625,-0.69970703125,47.96529411764706,416.0392800048761
-0.7408232421875,0.0884052734375,0.6462939453125001,0.9870817758850352,0.8681640625,0.45263671875,-0.7333984375,48.1064705882353,416.5060055870319
-0.7471708984375,0.0830341796875,0.6682666015625001,1.005852512663845,0.85791015625,0.482421875,-0.72802734375,47.91823529411765,416.5060055870319
-0.7481474609375,0.0786396484375,0.6692431640625001,1.0068739892647878,0.82421875,0.49658203125,-0.75,48.01235294117648,416.5060055870319
-0.7520537109375,0.0683857421875,0.6741259765625001,1.0122782355388975,0.81103515625,0.49658203125,-0.71435546875,48.53,416.5060055870319
-0.7496123046875,0.0644794921875,0.6731494140625001,1.009557500048586,0.78076171875,0.4453125,-0.72119140625,47.96529411764706,415.7242932233676
-0.7569365234375,0.0522724609375,0.6677783203125001,1.0107488292179692,0.77880859375,0.44775390625,-0.6796875,48.1064705882353,415.7242932233676
-0.7554716796875,0.0493427734375,0.6638720703125001,1.0069251679451467,0.755859375,0.43603515625,-0.673828125,47.777058823529416,415.7242932233676
-0.7554716796875,0.0493427734375,0.6526416015625001,0.9995565157560736,0.7578125,0.3994140625,-0.7255859375,48.01235294117648,415.7242932233676
-0.7540068359375,0.0517841796875,0.6404345703125001,0.9906383541725728,0.7705078125,0.34326171875,-0.7451171875,48.1064705882353,415.7242932233676
-0.7427763671875,0.0469013671875,0.6350634765625001,0.978377273427774,0.76611328125,0.32958984375,-0.76416015625,48.1064705882353,415.93065732851056
-0.7413115234375,0.0552021484375,0.6282275390625001,0.9732727741028554,0.77734375,0.31591796875,-0.78564453125,48.15352941176471,415.93065732851056
-0.7388701171875,0.0615498046875,0.6218798828125001,0.967704509226152,0.78515625,0.2890625,-0.78369140625,47.96529411764706,415.93065732851056
-0.7457060546875,0.0630146484375,0.6277392578125001,0.9767829552742444,0.7978515625,0.26953125,-0.75927734375,47.25941176470588,415.93065732851056
-0.7388701171875,0.0688740234375,0.6316455078125001,0.9744992194542028,0.81640625,0.287109375,-0.73486328125,48.53,416.4952077260335
-0.7422880859375,0.0805927734375,0.6409228515625001,0.984006554505666,0.814453125,0.2919921875,-0.74609375,48.1064705882353,416.4952077260335
-0.7452177734375,0.0708271484375,0.6428759765625001,0.9867398522630576,0.80908203125,0.34326171875,-0.693359375,47.35352941176471,416.4952077260335
-0.7427763671875,0.0659443359375,0.6482470703125001,0.9880737074040769,0.7890625,0.3427734375,-0.6787109375,47.82411764705883,416.4952077260335
-0.7520537109375,0.0635029296875,0.6575244140625001,1.000977402992692,0.7900390625,0.3671875,-0.64892578125,48.01235294117648,416.4952077260335
-0.7623076171875,0.0649677734375,0.6628955078125001,1.0123063612787893,0.78173828125,0.251953125,-0.62109375,48.1064705882353,416.2670760618061
-0.7730498046875,0.0556904296875,0.6731494140625001,1.0265659054044447,0.7373046875,0.3994140625,-0.57177734375,48.53,416.2670760618061
-0.7740263671875,0.0512958984375,0.6799853515625001,1.0315658799308776,0.74267578125,0.4345703125,-0.54150390625,48.01235294117648,416.2670760618061
-0.7784208984375,0.0542255859375,0.6902392578125001,1.041782003261748,0.716796875,0.44287109375,-0.5234375,48.1064705882353,416.2670760618061
-0.7886748046875,0.0473896484375,0.7034228515625001,1.0578551103190903,0.71630859375,0.439453125,-0.4775390625,47.07117647058824,415.5940857057016
-0.7901396484375,0.0400654296875,0.7053759765625001,1.0599439471030914,0.69140625,0.43212890625,-0.4716796875,47.777058823529416,415.5940857057016
-0.7930693359375,0.0454365234375,0.7024462890625001,1.0604028660297515,0.7109375,0.4345703125,-0.47900390625,47.82411764705883,415.5940857057016
-0.7935576171875,0.0405537109375,0.7014697265625001,1.0599236163756205,0.7314453125,0.39892578125,-0.4716796875,48.15352941176471,415.5940857057016
-0.7945341796875,0.0390888671875,0.6956103515625001,1.056733771311675,0.69677734375,0.33056640625,-0.474609375,48.1064705882353,415.5940857057016
-0.7881865234375,0.0434833984375,0.6931689453125001,1.050529384840715,0.72119140625,0.27099609375,-0.46435546875,48.1064705882353,415.68086195008055
-0.7886748046875,0.0483662109375,0.6838916015625001,1.0450143351155707,0.7080078125,0.236328125,-0.49267578125,47.96529411764706,415.68086195008055
-0.7935576171875,0.0547138671875,0.6824267578125001,1.0480618201410614,0.68896484375,0.18701171875,-0.54638671875,47.96529411764706,415.68086195008055
-0.8008818359375,0.0595966796875,0.6892626953125001,1.058322513468294,0.65283203125,0.203125,-0.60986328125,48.1064705882353,415.68086195008055
-0.7872099609375,0.0688740234375,0.6941455078125001,1.0517990015777554,0.61962890625,0.2080078125,-0.64404296875,48.1064705882353,416.1910875596158
-0.7784208984375,0.0757099609375,0.6912158203125001,1.0437674087456863,0.6201171875,0.21533203125,-0.68896484375,48.1064705882353,416.1910875596158
-0.7696318359375,0.0835224609375,0.6892626953125001,1.0365289323116047,0.56787109375,0.22314453125,-0.71826171875,47.16529411764706,416.1910875596158
-0.7671904296875,0.0923115234375,0.6858447265625001,1.0331919287901128,0.59521484375,0.19287109375,-0.740234375,48.15352941176471,416.1910875596158
-0.7671904296875,0.0932880859375,0.6824267578125001,1.0310141134632709,0.60400390625,0.20361328125,-0.7109375,47.40058823529412,416.1910875596158
-0.7750029296875,0.1059833984375,0.6799853515625001,1.0364565114408546,0.61962890625,0.22705078125,-0.71875,48.43588235294118,416.25619715202095
-0.7715849609375,0.1064716796875,0.6814501953125001,1.0349173586387683,0.6337890625,0.25244140625,-0.6884765625,48.1064705882353,416.25619715202095
-0.7696318359375,0.1074482421875,0.6785205078125001,1.031633833857655,0.5029296875,0.27294921875,-0.6650390625,48.53,416.25619715202095
-0.7681669921875,0.1098896484375,0.6843798828125001,1.0346652051357286,0.61474609375,0.30517578125,-0.62744140625,48.1064705882353,416.25619715202095
-0.7671904296875,0.1079365234375,0.6755908203125001,1.0279369654732635,0.615234375,0.326171875,-0.56005859375,47.96529411764706,416.7994148148076
-0.7686552734375,0.1054951171875,0.6692431640625001,1.0246202036745462,0.60791015625,0.34228515625,-0.5263671875,47.96529411764706,416.7994148148076
-0.7764677734375,0.0957294921875,0.6599658203125001,1.023533694043443,0.58837890625,0.35400390625,-0.45556640625,48.1064705882353,416.7994148148076
-0.7774443359375,0.0835224609375,0.6633837890625001,1.0254139401009117,0.57568359375,0.4033203125,-0.38671875,48.15352941176471,416.7994148148076
-0.7754912109375,0.0693623046875,0.6614306640625001,1.0216106258820097,0.56689453125,0.40673828125,-0.32763671875,48.01235294117648,416.7994148148076
-0.7701201171875,0.0552021484375,0.6555712890625001,1.0128701728909153,0.56884765625,0.39111328125,-0.3095703125,48.01235294117648,416.5929562120396
-0.7715849609375,0.0478779296875,0.6550830078125001,1.0132963017897365,0.57763671875,0.38134765625,-0.28271484375,48.15352941176471,416.5929562120396
-0.7706083984375,0.0434833984375,0.6492236328125001,1.0085729696379648,0.5732421875,0.35498046875,-0.2724609375,47.82411764705883,416.5929562120396
-0.7671904296875,0.0405537109375,0.6423876953125001,1.0014428141255989,0.55224609375,0.3125,-0.2978515625,48.01235294117648,416.5929562120396
-0.7696318359375,0.0244404296875,0.6389697265625001,1.0006062207258122,0.544921875,0.302734375,-0.26806640625,47.91823529411765,416.9185260835587
-0.7676787109375,0.0288349609375,0.6404345703125001,1.0001592358471152,0.52587890625,0.3076171875,-0.29443359375,47.82411764705883,416.9185260835587
-0.7667021484375,0.0254169921875,0.6423876953125001,1.0005699170969728,0.5078125,0.26904296875,-0.33740234375,47.96529411764706,416.9185260835587
-0.7667021484375,0.0171162109375,0.6497119140625001,1.0051122924182616,0.490234375,0.31005859375,-0.2509765625,48.01235294117648,416.9185260835587
-0.7637724609375,0.0229755859375,0.6467822265625001,1.0011011428586232,0.455078125,0.30712890625,-0.4111328125,47.96529411764706,416.9185260835587
-0.7637724609375,0.0229755859375,0.6511767578125001,1.0039459246149145,0.40234375,0.2861328125,-0.4423828125,47.96529411764706,417.0053999976423
-0.7559599609375,0.0268818359375,0.6453173828125001,0.9943000654751925,0.3759765625,0.24951171875,-0.484375,48.388823529411766,417.0053999976423
-0.7540068359375,0.0244404296875,0.6506884765625001,0.9962525466843318,0.3779296875,0.2587890625,-0.515625,48.20058823529412,417.0053999976423
-0.7461943359375,0.0322529296875,0.6462939453125001,0.9876953488835664,0.38330078125,0.2353515625,-0.52294921875,47.82411764705883,417.0053999976423
-0.7432646484375,0.0332294921875,0.6433642578125001,0.9835975320213998,0.39404296875,0.2431640625,-0.56640625,47.91823529411765,416.8642893005423
-0.7383818359375,0.0400654296875,0.6375048828125001,0.9763326533043216,0.39306640625,0.2470703125,-0.5595703125,48.1064705882353,416.8642893005423
-0.7413115234375,0.0395771484375,0.6257861328125001,0.9709363570698624,0.38232421875,0.21826171875,-0.5537109375,48.01235294117648,416.8642893005423
-0.7315458984375,0.0473896484375,0.6233447265625001,0.962270143168246,0.42333984375,0.2353515625,-0.52197265625,48.53,416.8642893005423
-0.7315458984375,0.0381123046875,0.6199267578125001,0.9596463589996264,0.4208984375,0.22998046875,-0.4931640625,47.82411764705883,416.8642893005423
-0.7354521484375,0.0366474609375,0.6169970703125001,0.9606863607904028,0.45849609375,0.2353515625,-0.4228515625,47.82411764705883,417.1685829921597
-0.7510771484375,0.0395771484375,0.6047900390625001,0.9651187620871696,0.49267578125,0.2880859375,-0.36572265625,47.96529411764706,417.1685829921597
-0.7598662109375,0.0366474609375,0.6204150390625001,0.981659062817943,0.484375,0.3212890625,-0.33984375,47.82411764705883,417.1685829921597
-0.7632841796875,0.0386005859375,0.6287158203125001,0.9896344410473789,0.6240234375,0.3720703125,-0.29736328125,47.777058823529416,417.1685829921597
-0.7715849609375,0.0283466796875,0.6394580078125001,1.0025235308708522,0.49169921875,0.3974609375,-0.2685546875,48.43588235294118,417.4508118321416
-0.7730498046875,0.0224873046875,0.6502001953125001,1.010382092766842,0.4365234375,0.38818359375,-0.27197265625,47.96529411764706,417.4508118321416
-0.7886748046875,0.0185810546875,0.6531298828125001,1.0241737386619694,0.41650390625,0.38720703125,-0.2822265625,47.447647058823534,417.4508118321416
-0.7945341796875,0.0166279296875,0.6589892578125001,1.0323894094040535,0.4169921875,0.373046875,-0.3076171875,47.82411764705883,417.4508118321416
-0.7925810546875,0.0176044921875,0.6633837890625001,1.033717900582963,0.41796875,0.37451171875,-0.359375,47.25941176470588,417.4508118321416
-0.7974638671875,0.0073505859375,0.6702197265625001,1.0417279551095764,0.3935546875,0.3916015625,-0.3837890625,48.1064705882353,417.4182522607769
-0.7950224609375,0.0166279296875,0.6628955078125001,1.0352621193295943,0.396484375,0.34326171875,-0.408203125,47.96529411764706,417.4182522607769
-0.7940458984375,0.0239521484375,0.6594775390625001,1.0324694759498316,0.4365234375,0.3056640625,-0.45947265625,48.1064705882353,417.4182522607769
-0.7945341796875,0.0249287109375,0.6492236328125001,1.026351464520295,0.4833984375,0.28955078125,-0.45703125,47.68294117647059,417.4182522607769
-0.7920927734375,0.0327412109375,0.6531298828125001,1.027161911505793,0.51025390625,0.27294921875,-0.49267578125,48.1064705882353,417.5052062204126
-0.7872099609375,0.0312763671875,0.6492236328125001,1.020866817535925,0.5380859375,0.2529296875,-0.51171875,47.91823529411765,417.5052062204126
-0.7872099609375,0.0415302734375,0.6531298828125001,1.0237201424381976,0.5478515625,0.265625,-0.505859375,47.96529411764706,417.5052062204126
-0.7896513671875,0.0429951171875,0.6516650390625001,1.0247268830958738,0.572265625,0.23583984375,-0.50390625,48.01235294117648,417.5052062204126
-0.7901396484375,0.0586201171875,0.6516650390625001,1.0258773344354295,0.5703125,0.205078125,-0.48193359375,48.34176470588236,417.5052062204126
-0.7876982421875,0.0532490234375,0.6531298828125001,1.024637800915521,0.56689453125,0.21435546875,-0.470703125,47.82411764705883,417.6029624636611
-0.7872099609375,0.0556904296875,0.6570361328125001,1.0268872510549558,0.56640625,0.2001953125,-0.49267578125,47.96529411764706,417.6029624636611
-0.7798857421875,0.0522724609375,0.6580126953125001,1.021731319003304,0.58056640625,0.18505859375,-0.46044921875,47.777058823529416,417.6029624636611
-0.7759794921875,0.0542255859375,0.6624072265625001,1.0216985466702293,0.57861328125,0.14208984375,-0.4580078125,48.43588235294118,417.6029624636611
-0.7759794921875,0.0556904296875,0.6599658203125001,1.0201962949526426,0.61376953125,0.13330078125,-0.42236328125,47.96529411764706,417.4831438181609
-0.7901396484375,0.0708271484375,0.6585009765625001,1.0309998472950856,0.6328125,0.1328125,-0.39306640625,48.01235294117648,417.4831438181609
-0.7989287109375,0.0678974609375,0.6697314453125001,1.0447187943185403,0.6005859375,0.154296875,-0.34326171875,47.96529411764706,417.4831438181609
-0.7989287109375,0.0654560546875,0.6819384765625001,1.0524313118070423,0.61279296875,0.17578125,-0.32666015625,47.96529411764706,417.4831438181609
-0.7901396484375,0.0625263671875,0.6834033203125001,1.0465516274129774,0.6025390625,0.181640625,-0.33154296875,47.96529411764706,417.4831438181609
-0.7779326171875,0.0644794921875,0.6736376953125001,1.0310792919765617,0.583984375,0.13623046875,-0.337890625,47.96529411764706,417.6788854702826
-0.7701201171875,0.0669208984375,0.6604541015625001,1.0167413741042015,0.59228515625,0.11669921875,-0.337890625,48.01235294117648,417.6788854702826
-0.7657255859375,0.0605732421875,0.6502001953125001,1.0063623028575974,0.58837890625,0.080078125,-0.31982421875,47.96529411764706,417.6788854702826
-0.7681669921875,0.0556904296875,0.6448291015625001,1.0044832114411222,0.5908203125,0.07470703125,-0.34619140625,47.07117647058824,417.6788854702826
-0.7725615234375,0.0498310546875,0.6414111328125001,1.0053569927160968,0.6103515625,0.125,-0.36279296875,47.96529411764706,417.7548105953232
-0.7798857421875,0.0488544921875,0.6511767578125001,1.017172405342106,0.59619140625,0.201171875,-0.34130859375,47.82411764705883,417.7548105953232
-0.7706083984375,0.0537373046875,0.6555712890625001,1.0131627296246906,0.5419921875,0.259765625,-0.36572265625,47.96529411764706,417.7548105953232
-0.7730498046875,0.0595966796875,0.6707080078125001,1.0251863228218414,0.54345703125,0.2763671875,-0.38818359375,48.01235294117648,417.7548105953232
-0.7676787109375,0.0678974609375,0.6643603515625001,1.0175044693546411,0.5205078125,0.29931640625,-0.4287109375,47.82411764705883,417.7548105953232
-0.7715849609375,0.0615498046875,0.6731494140625001,1.025798159510281,0.4970703125,0.330078125,-0.44189453125,47.91823529411765,417.7437828506971
-0.7784208984375,0.0698505859375,0.6760791015625001,1.0333930283534982,0.47412109375,0.30615234375,-0.47314453125,47.21235294117647,417.7437828506971
-0.7769560546875,0.0722919921875,0.6672900390625001,1.0267243248711095,0.4521484375,0.27880859375,-0.5185546875,48.1064705882353,417.7437828506971
-0.7710966796875,0.0796162109375,0.6638720703125001,1.020614989214903,0.4501953125,0.27978515625,-0.57373046875,47.96529411764706,417.7437828506971
-0.7613310546875,0.0747333984375,0.6433642578125001,0.9995637167805904,0.4384765625,0.26025390625,-0.56103515625,47.82411764705883,416.8966905903685
-0.7486357421875,0.0810810546875,0.6399462890625001,0.9882109414465776,0.47021484375,0.23681640625,-0.53857421875,48.1064705882353,416.8966905903685
-0.7452177734375,0.0884052734375,0.6267626953125001,0.9777507343152926,0.50048828125,0.2177734375,-0.50390625,47.82411764705883,416.8966905903685
-0.7515654296875,0.0898701171875,0.6199267578125001,0.9783845962179544,0.5126953125,0.248046875,-0.4658203125,47.96529411764706,416.8966905903685
-0.6348662109375,0.0844990234375,0.6106494140625001,0.8849225376533836,0.53271484375,0.30810546875,-0.42041015625,47.25941176470588,416.8966905903685
-0.7710966796875,0.0815693359375,0.6218798828125001,0.9939709425517732,0.53076171875,0.36474609375,-0.32958984375,48.53,417.03795847241184
-0.7789091796875,0.0654560546875,0.6389697265625001,1.009587201166924,0.55517578125,0.44287109375,-0.29541015625,47.91823529411765,417.03795847241184
-0.7808623046875,0.0595966796875,0.6472705078125001,1.0160004002929823,0.517578125,0.46533203125,-0.2587890625,48.388823529411766,417.03795847241184
-0.7847685546875,0.0547138671875,0.6555712890625001,1.0240258818662675,0.51123046875,0.4697265625,-0.24658203125,48.1064705882353,417.03795847241184
-0.7779326171875,0.0537373046875,0.6624072265625001,1.023156971633138,0.4697265625,0.4375,-0.236328125,47.40058823529412,416.7229440603385
-0.7803740234375,0.0425068359375,0.6594775390625001,1.0225952630857336,0.458984375,0.39892578125,-0.2490234375,48.01235294117648,416.7229440603385
-0.7784208984375,0.0293232421875,0.6511767578125001,1.0152980437151595,0.44482421875,0.37060546875,-0.240234375,47.96529411764706,416.7229440603385
-0.7803740234375,0.0312763671875,0.6458056640625001,1.013423299187307,0.41748046875,0.3125,-0.24560546875,48.388823529411766,416.7229440603385
-0.7710966796875,0.0293232421875,0.6467822265625001,1.0068650309523213,0.40478515625,0.24755859375,-0.23046875,48.1064705882353,416.7229440603385
-0.7759794921875,0.0244404296875,0.6560595703125001,1.0164426529310455,0.42529296875,0.2177734375,-0.22314453125,47.35352941176471,416.7013444259261
-0.7764677734375,0.0185810546875,0.6497119140625001,1.0126070462203225,0.41357421875,0.208984375,-0.21923828125,48.53,416.7013444259261
-0.7769560546875,0.0180927734375,0.6589892578125001,1.0189479384534303,0.43896484375,0.2255859375,-0.24169921875,47.447647058823534,416.7013444259261
-0.7798857421875,0.0171162109375,0.6497119140625001,1.015204564025873,0.43212890625,0.1904296875,-0.24609375,48.01235294117648,416.7013444259261
-0.7828154296875,0.0215107421875,0.6609423828125001,1.0247475505626484,0.4326171875,0.20361328125,-0.1259765625,47.82411764705883,416.88604698036943
-0.7857451171875,0.0156513671875,0.6575244140625001,1.024684687875773,0.44091796875,0.17822265625,-0.27197265625,48.1064705882353,416.88604698036943
-0.7808623046875,0.0107685546875,0.6536181640625001,1.0183705637165503,0.42578125,0.21728515625,-0.30224609375,47.82411764705883,416.88604698036943
-0.7808623046875,0.0151630859375,0.6516650390625001,1.0171741154754932,0.4326171875,0.2099609375,-0.35107421875,47.82411764705883,416.88604698036943
-0.7813505859375,0.0117451171875,0.6526416015625001,1.0181295330225362,0.431640625,0.21728515625,-0.3583984375,48.01235294117648,416.88604698036943
-0.7818388671875,0.0185810546875,0.6526416015625001,1.0186060720064445,0.4189453125,0.2275390625,-0.359375,47.96529411764706,416.8642106223004
-0.7896513671875,0.0249287109375,0.6585009765625001,1.02849125346979,0.44482421875,0.2724609375,-0.3642578125,47.21235294117647,416.8642106223004
-0.7901396484375,0.0273701171875,0.6604541015625001,1.0301793084791224,0.42822265625,0.302734375,-0.390625,48.1064705882353,416.8642106223004
-0.7979521484375,0.0249287109375,0.6570361328125001,1.0339465903257443,0.4169921875,0.3466796875,-0.392578125,47.96529411764706,416.8642106223004
-0.7901396484375,0.0263935546875,0.6741259765625001,1.0389721440146134,0.40576171875,0.3623046875,-0.38330078125,48.15352941176471,416.1474088135236
-0.7857451171875,0.0259052734375,0.6741259765625001,1.0356216995854295,0.3984375,0.3671875,-0.37109375,48.1064705882353,416.1474088135236
-0.7862333984375,0.0259052734375,0.6677783203125001,1.0318730179095856,0.38720703125,0.32177734375,-0.337890625,48.1064705882353,416.1474088135236
-0.7852568359375,0.0259052734375,0.6594775390625001,1.0257728823216066,0.3583984375,0.310546875,-0.3115234375,48.1064705882353,416.1474088135236
-0.7901396484375,0.0136982421875,0.6531298828125001,1.025225316549798,0.361328125,0.3037109375,-0.29931640625,48.53,416.1474088135236
-0.7886748046875,0.0156513671875,0.6653369140625001,1.031952577426848,0.365234375,0.31640625,-0.29345703125,48.20058823529412,416.16916637076565
-0.7930693359375,0.0083271484375,0.6672900390625001,1.036486521493396,0.3486328125,0.34619140625,-0.29296875,47.96529411764706,416.16916637076565
-0.7852568359375,0.0102802734375,0.6638720703125001,1.0283287937958017,0.31787109375,0.36279296875,-0.2998046875,48.53,416.16916637076565
-0.7857451171875,0.0083271484375,0.6624072265625001,1.027739297870487,0.306640625,0.36083984375,-0.2744140625,48.1064705882353,416.16916637076565
-0.7847685546875,0.0107685546875,0.6716845703125001,1.0330236242178843,0.30078125,0.3388671875,-0.25146484375,47.21235294117647,416.364741918564
-0.7823271484375,0.0097919921875,0.6663134765625001,1.0276698396577355,0.27001953125,0.35888671875,-0.232421875,47.96529411764706,416.364741918564
-0.7828154296875,0.0019794921875,0.6668017578125001,1.0283134247728098,0.265625,0.34716796875,-0.20458984375,47.91823529411765,416.364741918564
-0.7789091796875,0.0083271484375,0.6585009765625001,1.0199962684913708,0.25537109375,0.3515625,-0.20751953125,47.96529411764706,416.364741918564
-0.7715849609375,-0.0087626953124999,0.6663134765625001,1.0195066384398233,0.24072265625,0.337890625,-0.16162109375,48.43588235294118,416.364741918564
-0.7764677734375,-0.0112041015624999,0.6526416015625001,1.0143809911314765,0.21923828125,0.3125,-0.16357421875,48.53,416.4188147762551
-0.7774443359375,-0.0107158203124999,0.6502001953125001,1.0135555328992505,0.22607421875,0.3203125,-0.16064453125,48.01235294117648,416.4188147762551
-0.7813505859375,-0.0136455078124999,0.6438525390625001,1.0125418658433654,0.2158203125,0.34619140625,-0.18603515625,48.1064705882353,416.4188147762551
-0.7852568359375,-0.0224345703125,0.6355517578125001,1.0104739705654169,0.23046875,0.3720703125,-0.18115234375,47.16529411764706,416.4188147762551
-0.7798857421875,-0.0170634765625,0.6311572265625001,1.0034303053734293,0.2119140625,0.35888671875,-0.18505859375,47.35352941176471,416.4624096065859
-0.7847685546875,-0.0204814453125,0.6311572265625001,1.0072937102307666,0.21923828125,0.35791015625,-0.17431640625,47.96529411764706,416.4624096065859
-0.7833037109375,-0.0263408203125,0.6267626953125001,1.0035387479407976,0.22119140625,0.49951171875,-0.16552734375,47.96529411764706,416.4624096065859
-0.7813505859375,-0.0263408203125,0.6282275390625001,1.0029319108474588,0.21923828125,0.38623046875,-0.15283203125,48.01235294117648,416.4624096065859
