AccX,AccY,AccZ,Magnitude,GyroX,GyroY,GyroZ,Temperature,Altitude
0.79298779296875,0.17053759765625,1.04859326171875,1.3256924758531978,0.6796875,-1.38525390625,0.04150390625,44.906470588235294,215.49705559112093
0.75978466796875,0.17786181640625,1.02710888671875,1.289907063548512,0.58984375,0.71337890625,-0.06591796875,45.235882352941175,215.49705559112093
0.76173779296875,0.17932666015625,0.98804638671875,1.26041190830128,0.390625,2.2060546875,-0.423828125,44.906470588235294,215.49705559112093
0.74611279296875,0.17297900390625,0.92603466796875,1.2017263589952665,0.220703125,3.05419921875,-0.7802734375,45.04764705882353,215.35566761275453
0.71925732421875,0.15784228515625,0.8630463867187499,1.1345018074264814,0.09912109375,3.396484375,-0.99658203125,44.906470588235294,215.35566761275453
0.70021435546875,0.14661181640625,0.8049409179687499,1.076905311406175,0.0712890625,3.17822265625,-1.083984375,45.04764705882353,215.35566761275453
0.67287060546875,0.13879931640625,0.7590424804687499,1.023799584437734,0.1279296875,2.59130859375,-1.0556640625,45.00058823529412,215.35566761275453
0.64992138671875,0.13245166015625,0.7146088867187499,0.9749908267106828,0.21533203125,1.91650390625,-0.88134765625,44.906470588235294,215.35566761275453
0.64308544921875,0.13001025390625,0.6921479492187499,0.9536930033954166,0.255859375,1.15576171875,-0.6865234375,44.906470588235294,215.37807439897932
0.65431591796875,0.13538134765625,0.6765229492187499,0.9508631503114134,0.31982421875,0.388671875,-0.5966796875,44.906470588235294,215.37807439897932
0.68019482421875,0.14905322265625,0.6716401367187499,0.9674618004499046,0.30859375,-0.4326171875,-0.7197265625,45.00058823529412,215.37807439897932
0.65578076171875,0.17346728515625,0.6833588867187499,0.9628700195339934,0.3955078125,-0.72998046875,-0.990234375,44.906470588235294,215.37807439897932
0.62355419921875,0.19299853515625,0.6823823242187499,0.9443060469688722,0.56689453125,-0.41845703125,-1.10205078125,44.67117647058824,215.3008117582445
0.63136669921875,0.19202197265625,0.6682221679687499,0.939157714460161,0.66796875,-0.12744140625,-0.97412109375,45.04764705882353,215.3008117582445
0.64503857421875,0.19153369140625,0.6828706054687499,0.9586825235640418,0.69775390625,-0.4990234375,-0.7919921875,45.09470588235294,215.3008117582445
0.64845654296875,0.19153369140625,0.6941010742187499,0.9689981136691184,0.58154296875,-0.9111328125,-0.716796875,45.00058823529412,215.3008117582445
0.65675732421875,0.19836962890625,0.7136323242187499,0.989925141996722,0.5283203125,-1.16015625,-0.8115234375,45.04764705882353,215.3008117582445
0.65968701171875,0.19299853515625,0.7219331054687499,0.99680629852275,0.51611328125,-0.9111328125,-1.10009765625,45.04764705882353,215.3124019998384
0.65187451171875,0.16467822265625,0.7116791992187499,0.9790539201935824,0.56689453125,-0.53466796875,-1.22900390625,45.00058823529412,215.3124019998384
0.62501904296875,0.15051806640625,0.7107026367187499,0.9583333085243524,0.61376953125,-0.10302734375,-1.05419921875,44.906470588235294,215.3124019998384
0.61574169921875,0.14368212890625,0.6984956054687499,0.9421669200215964,0.72216796875,0.2724609375,-0.7998046875,44.85941176470588,215.3124019998384
0.61037060546875,0.15979541015625,0.6858002929687499,0.9318845910107731,0.8583984375,0.50390625,-0.56982421875,45.09470588235294,215.57741804388823
0.59767529296875,0.14807666015625,0.6628510742187499,0.9047176353433491,0.943359375,0.390625,-0.41259765625,45.00058823529412,215.57741804388823
0.59279248046875,0.14710009765625,0.6452729492187499,0.8884922861928712,0.95556640625,0.30419921875,-0.38525390625,44.906470588235294,215.57741804388823
0.57179638671875,0.13684619140625,0.6325776367187499,0.8636159183593671,0.96484375,0.50341796875,-0.4501953125,45.09470588235294,215.57741804388823
0.54152294921875,0.11243212890625,0.6218354492187499,0.8322063530435518,1.15087890625,0.78271484375,-0.474609375,44.81235294117647,215.57741804388823
0.50783154296875,0.10413134765625,0.5954682617187499,0.7895053288693357,1.322265625,0.98193359375,-0.27978515625,44.906470588235294,215.52256101157303
0.49611279296875,0.09436572265625,0.5710541992187499,0.7623225638829392,1.341796875,1.0576171875,0.1162109375,44.906470588235294,215.52256101157303
0.50343701171875,0.09094775390625,0.5417573242187499,0.7451317447630025,1.3525390625,1.06201171875,0.32763671875,45.09470588235294,215.52256101157303
0.51320263671875,0.08411181640625,0.5290620117187499,0.7418614130942023,1.39208984375,1.13232421875,0.326171875,45.00058823529412,215.52256101157303
0.50490185546875,0.06213916015625,0.5275971679687499,0.7329024017762228,1.57373046875,1.310546875,0.20703125,45.00058823529412,215.36880727589048
0.46242138671875,0.07239306640625,0.4929291992187499,0.6797451657798159,1.8115234375,1.73193359375,0.33251953125,45.235882352941175,215.36880727589048
0.44728466796875,0.04993212890625,0.4733979492187499,0.6531940064188766,1.82861328125,2.5234375,0.484375,45.00058823529412,215.36880727589048
0.41017529296875,0.04016650390625,0.4582612304687499,0.616328219659609,2.0263671875,3.30078125,0.72021484375,45.04764705882353,215.36880727589048
0.38966748046875,0.03674853515625,0.4533784179687499,0.5989517426728469,2.22509765625,4.013671875,1.1640625,44.906470588235294,215.36880727589048
0.39259716796875,0.0269829101562499,0.4426362304687499,0.5922731179626233,2.328125,4.6240234375,1.70849609375,45.04764705882353,215.69794896178152
0.39162060546875,0.0206352539062499,0.4187104492187499,0.5736819263463449,2.623046875,4.79931640625,2.12109375,45.04764705882353,215.69794896178152
0.38624951171875,0.0304008789062499,0.3674409179687499,0.5339716536848776,2.56494140625,4.7333984375,2.7529296875,44.906470588235294,215.69794896178152
0.42384716796875,0.04651416015625,0.3752534179687499,0.5680009829105935,2.646484375,4.2822265625,3.4599609375,44.48294117647059,215.69794896178152
0.45021435546875,0.0025688476562499,0.3503510742187499,0.5704782555493724,2.78759765625,3.201171875,3.60107421875,44.81235294117647,215.4553378096536
0.43996044921875,0.03186572265625,0.3078706054687499,0.5379265106581604,2.6689453125,1.626953125,3.97802734375,45.04764705882353,215.4553378096536
0.43556591796875,0.04163134765625,0.2951752929687499,0.5278061117331085,2.57861328125,0.16015625,4.47705078125,45.04764705882353,215.4553378096536
0.42726513671875,0.0221000976562499,0.2600190429687499,0.5006533871633073,2.41943359375,-1.2021484375,4.74365234375,45.47117647058823,215.4553378096536
0.44191357421875,0.01428759765625,0.2531831054687499,0.50950311816551,2.53271484375,-2.55908203125,5.1220703125,45.18882352941176,215.4553378096536
0.47755810546875,0.0015922851562499,0.2316987304687499,0.5307999445852938,2.1962890625,-4.16015625,5.26171875,45.04764705882353,215.24827861457035
0.53126904296875,0.0035454101562499,0.2082612304687499,0.5706418369401821,1.93310546875,-5.85546875,5.22412109375,44.906470588235294,215.24827861457035
0.58986279296875,0.0006157226562499,0.1906831054687499,0.6199181723054182,1.595703125,-7.09619140625,4.90576171875,45.04764705882353,215.24827861457035
0.64992138671875,-0.01159130859375,0.1589448242187499,0.6691753316547673,1.32568359375,-8.32373046875,4.55615234375,45.09470588235294,215.24827861457035
0.75441357421875,-0.05651318359375,0.1760346679687499,0.7767379128201986,1.08935546875,-9.61181640625,3.9443359375,44.906470588235294,215.3463997988458
0.80958935546875,-0.09655224609375,0.1750581054687499,0.8339080291041465,0.63720703125,-10.92578125,3.06494140625,44.906470588235294,215.3463997988458
0.83839794921875,-0.10241162109375,0.1931245117187499,0.8664273416829948,-0.056640625,-12.54296875,2.6064453125,45.47117647058823,215.3463997988458
0.85109326171875,-0.06432568359375,0.2399995117187499,0.8866212829264265,-0.2177734375,-13.80908203125,2.62158203125,45.00058823529412,215.3463997988458
0.89699169921875,-0.06041943359375,0.2356049804687499,0.9293838406411046,-0.33984375,-14.20556640625,2.65380859375,45.04764705882353,215.3463997988458
0.96681591796875,-0.04088818359375,0.2414643554687499,0.9973514414474428,-0.96142578125,-14.25390625,2.75927734375,45.09470588235294,215.22742137120352
1.10890576171875,-0.10241162109375,0.2898041992187499,1.1507156913820686,-1.89599609375,-14.3798828125,2.701171875,45.09470588235294,215.22742137120352
1.13478466796875,-0.03502880859375,0.3781831054687499,1.196656058084541,-1.9111328125,-14.3388671875,2.53125,45.235882352941175,215.22742137120352
1.18214794921875,-0.19176708984375,0.3855073242187499,1.2581193455374329,-2.1767578125,-12.822265625,1.8984375,44.85941176470588,215.22742137120352
1.12843701171875,-0.14049755859375,0.3708588867187499,1.1960961362891436,-2.55126953125,-10.99365234375,1.89599609375,45.00058823529412,214.9624106838149
1.20412060546875,-0.16198193359375,0.3977143554687499,1.2784057602620236,-2.470703125,-9.1904296875,2.0068359375,44.81235294117647,214.9624106838149
1.25392529296875,-0.17614208984375,0.4001557617187499,1.3279605829233043,-2.9140625,-9.85986328125,2.19091796875,44.906470588235294,214.9624106838149
1.22755810546875,-0.13122021484375,0.3996674804687499,1.2976331307537987,-3.1865234375,-10.89697265625,2.8046875,45.235882352941175,214.9624106838149
1.24171826171875,-0.12389599609375,0.4392182617187499,1.3229237093502924,-3.19970703125,-12.43896484375,3.4912109375,44.906470588235294,214.9624106838149
1.21779248046875,-0.20299755859375,0.3903901367187499,1.2948478648584698,-2.9521484375,-14.08544921875,4.08447265625,44.85941176470588,215.32631788694007
1.09718701171875,-0.08288037109375,0.3835541992187499,1.165247749766244,-3.32470703125,-15.087890625,5.78076171875,45.09470588235294,215.32631788694007
1.12697216796875,-0.03356396484375,0.4377534179687499,1.2094713151024048,-3.3017578125,16.0,7.42431640625,45.04764705882353,215.32631788694007
1.07033154296875,0.06506884765625,0.4338471679687499,1.1567484307158935,-3.2001953125,16.0,8.07666015625,44.85941176470588,215.32631788694007
1.13820263671875,0.05872119140625,0.4709565429687499,1.2331883416245712,-3.02001953125,16.0,7.28759765625,44.85941176470588,215.28150227036025
1.10402294921875,0.08069384765625,0.4431245117187499,1.192366345691297,-2.87353515625,-14.8154296875,5.9794921875,44.906470588235294,215.28150227036025
1.06984326171875,0.08557666015625,0.3874604492187499,1.1410580919117606,-2.82421875,-12.84130859375,4.83349609375,45.04764705882353,215.28150227036025
1.11964794921875,0.14270556640625,0.3293549804687499,1.175776812168301,-2.892578125,-10.87451171875,4.322265625,45.09470588235294,215.28150227036025
1.11427685546875,0.22961962890625,0.2751557617187499,1.1704908277382593,-2.64111328125,-8.47021484375,4.3662109375,45.33,215.28150227036025
1.26320263671875,0.15051806640625,0.2024018554687499,1.288139394951133,-2.85302734375,-6.86474609375,4.17431640625,45.00058823529412,215.2158299749492
1.36330029296875,0.12512744140625,0.1901948242187499,1.3821789452025215,-2.787109375,-4.92822265625,2.98828125,45.04764705882353,215.2158299749492
1.44240185546875,0.05335009765625,0.1906831054687499,1.4559290478216411,-2.173828125,-3.91259765625,0.7900390625,45.18882352941176,215.2158299749492
1.37208935546875,-0.03209912109375,0.1223237304687498,1.377905166548639,-2.3203125,-3.5888671875,-0.98388671875,45.09470588235294,215.2158299749492
1.20997998046875,-0.01207958984375,0.0832612304687498,1.2129014395758295,-2.28662109375,-2.2802734375,-1.9404296875,45.00058823529412,215.14783507903363
1.12013623046875,-0.09704052734375,0.0769135742187498,1.1269595097673193,-2.1376953125,-0.0693359375,-1.943359375,44.906470588235294,215.14783507903363
1.04103466796875,-0.09069287109375,0.0622651367187498,1.0468310866757051,-1.92138671875,1.6533203125,-1.40283203125,45.00058823529412,215.14783507903363
1.03956982421875,-0.07555615234375,0.0837495117187498,1.0456711396497105,-1.40625,2.8857421875,-0.85546875,44.906470588235294,215.14783507903363
1.05177685546875,-0.23913037109375,0.0280854492187498,1.0789840965171755,-1.09326171875,3.95458984375,-1.6484375,45.00058823529412,215.14783507903363
0.90333935546875,-0.19030224609375,-0.0353911132812501,0.9238449366134498,-0.62353515625,6.1572265625,-2.69921875,45.00058823529412,215.225871427824
0.96144482421875,-0.19079052734375,-0.0456450195312501,0.9812546270714536,-0.36669921875,6.47705078125,-2.95263671875,45.00058823529412,215.225871427824
1.00490185546875,-0.18493115234375,-0.0671293945312501,1.0239793092840577,-0.607421875,4.44091796875,-2.5732421875,45.18882352941176,215.225871427824
1.07130810546875,-0.19225537109375,-0.0930083007812501,1.0923890005724397,-0.8994140625,1.9560546875,-2.06689453125,45.47117647058823,215.225871427824
1.04884716796875,-0.23229443359375,-0.1931059570312501,1.091481102115682,-1.0234375,1.478515625,-2.1943359375,45.00058823529412,215.1818319295025
1.08302685546875,-0.15075146484375,-0.1721098632812501,1.1069304309023922,-0.71875,1.44677734375,-2.32958984375,45.09470588235294,215.1818319295025
1.22023388671875,-0.16393505859375,-0.2009184570312501,1.2474829329929535,-1.01220703125,-0.255859375,-2.5771484375,44.29470588235294,215.1818319295025
1.26808544921875,-0.15123974609375,-0.1774809570312501,1.289346213174549,-1.40087890625,-3.00390625,-2.90673828125,45.235882352941175,215.1818319295025
1.28908154296875,-0.19713818359375,-0.2458403320312501,1.3270388678205969,-1.640625,-4.94140625,-3.060546875,44.81235294117647,215.1818319295025
1.37990185546875,-0.23864208984375,-0.1721098632812501,1.4109220328599954,-2.2431640625,-6.0673828125,-3.025390625,45.47117647058823,215.225871427824
1.42872998046875,-0.28307568359375,-0.1662504882812501,1.4659605808431746,-2.28125,-7.2021484375,-2.85107421875,44.85941176470588,215.225871427824
1.45070263671875,-0.41393505859375,-0.1794340820312501,1.519235650815943,-2.2548828125,-6.51513671875,-2.69873046875,45.00058823529412,215.225871427824
1.72462841796875,-0.38952099609375,0.0261323242187498,1.7682626176086895,-2.7490234375,-8.80859375,-2.04833984375,45.00058823529412,215.225871427824
1.71681591796875,-0.40319287109375,0.1687104492187499,1.7715768691104816,-2.18701171875,-12.65380859375,-1.4609375,44.906470588235294,214.9948594747244
1.59914013671875,-0.34069287109375,0.2609956054687499,1.655729300143283,-1.6689453125,16.0,-0.80029296875,44.906470588235294,214.9948594747244
1.44581982421875,-0.35973583984375,0.3654877929687499,1.5340750194762944,-1.537109375,16.0,-0.244140625,44.81235294117647,214.9948594747244
1.24611279296875,-0.18248974609375,0.3503510742187499,1.307228165025514,-1.9169921875,16.0,0.1552734375,45.235882352941175,214.9948594747244
1.16945263671875,-0.06090771484375,0.4465424804687499,1.253287439544141,-2.9052734375,16.0,0.1044921875,45.00058823529412,214.9948594747244
0.85255810546875,0.0157524414062499,0.5105073242187499,0.9938416326013464,-3.38427734375,16.0,-0.205078125,45.00058823529412,214.98404319746348
0.70021435546875,0.15051806640625,0.5236909179687499,0.887247434193047,-3.83740234375,16.0,-0.9560546875,44.57705882352941,214.98404319746348
0.65040966796875,0.24280322265625,0.5822846679687499,0.9061134452544876,-4.0537109375,-10.93896484375,-2.259765625,45.09470588235294,214.98404319746348
0.58400341796875,0.53088916015625,0.6804291992187499,1.042059109513496,-2.29541015625,-5.953125,-4.12841796875,45.235882352941175,214.98404319746348
0.32570263671875,0.64221728515625,0.4773041992187499,0.8639123494376396,-0.5205078125,3.2333984375,-5.490234375,44.906470588235294,214.65414426813908
0.32277294921875,0.75403369140625,0.1599213867187499,0.8356578453249593,0.22021484375,15.72216796875,-5.603515625,45.37705882352941,214.65414426813908
0.62990185546875,0.80139697265625,0.0832612304687498,1.0227149592162748,1.37060546875,15.99951171875,-6.69580078125,45.47117647058823,214.65414426813908
1.21925732421875,0.87268603515625,0.1921479492187499,1.5116514720684704,2.89599609375,15.99951171875,-9.466796875,45.00058823529412,214.65414426813908
1.81496044921875,0.77063525390625,0.1550385742187499,1.9778769138364647,4.81005859375,15.99951171875,-13.765625,45.04764705882353,214.65414426813908
2.06398388671875,0.51038134765625,0.0241791992187498,2.1262886065501334,5.14794921875,15.99951171875,16.0,45.47117647058823,214.96395903737667
2.26515576171875,0.22620166015625,-0.0622465820312501,2.2772730299372683,3.8505859375,15.99951171875,16.0,45.00058823529412,214.96395903737667
2.21486279296875,-0.05016552734375,-0.0549223632812501,2.2161115129432014,2.384765625,15.99951171875,16.0,45.04764705882353,214.96395903737667
2.21339794921875,-0.32555615234375,0.0158784179687498,2.2372682928276224,1.42041015625,15.99951171875,-11.99951171875,44.906470588235294,214.96395903737667
2.13429638671875,-0.48180615234375,0.0207612304687498,2.188101748888194,0.55419921875,14.60791015625,-5.72314453125,45.09470588235294,214.89673960421425
1.92872998046875,-0.47497021484375,0.0437104492187498,1.98683332112148,0.11083984375,2.8515625,-1.07275390625,45.00058823529412,214.89673960421425
1.83937451171875,-0.53991162109375,0.0788666992187498,1.9185992570618629,-0.69482421875,-8.28466796875,0.12451171875,45.00058823529412,214.89673960421425
1.72414013671875,-0.50914990234375,0.1774995117187499,1.8064880045994205,-1.982421875,16.0,-0.89501953125,44.85941176470588,214.89673960421425
1.52638623046875,-0.61266552734375,0.2190034179687499,1.6592698605235952,-4.263671875,16.0,-1.45556640625,44.906470588235294,214.89673960421425
1.23634716796875,-0.29137646484375,0.3342377929687499,1.3134570667737149,-5.64990234375,16.0,-0.001953125,44.85941176470588,214.85192795855343
0.99415966796875,-0.09215771484375,0.3586518554687499,1.060885311073791,-4.72119140625,16.0,3.1728515625,45.00058823529412,214.85192795855343
0.81251904296875,0.0030571289062499,0.2907807617187499,0.86298898753677,-3.1875,16.0,5.9501953125,45.00058823529412,214.85192795855343
0.51613232421875,0.09387744140625,0.3200776367187499,0.6145366088654871,-1.2685546875,-8.6279296875,8.1142578125,45.04764705882353,214.85192795855343
0.52736279296875,0.16077197265625,0.3230073242187499,0.6389779918733816,0.06103515625,3.8134765625,8.408203125,44.85941176470588,214.92996201550525
0.64650341796875,0.26526416015625,0.3156831054687499,0.7668034736404569,0.88037109375,14.74169921875,6.55908203125,44.24764705882353,214.92996201550525
0.68507763671875,0.33460009765625,0.2287690429687499,0.7960049426382713,1.880859375,15.99951171875,2.78662109375,44.906470588235294,214.92996201550525
0.69484326171875,0.36585009765625,0.1691987304687499,0.8032942566104128,2.2470703125,15.99951171875,-0.85986328125,44.81235294117647,214.92996201550525
0.82033154296875,0.41174853515625,0.2058198242187499,0.9406606702920266,2.6591796875,15.99951171875,-3.119140625,44.906470588235294,214.92996201550525
1.05910107421875,0.35413134765625,0.1770112304687499,1.1306799160311476,2.34521484375,15.99951171875,-3.63818359375,44.906470588235294,214.677322074216
1.43312451171875,0.34583056640625,0.2302338867187499,1.4921301181008295,1.7490234375,15.99951171875,-3.6708984375,45.00058823529412,214.677322074216
1.79933544921875,0.31848681640625,0.2644135742187499,1.8463359524395784,1.46826171875,15.99951171875,-3.32373046875,44.906470588235294,214.677322074216
1.94777294921875,0.26086962890625,0.1809174804687499,1.9734749959736384,1.51171875,15.99951171875,-2.69189453125,45.04764705882353,214.677322074216
1.82326123046875,0.14954150390625,0.0979096679687498,1.832001768285913,1.04541015625,11.70068359375,-1.72509765625,45.04764705882353,214.72058695176463
1.59425732421875,0.16370166015625,0.1252534179687499,1.6075270038403384,0.47314453125,3.5419921875,-0.181640625,45.04764705882353,214.72058695176463
1.33546826171875,0.24524462890625,0.2141206054687499,1.3745792227993876,0.052734375,-5.185546875,1.83837890625,44.85941176470588,214.72058695176463
1.10402294921875,0.31702197265625,0.2658784179687499,1.1790084548849056,-0.12890625,-12.88330078125,3.677734375,45.09470588235294,214.72058695176463
0.92140576171875,0.25696337890625,0.2316987304687499,0.9842271371630926,-1.548828125,16.0,4.65673828125,45.00058823529412,214.72058695176463
0.76808544921875,0.15295947265625,0.2175385742187499,0.8128190997079077,-3.40087890625,16.0,4.34423828125,45.235882352941175,214.7762142703401
0.81056591796875,0.00989306640625,0.5139252929687499,0.9598094534273228,-5.58203125,16.0,1.79931640625,45.00058823529412,214.7762142703401
-0.04978564453125,0.42981494140625,1.25074169921875,1.3234705483772793,-3.01220703125,16.0,-2.3896484375,45.00058823529412,214.7762142703401
-0.08250048828125,0.25891650390625,0.8200776367187499,0.8639279002369872,0.02978515625,-15.61669921875,-5.5908203125,44.906470588235294,214.7762142703401
-0.16257861328125,0.27356494140625,0.4719331054687499,0.5692015800227872,2.091796875,-4.10205078125,-6.57568359375,45.04764705882353,214.63328434388364
-0.13914111328125,0.27161181640625,0.1696870117187499,0.3491803404584617,4.17529296875,10.328125,-5.64208984375,45.47117647058823,214.63328434388364
-0.04002001953125,0.30969775390625,0.0534760742187498,0.3168185462559082,5.19775390625,15.99951171875,-2.7646484375,45.04764705882353,214.63328434388364
0.25880810546875,0.39612353515625,0.1008393554687498,0.4838016806216793,3.8740234375,15.99951171875,1.03662109375,45.00058823529412,214.63328434388364
0.75734326171875,0.74670947265625,0.3464448242187499,1.1185561536433164,2.85107421875,15.99951171875,4.65869140625,44.906470588235294,214.63328434388364
1.51857373046875,1.10364306640625,0.5358979492187499,1.9522501901327165,3.63916015625,15.99951171875,5.732421875,45.00058823529412,214.6989544857481
2.42433544921875,1.43958056640625,0.5339448242187499,2.86965009240207,5.6787109375,15.99951171875,3.9697265625,45.00058823529412,214.6989544857481
2.97706982421875,1.71155322265625,0.3967377929687499,3.4568424969368463,6.74853515625,5.16748046875,-1.7734375,44.906470588235294,214.6989544857481
3.31007763671875,1.65784228515625,0.3225190429687499,3.716056180500392,7.0947265625,-5.7255859375,-10.689453125,45.04764705882353,214.6989544857481
2.61720654296875,0.61633837890625,0.1911713867187499,2.695587057575991,5.15380859375,-14.25048828125,16.0,45.09470588235294,214.95236845984968
1.66554638671875,-0.15465771484375,0.1897065429687499,1.6834346876305386,0.9951171875,16.0,16.0,44.85941176470588,214.95236845984968
1.13917919921875,-0.25182568359375,0.3713471679687499,1.2243545818138402,-1.64404296875,16.0,16.0,45.09470588235294,214.95236845984968
1.08986279296875,-0.12975537109375,0.4992768554687499,1.205783870447803,-1.6875,16.0,16.0,44.906470588235294,214.95236845984968
1.08351513671875,0.15295947265625,0.6408784179687499,1.268119394375805,-0.03125,16.0,-15.97509765625,44.906470588235294,214.95236845984968
0.96828076171875,0.29407275390625,0.5783784179687499,1.165576257684019,2.3017578125,16.0,-7.39990234375,45.09470588235294,214.6665058888792
1.05665966796875,0.17493212890625,0.6013276367187499,1.2283020110368863,5.36962890625,16.0,0.3876953125,45.235882352941175,214.6665058888792
1.25636669921875,0.22668994140625,0.5730073242187499,1.399350923124331,9.11767578125,-9.75830078125,2.994140625,45.04764705882353,214.6665058888792
1.17824169921875,0.38831103515625,0.3952729492187499,1.302029057350908,10.6640625,-5.7470703125,4.98828125,45.00058823529412,214.6665058888792
1.11330029296875,0.44153369140625,0.2170502929687499,1.2171689992145522,9.0634765625,-8.30712890625,7.51513671875,45.47117647058823,214.91914581998088
0.97755810546875,0.39612353515625,0.0940034179687498,1.058947754736816,5.8740234375,-13.77197265625,9.8525390625,45.04764705882353,214.91914581998088
0.82228466796875,0.29651416015625,-0.0417387695312501,0.8751084774081591,1.18115234375,16.0,11.44384765625,45.09470588235294,214.91914581998088
0.72072216796875,0.28918994140625,-0.0217192382812501,0.7768802938185799,-3.42626953125,16.0,12.43017578125,44.906470588235294,214.91914581998088
0.62746044921875,0.29358447265625,0.1018159179687498,0.7001892166196672,-5.81005859375,-14.705078125,12.4912109375,45.09470588235294,214.91914581998088
0.60744091796875,0.30579150390625,0.2019135742187499,0.7094096166093002,-6.275390625,-7.369140625,10.06103515625,45.00058823529412,214.74376575113948
0.80617138671875,0.39758837890625,0.3410737304687499,0.9614156819093402,-4.33056640625,-1.53173828125,7.35546875,45.00058823529412,214.74376575113948
1.06984326171875,0.41418994140625,0.4211518554687499,1.222082974912873,-2.0771484375,0.38525390625,4.501953125,44.85941176470588,214.74376575113948
1.23439404296875,0.37659228515625,0.3586518554687499,1.3394706252796735,-0.07275390625,-1.72802734375,2.048828125,45.47117647058823,214.74376575113948
1.37111279296875,0.25745166015625,0.2292573242187499,1.4137858993029024,-0.66259765625,-3.9580078125,-0.63427734375,45.235882352941175,214.85270116670588
1.27101513671875,0.26868212890625,0.2697846679687499,1.3268207607784808,-2.68115234375,-4.94873046875,-3.62060546875,45.00058823529412,214.85270116670588
1.25880810546875,0.35217822265625,0.4113862304687499,1.370352501193188,-2.80029296875,-6.58837890625,-5.56884765625,44.24764705882353,214.85270116670588
1.05665966796875,0.23547900390625,0.5012299804687499,1.1929842867838674,-2.30078125,-8.119140625,-6.40478515625,45.09470588235294,214.85270116670588
0.71437451171875,0.13293994140625,0.5319916992187499,0.9005660103802232,-1.61376953125,-7.81103515625,-6.2880859375,44.85941176470588,214.85270116670588
0.44337841796875,0.04944384765625,0.4904877929687499,0.6630289515872451,-0.92626953125,-5.19287109375,-4.93994140625,45.04764705882353,214.46872366168844
0.39113232421875,-0.00719677734375,0.4138276367187499,0.569464311054804,-0.142578125,-0.67529296875,-2.62548828125,45.00058823529412,214.46872366168844
0.49708935546875,0.03333056640625,0.2902924804687499,0.5766094676590025,-0.1181640625,3.73046875,0.5771484375,45.09470588235294,214.46872366168844
0.66945263671875,0.15930712890625,0.1906831054687499,0.7140767751728421,-1.05810546875,8.1865234375,3.71240234375,45.235882352941175,214.46872366168844
0.95656201171875,0.28723681640625,0.1184174804687498,1.0057527383224898,-2.39453125,11.60986328125,5.74609375,45.235882352941175,214.6101069404632
1.35499951171875,0.50793994140625,0.0656831054687498,1.448565128386658,-3.01220703125,12.7412109375,5.7470703125,45.47117647058823,214.6101069404632
1.74855419921875,0.46545947265625,-0.1691801757812501,1.817337679180271,-3.87890625,9.03955078125,3.59912109375,45.09470588235294,214.6101069404632
1.71925732421875,0.14124072265625,-0.6389067382812501,1.839564217100741,-6.80517578125,1.69873046875,1.7724609375,45.09470588235294,214.6101069404632
1.47706982421875,0.16077197265625,-0.4880278320312501,1.5638906795701908,-8.5908203125,-4.8427734375,0.46875,45.04764705882353,214.6101069404632
1.15822216796875,0.47083056640625,-0.1603911132812501,1.2605099451635675,-6.181640625,-6.96044921875,-0.46240234375,44.059411764705885,214.8418849452921
0.68263623046875,0.65002978515625,-0.0080473632812501,0.9426535444131344,-2.892578125,-5.56201171875,-1.5458984375,45.09470588235294,214.8418849452921
0.86183544921875,0.54700244140625,0.0983979492187498,1.025501910697849,-1.3544921875,-6.0712890625,-2.56982421875,44.906470588235294,214.8418849452921
0.80275341796875,0.34143603515625,0.0695893554687498,0.8751195887181857,-1.32861328125,-5.96630859375,-3.97119140625,45.04764705882353,214.8418849452921
0.86232373046875,0.24963916015625,0.1042573242187498,0.9037651885674248,-1.95654296875,-5.78076171875,-4.99072265625,45.47117647058823,214.9624106838149
0.89747998046875,0.13831103515625,-0.0085356445312501,0.9081151441396323,-3.47802734375,-5.51171875,-5.337890625,45.04764705882353,214.9624106838149
0.91896435546875,0.15881884765625,-0.1359770507812501,0.9424482327067736,-5.2099609375,-5.2490234375,-4.78955078125,45.00058823529412,214.9624106838149
0.94435498046875,0.31458056640625,-0.0349028320312501,0.995984673366218,-6.18310546875,-4.5458984375,-3.33740234375,44.85941176470588,214.9624106838149
0.95558544921875,0.40735400390625,0.0871674804687498,1.0424389693926082,-5.44189453125,-3.3232421875,-1.80322265625,45.18882352941176,214.9624106838149
0.81496044921875,0.50891650390625,0.2526948242187499,0.9934843813195716,-2.7041015625,-0.5068359375,0.28076171875,45.00058823529412,214.61165197456765
0.61769482421875,0.42346728515625,0.3142182617187499,0.8121604234766614,0.1669921875,5.02685546875,2.38232421875,44.906470588235294,214.61165197456765
0.42628857421875,0.49866259765625,0.4328706054687499,0.7859791955832011,2.53076171875,12.47900390625,4.16943359375,44.906470588235294,214.61165197456765
0.68751904296875,0.51575244140625,0.4870698242187499,0.987886647812216,3.990234375,15.99951171875,4.06298828125,45.00058823529412,214.61165197456765
0.97951123046875,0.40979541015625,0.4914643554687499,1.1700050177225083,3.4521484375,15.99951171875,3.1708984375,45.00058823529412,214.7545819105869
1.18800732421875,0.26282275390625,0.4255463867187499,1.2890023000823714,1.21484375,15.99951171875,2.43017578125,45.33,214.7545819105869
1.28908154296875,0.31213916015625,0.3903901367187499,1.382594133711346,-0.748046875,15.99951171875,1.4248046875,45.04764705882353,214.7545819105869
1.28517529296875,0.39758837890625,0.3796479492187499,1.3978142287316349,-0.42822265625,15.99951171875,0.1513671875,44.906470588235294,214.7545819105869
1.28517529296875,0.35657275390625,0.3000581054687499,1.367060543334894,0.294921875,15.99951171875,-0.66455078125,45.00058823529412,214.7545819105869
1.20070263671875,0.34094775390625,0.2522065429687499,1.273397162331267,0.6083984375,13.93212890625,-0.48779296875,45.18882352941176,214.99640746455972
0.99464794921875,0.34680712890625,0.1843354492187499,1.0693826655523924,0.89599609375,12.22119140625,0.07421875,45.04764705882353,214.99640746455972
0.87990185546875,0.36096728515625,0.2277924804687499,0.9779642480011876,1.18896484375,11.34228515625,0.7548828125,44.906470588235294,214.99640746455972
0.78029248046875,0.30042041015625,0.2121674804687499,0.8626261169724584,2.31689453125,10.47802734375,1.4541015625,45.04764705882353,214.99640746455972
0.77052685546875,0.20325244140625,0.2439057617187499,0.8333745919667606,2.74267578125,9.90185546875,2.05712890625,45.09470588235294,214.35824557497705
0.79494091796875,0.09436572265625,0.3000581054687499,0.8549098311114047,3.55517578125,7.05078125,3.04638671875,45.00058823529412,214.35824557497705
0.71632763671875,0.03674853515625,0.2917573242187499,0.7743371837891323,3.98681640625,5.0751953125,4.55908203125,44.85941176470588,214.35824557497705
0.73976513671875,-0.00768505859375,0.3108002929687499,0.8024389944036624,3.99609375,3.5478515625,6.35400390625,45.00058823529412,214.35824557497705
0.76662060546875,0.14807666015625,0.4802338867187499,0.916656116526421,4.98046875,1.771484375,8.1103515625,44.85941176470588,214.35824557497705
0.84083935546875,0.14661181640625,0.4587495117187499,0.9689979158477248,5.90087890625,0.84765625,9.4130859375,44.906470588235294,214.5452094319936
0.96925732421875,0.15198291015625,0.4690034179687499,1.0874386288879128,6.42822265625,2.3310546875,9.78125,45.09470588235294,214.5452094319936
1.07619091796875,0.08948291015625,0.4128510742187499,1.156131520464704,5.9248046875,6.2177734375,9.31494140625,45.00058823529412,214.5452094319936
1.13722607421875,0.05725634765625,0.5573823242187499,1.26776831029231,4.96240234375,9.5634765625,8.49951171875,45.00058823529412,214.5452094319936
1.12990185546875,0.09045947265625,0.6027924804687499,1.2838301654403668,5.31884765625,11.40234375,7.4921875,45.235882352941175,214.677322074216
1.00831982421875,0.18079150390625,0.5261323242187499,1.1516117654769935,4.53564453125,11.8916015625,7.5478515625,44.906470588235294,214.677322074216
0.87843701171875,0.39758837890625,0.5183198242187499,1.094707057973421,4.89794921875,13.62451171875,7.66064453125,45.00058823529412,214.677322074216
0.89699169921875,0.52698291015625,0.4460541992187499,1.1319317314682769,4.859375,14.87451171875,7.66552734375,45.09470588235294,214.677322074216
1.04982373046875,0.62415087890625,0.4050385742187499,1.286759663379267,5.1328125,15.20556640625,7.07421875,45.18882352941176,214.677322074216
1.19972607421875,0.56409228515625,0.2780854492187499,1.3545753121921011,5.6240234375,15.01171875,5.474609375,44.906470588235294,214.5452094319936
1.41994091796875,0.49231494140625,0.2649018554687499,1.5260338151838453,5.0341796875,12.7470703125,3.16162109375,45.04764705882353,214.5452094319936
1.41408154296875,0.50110400390625,0.2307221679687499,1.5178816000228594,4.0927734375,8.3046875,1.67529296875,44.85941176470588,214.5452094319936
1.35011669921875,0.56506884765625,0.2190034179687499,1.4798920234878254,3.248046875,3.7001953125,1.609375,45.00058823529412,214.5452094319936
1.18849560546875,0.58655322265625,0.2346284179687499,1.3459632170848803,2.4423828125,0.3173828125,1.86279296875,45.00058823529412,214.88592338893457
1.17287060546875,0.51868212890625,0.3010346679687499,1.3172996923017966,1.71240234375,-2.54052734375,2.33935546875,45.00058823529412,214.88592338893457
0.88966748046875,0.51477587890625,0.4025971679687499,1.103896241031635,0.990234375,-4.828125,2.78759765625,44.906470588235294,214.88592338893457
0.79249951171875,0.46887744140625,0.4909760742187499,1.0435320007500413,0.525390625,-5.720703125,2.587890625,44.81235294117647,214.88592338893457
0.74074169921875,0.48059619140625,0.5339448242187499,1.0318759806612738,0.06201171875,-5.904296875,2.37109375,45.42411764705882,214.88592338893457
0.70216748046875,0.52356494140625,0.5817963867187499,1.051497243979534,-0.20556640625,-5.2744140625,1.71240234375,45.09470588235294,214.81021026334813
0.69581982421875,0.50208056640625,0.6135346679687499,1.054834068343527,-0.44140625,-3.66748046875,0.814453125,44.85941176470588,214.81021026334813
0.71242138671875,0.51819384765625,0.6325776367187499,1.084538409868334,-0.11474609375,-2.07958984375,-0.40478515625,44.15352941176471,214.81021026334813
0.73292919921875,0.50012744140625,0.6467377929687499,1.0979901828199967,0.43505859375,-0.64794921875,-1.34765625,44.906470588235294,214.81021026334813
0.74464794921875,0.40686572265625,0.5954682617187499,1.0366401184898413,0.74658203125,0.48046875,-2.0732421875,44.906470588235294,214.708998065562
0.75490185546875,0.29016650390625,0.5295502929687499,0.9666938109673746,0.5947265625,0.92529296875,-2.18603515625,44.906470588235294,214.708998065562
0.67775341796875,0.21448291015625,0.5227143554687499,0.8823734536637692,0.2822265625,0.42724609375,-1.94482421875,45.04764705882353,214.708998065562
0.83693310546875,0.17639697265625,0.5163666992187499,0.9991033395269592,0.0546875,-0.8876953125,-1.30517578125,44.15352941176471,214.708998065562
0.82960888671875,0.16077197265625,0.5124604492187499,0.9882885429508876,-0.275390625,-2.0068359375,-0.5146484375,44.906470588235294,214.708998065562
0.85206982421875,0.16663134765625,0.5627534179687499,1.0346402277127156,-0.21240234375,-3.11279296875,0.06787109375,45.04764705882353,214.677322074216
0.82521435546875,0.15833056640625,0.5739838867187499,1.017597564336212,-0.2763671875,-3.888671875,0.5224609375,44.85941176470588,214.677322074216
0.82374951171875,0.19788134765625,0.6389252929687499,1.0611059399524327,-0.21484375,-4.34326171875,0.8525390625,45.09470588235294,214.677322074216
0.79835888671875,0.21838916015625,0.6428315429687499,1.047999584881663,-0.11083984375,-3.861328125,0.8916015625,45.04764705882353,214.677322074216
0.79347607421875,0.25012744140625,0.6843354492187499,1.0772571765179682,-0.01953125,-2.603515625,0.69873046875,44.059411764705885,214.85192795855343
0.78029248046875,0.27991259765625,0.6960541992187499,1.082450398703238,0.0986328125,-1.15771484375,0.30126953125,45.04764705882353,214.85192795855343
0.76710888671875,0.28626025390625,0.7072846679687499,1.0819669951495818,0.16259765625,0.33154296875,-0.0751953125,44.81235294117647,214.85192795855343
0.75734326171875,0.27795947265625,0.6760346679687499,1.052546035480517,0.185546875,1.8115234375,-0.13037109375,44.906470588235294,214.85192795855343
0.77736279296875,0.26135791015625,0.6535737304687499,1.0486941833786705,0.1982421875,2.7734375,0.08056640625,44.85941176470588,214.85192795855343
0.81837841796875,0.25891650390625,0.6193940429687499,1.0585036473518843,0.2197265625,3.05908203125,0.32080078125,44.85941176470588,214.677322074216
0.86037060546875,0.26526416015625,0.5891206054687499,1.075948763281008,0.19873046875,2.8056640625,0.3359375,45.00058823529412,214.677322074216
0.89455029296875,0.26672900390625,0.5578706054687499,1.0874668733443638,0.0419921875,2.16162109375,0.01220703125,45.00058823529412,214.677322074216
0.90236279296875,0.25598681640625,0.5495698242187499,1.0871130815145211,-0.16357421875,1.205078125,-0.4560546875,45.235882352941175,214.677322074216
0.86525341796875,0.24963916015625,0.5417573242187499,1.0509444257118363,-0.37841796875,0.107421875,-0.71875,44.906470588235294,214.65414426813908
0.82277294921875,0.26721728515625,0.5617768554687499,1.031481283782092,-0.49560546875,-0.849609375,-0.65380859375,45.00058823529412,214.65414426813908
0.80324169921875,0.28430712890625,0.5778901367187499,1.0295556230857832,-0.58447265625,-1.46875,-0.4453125,45.09470588235294,214.65414426813908
0.79542919921875,0.29163134765625,0.5881440429687499,1.0313437201947802,-0.66650390625,-1.7607421875,-0.36962890625,45.04764705882353,214.65414426813908
0.78029248046875,0.31409228515625,0.6047456054687499,1.035966971483413,-0.81982421875,-1.76708984375,-0.3974609375,45.00058823529412,214.65414426813908
0.75001904296875,0.31751025390625,0.5876557617187499,1.004330931731476,-0.97998046875,-1.6484375,-0.44580078125,45.00058823529412,214.92996201550525
0.74806591796875,0.32092822265625,0.5949799804687499,1.0082652026537078,-1.0029296875,-1.640625,-0.40771484375,44.81235294117647,214.92996201550525
0.73878857421875,0.29309619140625,0.5925385742187499,0.9913707161048342,-0.97607421875,-1.58447265625,-0.3955078125,45.00058823529412,214.92996201550525
0.74415966796875,0.28381884765625,0.5910737304687499,0.9918139465477012,-1.08935546875,-1.658203125,-0.29248046875,44.85941176470588,214.92996201550525
0.75050732421875,0.29700244140625,0.5896088867187499,0.999555067620081,-0.990234375,-2.0673828125,-0.16357421875,44.906470588235294,214.85270116670588
0.74953076171875,0.30920947265625,0.5651948242187499,0.9883582599779848,-0.9375,-2.76904296875,0.01025390625,44.906470588235294,214.85270116670588
0.77638623046875,0.28626025390625,0.5642182617187499,1.0015302085732978,-1.00146484375,-3.25390625,-0.0263671875,44.81235294117647,214.85270116670588
0.81642529296875,0.23157275390625,0.5373627929687499,1.004457550431082,-0.9990234375,-3.62451171875,-0.404296875,45.00058823529412,214.85270116670588
0.89455029296875,0.20715869140625,0.5588471679687499,1.0749163256841523,-1.18505859375,-4.064453125,-0.89306640625,45.235882352941175,214.85270116670588
0.89308544921875,0.17053759765625,0.5261323242187499,1.050476041806021,-1.50927734375,-4.17041015625,-1.12744140625,44.906470588235294,214.6556897171684
0.92042919921875,0.23352587890625,0.5451752929687499,1.0949613449601625,-1.8251953125,-4.0927734375,-1.41796875,44.24764705882353,214.6556897171684
0.94191357421875,0.31751025390625,0.5666596679687499,1.1441665621471404,-1.83984375,-4.4326171875,-1.34765625,44.906470588235294,214.6556897171684
0.90578076171875,0.32288134765625,0.5495698242187499,1.1075730877264682,-1.716796875,-4.02490234375,-1.4580078125,45.00058823529412,214.6556897171684
0.89113232421875,0.32434619140625,0.5256440429687499,1.0842596234554638,-1.6025390625,-2.939453125,-1.75341796875,44.85941176470588,214.9315107327786
0.89015576171875,0.33899462890625,0.5012299804687499,1.0763485178459056,-1.8447265625,-2.50927734375,-1.83984375,45.00058823529412,214.9315107327786
0.87355419921875,0.37463916015625,0.5256440429687499,1.0861643978716229,-1.96875,-2.20166015625,-1.751953125,44.85941176470588,214.9315107327786
0.87111279296875,0.37659228515625,0.5290620117187499,1.086538475875067,-1.6943359375,-1.6435546875,-1.68798828125,45.04764705882353,214.9315107327786
0.84669873046875,0.33850634765625,0.5207612304687499,1.050084542663253,-1.45458984375,-0.75048828125,-1.6640625,44.906470588235294,214.9315107327786
0.84328076171875,0.30042041015625,0.5354096679687499,1.043090781513197,-1.296875,-0.2197265625,-1.51171875,44.906470588235294,214.6780953523974
0.84523388671875,0.25403369140625,0.5256440429687499,1.0272561022139044,-1.03271484375,0.1982421875,-1.30126953125,45.04764705882353,214.6780953523974
0.83205029296875,0.21545947265625,0.5329682617187499,1.011328652014862,-0.814453125,0.755859375,-0.94384765625,44.85941176470588,214.6780953523974
0.85060498046875,0.19592822265625,0.5300385742187499,1.0212039910768684,-0.50634765625,1.03271484375,-0.52880859375,45.00058823529412,214.6780953523974
0.87501904296875,0.19934619140625,0.5188081054687499,1.0366094152988377,-0.3447265625,0.98193359375,-0.18017578125,45.33,214.63328434388364
0.88771435546875,0.22766650390625,0.4973237304687499,1.0426886912178277,-0.2431640625,0.73583984375,0.00830078125,45.09470588235294,214.63328434388364
0.90040966796875,0.26868212890625,0.4870698242187499,1.058378320937118,-0.23193359375,0.54345703125,-0.015625,45.00058823529412,214.63328434388364
0.89455029296875,0.29797900390625,0.4792573242187499,1.0576858211381834,-0.1904296875,0.291015625,-0.14111328125,45.09470588235294,214.63328434388364
0.88234326171875,0.30969775390625,0.4787690429687499,1.0505532479509412,-0.17724609375,-0.01708984375,-0.287109375,44.906470588235294,214.63328434388364
0.88283154296875,0.30627978515625,0.4787690429687499,1.049961254790459,-0.20654296875,-0.23876953125,-0.30126953125,44.906470588235294,214.9199200142592
0.88869091796875,0.29651416015625,0.4953706054687499,1.0597566851007745,-0.08251953125,-0.1884765625,-0.3232421875,45.04764705882353,214.9199200142592
0.90285107421875,0.28137744140625,0.5026948242187499,1.0709880545769863,-0.0546875,-0.25634765625,-0.2763671875,45.00058823529412,214.9199200142592
0.89210888671875,0.26965869140625,0.5188081054687499,1.06664704842491,0.0029296875,0.02197265625,-0.203125,45.18882352941176,214.9199200142592
0.88185498046875,0.26184619140625,0.5315034179687499,1.0624158874207226,0.07421875,0.3798828125,-0.185546875,44.85941176470588,214.8094363627673
0.85841748046875,0.26965869140625,0.5295502929687499,1.0440401780623851,0.1494140625,0.63916015625,-0.07861328125,44.85941176470588,214.8094363627673
0.85109326171875,0.27502978515625,0.5266206054687499,1.0379452707009298,0.1943359375,0.78271484375,-0.01416015625,44.85941176470588,214.8094363627673
0.85744091796875,0.27747119140625,0.5305268554687499,1.0457791039416766,0.166015625,0.87890625,-0.03271484375,44.906470588235294,214.8094363627673
0.85695263671875,0.28333056640625,0.5197846679687499,1.0415469900559875,0.2373046875,1.04248046875,-0.0986328125,44.906470588235294,214.8094363627673
0.85695263671875,0.28870166015625,0.5085541992187499,1.037469924238393,0.23876953125,0.9814453125,-0.01708984375,44.906470588235294,214.8642909992287
0.85890576171875,0.28870166015625,0.5085541992187499,1.039083793364936,0.2763671875,0.77001953125,0.07568359375,44.81235294117647,214.8642909992287
0.85304638671875,0.29651416015625,0.5100190429687499,1.037173181902541,0.24755859375,0.46630859375,0.08740234375,45.235882352941175,214.8642909992287
0.84914013671875,0.29944384765625,0.5090424804687499,1.0343257884282373,0.2099609375,0.2470703125,0.07275390625,44.81235294117647,214.8642909992287
0.84523388671875,0.29504931640625,0.5207612304687499,1.035696230334361,0.15283203125,-0.1552734375,-0.01806640625,44.34176470588236,214.9315107327786
0.84376904296875,0.28772509765625,0.5280854492187499,1.0361496857936443,0.1181640625,-0.27197265625,-0.076171875,45.47117647058823,214.9315107327786
0.83205029296875,0.28528369140625,0.5432221679687499,1.0338204865374008,0.12744140625,-0.2333984375,-0.05712890625,45.00058823529412,214.9315107327786
0.82667919921875,0.29065478515625,0.5402924804687499,1.029463290752154,0.16796875,-0.162109375,0.05517578125,45.00058823529412,214.9315107327786
0.83205029296875,0.29749072265625,0.5456635742187499,1.0385360640464547,0.15576171875,0.04833984375,0.08544921875,45.00058823529412,214.9315107327786
0.84669873046875,0.29016650390625,0.5481049804687499,1.049530566387286,0.1171875,0.25732421875,-0.02783203125,45.00058823529412,214.79939415703245
0.84279248046875,0.29211962890625,0.5471284179687499,1.0464141381288674,0.10888671875,0.35009765625,-0.14794921875,45.00058823529412,214.79939415703245
0.83058544921875,0.28430712890625,0.5363862304687499,1.028791971312618,0.09130859375,0.39599609375,-0.16748046875,44.85941176470588,214.79939415703245
0.82619091796875,0.27161181640625,0.5388276367187499,1.0230833953483272,0.1181640625,0.404296875,-0.078125,44.85941176470588,214.79939415703245
0.84083935546875,0.27844775390625,0.5300385742187499,1.0322232624390828,0.1083984375,0.384765625,0.01416015625,44.85941176470588,214.72135998747163
0.84279248046875,0.26965869140625,0.5207612304687499,1.0267459443041038,0.0478515625,0.39794921875,-0.00048828125,44.85941176470588,214.72135998747163
0.84816357421875,0.27063525390625,0.5207612304687499,1.0314151193616232,0.01025390625,0.3330078125,-0.111328125,45.04764705882353,214.72135998747163
0.83497998046875,0.27942431640625,0.5100190429687499,1.017540633377092,-0.0078125,0.29150390625,-0.1533203125,45.00058823529412,214.72135998747163
0.85451123046875,0.28088916015625,0.5163666992187499,1.0371705411129684,-0.0361328125,0.28125,-0.146484375,45.00058823529412,214.72135998747163
0.86720654296875,0.27698291015625,0.5153901367187499,1.0461327419182556,-0.08203125,0.337890625,-0.17138671875,45.00058823529412,214.53362096177327
0.87599560546875,0.27502978515625,0.5178315429687499,1.0541153591600168,-0.1640625,0.4462890625,-0.2177734375,45.04764705882353,214.53362096177327
0.87941357421875,0.27161181640625,0.5153901367187499,1.054878289831899,-0.22509765625,0.51513671875,-0.341796875,45.235882352941175,214.53362096177327
0.86476513671875,0.26965869140625,0.5149018554687499,1.0419493616775677,-0.2587890625,0.5185546875,-0.43017578125,45.00058823529412,214.53362096177327
0.84962841796875,0.26770556640625,0.5119721679687499,1.0274484024415016,-0.3037109375,0.50390625,-0.431640625,45.09470588235294,214.55679824453705
0.84767529296875,0.26721728515625,0.5124604492187499,1.0259503846723854,-0.37353515625,0.49462890625,-0.4208984375,44.85941176470588,214.55679824453705
0.85695263671875,0.26624072265625,0.5119721679687499,1.0331347660176584,-0.43798828125,0.517578125,-0.40869140625,44.906470588235294,214.55679824453705
0.86232373046875,0.25989306640625,0.5236909179687499,1.0418247451748,-0.435546875,0.48779296875,-0.4384765625,44.906470588235294,214.55679824453705
0.84914013671875,0.25647509765625,0.5202729492187499,1.0283493517250333,-0.4658203125,0.345703125,-0.45166015625,45.47117647058823,214.55679824453705
0.83156201171875,0.25891650390625,0.5310151367187499,1.0200540234483673,-0.50830078125,0.08447265625,-0.36572265625,44.906470588235294,214.50194469877755
0.82716748046875,0.26624072265625,0.5393159179687499,1.0227178606634468,-0.50048828125,-0.13818359375,-0.2939453125,45.04764705882353,214.50194469877755
0.82423779296875,0.27307666015625,0.5324799804687499,1.0185645444840932,-0.53759765625,-0.1708984375,-0.23095703125,45.00058823529412,214.50194469877755
0.83351513671875,0.28674853515625,0.5358979492187499,1.0315807372815728,-0.59326171875,-0.01806640625,-0.27392578125,45.09470588235294,214.50194469877755
0.84376904296875,0.28186572265625,0.5437104492187499,1.0426003721803407,-0.6396484375,0.17041015625,-0.40087890625,44.906470588235294,214.65414426813908
0.84035107421875,0.27307666015625,0.5534760742187499,1.042639225712949,-0.615234375,0.14306640625,-0.44580078125,45.04764705882353,214.65414426813908
0.82619091796875,0.27893603515625,0.5612885742187499,1.0370350081801731,-0.5361328125,0.02978515625,-0.3037109375,44.81235294117647,214.65414426813908
0.81886669921875,0.26575244140625,0.5622651367187499,1.0282553744922258,-0.4609375,-0.03662109375,-0.07763671875,45.09470588235294,214.65414426813908
0.82277294921875,0.26526416015625,0.5759370117187499,1.0387607241790786,-0.3544921875,-0.02001953125,0.1572265625,44.906470588235294,214.65414426813908
0.82619091796875,0.26135791015625,0.5798432617187499,1.042649317026548,-0.27001953125,0.01416015625,0.37255859375,44.85941176470588,214.8758811740796
0.80861279296875,0.27258837890625,0.5798432617187499,1.0316866197775847,-0.15673828125,0.2841796875,0.46435546875,45.09470588235294,214.8758811740796
0.81300732421875,0.27942431640625,0.5715424804687499,1.0323369918843377,-0.0908203125,0.6044921875,0.4921875,45.235882352941175,214.8758811740796
0.82130810546875,0.29211962890625,0.5803315429687499,1.0472180200251917,-0.05517578125,0.87255859375,0.51220703125,44.85941176470588,214.8758811740796
0.81398388671875,0.28528369140625,0.5749604492187499,1.0365983168932726,0.05908203125,0.9130859375,0.54931640625,45.09470588235294,214.6556897171684
0.81691357421875,0.29651416015625,0.5705659179687499,1.0396219994130278,0.11083984375,0.87939453125,0.68017578125,45.09470588235294,214.6556897171684
0.81398388671875,0.30969775390625,0.5617768554687499,1.036376235713988,0.18798828125,0.72265625,0.73876953125,45.235882352941175,214.6556897171684
0.82716748046875,0.31311572265625,0.5515229492187499,1.0423171590425409,0.1630859375,0.5615234375,0.60400390625,44.906470588235294,214.6556897171684
0.82667919921875,0.31311572265625,0.5437104492187499,1.0378154974681937,0.0009765625,0.45458984375,0.33544921875,44.906470588235294,214.6556897171684
0.82081982421875,0.30286181640625,0.5412690429687499,1.0288064154852938,0.056640625,0.32470703125,0.08251953125,44.85941176470588,215.02963050232825
0.81398388671875,0.29504931640625,0.5476166992187499,1.0244549361552204,0.0927734375,0.140625,-0.02783203125,44.81235294117647,215.02963050232825
0.81349560546875,0.28430712890625,0.5598237304687499,1.02762262181203,0.09619140625,-0.1845703125,0.03564453125,44.29470588235294,215.02963050232825
0.79884716796875,0.28284228515625,0.5754487304687499,1.0243523795267904,0.1435546875,-0.4990234375,0.166015625,44.906470588235294,215.02963050232825
0.80519482421875,0.27502978515625,0.5817963867187499,1.030760458724892,0.20068359375,-0.5224609375,0.18310546875,45.04764705882353,214.74299238673532
0.81642529296875,0.27161181640625,0.5920502929687499,1.044436109685506,0.25732421875,-0.32666015625,0.18994140625,45.00058823529412,214.74299238673532
0.83644482421875,0.25501025390625,0.5940034179687499,1.0571235661540344,0.28466796875,-0.02294921875,0.16015625,45.18882352941176,214.74299238673532
0.83742138671875,0.25159228515625,0.5920502929687499,1.0559814422083753,0.2607421875,0.1767578125,0.18603515625,45.09470588235294,214.74299238673532
0.84132763671875,0.26331103515625,0.5915620117187499,1.0616546082651117,0.197265625,0.423828125,0.35546875,45.18882352941176,214.74299238673532
0.84816357421875,0.26086962890625,0.5949799804687499,1.0683798898686758,0.1728515625,0.3798828125,0.4951171875,44.85941176470588,214.55602564935404
0.84914013671875,0.27942431640625,0.5891206054687499,1.0705979675740582,0.2255859375,0.25830078125,0.53564453125,44.85941176470588,214.55602564935404
0.86085888671875,0.29504931640625,0.5754487304687499,1.0766955759881889,0.224609375,0.173828125,0.51171875,45.09470588235294,214.55602564935404
0.86574169921875,0.28772509765625,0.5808198242187499,1.0815017752148937,0.2412109375,0.09375,0.46044921875,45.04764705882353,214.55602564935404
0.88039013671875,0.26819384765625,0.5788666992187499,1.0872448612050247,0.13427734375,-0.03369140625,0.3818359375,45.09470588235294,214.85347482480745
0.86378857421875,0.26868212890625,0.5891206054687499,1.079529469320927,0.193359375,-0.04248046875,0.35498046875,44.906470588235294,214.85347482480745
0.84767529296875,0.28088916015625,0.5905854492187499,1.0706275241333243,0.18505859375,-0.0009765625,0.47119140625,45.00058823529412,214.85347482480745
0.83742138671875,0.28870166015625,0.5832612304687499,1.0605738496110724,0.29736328125,0.02978515625,0.59326171875,45.00058823529412,214.85347482480745
0.84328076171875,0.27698291015625,0.5827729492187499,1.0618221536324717,0.35546875,0.03173828125,0.7001953125,44.15352941176471,214.85347482480745
0.85939404296875,0.26917041015625,0.6008393554687499,1.082598153459519,0.37158203125,-0.03369140625,0.85205078125,45.00058823529412,214.66727922768408
0.85451123046875,0.26624072265625,0.6057221679687499,1.0807279538193235,0.42578125,-0.05859375,1.03125,44.85941176470588,214.66727922768408
0.85206982421875,0.25403369140625,0.6276948242187499,1.088373508527594,0.498046875,-0.24560546875,1.125,45.235882352941175,214.66727922768408
0.79445263671875,0.25940478515625,0.6164643554687499,1.0384960934518896,0.69873046875,0.02490234375,1.50341796875,45.09470588235294,214.66727922768408
0.81105419921875,0.25940478515625,0.6242768554687499,1.0558510069637093,0.6611328125,0.36865234375,1.7626953125,45.04764705882353,214.99718213441096
0.85109326171875,0.25012744140625,0.6501557617187499,1.0998299830353715,0.892578125,0.81884765625,1.7197265625,45.00058823529412,214.99718213441096
0.86769482421875,0.23840869140625,0.6311127929687499,1.0991070782971348,1.13671875,1.544921875,1.55712890625,45.00058823529412,214.99718213441096
0.87160107421875,0.25305712890625,0.6013276367187499,1.0887246069375442,1.1455078125,2.541015625,1.5341796875,45.04764705882353,214.99718213441096
0.89552685546875,0.27698291015625,0.6037690429687499,1.1149999724806152,1.24365234375,3.298828125,1.61767578125,45.00058823529412,214.99718213441096
0.88478466796875,0.30676806640625,0.5515229492187499,1.0867971838177295,1.26806640625,3.97412109375,1.701171875,45.09470588235294,214.7669459198217
0.88136669921875,0.31946337890625,0.5305268554687499,1.0771828318941554,1.13232421875,4.2587890625,1.78857421875,45.00058823529412,214.7669459198217
0.86915966796875,0.32629931640625,0.4987885742187499,1.0538974400205685,1.03125,4.32666015625,1.7451171875,45.18882352941176,214.7669459198217
0.89357373046875,0.34045947265625,0.4611909179687499,1.0616419957415344,0.796875,4.07763671875,1.2890625,44.15352941176471,214.7669459198217
0.92482373046875,0.33264697265625,0.4831635742187499,1.0951712104996827,0.55322265625,3.5693359375,0.76953125,45.00058823529412,214.39146600540292
0.93605419921875,0.30627978515625,0.4865815429687499,1.098529184240575,0.51708984375,2.8330078125,0.1435546875,45.09470588235294,214.39146600540292
0.89699169921875,0.27649462890625,0.4753510742187499,1.0521416406749924,0.23681640625,1.9423828125,-0.21240234375,45.00058823529412,214.39146600540292
0.85158154296875,0.26868212890625,0.4963471679687499,1.0216367856871786,0.0810546875,1.22314453125,-0.4140625,45.18882352941176,214.39146600540292
0.82863232421875,0.25501025390625,0.5236909179687499,1.012874096766449,-0.13525390625,0.7890625,-0.466796875,45.09470588235294,214.39146600540292
0.78322216796875,0.24915087890625,0.5495698242187499,0.9887062842670988,-0.24951171875,0.69970703125,-0.513671875,45.00058823529412,214.86351740174567
0.75539013671875,0.24329150390625,0.5769135742187499,0.9811392799408196,-0.25146484375,0.859375,-0.5009765625,44.906470588235294,214.86351740174567
0.73830029296875,0.25793994140625,0.6193940429687499,0.997631854160429,-0.50146484375,1.25244140625,-0.474609375,45.18882352941176,214.86351740174567
0.75050732421875,0.25159228515625,0.6320893554687499,1.0129643996474067,-0.5380859375,1.79443359375,-0.44091796875,44.85941176470588,214.86351740174567
0.75636669921875,0.25110400390625,0.6511323242187499,1.0291341545723416,-0.52294921875,2.22119140625,-0.39208984375,44.81235294117647,214.71131735453372
0.74562451171875,0.24719775390625,0.6569916992187499,1.024060903879481,-0.44970703125,2.57373046875,-0.287109375,45.04764705882353,214.71131735453372
0.75685498046875,0.23059619140625,0.6633393554687499,1.032483978309163,-0.3037109375,2.73681640625,-0.04052734375,44.906470588235294,214.71131735453372
0.76124951171875,0.23645556640625,0.6482026367187499,1.0274136032901626,-0.30029296875,2.78173828125,0.287109375,44.906470588235294,214.71131735453372
0.68019482421875,0.25452197265625,0.6794526367187499,0.9945362331272132,-0.2822265625,2.6435546875,0.6015625,45.09470588235294,214.71131735453372
0.82619091796875,0.26575244140625,0.6882416992187499,1.1076517636833971,-0.173828125,1.97900390625,0.6142578125,44.906470588235294,214.74376575113948
0.82716748046875,0.29211962890625,0.6867768554687499,1.1140926207209567,-0.13427734375,1.29833984375,0.5166015625,45.00058823529412,214.74376575113948
0.81544873046875,0.27844775390625,0.7097260742187499,1.1163336795530672,-0.1572265625,0.9462890625,0.162109375,45.00058823529412,214.74376575113948
0.79249951171875,0.27649462890625,0.7209565429687499,1.1064732679725764,-0.06787109375,0.93310546875,-0.13427734375,45.09470588235294,214.74376575113948
0.77785107421875,0.24866259765625,0.6027924804687499,1.0150094362349966,-0.0224609375,1.1650390625,-0.31201171875,45.04764705882353,214.5243498151846
0.75929638671875,0.21838916015625,0.7316987304687499,1.0768508997662962,0.09326171875,1.61669921875,-0.35791015625,44.24764705882353,214.5243498151846
0.73488232421875,0.20471728515625,0.7356049804687499,1.0597527469090735,0.25244140625,2.060546875,-0.232421875,45.09470588235294,214.5243498151846
0.73097607421875,0.19348681640625,0.7233979492187499,1.0464548543234795,0.4052734375,2.2216796875,-0.00341796875,44.85941176470588,214.5243498151846
0.71876904296875,0.19592822265625,0.7087495117187499,1.0282716936320946,0.44873046875,2.19482421875,0.1337890625,44.906470588235294,214.5243498151846
0.71583935546875,0.21741259765625,0.7204682617187499,1.0386379237258725,0.47802734375,2.04345703125,0.20947265625,45.00058823529412,214.68968515823383
0.71339794921875,0.23792041015625,0.7136323242187499,1.0367322941281858,0.49658203125,1.94482421875,0.16552734375,44.906470588235294,214.68968515823383
0.69826123046875,0.24329150390625,0.7180268554687499,1.0306900926190368,0.54638671875,1.94921875,0.06982421875,45.04764705882353,214.68968515823383
0.71486279296875,0.21790087890625,0.7160737304687499,1.0350223153471765,0.53271484375,1.96630859375,-0.01025390625,44.906470588235294,214.68968515823383
0.69386669921875,0.19983447265625,0.7102143554687499,1.0128125411251665,0.56005859375,2.044921875,0.02880859375,45.00058823529412,214.64642092909224
0.69337841796875,0.19641650390625,0.7097260742187499,1.0114663483960102,0.5654296875,2.240234375,0.11865234375,45.00058823529412,214.64642092909224
0.67628857421875,0.20520556640625,0.6931245117187499,0.9898975446218132,0.60107421875,2.48876953125,0.2080078125,45.235882352941175,214.64642092909224
0.67677685546875,0.20764697265625,0.6682221679687499,0.9734808899594952,0.6015625,2.70068359375,0.31103515625,44.906470588235294,214.64642092909224
0.70900341796875,0.21790087890625,0.6687104492187499,0.998669266881598,0.54638671875,2.537109375,0.37451171875,44.85941176470588,214.64642092909224
0.70753857421875,0.22571337890625,0.6584565429687499,0.9925333155129532,0.47021484375,2.04443359375,0.36767578125,45.00058823529412,214.66727922768408
0.67872998046875,0.23987353515625,0.6745698242187499,0.9865384670665314,0.3837890625,1.38671875,0.41552734375,45.04764705882353,214.66727922768408
0.65968701171875,0.24963916015625,0.6818940429687499,0.9810637846491936,0.33544921875,0.84619140625,0.43115234375,45.235882352941175,214.66727922768408
0.66310498046875,0.25501025390625,0.7053315429687499,1.0011148936193432,0.30078125,0.54541015625,0.3583984375,45.00058823529412,214.66727922768408
0.65529248046875,0.25501025390625,0.7097260742187499,0.999074354080904,0.306640625,0.4306640625,0.18603515625,45.09470588235294,214.83184251683315
0.64162060546875,0.25012744140625,0.7224213867187499,0.998064826699731,0.3232421875,0.53955078125,0.0771484375,44.85941176470588,214.83184251683315
0.63136669921875,0.24963916015625,0.7307221679687499,0.997445991483673,0.251953125,0.564453125,0.15576171875,44.24764705882353,214.83184251683315
0.61964794921875,0.25159228515625,0.7277924804687499,0.9884048530576942,0.3984375,0.82421875,0.2529296875,45.18882352941176,214.83184251683315
0.62892529296875,0.25305712890625,0.7233979492187499,0.9914078512700992,0.4189453125,1.1669921875,0.3359375,44.85941176470588,214.83184251683315
0.63380810546875,0.27600634765625,0.7038666992187499,0.9865700931882776,0.39892578125,1.38916015625,0.31884765625,45.00058823529412,214.38064981051315
0.64259716796875,0.28772509765625,0.6897065429687499,0.9856023374143654,0.36376953125,1.33203125,0.2998046875,44.85941176470588,214.38064981051315
0.64162060546875,0.29553759765625,0.6794526367187499,0.9801404789797096,0.29931640625,1.0390625,0.23388671875,45.00058823529412,214.38064981051315
0.64747998046875,0.30872119140625,0.6770112304687499,0.9863484705274896,0.21728515625,0.53759765625,0.1015625,45.09470588235294,214.38064981051315
0.64796826171875,0.30823291015625,0.6770112304687499,0.9865163968627284,0.12060546875,0.03369140625,-0.01025390625,45.00058823529412,215.0304054402727
0.63917919921875,0.30383837890625,0.6784760742187499,0.9804068504950316,-0.00830078125,-0.3623046875,-0.15283203125,44.906470588235294,215.0304054402727
0.62404248046875,0.31604541015625,0.7048432617187499,0.9930346128412386,-0.10986328125,-0.6298828125,-0.17529296875,44.85941176470588,215.0304054402727
0.61671826171875,0.31116259765625,0.7126557617187499,0.9924927260330494,-0.2197265625,-0.8544921875,-0.2080078125,45.18882352941176,215.0304054402727
0.61915966796875,0.29700244140625,0.7131440429687499,0.990022005140421,-0.294921875,-0.94970703125,-0.3466796875,45.00058823529412,215.0304054402727
0.64308544921875,0.28918994140625,0.7419526367187499,1.023564083163012,-0.287109375,-1.02392578125,-0.48583984375,45.00058823529412,214.85347482480745
0.64992138671875,0.26721728515625,0.7463471679687499,1.025103400411721,-0.34423828125,-1.1142578125,-0.5615234375,45.00058823529412,214.85347482480745
0.65236279296875,0.25452197265625,0.7644135742187499,1.0366709992397305,-0.29833984375,-1.107421875,-0.53515625,44.906470588235294,214.85347482480745
0.65138623046875,0.23743212890625,0.7546479492187499,1.0247787880031995,-0.32958984375,-1.08837890625,-0.42138671875,44.81235294117647,214.85347482480745
0.65919873046875,0.22766650390625,0.7732026367187499,1.0412575669263264,-0.31689453125,-0.9970703125,-0.26708984375,45.00058823529412,214.7762142703401
0.64650341796875,0.23157275390625,0.7644135742187499,1.0275800320397848,-0.29345703125,-0.8720703125,-0.087890625,45.47117647058823,214.7762142703401
0.66701123046875,0.23792041015625,0.7736909179687499,1.048860209793317,-0.2431640625,-0.67529296875,0.02001953125,44.85941176470588,214.7762142703401
0.66749951171875,0.23645556640625,0.7732026367187499,1.0484794468458107,-0.21240234375,-0.763671875,0.037109375,45.04764705882353,214.7762142703401
0.67872998046875,0.24280322265625,0.7609956054687499,1.0482089977013742,-0.24169921875,-0.91748046875,0.01123046875,45.18882352941176,214.7762142703401
0.68703076171875,0.24329150390625,0.7600190429687499,1.0530104316178188,-0.2060546875,-1.029296875,0.013671875,45.18882352941176,214.9307361491649
0.68996044921875,0.23010791015625,0.7614838867187499,1.0530207887477387,-0.1259765625,-1.11572265625,0.048828125,45.04764705882353,214.9307361491649
0.67775341796875,0.23889697265625,0.7639252929687499,1.0488104272698828,-0.052734375,-1.0400390625,0.1630859375,45.00058823529412,214.9307361491649
0.68019482421875,0.23596728515625,0.7619721679687499,1.0483067982785306,0.048828125,-0.91162109375,0.35498046875,45.00058823529412,214.9307361491649
0.66798779296875,0.23596728515625,0.7531831054687499,1.0340082405778122,0.076171875,-0.66748046875,0.4970703125,45.235882352941175,215.02036481314
0.66798779296875,0.24036181640625,0.7390229492187499,1.0247616375593656,0.13037109375,-0.29541015625,0.5859375,44.906470588235294,215.02036481314
0.66749951171875,0.23645556640625,0.7258393554687499,1.0140560156996064,0.12890625,-0.1240234375,0.6875,44.85941176470588,215.02036481314
0.67726513671875,0.23303759765625,0.7292573242187499,1.0221598858606975,0.1328125,-0.19775390625,0.71435546875,45.00058823529412,215.02036481314
0.76808544921875,0.23547900390625,0.7297456054687499,1.08532680206618,0.1875,-0.77294921875,0.48583984375,45.04764705882353,214.8326167461209
0.75197216796875,0.24817431640625,0.7067963867187499,1.0614206352817963,0.1884765625,-0.7900390625,0.4912109375,45.00058823529412,214.8326167461209
0.69777294921875,0.24280322265625,0.7326752929687499,1.0405064048435917,0.1953125,-0.7802734375,0.4697265625,45.09470588235294,214.8326167461209
0.71437451171875,0.23694384765625,0.7214448242187499,1.0425718029601478,0.2421875,-0.7421875,0.458984375,45.00058823529412,214.8326167461209
0.70949169921875,0.23303759765625,0.7165620117187499,1.0349618881002949,0.279296875,-0.728515625,0.4921875,45.04764705882353,214.8326167461209
0.69679638671875,0.24377978515625,0.7155854492187499,1.0281129915183125,0.3271484375,-0.81103515625,0.69677734375,45.00058823529412,214.4911285495276
0.69826123046875,0.24573291015625,0.7058198242187499,1.0228074273145358,0.3466796875,-0.80224609375,0.779296875,45.47117647058823,214.4911285495276
0.70802685546875,0.24915087890625,0.7004487304687499,1.0266482418725542,0.38525390625,-0.767578125,0.71240234375,45.09470588235294,214.4911285495276
0.69044873046875,0.24622119140625,0.6843354492187499,1.0028256735648773,0.390625,-0.53515625,0.6923828125,45.00058823529412,214.4911285495276
0.72755810546875,0.24670947265625,0.7024018554687499,1.0409489551834636,0.44873046875,-0.5458984375,0.66015625,44.85941176470588,214.4911285495276
0.73048779296875,0.24768603515625,0.6818940429687499,1.0295340079492497,0.4462890625,-0.8271484375,0.72314453125,45.00058823529412,214.87665561083227
0.71730419921875,0.26721728515625,0.6906831054687499,1.031006083339514,0.37939453125,-0.814453125,0.86279296875,45.09470588235294,214.87665561083227
0.72218701171875,0.27014697265625,0.6882416992187499,1.033542501919542,0.3701171875,-0.740234375,0.9150390625,44.81235294117647,214.87665561083227
0.74415966796875,0.27649462890625,0.6950776367187499,1.0551567714382009,0.3046875,-0.62109375,0.8388671875,44.906470588235294,214.87665561083227
0.76320263671875,0.27454150390625,0.6931245117187499,1.066898725656242,0.36962890625,-0.70654296875,0.58203125,45.47117647058823,214.5575712896544
0.75587841796875,0.27210009765625,0.6892182617187499,1.0584953746625898,0.35693359375,-0.5400390625,0.33544921875,45.18882352941176,214.5575712896544
0.73195263671875,0.27210009765625,0.6877534179687499,1.0405757490311645,0.3046875,-0.31787109375,0.27734375,44.906470588235294,214.5575712896544
0.71095654296875,0.27454150390625,0.6897065429687499,1.0278751669201305,0.29833984375,-0.2216796875,0.36279296875,45.00058823529412,214.5575712896544
0.71535107421875,0.27063525390625,0.6750581054687499,1.0201343273323753,0.26904296875,-0.1328125,0.423828125,44.29470588235294,214.5575712896544
0.72804638671875,0.27747119140625,0.6814057617187499,1.0350630972931754,0.25830078125,-0.12841796875,0.38720703125,44.85941176470588,214.66727922768408
0.73781201171875,0.27844775390625,0.6765229492187499,1.039029844187134,0.2119140625,-0.12548828125,0.1904296875,44.906470588235294,214.66727922768408
0.74415966796875,0.26770556640625,0.6721284179687499,1.037880769625021,0.14892578125,-0.37890625,-0.02783203125,45.00058823529412,214.66727922768408
0.74074169921875,0.26477587890625,0.6696870117187499,1.0330949736964397,0.11865234375,-0.4677734375,-0.154296875,45.00058823529412,214.66727922768408
0.73390576171875,0.25452197265625,0.6740815429687499,1.0284867661860984,0.12744140625,-0.61279296875,-0.14306640625,45.04764705882353,214.6124251665263
0.73341748046875,0.23889697265625,0.6740815429687499,1.024382199558632,0.1376953125,-0.84375,-0.05419921875,44.906470588235294,214.6124251665263
0.74074169921875,0.22864306640625,0.6735932617187499,1.0269877307008288,0.1552734375,-1.0400390625,0.09326171875,44.29470588235294,214.6124251665263
0.72951123046875,0.22473681640625,0.6823823242187499,1.0238842260893706,0.16650390625,-1.19775390625,0.2275390625,45.00058823529412,214.6124251665263
0.74611279296875,0.22229541015625,0.6945893554687499,1.0433378752535811,0.22607421875,-1.21484375,0.29052734375,45.09470588235294,214.6124251665263
0.74171826171875,0.21985400390625,0.6843354492187499,1.0328585430048598,0.1318359375,-0.91259765625,0.32080078125,45.18882352941176,214.31652550619188
0.75392529296875,0.23547900390625,0.6897065429687499,1.0485937364263622,0.13623046875,-0.5888671875,0.33642578125,45.00058823529412,214.31652550619188
0.75343701171875,0.24036181640625,0.6838471679687499,1.0455085282065717,0.11328125,-0.021484375,0.37939453125,45.09470588235294,214.31652550619188
0.74757763671875,0.25256884765625,0.6784760742187499,1.0406695580325602,-0.0009765625,0.736328125,0.3876953125,44.85941176470588,214.31652550619188
0.75246044921875,0.26038134765625,0.6941010742187499,1.0563008449667124,0.03662109375,1.05126953125,0.36376953125,45.04764705882353,214.4803124138937
0.74464794921875,0.26428759765625,0.6735932617187499,1.0383045722636042,-0.03271484375,1.02490234375,0.32177734375,45.00058823529412,214.4803124138937
0.76027294921875,0.26819384765625,0.6740815429687499,1.0508705076295417,-0.05322265625,0.64990234375,0.208984375,45.47117647058823,214.4803124138937
0.76466748046875,0.27454150390625,0.6701752929687499,1.0531971877854978,-0.13720703125,0.232421875,0.060546875,45.04764705882353,214.4803124138937
0.75880810546875,0.26526416015625,0.6672456054687499,1.044687280292927,-0.17919921875,-0.14794921875,-0.1240234375,44.906470588235294,214.4803124138937
0.73732373046875,0.25647509765625,0.6745698242187499,1.0317316545384525,-0.1845703125,-0.52197265625,-0.19677734375,45.00058823529412,214.5792035227544
0.71046826171875,0.25305712890625,0.6794526367187499,1.015115238258198,-0.1826171875,-0.78466796875,-0.06689453125,45.00058823529412,214.5792035227544
0.70070263671875,0.25745166015625,0.6872651367187499,1.014691534689661,-0.1630859375,-0.85498046875,0.04833984375,45.00058823529412,214.5792035227544
0.71535107421875,0.26233447265625,0.6862885742187499,1.0254455334306922,-0.1611328125,-0.685546875,0.02880859375,45.235882352941175,214.5792035227544
0.71876904296875,0.26038134765625,0.6750581054687499,1.0198680449433424,-0.14990234375,-0.25341796875,-0.01953125,45.00058823529412,214.7870304706508
0.72511669921875,0.25891650390625,0.6599213867187499,1.014065195206762,-0.134765625,0.28564453125,-0.07763671875,44.85941176470588,214.7870304706508
0.73878857421875,0.24768603515625,0.6462495117187499,1.0123217674259104,-0.12451171875,0.54638671875,-0.04296875,44.906470588235294,214.7870304706508
0.75148388671875,0.24036181640625,0.6364838867187499,1.0137127664366457,-0.14306640625,0.5205078125,0.0380859375,45.04764705882353,214.7870304706508
0.75343701171875,0.23157275390625,0.6301362304687499,1.0091406938226055,-0.12841796875,0.34765625,0.09716796875,45.42411764705882,214.7870304706508
0.74513623046875,0.23108447265625,0.6101166992187499,0.9903890256487992,-0.09912109375,0.31103515625,0.2060546875,45.00058823529412,214.677322074216
0.72755810546875,0.23596728515625,0.5949799804687499,0.9690317505922506,-0.05615234375,0.5244140625,0.28369140625,44.906470588235294,214.677322074216
0.73195263671875,0.23987353515625,0.5715424804687499,0.9591427329903816,0.00390625,0.85400390625,0.2294921875,45.04764705882353,214.677322074216
0.77052685546875,0.21741259765625,0.5700776367187499,0.9828369063608842,-0.0537109375,0.91162109375,0.06103515625,45.04764705882353,214.677322074216
0.80421826171875,0.21301806640625,0.5695893554687499,1.0082538088004882,-0.11767578125,0.4990234375,-0.1376953125,44.906470588235294,214.9431017936311
0.81056591796875,0.21790087890625,0.5710541992187499,1.0151851057053618,-0.22412109375,-0.33251953125,-0.2470703125,44.906470588235294,214.9431017936311
0.79884716796875,0.22131884765625,0.5432221679687499,0.991074746864358,-0.3388671875,-0.80859375,-0.31640625,44.24764705882353,214.9431017936311
0.77443310546875,0.23010791015625,0.5149018554687499,0.958029334586165,-0.64404296875,-0.59716796875,-0.5771484375,45.09470588235294,214.9431017936311
0.75246044921875,0.25989306640625,0.4738862304687499,0.9264498329820172,-1.013671875,0.21923828125,-0.83056640625,44.906470588235294,214.9431017936311
0.70509716796875,0.31116259765625,0.4152924804687499,0.8754724569006292,-1.69189453125,1.46533203125,-0.81591796875,45.09470588235294,214.76617177676647
0.80861279296875,0.37366259765625,0.4690034179687499,1.0066988585998835,-2.00146484375,0.75244140625,-0.47607421875,45.04764705882353,214.76617177676647
0.82521435546875,0.34290087890625,0.4904877929687499,1.019381194783256,-2.5830078125,-1.82666015625,-0.24853515625,45.00058823529412,214.76617177676647
0.75734326171875,0.36292041015625,0.5153901367187499,0.9853461489272424,-3.18359375,-5.20751953125,0.4658203125,45.00058823529412,214.76617177676647
0.71339794921875,0.26282275390625,0.4592377929687499,0.8882070616760439,-3.7353515625,-9.11376953125,0.73583984375,45.04764705882353,214.6889114907368
0.71437451171875,0.15540087890625,0.4021088867187499,0.8343691826382551,-4.0546875,-12.2021484375,0.93994140625,45.09470588235294,214.6889114907368
0.77589794921875,0.13245166015625,0.5041596679687499,0.9347395576770936,-4.150390625,-15.59375,1.115234375,45.09470588235294,214.6889114907368
0.79054638671875,0.04407275390625,0.4494721679687499,0.9104566035619052,-3.51904296875,16.0,1.18115234375,45.09470588235294,214.6889114907368
0.67238232421875,-0.05211865234375,0.3850190429687499,0.7765655202830659,-2.33642578125,-15.6181640625,0.64599609375,44.24764705882353,214.6889114907368
0.65578076171875,0.03870166015625,0.3391206054687499,0.7392895312343908,0.150390625,-11.52294921875,0.1318359375,45.00058823529412,214.74376575113948
0.81007763671875,-0.11608349609375,0.2087495117187499,0.8445575849046644,1.12548828125,-10.21728515625,0.0380859375,45.09470588235294,214.74376575113948
0.87843701171875,0.00549853515625,0.2204682617187499,0.905697560928326,1.0576171875,-10.263671875,-0.13818359375,45.00058823529412,214.74376575113948
1.04201123046875,0.09729541015625,0.1579682617187499,1.0583986833754635,2.40283203125,-8.5263671875,-0.611328125,45.09470588235294,214.74376575113948
1.28322216796875,0.07434619140625,0.0754487304687498,1.2875865017436223,1.5810546875,-8.8427734375,-1.521484375,45.09470588235294,214.72213347311785
1.41652294921875,0.12903369140625,0.0764252929687498,1.4244394632930766,1.0546875,-9.01025390625,-1.96484375,44.906470588235294,214.72213347311785
1.74269482421875,0.12854541015625,0.0998627929687498,1.7502804775951135,-0.05712890625,-10.2919921875,-1.88916015625,45.00058823529412,214.72213347311785
1.76576611328125,0.21643603515625,0.1313569335937499,2.0195737377546834,-0.29833984375,-14.5419921875,-0.81640625,44.85941176470588,214.72213347311785
1.78883740234375,0.30432666015625,0.1628510742187499,2.0940795280996687,0.24267578125,16.0,0.775390625,45.00058823529412,214.72213347311785
1.81190869140625,0.39221728515625,0.1943452148437499,1.9981675465709043,0.82373046875,16.0,2.6416015625,44.15352941176471,214.66727922768408
1.83497998046875,0.48010791015625,0.2258393554687499,1.910146211313217,1.1650390625,16.0,3.626953125,45.47117647058823,214.66727922768408
1.88478466796875,0.32678759765625,0.2038666992187499,1.923737250677016,0.31982421875,16.0,3.7412109375,45.42411764705882,214.66727922768408
1.61964794921875,0.24670947265625,0.2346284179687499,1.6550454790806646,-2.75,16.0,2.79345703125,45.47117647058823,214.66727922768408
1.36427685546875,0.20667041015625,0.3098237304687499,1.4141975607260204,-4.37841796875,16.0,2.01953125,45.04764705882353,214.4919015084221
1.27931591796875,0.19885791015625,0.4641206054687499,1.3753550897206932,-4.5234375,16.0,0.94384765625,45.04764705882353,214.4919015084221
0.95997998046875,0.31409228515625,0.6340424804687499,1.1925709176122072,-2.27001953125,-13.783203125,-0.2998046875,45.235882352941175,214.4919015084221
1.04005810546875,0.31360400390625,0.5813081054687499,1.2320663324273349,1.0576171875,-7.7216796875,-0.8583984375,45.09470588235294,214.4919015084221
1.17531201171875,0.18030322265625,0.5114838867187499,1.2944046289176827,2.28466796875,-6.396484375,-1.01416015625,44.906470588235294,214.4919015084221
0.98195263671875,0.09583056640625,0.4040620117187499,1.066152234688298,1.0478515625,-5.5107421875,-0.66650390625,45.04764705882353,214.57843059887423
0.74269482421875,0.14514697265625,0.4235932617187499,0.8672338190857893,0.21875,-1.1591796875,-0.07470703125,45.00058823529412,214.57843059887423
0.82716748046875,0.16321337890625,0.4353120117187499,0.9488631067470376,0.6708984375,1.79541015625,0.146484375,44.81235294117647,214.57843059887423
0.84132763671875,0.16418994140625,0.3835541992187499,0.939097626929214,1.03857421875,3.427734375,0.119140625,45.235882352941175,214.57843059887423
0.81642529296875,0.13049853515625,0.3264252929687499,0.8888945936199468,1.02490234375,3.95263671875,0.2578125,44.906470588235294,214.59001965974096
0.86378857421875,0.25549853515625,0.2834565429687499,0.9443292932921468,0.9970703125,3.96337890625,0.85107421875,44.906470588235294,214.59001965974096
0.86769482421875,0.14368212890625,0.2268159179687499,0.9082864761665488,0.759765625,4.54443359375,1.1123046875,45.00058823529412,214.59001965974096
0.95851513671875,0.15540087890625,0.1892182617187499,0.9892948251414562,0.5791015625,4.5517578125,1.4189453125,45.04764705882353,214.59001965974096
1.02345654296875,0.19006884765625,0.1530854492187499,1.0521523734504552,0.5,4.1162109375,1.33154296875,44.906470588235294,214.59001965974096
0.98195263671875,0.23206103515625,0.1120698242187498,1.0152058659686307,0.49609375,3.74462890625,1.15966796875,45.09470588235294,214.3713786309908
0.91408154296875,0.23499072265625,0.0983979492187498,0.9489193133987172,0.43359375,4.4296875,1.03955078125,44.906470588235294,214.3713786309908
0.92189404296875,0.22571337890625,0.0637299804687498,0.9512605669789383,0.08056640625,5.1962890625,0.7880859375,44.85941176470588,214.3713786309908
0.95216748046875,0.20374072265625,0.0500581054687498,0.9750071829754992,0.2158203125,6.17529296875,-0.06640625,45.09470588235294,214.3713786309908
0.91749951171875,0.15393603515625,0.0075776367187498,0.9303542752640052,0.15966796875,7.21142578125,-0.1083984375,44.85941176470588,214.78935253610496
0.96290966796875,0.25745166015625,0.0310151367187498,0.9972152850265484,0.02880859375,7.2763671875,0.7724609375,44.059411764705885,214.78935253610496
0.91994091796875,0.03967822265625,-0.0964262695312501,0.9258313449878756,-0.24853515625,7.1376953125,1.67578125,45.47117647058823,214.78935253610496
0.86281201171875,0.03186572265625,-0.0676176757812501,0.8660439607344536,-0.61669921875,8.119140625,2.08349609375,44.85941176470588,214.78935253610496
0.94630810546875,0.0274711914062499,-0.0305083007812501,0.9471982122289364,-0.2587890625,7.51123046875,2.40576171875,45.00058823529412,214.78935253610496
1.02931591796875,0.01233447265625,-0.0627348632812501,1.031299695176177,0.14453125,7.14794921875,2.14404296875,45.235882352941175,214.3489737047037
1.08790966796875,0.01428759765625,-0.0891020507812501,1.091645893392215,0.3505859375,6.40087890625,1.4697265625,45.18882352941176,214.3489737047037
1.10939404296875,0.0240532226562499,-0.1076567382812501,1.1148648677719006,0.3564453125,5.6630859375,0.82861328125,44.34176470588236,214.3489737047037
1.08205029296875,0.0255180664062499,-0.1467192382812501,1.092250220008539,0.51904296875,4.51953125,0.10498046875,44.71823529411765,214.3489737047037
1.15187451171875,0.03967822265625,-0.0226958007812501,1.1527811377159023,0.380859375,3.2822265625,-0.7822265625,44.85941176470588,214.54752874920624
1.13966748046875,0.08801806640625,-0.1711333007812501,1.1558009139502226,-0.00537109375,1.75537109375,-1.380859375,44.81235294117647,214.54752874920624
1.14406201171875,0.13635791015625,-0.1428129882812501,1.1609767077516904,-0.40966796875,-0.2490234375,-1.607421875,45.04764705882353,214.54752874920624
1.15675732421875,0.12268603515625,-0.0851958007812501,1.1663608767559217,-0.58544921875,-2.37841796875,-1.3994140625,45.00058823529412,214.54752874920624
1.12697216796875,0.12024462890625,-0.0353911132812501,1.1339213240151509,-0.6259765625,-4.060546875,-1.02294921875,45.18882352941176,214.54752874920624
1.10744091796875,0.13001025390625,0.0339448242187498,1.115562774568727,-0.958984375,-4.4921875,-0.68798828125,45.04764705882353,215.0976286025881
1.07570263671875,0.15637744140625,0.0881440429687498,1.090577571351673,-1.05224609375,-3.90966796875,-0.47314453125,44.81235294117647,215.0976286025881
1.05324169921875,0.17444384765625,0.1311127929687499,1.0756111274240256,-1.1318359375,-2.798828125,-0.39892578125,45.18882352941176,215.0976286025881
1.03468701171875,0.18860400390625,0.1628510742187499,1.064269305619187,-1.17822265625,-1.58740234375,-0.388671875,45.04764705882353,215.0976286025881
1.00490185546875,0.21350634765625,0.1599213867187499,1.039705510971302,-0.96630859375,-0.4140625,-0.435546875,44.85941176470588,214.5799768965688
1.02785107421875,0.17835009765625,0.1359956054687499,1.052036783013524,-0.98974609375,0.07275390625,-0.46240234375,44.906470588235294,214.5799768965688
1.05177685546875,0.14417041015625,0.1135346679687498,1.0676655757750777,-1.06494140625,0.12109375,-0.4873046875,44.906470588235294,214.5799768965688
1.07033154296875,0.12219775390625,0.1066987304687498,1.0825555514694112,-1.10986328125,-0.22412109375,-0.478515625,45.00058823529412,214.5799768965688
1.04054638671875,0.09534228515625,0.1018159179687498,1.0498539971844092,-1.197265625,-0.3681640625,-0.34619140625,45.00058823529412,214.5799768965688
1.03224560546875,0.09192431640625,0.0988862304687498,1.0410377305999152,-1.17578125,-0.30908203125,-0.18603515625,45.00058823529412,214.86661449135727
1.03908154296875,0.11292041015625,0.1130463867187498,1.0512948956017714,-1.09619140625,-0.27294921875,-0.23681640625,44.85941176470588,214.86661449135727
1.04884716796875,0.11682666015625,0.1018159179687498,1.060233621156748,-1.01953125,-0.306640625,-0.376953125,44.906470588235294,214.86661449135727
1.04054638671875,0.12708056640625,0.1130463867187498,1.054355603590053,-0.890625,-0.43359375,-0.79248046875,44.81235294117647,214.86661449135727
1.02589794921875,0.14368212890625,0.1047456054687498,1.041192968783061,-0.76708984375,-0.412109375,-0.935546875,45.09470588235294,214.677322074216
1.02052685546875,0.14807666015625,0.1106049804687498,1.0371283535418638,-0.75537109375,-0.568359375,-1.0322265625,45.04764705882353,214.677322074216
1.01613232421875,0.14514697265625,0.0940034179687498,1.0307420562794944,-0.7744140625,-0.6591796875,-1.09423828125,44.15352941176471,214.677322074216
1.04689404296875,0.15686572265625,0.1272065429687499,1.06619674390892,-0.9033203125,-0.83056640625,-1.1708984375,44.906470588235294,214.677322074216
1.03273388671875,0.15393603515625,0.1438081054687499,1.0540001683564162,-0.82470703125,-1.1591796875,-0.93701171875,45.47117647058823,214.677322074216
1.01271435546875,0.13782275390625,0.1384370117187499,1.0313827046641832,-0.7998046875,-1.08251953125,-0.60693359375,45.00058823529412,214.80094342926384
1.02785107421875,0.12659228515625,0.1545502929687499,1.0470860664197792,-0.8447265625,-0.8115234375,-0.3671875,44.906470588235294,214.80094342926384
1.02687451171875,0.11731494140625,0.1574799804687499,1.0454826648697777,-0.759765625,-0.36279296875,-0.1318359375,45.09470588235294,214.80094342926384
1.03517529296875,0.08215869140625,0.1565034179687499,1.050157729858913,-0.591796875,0.08447265625,-0.14111328125,44.81235294117647,214.80094342926384
1.06496044921875,0.07629931640625,0.1550385742187499,1.078887993991983,-0.58740234375,0.22998046875,-0.3193359375,45.235882352941175,214.56838739939383
1.04298779296875,0.09338916015625,0.1403901367187499,1.0565294420906703,-0.58837890625,0.42041015625,-0.5439453125,45.42411764705882,214.56838739939383
1.08839794921875,0.14270556640625,0.1550385742187499,1.1086081066105788,-0.68017578125,0.46337890625,-0.82177734375,45.04764705882353,214.56838739939383
1.04933544921875,0.13196337890625,0.1521088867187499,1.0684831920897435,-0.5263671875,0.12060546875,-0.92041015625,45.235882352941175,214.56838739939383
0.98488232421875,0.11829150390625,0.1013276367187498,0.9971225413247544,-0.4482421875,0.837890625,-1.34033203125,45.04764705882353,214.56838739939383
1.01417919921875,0.16126025390625,0.0627534179687498,1.028835413992274,-0.37109375,1.1279296875,-1.50537109375,45.04764705882353,214.6340574146051
1.06789013671875,0.18616259765625,0.0358979492187498,1.0845895627496265,-0.55615234375,0.88916015625,-1.41455078125,45.04764705882353,214.6340574146051
1.05470654296875,0.20618212890625,0.0266206054687498,1.0750002877659746,-0.73779296875,0.5166015625,-1.15185546875,45.00058823529412,214.6340574146051
1.04884716796875,0.19885791015625,0.0354096679687498,1.0681192324705309,-0.89208984375,-0.0029296875,-0.79833984375,44.059411764705885,214.6340574146051
1.01271435546875,0.16467822265625,0.0290620117187498,1.0264277292215211,-1.033203125,-0.39794921875,-0.388671875,45.04764705882353,214.74376575113948
1.02882763671875,0.16565478515625,0.0422456054687498,1.0429345641519765,-1.08837890625,-0.48486328125,-0.34765625,45.04764705882353,214.74376575113948
1.04787060546875,0.17053759765625,0.0393159179687498,1.0623848734924342,-1.09423828125,-0.5673828125,-0.5771484375,44.1064705882353,214.74376575113948
1.05421826171875,0.19251025390625,0.0573823242187498,1.0731864108034064,-1.1435546875,-0.93017578125,-0.77734375,45.18882352941176,214.74376575113948
1.03712841796875,0.19788134765625,0.0686127929687498,1.058064316791559,-1.06494140625,-1.36083984375,-0.958984375,44.85941176470588,214.74376575113948
1.01271435546875,0.20715869140625,0.0798432617187498,1.0367642141005469,-0.95361328125,-1.45751953125,-0.93896484375,45.00058823529412,214.66727922768408
0.96388623046875,0.19104541015625,0.0783784179687498,0.9857576732809692,-0.86767578125,-1.3525390625,-0.5634765625,44.85941176470588,214.66727922768408
0.96046826171875,0.19006884765625,0.0900971679687498,0.9832308723257224,-0.8056640625,-1.33984375,-0.0576171875,44.906470588235294,214.66727922768408
0.96144482421875,0.18713916015625,0.0832612304687498,0.9830206751539766,-0.7119140625,-1.3896484375,0.2744140625,45.04764705882353,214.66727922768408
0.92140576171875,0.17883837890625,0.0666596679687498,0.9409650656809896,-0.65576171875,-1.15673828125,0.33203125,44.81235294117647,214.64642092909224
0.93947216796875,0.19836962890625,0.0822846679687498,0.9637059876554852,-0.5546875,-1.154296875,0.3388671875,44.85941176470588,214.64642092909224
0.96535107421875,0.20618212890625,0.0691010742187498,0.9895396531891956,-0.3857421875,-1.3447265625,0.23876953125,44.906470588235294,214.64642092909224
0.95802685546875,0.16516650390625,0.0671479492187498,0.974476411667434,-0.3330078125,-1.70458984375,0.212890625,45.04764705882353,214.64642092909224
0.95802685546875,0.14075244140625,0.0661713867187498,0.9705696049132404,-0.470703125,-2.0595703125,0.2548828125,44.85941176470588,214.64642092909224
0.97706982421875,0.14270556640625,0.0944916992187498,0.9919470758580996,-0.4521484375,-2.3671875,0.20361328125,44.29470588235294,215.02036481314
0.97462841796875,0.11926806640625,0.1062104492187498,0.9876264902784871,-0.36376953125,-2.4501953125,0.15869140625,45.18882352941176,215.02036481314
0.97316357421875,0.10120166015625,0.1198823242187498,0.9857286086264736,-0.25634765625,-2.36474609375,0.1259765625,45.235882352941175,215.02036481314
0.97365185546875,0.10217822265625,0.1125581054687498,0.9854479448198388,-0.26171875,-2.05224609375,0.42822265625,45.00058823529412,215.02036481314
1.01466748046875,0.11682666015625,0.1086518554687498,1.0271337742187563,-0.29541015625,-1.6962890625,0.49365234375,45.00058823529412,214.7777619852692
1.05177685546875,0.14758837890625,0.1198823242187498,1.0688258300340594,-0.1826171875,-1.51025390625,0.2783203125,45.00058823529412,214.7777619852692
1.06300732421875,0.15344775390625,0.1003510742187498,1.0787034451685211,-0.06103515625,-1.2666015625,-0.0419921875,44.85941176470588,214.7777619852692
1.03761669921875,0.15198291015625,0.0788666992187498,1.0516497400384015,-0.017578125,-0.923828125,-0.10009765625,44.906470588235294,214.7777619852692
1.03615185546875,0.14954150390625,0.0598237304687498,1.0485953498414315,-0.095703125,-0.79736328125,-0.01220703125,44.1064705882353,214.7777619852692
1.03273388671875,0.16370166015625,0.0417573242187498,1.0464612694414632,-0.30517578125,-0.68505859375,-0.01171875,45.42411764705882,214.68041788658684
1.01173779296875,0.14124072265625,0.0412690429687498,1.0223822364288682,-0.36572265625,-0.65576171875,-0.3447265625,44.24764705882353,214.68041788658684
0.93947216796875,0.12268603515625,0.0207612304687498,0.9476765515200006,-0.369140625,-0.8359375,-0.00048828125,45.00058823529412,214.68041788658684
0.92042919921875,0.11877978515625,0.0163666992187498,0.9282060207623904,-0.45458984375,-0.86083984375,0.455078125,45.00058823529412,214.68041788658684
0.92287060546875,0.10217822265625,0.0163666992187498,0.9286540865504036,-0.486328125,-0.91455078125,0.76806640625,44.906470588235294,214.733723480285
0.93507763671875,0.12561572265625,-0.0158598632812501,0.9436106356613804,-0.50048828125,-1.0673828125,1.00830078125,45.47117647058823,214.733723480285
1.02052685546875,0.14954150390625,0.0017182617187498,1.0314265250355026,-0.73779296875,-1.50927734375,0.7509765625,45.04764705882353,214.733723480285
1.07619091796875,0.13928759765625,-0.0202543945312501,1.0853562398019825,-1.10009765625,-1.50732421875,0.05810546875,45.235882352941175,214.733723480285
1.13331982421875,0.17004931640625,0.0559174804687498,1.1473697567041867,-1.09521484375,-2.140625,-0.19482421875,45.04764705882353,214.733723480285
1.18117138671875,0.15735400390625,0.0886323242187498,1.1948982451425898,-1.16748046875,-3.36767578125,-0.203125,44.906470588235294,215.0304054402727
1.12453076171875,0.15442431640625,0.1516206054687499,1.1451659755476498,-1.34423828125,-3.7509765625,-0.119140625,45.18882352941176,215.0304054402727
1.04982373046875,0.16028369140625,0.2214448242187499,1.0848311098781276,-1.33984375,-3.48583984375,0.02880859375,45.09470588235294,215.0304054402727
0.97755810546875,0.18274462890625,0.2561127929687499,1.0269416788133532,-1.2001953125,-2.2734375,0.017578125,44.906470588235294,215.0304054402727
0.89113232421875,0.22083056640625,0.2732026367187499,0.957874020441568,-0.9111328125,-0.7998046875,-0.2373046875,45.09470588235294,214.7012753064033
0.81105419921875,0.24963916015625,0.2443940429687499,0.8830951662151122,-0.466796875,0.759765625,-0.59033203125,44.81235294117647,214.7012753064033
0.78126904296875,0.26965869140625,0.1872651367187499,0.8474463751663168,0.1064453125,2.24560546875,-0.66162109375,44.85941176470588,214.7012753064033
0.83058544921875,0.38342822265625,0.1135346679687498,0.9218348611405504,0.6357421875,2.54541015625,-0.5185546875,44.906470588235294,214.7012753064033
0.88429638671875,0.13391650390625,0.0520112304687498,0.8958900031126495,0.9951171875,1.75439453125,-0.08740234375,45.04764705882353,214.7012753064033
0.94777294921875,0.24231494140625,-0.0007231445312501,0.9782589723777312,1.07861328125,0.15771484375,0.50439453125,44.906470588235294,214.733723480285
1.03712841796875,0.22522509765625,-0.0383208007812501,1.061993495151993,0.97021484375,-1.8056640625,1.32470703125,45.235882352941175,214.733723480285
1.11183544921875,0.22473681640625,-0.0764067382812501,1.1368916801712712,0.55517578125,-3.00537109375,1.36279296875,45.00058823529412,214.733723480285
1.20460888671875,0.25061572265625,-0.0573637695312501,1.231739181993954,0.16064453125,-3.8994140625,0.775390625,44.24764705882353,214.733723480285
1.26271435546875,0.26379931640625,-0.0422270507812501,1.2906667837443355,-0.076171875,-3.84912109375,-0.1494140625,45.47117647058823,214.5243498151846
1.30665966796875,0.26233447265625,-0.0363676757812501,1.333229714370996,-0.47021484375,-4.052734375,-1.142578125,45.09470588235294,214.5243498151846
1.25685498046875,0.27649462890625,-0.0300200195312501,1.28725868546915,-0.9443359375,-3.681640625,-1.97412109375,44.29470588235294,214.5243498151846
1.22658154296875,0.28967822265625,0.0022065429687498,1.2603256020032112,-0.970703125,-3.28466796875,-2.2880859375,45.00058823529412,214.5243498151846
1.17482373046875,0.29114306640625,0.0207612304687498,1.210539595172137,-0.716796875,-2.5673828125,-2.29345703125,45.04764705882353,214.5243498151846
1.09132763671875,0.30139697265625,0.0422456054687498,1.13296991883011,-0.2587890625,-1.673828125,-1.81201171875,45.04764705882353,214.9431017936311
1.00490185546875,0.25647509765625,0.0388276367187498,1.0378414138082384,0.05712890625,-1.30126953125,-0.71630859375,44.906470588235294,214.9431017936311
0.94874951171875,0.18909228515625,-0.0041411132812501,0.9674185635552934,-0.142578125,-0.8134765625,0.5224609375,45.09470588235294,214.9431017936311
0.94044873046875,0.15051806640625,-0.0002348632812501,0.952417743490597,-0.4501953125,-0.41064453125,1.35986328125,45.09470588235294,214.9431017936311
0.97853466796875,0.11194384765625,-0.0148833007812501,0.9850294584868732,-0.703125,-0.01611328125,1.51708984375,44.81235294117647,215.0304054402727
0.99367138671875,0.10901416015625,-0.0085356445312501,0.9996698300567544,-0.6630859375,0.5302734375,1.17919921875,44.15352941176471,215.0304054402727
1.02199169921875,0.08899462890625,-0.0251372070312501,1.0261671191494697,-0.36669921875,0.95654296875,0.60498046875,44.906470588235294,215.0304054402727
1.06642529296875,0.07385791015625,-0.0471098632812501,1.070017399669048,-0.12255859375,0.64892578125,0.04638671875,45.00058823529412,215.0304054402727
1.05372998046875,0.07288134765625,-0.0705473632812501,1.0586007240885489,0.138671875,0.484375,-0.591796875,45.04764705882353,215.0304054402727
1.06691357421875,0.08655322265625,-0.0959379882812501,1.0747093247943205,0.185546875,0.240234375,-1.162109375,44.85941176470588,214.712865796891
1.05958935546875,0.09827197265625,-0.1144926757812501,1.0702782608462076,-0.13330078125,-0.0732421875,-1.5029296875,45.09470588235294,214.712865796891
1.07667919921875,0.12952197265625,-0.1081450195312501,1.0898208039308617,-0.56640625,-0.43505859375,-1.84521484375,45.00058823529412,214.712865796891
1.07521435546875,0.16077197265625,-0.0900786132812501,1.0908930717391758,-0.82470703125,-0.55029296875,-1.99609375,44.15352941176471,214.712865796891
1.06789013671875,0.16711962890625,-0.0856840820312501,1.0842785972159057,-0.98974609375,-0.2724609375,-1.9296875,44.906470588235294,214.733723480285
1.02101513671875,0.22424853515625,-0.0798247070312501,1.0483946293172035,-0.5947265625,0.80126953125,-1.70361328125,44.906470588235294,214.733723480285
1.03761669921875,0.22424853515625,-0.0876372070312501,1.0651835992323464,-0.01806640625,1.5234375,-1.181640625,44.906470588235294,214.733723480285
1.08595654296875,0.21448291015625,-0.0934965820312501,1.1108762950109516,0.09326171875,1.23828125,-0.564453125,44.906470588235294,214.733723480285
1.05617138671875,0.19836962890625,-0.1242583007812501,1.0817987951134234,-0.12890625,0.85107421875,-0.0048828125,45.04764705882353,214.733723480285
1.03468701171875,0.20569384765625,-0.1320708007812501,1.0631697266204068,-0.22802734375,0.830078125,0.26416015625,45.09470588235294,214.78857806433783
1.06398388671875,0.19690478515625,-0.1276762695312501,1.089556990439685,-0.24755859375,0.1630859375,0.1455078125,44.85941176470588,214.78857806433783
1.05568310546875,0.17981494140625,-0.1262114257812501,1.0782993815832471,-0.33544921875,-0.64794921875,-0.1494140625,45.28294117647059,214.78857806433783
1.02882763671875,0.15540087890625,-0.1262114257812501,1.0481245456713908,-0.54345703125,-1.44384765625,-0.56103515625,45.18882352941176,214.78857806433783
0.98439404296875,0.16321337890625,-0.0837309570312501,1.001339658683169,-0.6494140625,-1.62158203125,-0.908203125,45.00058823529412,214.8326167461209
0.96730419921875,0.14954150390625,-0.0578520507812501,0.9805034089672338,-0.4111328125,-1.548828125,-0.9697265625,45.00058823529412,214.8326167461209
0.97804638671875,0.11292041015625,-0.0388090820312501,0.9853080221187518,-0.2919921875,-1.509765625,-0.8564453125,45.00058823529412,214.8326167461209
0.97365185546875,0.10364306640625,-0.0226958007812501,0.9794156013893858,-0.24755859375,-1.462890625,-0.80029296875,44.85941176470588,214.8326167461209
0.95460888671875,0.11340869140625,-0.0168364257812501,0.9614692523019012,-0.12841796875,-1.23974609375,-0.92919921875,45.04764705882353,214.8326167461209
0.93898388671875,0.13440478515625,-0.0192778320312501,0.9487502414219314,-0.375,-0.75537109375,-1.19091796875,44.906470588235294,214.7561298679904
0.93654248046875,0.16956103515625,-0.0261137695312501,0.9521264051190624,-0.51806640625,-0.02099609375,-1.73486328125,45.00058823529412,214.7561298679904
0.96339794921875,0.21936572265625,-0.0446684570312501,0.9890663273456156,-0.60986328125,0.56982421875,-2.4482421875,45.00058823529412,214.7561298679904
0.97462841796875,0.27991259765625,-0.0744536132812501,1.0167570781507116,-0.6474609375,1.08935546875,-3.103515625,44.906470588235294,214.7561298679904
1.00392529296875,0.32727587890625,-0.0754301757812501,1.0586147581602283,-0.53369140625,0.9169921875,-3.16845703125,45.09470588235294,214.4919015084221
1.00246044921875,0.35315478515625,-0.0812895507812501,1.065951802659404,-0.4755859375,0.6865234375,-2.5146484375,45.00058823529412,214.4919015084221
1.00490185546875,0.36292041015625,-0.0729887695312501,1.0709184486739425,-0.2451171875,1.01904296875,-1.38134765625,45.235882352941175,214.4919015084221
1.01320263671875,0.34680712890625,-0.1071684570312501,1.0762619782824638,0.4892578125,2.57763671875,-0.36669921875,45.09470588235294,214.4919015084221
1.06300732421875,0.31458056640625,-0.1301176757812501,1.1161882070931848,0.98974609375,3.5126953125,0.94921875,44.81235294117647,214.4919015084221
1.12746044921875,0.24768603515625,-0.1701567382812501,1.1668199313289445,0.7626953125,3.29345703125,2.01708984375,45.00058823529412,214.87743049754383
1.20119091796875,0.17053759765625,-0.1931059570312501,1.2285082841665858,-0.2392578125,2.103515625,2.72900390625,44.906470588235294,214.87743049754383
1.26613232421875,0.12317431640625,-0.1813872070312501,1.284976378587684,-1.37646484375,-0.09765625,2.32177734375,44.81235294117647,214.87743049754383
1.21144482421875,0.14417041015625,-0.0881254882812501,1.2231720120145932,-2.02294921875,-1.90966796875,1.47119140625,45.47117647058823,214.87743049754383
1.08497998046875,0.16614306640625,-0.0334379882812501,1.098136228158027,-1.73876953125,-2.681640625,0.9169921875,44.906470588235294,214.48108543341172
0.98976513671875,0.16565478515625,0.0090424804687498,1.0035727677463535,-1.435546875,-2.30322265625,0.8720703125,44.1064705882353,214.48108543341172
0.94923779296875,0.16809619140625,0.0417573242187498,0.964910561291242,-1.224609375,-1.5712890625,0.70263671875,45.18882352941176,214.48108543341172
0.91017529296875,0.19055712890625,0.0466401367187498,0.9310780771024988,-0.9287109375,-0.57275390625,0.60400390625,44.85941176470588,214.48108543341172
0.88527294921875,0.23108447265625,0.0476166992187498,0.916174425623074,-0.63720703125,0.41845703125,0.47802734375,45.00058823529412,214.48108543341172
0.87306591796875,0.28870166015625,-0.0051176757812501,0.9195754108831928,-0.18603515625,1.689453125,0.2861328125,44.1064705882353,214.7460885440168
0.94386669921875,0.31702197265625,-0.0598051757812501,0.9974787897951438,0.10546875,2.1962890625,0.25,45.09470588235294,214.7460885440168
1.01906201171875,0.32141650390625,-0.1369536132812501,1.0772893041808094,0.06494140625,1.5859375,0.345703125,45.00058823529412,214.7460885440168
1.07716748046875,0.31555712890625,-0.1633208007812501,1.1342573634545112,-0.2060546875,0.42333984375,0.5751953125,45.235882352941175,214.7460885440168
1.11232373046875,0.29504931640625,-0.1745512695312501,1.1639528882951764,-0.4375,-0.7060546875,0.91455078125,44.85941176470588,214.69123384306548
1.13624951171875,0.29358447265625,-0.1613676757812501,1.1846072438800082,-0.55322265625,-1.298828125,1.33056640625,45.09470588235294,214.69123384306548
1.15333935546875,0.28723681640625,-0.1530668945312501,1.1983848012110765,-0.52197265625,-1.26611328125,1.78173828125,45.47117647058823,214.69123384306548
1.21388623046875,0.28137744140625,-0.1384184570312501,1.2537355041239246,-0.4150390625,-1.19921875,2.08251953125,45.04764705882353,214.69123384306548
1.25099560546875,0.27649462890625,-0.1276762695312501,1.2875327236686245,-0.37841796875,-1.2998046875,2.138671875,45.04764705882353,214.69123384306548
1.27003857421875,0.27454150390625,-0.1203520507812501,1.3049351070064572,-0.4892578125,-1.490234375,1.83837890625,44.34176470588236,214.8326167461209
1.28810498046875,0.29651416015625,-0.1203520507812501,1.32726022467669,-0.66162109375,-1.79443359375,1.14697265625,44.906470588235294,214.8326167461209
1.21681591796875,0.31604541015625,-0.0871489257812501,1.2602065762277983,-0.8232421875,-2.2216796875,0.2802734375,44.906470588235294,214.8326167461209
1.10304638671875,0.28528369140625,-0.0671293945312501,1.1413169899049953,-0.97705078125,-2.5263671875,-0.103515625,44.906470588235294,214.8326167461209
1.01955029296875,0.23157275390625,-0.1403715820312501,1.0548994839729258,-1.26171875,-2.6064453125,0.1123046875,44.906470588235294,214.624014865032
0.90431591796875,0.14026416015625,0.0178315429687498,0.9153028340613,-1.423828125,-2.20166015625,0.8134765625,45.47117647058823,214.624014865032
0.84816357421875,0.06848681640625,0.0324799804687498,0.8515437990991648,-1.50244140625,-1.38525390625,1.37646484375,44.906470588235294,214.624014865032
0.84669873046875,-0.01500927734375,0.0324799804687498,0.8474544045050595,-1.8564453125,-0.4638671875,1.83935546875,45.00058823529412,214.624014865032
0.87404248046875,-0.06139599609375,0.0627534179687498,0.8784405030888942,-1.9462890625,0.15283203125,1.50732421875,45.00058823529412,214.624014865032
0.91359326171875,-0.05211865234375,0.0705659179687498,0.9177954840588428,-1.7353515625,0.2509765625,0.76708984375,45.00058823529412,214.59001965974096
0.91749951171875,-0.01500927734375,0.0676362304687498,0.9201115650194536,-1.30224609375,0.2783203125,0.08447265625,45.00058823529412,214.59001965974096
0.98292919921875,0.05579150390625,0.0549409179687498,0.9860431060821748,-0.9873046875,-0.01220703125,-0.69384765625,45.00058823529412,214.59001965974096
1.02833935546875,0.14075244140625,0.0583588867187498,1.0395666594436146,-0.732421875,-0.548828125,-1.328125,45.00058823529412,214.59001965974096
1.03029248046875,0.20374072265625,0.0192963867187498,1.0504214525224342,-0.626953125,-0.0234375,-1.82177734375,45.47117647058823,214.5575712896544
1.10353466796875,0.29407275390625,0.0227143554687498,1.14227119807131,-0.9970703125,0.6904296875,-2.1591796875,44.81235294117647,214.5575712896544
1.09523388671875,0.37610400390625,0.0305268554687498,1.158414164828876,-1.0078125,0.9775390625,-2.23681640625,44.906470588235294,214.5575712896544
1.05275341796875,0.41760791015625,0.0085541992187498,1.1325896432487057,-0.91455078125,1.3447265625,-2.099609375,44.906470588235294,214.5575712896544
1.04982373046875,0.41516650390625,0.0046479492187498,1.1289440617023507,-0.81787109375,1.294921875,-1.9658203125,45.235882352941175,214.5575712896544
1.01759716796875,0.39075244140625,-0.0246489257812501,1.090320611684992,-0.97265625,1.07275390625,-1.83544921875,45.09470588235294,214.88747169126347
0.98048779296875,0.38782275390625,-0.0280668945312501,1.054775118770246,-1.13623046875,0.8984375,-1.6611328125,45.00058823529412,214.88747169126347
0.95314404296875,0.39368212890625,-0.0290434570312501,1.031655324060947,-1.09326171875,0.7265625,-1.544921875,45.00058823529412,214.88747169126347
0.94435498046875,0.38001025390625,-0.0270903320312501,1.0183064412540996,-1.150390625,0.48876953125,-1.61767578125,45.04764705882353,214.88747169126347
0.94044873046875,0.36829150390625,-0.0026762695312501,1.009994855882155,-1.18017578125,-0.08056640625,-1.90576171875,44.906470588235294,214.79939415703245
0.91847607421875,0.37561572265625,0.0256440429687498,0.9926444917283562,-1.0859375,-0.55126953125,-2.294921875,45.09470588235294,214.79939415703245
0.87550732421875,0.38586962890625,0.0349213867187498,0.9574068876518922,-0.80712890625,-0.36083984375,-2.56201171875,44.85941176470588,214.79939415703245
0.88283154296875,0.38001025390625,0.0315034179687498,0.9616609546395186,-0.5791015625,0.19140625,-2.70458984375,44.85941176470588,214.79939415703245
0.87697216796875,0.38440478515625,0.0363862304687498,0.9582124920969028,-0.328125,0.69287109375,-2.38427734375,45.47117647058823,214.79939415703245
0.85255810546875,0.35852587890625,0.0261323242187498,0.9252453876756356,-0.03515625,0.91064453125,-1.29296875,45.28294117647059,214.85579849879176
0.84572216796875,0.29944384765625,0.0158784179687498,0.8973097165695535,0.0517578125,0.6044921875,0.27294921875,44.81235294117647,214.85579849879176
0.83253857421875,0.38001025390625,0.0080659179687498,0.9152012509108368,-0.0068359375,0.15771484375,1.9462890625,44.85941176470588,214.85579849879176
0.89162060546875,0.25647509765625,0.0315034179687498,0.9283098863838288,0.009765625,-0.65771484375,3.228515625,45.00058823529412,214.85579849879176
0.99318310546875,0.26575244140625,0.0666596679687498,1.0302817830261954,-0.1796875,-1.80126953125,3.6494140625,45.235882352941175,214.51353369930604
1.08107373046875,0.28235400390625,0.0974213867187498,1.1215770686055038,-0.4755859375,-2.34228515625,3.265625,45.00058823529412,214.51353369930604
1.14845654296875,0.31506884765625,0.1447846679687499,1.1996597058874616,-0.59375,-1.95751953125,2.2744140625,45.04764705882353,214.51353369930604
1.18410107421875,0.35657275390625,0.1921479492187499,1.2514632704091864,-0.197265625,-0.91015625,1.119140625,45.00058823529412,214.51353369930604
1.20070263671875,0.39319384765625,0.1799409179687499,1.27619236701115,0.33935546875,0.51220703125,-0.3095703125,45.04764705882353,214.51353369930604
1.22316357421875,0.42151416015625,0.1691987304687499,1.304772595857245,0.64501953125,2.0576171875,-1.43701171875,45.04764705882353,214.56838739939383
1.24806591796875,0.43127978515625,0.1359956054687499,1.3274658539436757,0.90869140625,2.79931640625,-2.462890625,45.00058823529412,214.56838739939383
1.25587841796875,0.37073291015625,0.0817963867187498,1.3120076753864116,0.72998046875,2.732421875,-3.2236328125,45.00058823529412,214.56838739939383
1.15626904296875,0.26819384765625,0.0529877929687498,1.1881471903144964,0.208984375,2.41845703125,-3.03955078125,44.85941176470588,214.56838739939383
1.05031201171875,0.16418994140625,0.0827729492187498,1.0662856183696965,-0.2001953125,2.10302734375,-1.62890625,44.81235294117647,214.9315107327786
0.97267529296875,0.06702197265625,0.0905854492187498,0.9791807259034164,-0.66748046875,1.66650390625,0.3427734375,45.00058823529412,214.9315107327786
0.93507763671875,0.0030571289062499,0.1296479492187499,0.9440276073639476,-0.8876953125,1.83203125,1.95068359375,45.00058823529412,214.9315107327786
0.92189404296875,-0.01159130859375,0.1501557617187499,0.9341144135883576,-0.72216796875,2.55517578125,2.587890625,44.85941176470588,214.9315107327786
0.93165966796875,0.0006157226562499,0.1838471679687499,0.9496261881415028,-0.1767578125,3.26025390625,2.2646484375,44.906470588235294,214.9315107327786
0.90578076171875,0.0211235351562499,0.1477143554687499,0.917989391468575,0.32373046875,4.36865234375,1.384765625,45.04764705882353,214.92224529679336
0.88234326171875,0.09045947265625,0.1213471679687498,0.8952305194014363,0.97509765625,5.77587890625,0.39111328125,45.18882352941176,214.92224529679336
0.93068310546875,0.11340869140625,0.0642182617187498,0.9397640976487728,1.57275390625,6.48193359375,-0.1689453125,44.906470588235294,214.92224529679336
1.00294873046875,0.13489306640625,0.0002534179687498,1.0119794264381194,1.5849609375,5.88720703125,-0.3154296875,44.906470588235294,214.92224529679336
1.04640576171875,0.17395556640625,-0.0392973632812501,1.0614941544835634,1.17529296875,4.8623046875,-0.291015625,44.24764705882353,214.6031569178883
1.08790966796875,0.24475634765625,-0.0266020507812501,1.1154195553618698,0.9208984375,3.88671875,-0.220703125,45.04764705882353,214.6031569178883
1.11134716796875,0.29602587890625,-0.0114653320312501,1.1501544690053445,0.830078125,2.80078125,-0.2216796875,44.1064705882353,214.6031569178883
1.09181591796875,0.33167041015625,0.0085541992187498,1.141113681465363,0.79248046875,2.1015625,-0.3935546875,44.85941176470588,214.6031569178883
1.05372998046875,0.36047900390625,0.0398041992187498,1.1143950638222335,0.8388671875,1.75927734375,-0.69873046875,44.81235294117647,214.6031569178883
0.99855419921875,0.33362353515625,0.0417573242187498,1.0536407481269232,0.76025390625,1.642578125,-0.9267578125,45.09470588235294,214.87743049754383
0.95412060546875,0.30725634765625,0.0261323242187498,1.0027140625942106,0.197265625,1.6181640625,-0.984375,45.235882352941175,214.87743049754383
0.96095654296875,0.28235400390625,0.0876557617187498,1.0054077747654608,-0.50830078125,1.1943359375,-0.88427734375,45.04764705882353,214.87743049754383
0.91896435546875,0.27600634765625,0.0871674804687498,0.9634693353812084,-1.1376953125,0.95849609375,-0.52294921875,44.85941176470588,214.87743049754383
0.92335888671875,0.25061572265625,0.1418549804687499,0.9672242292295996,-1.54150390625,0.92041015625,-0.0341796875,44.24764705882353,214.81098461386827
0.89064404296875,0.23303759765625,0.1545502929687499,0.9335090391923602,-1.6005859375,1.04052734375,0.2529296875,45.04764705882353,214.81098461386827
0.86085888671875,0.19934619140625,0.1623627929687499,0.8984311901372504,-1.482421875,1.95263671875,0.72998046875,44.85941176470588,214.81098461386827
0.91505810546875,0.19251025390625,0.2014252929687499,0.9565373400399242,-1.2880859375,2.259765625,0.69775390625,45.18882352941176,214.81098461386827
0.99757763671875,0.16711962890625,0.2019135742187499,1.031435506030755,-1.24755859375,1.57763671875,0.14697265625,44.906470588235294,214.81098461386827
1.01515576171875,0.19543994140625,0.1931245117187499,1.051682018613164,-1.15087890625,1.4248046875,-0.8505859375,45.00058823529412,214.36056258457543
1.01320263671875,0.20520556640625,0.2214448242187499,1.057225953952707,-0.91357421875,0.6806640625,-1.46630859375,45.28294117647059,214.36056258457543
0.94044873046875,0.24524462890625,0.2219331054687499,0.9969167698211576,-0.69580078125,-0.1474609375,-1.73388671875,45.09470588235294,214.36056258457543
0.91017529296875,0.27991259765625,0.3459565429687499,1.0131416761146037,-0.5107421875,-0.85546875,-1.47119140625,44.81235294117647,214.36056258457543
0.86525341796875,0.30774462890625,0.2507416992187499,0.9519672440028364,-0.29931640625,-1.3369140625,-0.7607421875,44.24764705882353,214.80094342926384
0.85060498046875,0.32678759765625,0.2199799804687499,0.9373954120792448,-0.02392578125,-1.0,-0.07080078125,45.00058823529412,214.80094342926384
0.89503857421875,0.39758837890625,0.2004487304687499,0.9996750781765874,0.24560546875,0.7958984375,0.28662109375,44.906470588235294,214.80094342926384
1.05031201171875,0.38391650390625,0.2019135742187499,1.136360988148606,0.71240234375,2.15234375,0.08837890625,44.81235294117647,214.80094342926384
1.23878857421875,0.65247119140625,0.1765229492187499,1.411196704513903,1.1064453125,2.9677734375,-0.92626953125,44.906470588235294,214.80094342926384
1.33449169921875,0.74524462890625,0.1081635742187498,1.5323044772450207,1.326171875,4.10107421875,-2.3974609375,44.906470588235294,214.559893124627
1.33790966796875,0.73499072265625,0.0441987304687498,1.527143467330446,0.92626953125,4.82568359375,-3.16259765625,45.04764705882353,214.559893124627
1.17726513671875,0.59680712890625,0.0217377929687498,1.3200774533677524,0.71923828125,5.072265625,-2.6748046875,45.235882352941175,214.559893124627
1.02101513671875,0.40686572265625,-0.0119536132812501,1.0991608228789262,0.673828125,5.6708984375,-1.26171875,44.85941176470588,214.559893124627
0.99318310546875,0.26575244140625,0.0041596679687498,1.0281314818346643,1.05078125,5.8505859375,0.33056640625,45.04764705882353,214.9098785978204
1.02052685546875,0.12561572265625,0.0149018554687498,1.0283367336664575,1.8095703125,5.49658203125,1.7216796875,44.906470588235294,214.9098785978204
1.05421826171875,-0.00866162109375,0.0066010742187498,1.054274509414942,2.51806640625,4.28125,2.66015625,44.81235294117647,214.9098785978204
1.07228466796875,-0.11559521484375,-0.0305083007812501,1.078928829567634,2.79150390625,2.943359375,3.08935546875,45.04764705882353,214.9098785978204
1.05714794921875,-0.18932568359375,-0.0715239257812501,1.0763464465332766,2.30029296875,1.7236328125,2.8837890625,45.04764705882353,214.9098785978204
1.04933544921875,-0.19420849609375,-0.0788481445312501,1.0700648834711537,1.4609375,0.88525390625,2.1796875,45.00058823529412,214.8882465173417
1.02638623046875,-0.16784130859375,-0.0656645507812501,1.0420898388313822,0.755859375,0.57177734375,1.34619140625,45.04764705882353,214.8882465173417
1.07960888671875,-0.10387646484375,-0.0197661132812501,1.0847748003455746,0.5224609375,-0.16259765625,0.59619140625,45.00058823529412,214.8882465173417
1.09230419921875,-0.00377880859375,0.0100190429687498,1.0923566836190974,0.6572265625,-1.22802734375,-0.1748046875,45.04764705882353,214.8882465173417
1.06984326171875,0.09778369140625,0.0280854492187498,1.0746697387606416,1.08251953125,-1.88818359375,-1.01806640625,45.00058823529412,214.7012753064033
1.06544873046875,0.16565478515625,0.0168549804687498,1.078381470292047,1.51806640625,-1.93115234375,-1.94677734375,44.906470588235294,214.7012753064033
1.10109326171875,0.23743212890625,0.0129487304687498,1.126475945797398,1.69287109375,-1.8447265625,-2.99365234375,45.09470588235294,214.7012753064033
1.13673779296875,0.32190478515625,0.0105073242187498,1.1814846188301371,1.51025390625,-2.3134765625,-4.02978515625,44.906470588235294,214.7012753064033
1.12501904296875,0.40344775390625,0.0188081054687498,1.1953207444053016,1.1513671875,-2.7529296875,-4.669921875,45.00058823529412,214.7012753064033
1.07619091796875,0.48450244140625,0.0393159179687498,1.1808790154172286,0.7763671875,-3.3603515625,-4.55615234375,45.235882352941175,214.546755193536
0.97658154296875,0.54651416015625,0.0695893554687498,1.121263535353341,0.66064453125,-3.64208984375,-3.55517578125,44.81235294117647,214.546755193536
0.86574169921875,0.57043994140625,0.0866791992187498,1.0403959342937372,0.82177734375,-3.52734375,-1.8359375,45.47117647058823,214.546755193536
0.74660107421875,0.53479541015625,0.0910737304687498,0.922883372442194,0.99560546875,-2.77294921875,0.4775390625,45.47117647058823,214.546755193536
0.71339794921875,0.45422900390625,0.0725190429687498,0.8488342791925203,0.958984375,-1.720703125,2.6650390625,45.09470588235294,214.73449780519604
0.73927685546875,0.34045947265625,0.0515229492187498,0.8155351223885656,0.4892578125,-0.62548828125,4.32080078125,45.09470588235294,214.73449780519604
0.83351513671875,0.26721728515625,0.0754487304687498,0.8785471367860117,-0.17529296875,-0.24169921875,5.240234375,45.09470588235294,214.73449780519604
0.93703076171875,0.24182666015625,0.1184174804687498,0.9749510150002992,-0.1982421875,0.3642578125,5.26611328125,44.81235294117647,214.73449780519604
1.05275341796875,0.26379931640625,0.1228120117187498,1.092228285938291,0.34765625,1.33349609375,4.33251953125,45.00058823529412,214.73449780519604
1.20607373046875,0.28137744140625,0.1159760742187498,1.2438800415033306,0.97998046875,1.8642578125,2.55029296875,45.18882352941176,214.67964325857787
1.32667919921875,0.27405322265625,0.1184174804687498,1.359854979830036,1.26611328125,1.31640625,0.359375,44.906470588235294,214.67964325857787
1.33937451171875,0.23792041015625,0.1003510742187498,1.3640383214219516,1.2236328125,0.03662109375,-1.81689453125,45.04764705882353,214.67964325857787
1.22462841796875,0.21497119140625,0.0817963867187498,1.2460409399821135,0.861328125,-0.73486328125,-3.033203125,45.00058823529412,214.67964325857787
1.08205029296875,0.22766650390625,0.0871674804687498,1.1091722333190288,0.6416015625,-0.69287109375,-3.392578125,45.42411764705882,214.73449780519604
0.99171826171875,0.25256884765625,0.1052338867187498,1.028771259487161,0.81689453125,-0.74658203125,-2.9140625,45.00058823529412,214.73449780519604
0.95021435546875,0.27551806640625,0.1257416992187499,0.9973106342446918,1.22119140625,-1.2373046875,-1.8583984375,45.04764705882353,214.73449780519604
0.92628857421875,0.28723681640625,0.1179291992187498,0.976945652252866,1.4658203125,-1.9384765625,-0.30078125,45.04764705882353,214.73449780519604
0.91798779296875,0.28088916015625,0.0837495117187498,0.9636463506110782,1.3388671875,-2.17333984375,0.95751953125,45.47117647058823,214.73449780519604
0.92872998046875,0.29211962890625,0.0661713867187498,0.9758339544379936,0.787109375,-1.994140625,1.65625,45.04764705882353,214.86661449135727
0.96535107421875,0.29651416015625,0.0964448242187498,1.0144579576241917,0.26220703125,-2.24560546875,1.783203125,45.00058823529412,214.86661449135727
0.93605419921875,0.28235400390625,0.0998627929687498,0.9827989747738168,-0.09423828125,-2.4716796875,1.48974609375,44.85941176470588,214.86661449135727
0.92677685546875,0.25452197265625,0.1330659179687499,0.9702594049645896,-0.21875,-2.513671875,1.033203125,44.906470588235294,214.86661449135727
0.91456982421875,0.24719775390625,0.1447846679687499,0.9583878614562223,-0.10693359375,-2.42529296875,0.490234375,45.04764705882353,214.6031569178883
0.90968701171875,0.22034228515625,0.1257416992187499,0.9444004218762748,-0.04833984375,-2.0458984375,0.05029296875,45.235882352941175,214.6031569178883
0.93214794921875,0.22034228515625,0.1335541992187499,0.9671025002498758,-0.11572265625,-1.7568359375,-0.2744140625,44.906470588235294,214.6031569178883
0.94044873046875,0.23499072265625,0.1560151367187499,0.981837653209613,0.07275390625,-1.62353515625,-0.50390625,45.00058823529412,214.6031569178883
0.96681591796875,0.22717822265625,0.1535737304687499,1.0049516678811463,0.18798828125,-1.57275390625,-0.75244140625,44.81235294117647,214.6031569178883
0.98585888671875,0.22327197265625,0.1501557617187499,1.0219172525569202,0.3115234375,-1.2431640625,-0.91796875,45.235882352941175,214.712865796891
0.99464794921875,0.23059619140625,0.1540620117187499,1.032586194867509,0.48974609375,-0.380859375,-0.87255859375,44.85941176470588,214.712865796891
1.04054638671875,0.22766650390625,0.1623627929687499,1.077464846969475,0.771484375,0.3701171875,-0.32568359375,45.00058823529412,214.712865796891
1.07667919921875,0.20129931640625,0.1403901367187499,1.1042956593701987,0.90869140625,0.6416015625,0.29248046875,45.00058823529412,214.712865796891
1.13136669921875,0.19446337890625,0.1486909179687499,1.1575472357200614,1.01025390625,0.49072265625,0.92529296875,45.04764705882353,214.492674917251
1.12941357421875,0.19299853515625,0.1399018554687499,1.154294583442905,1.12939453125,0.50830078125,1.4638671875,44.906470588235294,214.492674917251
1.14210888671875,0.17688525390625,0.1066987304687498,1.1606402204193442,1.06787109375,0.69775390625,1.50146484375,45.235882352941175,214.492674917251
1.16945263671875,0.19495166015625,0.0871674804687498,1.1887908937140228,0.6953125,0.705078125,1.16259765625,45.00058823529412,214.492674917251
1.20070263671875,0.24622119140625,0.1130463867187498,1.2308904022986924,0.4755859375,0.33740234375,0.37646484375,44.906470588235294,214.492674917251
