AccX,AccY,AccZ,Magnitude,GyroX,GyroY,GyroZ,Temperature,Altitude
0.13337255859375,0.0248583984375,1.0156787109375005,1.0246996746414936,0.8193359375,-0.052734375,0.044921875,30.60058823529412,280.81277067113604
0.13972021484375,0.0297412109375,1.0151904296875005,1.0251916340826743,0.8134765625,-0.0439453125,0.0302734375,30.64764705882353,280.81277067113604
0.13825537109375,0.0214404296875,1.0171435546875005,1.0267206292384403,0.8359375,0.08642578125,0.04443359375,30.50647058823529,280.81277067113604
0.14216162109375,0.0316943359375,1.0186083984375005,1.0289691573657256,0.8525390625,0.169921875,0.06396484375,30.60058823529412,281.265526652977
0.14802099609375,0.0282763671875,1.0064013671875005,1.0176214817419973,0.8359375,0.1298828125,0.0712890625,30.50647058823529,281.265526652977
0.15241552734375,0.0351123046875,1.0147021484375005,1.0266858414138282,0.84033203125,0.06787109375,0.06884765625,30.50647058823529,281.265526652977
0.14606787109375,0.0258349609375,1.0171435546875005,1.027902854852941,0.8359375,0.05419921875,0.099609375,31.21235294117648,281.265526652977
0.14850927734375,0.0277880859375,1.0147021484375005,1.025888704110203,0.83349609375,0.0810546875,0.1455078125,30.553529411764707,281.265526652977
0.14704443359375,0.0336474609375,0.9976123046875,1.008952192892385,0.85888671875,0.05517578125,0.1767578125,31.21235294117648,281.265526652977
0.15485693359375,0.0282763671875,0.9971240234375,1.0094733978365005,0.8525390625,-0.03076171875,0.1396484375,30.553529411764707,281.265526652977
0.16022802734375,0.0321826171875,1.0059130859375005,1.0191024865320522,0.84765625,-0.16162109375,0.06982421875,30.553529411764707,281.265526652977
0.15534521484375,0.0356005859375,1.0029833984375005,1.0155664601763794,0.830078125,-0.31103515625,0.02001953125,30.64764705882353,280.94049976564185
0.15290380859375,0.0356005859375,0.9937060546875,1.0060311623027214,0.8115234375,-0.4560546875,-0.01171875,30.60058823529412,280.94049976564185
0.15485693359375,0.0482958984375,0.9722216796875,0.9856612796200976,0.83349609375,-0.55712890625,0.0849609375,30.64764705882353,280.94049976564185
0.17487646484375,0.0268115234375,0.9448779296875,0.9612985684769448,0.88623046875,-0.47998046875,0.15380859375,31.21235294117648,280.94049976564185
0.17145849609375,0.0287646484375,1.0498583984375005,1.064156040086329,0.94775390625,-0.4306640625,0.22265625,30.60058823529412,280.94049976564185
0.14753271484375,0.0189990234375,0.8857958984375001,0.8981988858429094,0.998046875,-0.4501953125,0.21875,30.553529411764707,280.94049976564185
0.13434912109375,0.0219287109375,0.8301318359375001,0.841219008189311,1.01220703125,-0.33935546875,0.42138671875,30.64764705882353,280.94049976564185
0.08942724609375,0.0424365234375,0.7925341796875001,0.7986917533306027,1.10791015625,-0.14501953125,0.9990234375,30.50647058823529,280.94049976564185
0.06891943359375,0.0688037109375,0.7017138671875001,0.7084392637120637,1.1767578125,0.03076171875,1.4677734375,30.60058823529412,280.7031879687825
-0.04143212890625,0.1020068359375,0.5869677734375001,0.5972044733069743,1.04931640625,0.39697265625,1.15478515625,30.60058823529412,280.7031879687825
0.14704443359375,0.1474169921875,0.4448779296875,0.4911926377293866,0.9892578125,1.55859375,0.30712890625,30.60058823529412,280.7031879687825
0.15046240234375,0.2606982421875,0.1978076171875,0.3601810120149332,0.59228515625,3.4287109375,-0.35009765625,30.553529411764707,280.7031879687825
0.20222021484375,0.0902880859375,0.0127490234375,0.2218276162977002,0.3798828125,5.52880859375,-0.28369140625,29.753529411764703,280.7031879687825
-0.00578759765625,0.0141162109375,-0.0731884765624999,0.0747617335232552,0.23876953125,8.01513671875,0.42529296875,30.553529411764707,280.7031879687825
-0.02580712890625,-0.0913525390625,-0.4745556640624999,0.4839569945659941,-0.3037109375,10.4384765625,1.5693359375,30.50647058823529,280.7031879687825
-0.01897119140625,0.0116748046875,-0.5878369140624999,0.5882588245852218,-1.32275390625,11.70751953125,2.16552734375,30.50647058823529,280.7031879687825
0.24763037109375,-0.0952587890625,-0.8744580078124999,0.9138226551191913,-2.2509765625,11.41259765625,2.08935546875,30.50647058823529,280.7031879687825
0.3731186523437499,0.1147021484375,-0.8803173828124999,0.9629812075346248,-1.07177734375,10.583984375,1.0859375,31.21235294117648,280.7182214270691
0.66071630859375,0.1244677734375,-0.9213330078125,1.140566867110854,0.5009765625,8.37109375,-0.99560546875,30.50647058823529,280.7182214270691
0.85798193359375,0.0976123046875,-0.8466259765624999,1.2093124925303973,2.10595703125,2.931640625,-2.17822265625,30.50647058823529,280.7182214270691
1.02399755859375,-0.0098095703125,-0.7914501953124999,1.2942413373617263,2.45166015625,-7.03955078125,-1.94287109375,30.60058823529412,280.7182214270691
1.04499365234375,-0.0889111328125,-0.5951611328124999,1.205874660562776,1.65966796875,16.0,-0.810546875,30.60058823529412,280.7182214270691
0.94733740234375,-0.0552197265625,-0.3559033203124999,1.0134912656212205,1.71875,16.0,0.96435546875,30.553529411764707,280.7182214270691
0.85456396484375,-0.0586376953125,-0.1591259765624999,0.8712284578329618,1.419921875,16.0,1.95751953125,30.50647058823529,280.7182214270691
0.3604233398437499,0.1142138671875,0.1470263671875,0.4056680219223605,1.49853515625,16.0,2.978515625,31.21235294117648,280.7182214270691
0.18952490234375,0.1073779296875,0.3999560546875,0.4554278802110957,2.11572265625,16.0,1.67236328125,29.94176470588236,280.7182214270691
0.19196630859375,0.0956591796875,0.5928271484375001,0.6304330021644917,1.95947265625,16.0,-0.43115234375,29.753529411764703,280.87157540000766
-0.04826806640625,0.0766162109375,0.7085498046875001,0.7143127296469748,1.677734375,16.0,-2.2392578125,30.60058823529412,280.87157540000766
0.0113022460937499,0.1303271484375,0.6777880859375001,0.6902967447594069,1.68603515625,16.0,-3.46630859375,30.50647058823529,280.87157540000766
0.0445053710937499,-0.0610791015625,0.8657763671875001,0.8690685258851913,1.71240234375,-11.91796875,-3.21728515625,30.60058823529412,280.87157540000766
0.0342514648437499,-0.0869580078125,0.8711474609375001,0.8761465383510424,1.85791015625,-5.90771484375,-1.859375,30.50647058823529,280.87157540000766
0.09479833984375,-0.1274853515625,0.8789599609375001,0.8932020225186444,2.21728515625,-1.41015625,-0.68408203125,30.553529411764707,280.87157540000766
0.16852880859375,-0.1821728515625,0.8262255859375001,0.862692080658103,2.4580078125,1.09912109375,-0.71142578125,30.64764705882353,280.87157540000766
0.2783920898437499,-0.2446728515625,0.7314990234375001,0.8200352317244132,2.33642578125,1.72412109375,-1.88525390625,30.64764705882353,280.87157540000766
0.3916733398437499,-0.2227001953125,0.6606982421875001,0.7997034133766316,2.2626953125,1.47119140625,-3.376953125,30.553529411764707,280.87157540000766
0.4912827148437499,-0.2041455078125,0.5571826171875001,0.7703807910119392,2.74609375,0.79638671875,-4.11767578125,31.21235294117648,280.3564343438012
0.60847021484375,-0.0913525390625,0.5010302734375001,0.7934813316304429,3.1064453125,0.15673828125,-3.04443359375,30.553529411764707,280.3564343438012
0.84675146484375,0.0482958984375,0.5991748046875001,1.0384271681698365,3.7314453125,-2.2060546875,-0.72021484375,30.553529411764707,280.3564343438012
1.44880224609375,0.0434130859375,0.7402880859375001,1.627556172455476,4.29638671875,-7.38427734375,1.5439453125,30.553529411764707,280.3564343438012
2.01667333984375,0.0756396484375,0.8345263671875001,2.183833091970048,4.32568359375,-13.8857421875,2.27734375,30.50647058823529,280.3564343438012
2.40876318359375,0.0585498046875,0.9668505859375,2.596221910737472,4.0400390625,16.0,1.6513671875,30.60058823529412,280.3564343438012
2.40436865234375,0.1005419921875,1.2969287109375005,2.733701042510014,4.3916015625,16.0,2.3291015625,30.60058823529412,280.3564343438012
1.75446630859375,0.1723193359375,1.4448779296875005,2.2793679416071813,5.90673828125,16.0,6.8388671875,30.60058823529412,280.3564343438012
1.09333349609375,-0.0234814453125,1.7070849609375005,2.0273304061779207,7.83544921875,16.0,10.9873046875,30.553529411764707,280.3564343438012
0.91657568359375,0.0722216796875,1.6685107421875005,1.905060380031908,7.9306640625,-8.80517578125,9.8974609375,30.50647058823529,280.2501783711156
0.98591162109375,0.1176318359375,1.4966357421875005,2.164100289565507,6.96142578125,3.8115234375,4.97265625,30.69470588235294,280.2501783711156
1.05524755859375,0.1630419921874999,1.3247607421875005,2.054433379485994,2.98583984375,15.99951171875,-1.744140625,30.553529411764707,280.2501783711156
1.12458349609375,0.2084521484374999,1.1528857421875,1.8420915894658847,0.23779296875,15.99951171875,-4.916015625,30.64764705882353,280.2501783711156
1.19391943359375,0.2538623046875,0.9810107421875,1.5659731031985638,-0.912109375,15.99951171875,-5.53466796875,30.60058823529412,280.2501783711156
1.08747412109375,0.1156787109375,0.9565966796875,1.4529482908217812,-0.17138671875,15.99951171875,-4.70654296875,30.60058823529412,280.2501783711156
1.41413427734375,0.0180224609375,0.8467333984375001,1.6483500876592605,0.5712890625,15.99951171875,-3.36474609375,30.50647058823529,280.2501783711156
1.72565771484375,0.1278857421875,0.8022998046875001,1.9073369624836087,1.6318359375,9.7724609375,-2.361328125,29.89470588235294,280.28221911206987
2.14167333984375,0.2235888671875,0.9028857421875,2.334943112705992,3.02392578125,-0.82421875,-2.33837890625,30.553529411764707,280.28221911206987
2.17243505859375,0.2875537109375,0.7026904296875001,2.301289868846504,2.26611328125,-9.52978515625,-2.12646484375,30.60058823529412,280.28221911206987
2.31061865234375,0.4628466796875,0.9961474609375,2.558416574639247,2.6611328125,-14.791015625,-1.64599609375,30.50647058823529,280.28221911206987
1.95466162109375,0.4247607421875,1.2817919921875005,2.375734507960964,3.86767578125,-14.72412109375,-1.03662109375,30.60058823529412,280.28221911206987
2.06550146484375,0.4892138671875,1.4522021484375005,2.5718704456186585,5.09130859375,-10.30859375,-1.4794921875,30.60058823529412,280.28221911206987
1.82917333984375,0.3100146484375,1.5332568359375005,2.406836245860952,4.2529296875,-2.96435546875,-1.79638671875,30.553529411764707,280.28221911206987
1.73493505859375,0.3910693359375,1.4609912109375005,2.301614694401502,2.2294921875,5.822265625,-2.9697265625,30.553529411764707,280.28221911206987
2.19098974609375,0.4496630859375,1.4097216796875005,2.643851011786356,1.0888671875,14.24658203125,-5.10546875,30.553529411764707,280.28221911206987
1.96735693359375,0.5248583984375,1.2539599609375005,2.3913145393703767,0.2216796875,15.99951171875,-5.32958984375,30.60058823529412,280.0908010773783
1.80720068359375,0.4398974609375,1.1729052734375005,2.198906743674791,-0.59228515625,15.99951171875,-5.02880859375,30.553529411764707,280.0908010773783
1.66462255859375,0.3354052734375,1.0361865234375005,1.9892580203137,-1.48486328125,15.99951171875,-4.52197265625,30.69470588235294,280.0908010773783
1.38727880859375,0.2353076171875,0.9990771484375,1.725707772483441,-1.39501953125,15.99951171875,-4.2607421875,30.553529411764707,280.0908010773783
1.23200537109375,0.2050341796875,0.9053271484375,1.5425606940869294,-0.7998046875,15.99951171875,-5.01513671875,30.64764705882353,280.0908010773783
0.99323583984375,0.2274951171875,0.7476123046875001,1.263802049378948,-0.90283203125,15.99951171875,-4.8251953125,30.60058823529412,280.0908010773783
0.97761083984375,0.2143115234375,0.7339404296875001,1.2410966673019377,-1.62451171875,15.99951171875,-5.38623046875,30.50647058823529,280.0908010773783
1.13044287109375,0.0868701171875,0.7930224609375001,1.3835939164430506,-2.47216796875,15.35888671875,-7.23974609375,30.553529411764707,280.0908010773783
0.97565771484375,0.1615771484375,1.0107958984375005,1.4141158013859387,-2.119140625,8.5439453125,-7.259765625,29.84764705882353,280.0908010773783
1.07673193359375,0.5375537109375,1.2202685546875005,1.7138760149212469,-1.21240234375,2.04638671875,-7.0283203125,30.553529411764707,280.22991449411376
1.43317724609375,0.6981982421875,1.7275927734375005,2.3507561751377053,-0.357421875,-4.39111328125,-8.81494140625,30.60058823529412,280.22991449411376
1.30915380859375,0.8510302734375,2.0596240234375003,2.58460583818568,-1.376953125,-10.45166015625,-6.66162109375,29.80058823529412,280.22991449411376
0.57136083984375,0.6537646484375,2.8530810546875003,2.9822697613512936,-0.94384765625,-7.88818359375,-3.23095703125,30.50647058823529,280.22991449411376
-0.62639306640625,0.4428271484375,2.9883349609375003,3.0852244644104005,2.6201171875,7.91455078125,0.18310546875,31.21235294117648,280.22991449411376
-0.87981103515625,0.0746630859375,2.3877490234375003,2.545778355024482,2.09619140625,15.99951171875,-3.71875,31.21235294117648,280.22991449411376
-0.33488916015625,-0.0840283203125,1.5220263671875005,1.5606972065774571,-1.9404296875,15.99951171875,-8.0439453125,30.459411764705884,280.22991449411376
-0.51994775390625,-0.5200634765625,0.2861865234375,0.7891225586964746,-9.27294921875,15.99951171875,-4.89453125,30.50647058823529,280.22991449411376
-0.49455712890625,-0.3286572265625,0.1001513671875,0.6021898560032983,-13.65625,15.99951171875,-1.57861328125,30.50647058823529,279.95086631743766
-1.08879541015625,0.0268115234375,-0.2504345703124999,1.1175472146508902,-12.8330078125,15.99951171875,-0.7431640625,30.60058823529412,279.95086631743766
-0.27580712890625,0.7514208984375,0.5610888671875001,0.9775089032054288,-2.8955078125,15.99951171875,-4.9140625,30.50647058823529,279.95086631743766
2.00934912109375,0.8905810546875,0.0918505859375,2.199785224867552,6.27978515625,15.99951171875,-11.81884765625,30.50647058823529,279.95086631743766
2.70905615234375,0.3197802734375,-0.9140087890625,2.87691792137259,5.09521484375,15.99951171875,-13.1630859375,30.553529411764707,279.95086631743766
2.08503271484375,-0.4927197265625,-1.2128369140625,2.461931666603517,-0.52001953125,15.99951171875,-5.6435546875,30.50647058823529,279.95086631743766
1.31696630859375,-0.7935009765625,-1.1083447265625,1.8953817796622376,-5.232421875,3.5576171875,6.00341796875,30.50647058823529,279.95086631743766
0.3775131835937499,-0.6602001953125,-0.8085400390624999,1.1100078812535252,-3.017578125,-12.23876953125,14.44384765625,30.60058823529412,279.95086631743766
0.4087631835937499,-0.3896923828125,-0.6581494140624999,0.8672416876019013,-2.0849609375,16.0,11.20068359375,30.553529411764707,280.2737317249246
-0.26213525390625,0.0385302734375,-0.0531689453124999,0.2702339913062498,-1.07568359375,16.0,2.83544921875,30.553529411764707,280.2737317249246
-1.04289697265625,0.1859912109375,0.5342333984375001,1.186436745101756,-0.92333984375,16.0,-8.6953125,30.50647058823529,280.2737317249246
-1.55266259765625,0.0824755859375,1.0596240234375005,1.8815861488335484,-3.2373046875,16.0,-14.39599609375,30.553529411764707,280.2737317249246
-1.38225244140625,0.036455078125,1.1075976562500005,2.9800345839426985,-4.27197265625,-12.12158203125,-10.33349609375,30.553529411764707,280.2737317249246
-1.21184228515625,-0.0095654296875,1.1555712890625005,2.778629607888987,-3.0341796875,6.04736328125,-4.19189453125,30.553529411764707,280.2737317249246
-1.04143212890625,-0.0555859375,1.2035449218750005,1.9659456164298468,-2.39990234375,15.99951171875,-0.8525390625,30.50647058823529,280.2737317249246
-0.87102197265625,-0.1016064453125,1.2515185546875005,1.528169440640048,-1.46484375,15.99951171875,0.7412109375,30.50647058823529,280.2737317249246
-1.16496728515625,-0.1777783203125,0.8125537109375001,1.4314319543086076,-2.033203125,15.99951171875,3.04296875,30.50647058823529,280.2737317249246
-1.30168603515625,-0.1621533203125,0.5689013671875001,1.4298003353604911,-2.1220703125,15.99951171875,3.2021484375,30.60058823529412,280.0806705430319
-1.15471337890625,-0.0435009765625,0.1440966796875,1.164482363749637,-1.640625,15.99951171875,1.04833984375,30.553529411764707,280.0806705430319
-0.54924462890625,0.0233935546875,-0.1381298828124999,0.5668304731655457,-0.84228515625,15.99951171875,-3.16015625,30.553529411764707,280.0806705430319
-0.05608056640625,0.2201708984375,-0.4955517578124999,0.5451530052364019,0.33837890625,15.99951171875,-7.07861328125,30.553529411764707,280.0806705430319
0.14313818359375,0.0697802734375,-0.7621533203124999,0.7786112700358879,0.62939453125,15.99951171875,-7.7646484375,29.80058823529412,280.0806705430319
-0.52873681640625,-0.2983837890625,-1.3173291015625,1.4505004200006888,-2.0712890625,15.99951171875,0.67431640625,30.60058823529412,280.0806705430319
-1.31193994140625,-0.7295361328125,-1.2338330078125,1.9431297615197225,-5.53564453125,-11.1650390625,12.09619140625,30.60058823529412,280.0806705430319
-2.99260400390625,-0.9224072265625,-1.5419384765625,3.490571311592749,-8.77587890625,16.0,15.99951171875,29.89470588235294,280.0806705430319
-3.90666650390625,-0.0454541015625,-0.4667431640624999,3.93471198809913,-4.25,16.0,7.2998046875,30.553529411764707,279.8547506124195
-2.95158837890625,0.5360888671875,-0.4979931640624999,3.040931177036038,-1.513671875,-8.830078125,-4.33740234375,30.50647058823529,279.8547506124195
-2.71428369140625,0.3085498046875,-0.8378369140624999,2.857360606219034,-1.74462890625,14.74951171875,-10.64208984375,30.60058823529412,279.8547506124195
-2.22111962890625,0.1894091796875,-0.9662548828125,2.4295877719937446,-0.06005859375,15.99951171875,-12.55517578125,30.60058823529412,279.8547506124195
-1.47600244140625,0.1566943359375,-0.7558056640624999,1.665646578293565,3.0517578125,15.99951171875,-7.896484375,29.89470588235294,279.8547506124195
-0.67766259765625,-0.2173291015625,-0.6893994140624999,0.9908229341097724,5.06298828125,15.99951171875,-2.26953125,30.50647058823529,279.8547506124195
0.58503271484375,-0.3682080078125,-0.8139111328124999,1.0678444393125928,2.9013671875,15.99951171875,0.94482421875,30.60058823529412,279.8547506124195
1.65729833984375,-0.3711376953125,-0.7504345703124999,1.8567533547703177,-0.875,12.65576171875,2.9794921875,30.60058823529412,279.8547506124195
1.46296240234375,-0.2261181640625,-0.7675244140624999,1.6674777782544437,-1.984375,-9.42724609375,6.302734375,30.60058823529412,279.8547506124195
0.74811865234375,-0.0537548828125,-0.7826611328124999,1.0840339266951748,-1.45361328125,16.0,8.8115234375,30.60058823529412,279.76959116976843
0.2754624023437499,0.0668505859375,-0.7055126953124999,0.7603267055630004,-2.001953125,16.0,6.90283203125,31.21235294117648,279.76959116976843
-0.49602197265625,0.4169482421875,-0.2201611328124999,0.6843643462530227,-1.66845703125,16.0,2.2021484375,30.64764705882353,279.76959116976843
-1.41545556640625,0.4350146484375,0.3770068359375,1.5280334941254543,-0.36376953125,16.0,-2.10595703125,30.553529411764707,279.76959116976843
-1.91301416015625,0.2030810546875,0.5430224609375001,1.998934337294232,1.35791015625,16.0,-5.36376953125,30.50647058823529,279.76959116976843
-1.81731103515625,0.0365771484375,0.4722216796875,1.878017731826668,2.16259765625,-12.74365234375,-5.13623046875,31.21235294117648,279.76959116976843
-1.66838525390625,-0.1265087890625,0.4351123046875,1.7288251926821143,2.7548828125,5.0478515625,-2.26708984375,31.21235294117648,279.76959116976843
-1.56486962890625,-0.3350048828125,0.3486865234375,1.6378728639941291,2.14306640625,15.99951171875,1.8662109375,30.553529411764707,279.76959116976843
-1.54045556640625,-0.3433056640625,0.2803271484375,1.6029489827191927,0.599609375,15.99951171875,5.08642578125,30.60058823529412,279.7476822457484
-1.47844384765625,-0.1841259765625,0.1118701171875,1.494059406127232,0.1513671875,15.99951171875,6.44580078125,30.64764705882353,279.7476822457484
-1.21770166015625,-0.0088330078125,-0.0956494140624999,1.2214844107006864,0.92822265625,15.99951171875,4.30517578125,31.21235294117648,279.7476822457484
-0.64836572265625,0.0824755859375,-0.5844189453124999,0.8767701159548437,0.53173828125,15.99951171875,-0.224609375,29.84764705882353,279.7476822457484
-0.29533837890625,0.0565966796875,-1.0590283203125,1.1008946023260069,-0.34423828125,15.99951171875,-3.4169921875,30.60058823529412,279.7476822457484
-0.07658837890625,0.0565966796875,-1.1791455078125,1.182984823456977,-1.044921875,15.99951171875,-3.92431640625,30.50647058823529,279.7476822457484
-0.00725244140625,-0.0449658203125,-1.1806103515625,1.1814886055816436,-0.5,12.51953125,-2.6767578125,30.50647058823529,279.7476822457484
0.06794287109375,-0.2978955078125,-1.3046337890625,1.3399355547454157,-0.224609375,2.22119140625,0.02587890625,30.553529411764707,279.7476822457484
-0.10197900390625,-0.2876416015625,-1.3295361328125,1.364112802022314,-0.8212890625,-10.4404296875,2.83837890625,30.60058823529412,280.01576832586534
0.07819677734375,-0.1650830078125,-1.1029736328125,1.117997303277147,-1.55615234375,16.0,2.224609375,30.553529411764707,280.01576832586534
-0.09660791015625,0.0395068359375,-0.7807080078124999,0.7876540305572701,-1.310546875,16.0,0.9580078125,30.553529411764707,280.01576832586534
-0.74846337890625,0.1322802734375,-0.2689892578124999,0.8062572301213677,-0.11083984375,16.0,0.568359375,30.553529411764707,280.01576832586534
-1.19035791015625,-0.0366650390625,0.0669482421875,1.1928027274000532,0.841796875,16.0,0.7998046875,30.553529411764707,280.01576832586534
-1.44475244140625,-0.0332470703125,0.4180224609375,1.5043795274072058,1.7978515625,16.0,0.654296875,30.50647058823529,280.01576832586534
-1.29143212890625,0.0072802734375,0.5088427734375001,1.3880817389592808,2.28466796875,-9.9287109375,0.8203125,31.21235294117648,280.01576832586534
-1.28703759765625,-0.0288525390625,0.4678271484375,1.369730078375403,1.13330078125,0.67236328125,1.8779296875,30.50647058823529,280.01576832586534
-1.05070947265625,0.0917529296875,0.6719287109375001,1.2505587505662998,0.68115234375,7.20849609375,2.89404296875,30.60058823529412,280.2323845031784
-1.18742822265625,0.1483935546875,0.4395068359375,1.2748226111381793,0.890625,14.8525390625,2.2919921875,30.69470588235294,280.2323845031784
-1.10588525390625,0.1874560546875,0.2461474609375,1.1483512266603246,0.974609375,15.99951171875,1.45458984375,30.553529411764707,280.2323845031784
-1.01311181640625,0.2270068359375,-0.0092236328124999,1.0382739193038542,0.61767578125,15.99951171875,0.646484375,30.64764705882353,280.2323845031784
-0.73918603515625,0.3280810546875,-0.0868603515624999,0.8133743871603286,0.7529296875,15.99951171875,-0.1103515625,29.84764705882353,280.2323845031784
-0.56438134765625,0.3134326171875,-0.4232861328124999,0.7719698577863336,0.8359375,14.0576171875,-0.841796875,30.553529411764707,280.2323845031784
-0.48186181640625,0.2304248046875,-0.5946728515624999,0.7993260918493017,0.701171875,8.19873046875,-1.1962890625,30.50647058823529,280.2323845031784
-0.39543603515625,0.1669482421875,-0.6185986328124999,0.7529313660534307,0.673828125,1.3359375,-1.3095703125,30.50647058823529,280.2323845031784
-0.35930322265625,0.1210498046875,-0.5653759765624999,0.6807362601625163,0.69091796875,-4.84033203125,-1.21484375,30.50647058823529,280.2323845031784
-0.46818994140625,0.0473193359375,-0.5580517578124999,0.7299744551593397,0.3037109375,-10.13720703125,-1.10400390625,30.50647058823529,279.8235378628132
-0.69133447265625,0.0360888671875,-0.2802197265624999,0.7468392427909333,0.25341796875,-12.61181640625,-0.91845703125,30.60058823529412,279.8235378628132
-0.87199853515625,0.0307177734375,-0.1288525390624999,0.8820022696923497,0.19775390625,-12.69775390625,-0.93505859375,30.50647058823529,279.8235378628132
-1.02873681640625,0.0526904296875,0.0044482421875,1.0300949012925356,0.20556640625,-10.26123046875,-0.80224609375,30.64764705882353,279.8235378628132
-1.16350244140625,0.0458544921875,0.1094287109375,1.169536321962478,0.25390625,-6.36328125,-0.6572265625,30.553529411764707,279.8235378628132
-1.20451806640625,0.0473193359375,0.1348193359375,1.212962961180285,0.57666015625,-0.92724609375,-0.48583984375,30.553529411764707,279.8235378628132
-1.15227197265625,0.0336474609375,0.1030810546875,1.157362758357186,0.7470703125,3.8681640625,-0.02783203125,31.21235294117648,279.8235378628132
-1.05852197265625,0.0321826171875,-0.0180126953124999,1.0591642670698145,0.8544921875,7.00244140625,0.34521484375,30.60058823529412,279.8235378628132
-0.94133447265625,0.0390185546875,-0.1303173828124999,0.951112852023366,0.88427734375,8.01904296875,0.62353515625,30.553529411764707,279.8235378628132
-0.84026025390625,0.0678271484375,-0.2689892578124999,0.8848689378536676,0.87451171875,7.41552734375,0.31494140625,30.50647058823529,280.01659264281034
-0.77287744140625,0.0692919921875,-0.3690869140624999,0.8592822992172964,0.92919921875,5.8701171875,0.072265625,30.64764705882353,280.01659264281034
-0.73527978515625,0.0634326171875,-0.4296337890624999,0.8539585775006173,0.9892578125,3.2890625,-0.06787109375,30.553529411764707,280.01659264281034
-0.71818994140625,0.0434130859375,-0.4667431640624999,0.857630846674024,0.875,0.48046875,-0.123046875,30.553529411764707,280.01659264281034
-0.72356103515625,0.0468310546875,-0.4310986328124999,0.8435518659171671,1.0517578125,-2.08056640625,0.13037109375,30.60058823529412,280.01659264281034
-0.75969384765625,0.0526904296875,-0.3710400390624999,0.8471019620653186,1.06494140625,-3.49462890625,0.04833984375,30.50647058823529,280.01659264281034
-0.83635400390625,0.0653857421875,-0.4335400390624999,0.9443094199475826,1.0654296875,-3.66943359375,-0.138671875,29.753529411764703,280.01659264281034
-0.87053369140625,0.0385302734375,-0.2343212890624999,0.9023413746207544,1.05712890625,-3.12109375,-0.72802734375,31.21235294117648,280.01659264281034
-0.90568994140625,-0.0088330078125,-0.1679150390624999,0.9211665171589952,1.115234375,-2.33203125,-0.71875,30.553529411764707,279.7265991287357
-0.95744775390625,-0.0142041015625,-0.1220166015624999,0.9652958142549788,0.9296875,-1.521484375,-0.408203125,30.50647058823529,279.7265991287357
-0.97502587890625,-0.0117626953125,-0.0932080078124999,0.979541504101942,0.91015625,-0.736328125,-0.255859375,30.553529411764707,279.7265991287357
-0.94865869140625,0.1376513671875,-0.0624462890624999,0.9606251874102012,0.9453125,0.10693359375,-0.61865234375,30.553529411764707,279.7265991287357
-0.94963525390625,0.0297412109375,-0.0663525390624999,0.9524149907102772,0.8759765625,0.73486328125,-0.7021484375,30.50647058823529,279.7265991287357
-0.95793603515625,0.0453662109375,-0.0927197265624999,0.963481441564666,1.1044921875,1.30712890625,-0.59814453125,30.50647058823529,279.7265991287357
-0.95451806640625,0.0727099609375,-0.1503369140624999,0.9690163389981072,1.21142578125,1.830078125,-0.44482421875,30.60058823529412,279.63048760816673
-1.03947900390625,0.0805224609375,-0.1937939453124999,1.0604511113281674,1.24951171875,1.9208984375,-0.349609375,29.753529411764703,279.63048760816673
-0.89201806640625,0.0995654296875,-0.2484814453124999,0.9313176333821832,1.28271484375,1.81103515625,-0.27978515625,30.50647058823529,279.63048760816673
-0.86516259765625,0.0981005859375,-0.2943798828124999,0.9191243445526248,1.2724609375,1.42578125,-0.23876953125,30.50647058823529,279.63048760816673
-0.83684228515625,0.0590380859375,-0.3353955078124999,0.9034825136534204,1.24267578125,0.7998046875,-0.26611328125,30.50647058823529,279.63048760816673
-0.81877587890625,0.0155810546875,-0.3637158203124999,0.8960613299822016,1.15185546875,-0.01220703125,-0.3857421875,30.50647058823529,279.63048760816673
-0.81096337890625,-0.0273876953125,-0.3598095703124999,0.887623013824021,1.05126953125,-1.02880859375,-0.47509765625,30.553529411764707,279.63048760816673
-0.82951806640625,-0.0459423828125,-0.3227001953124999,0.8912610959127408,0.97900390625,-1.828125,-0.49169921875,30.50647058823529,279.63048760816673
-0.85393212890625,-0.0483837890625,-0.2709423828124999,0.8971905297240493,0.92822265625,-1.994140625,-0.38671875,30.60058823529412,279.63048760816673
-0.89397119140625,-0.0449658203125,-0.2309033203124999,0.9244040022587652,0.9599609375,-1.46240234375,-0.30908203125,30.60058823529412,279.628009362445
-0.91887353515625,-0.0420361328125,-0.2016064453124999,0.9416691398065016,1.03759765625,-0.70654296875,-0.3125,30.60058823529412,279.628009362445
-0.93205712890625,-0.0298291015625,-0.1859814453124999,0.950899240111966,1.0927734375,-0.1396484375,-0.3583984375,30.553529411764707,279.628009362445
-0.92326806640625,-0.0327587890625,-0.1893994140624999,0.9430637299533872,1.10693359375,0.11962890625,-0.38525390625,30.50647058823529,279.628009362445
-0.91740869140625,-0.0298291015625,-0.1962353515624999,0.9386356031872072,1.1259765625,0.21826171875,-0.34423828125,30.50647058823529,279.628009362445
-0.79533837890625,-0.0254345703125,-0.1874462890624999,0.817524412853528,1.08154296875,0.21142578125,-0.2314453125,30.50647058823529,279.628009362445
-0.90715478515625,-0.0400830078125,-0.2226025390624999,0.934926918076622,1.05029296875,0.1796875,-0.14111328125,30.60058823529412,279.628009362445
-0.90861962890625,-0.0376416015625,-0.2333447265624999,0.93885903181279,1.0380859375,0.2373046875,-0.02587890625,30.60058823529412,279.628009362445
-0.89787744140625,-0.0298291015625,-0.2352978515624999,0.92867580674646,1.00390625,0.03173828125,0.06640625,31.16529411764706,279.628009362445
-0.90276025390625,-0.0327587890625,-0.2352978515624999,0.9334957382032586,1.02734375,0.025390625,0.11328125,30.60058823529412,279.82188746392484
-0.90764306640625,-0.0249462890625,-0.2509228515624999,0.942019389805532,1.03515625,0.04638671875,0.00830078125,30.60058823529412,279.82188746392484
-0.90520166015625,-0.0200634765625,-0.2426220703124999,0.9373676213973516,1.0751953125,-0.06787109375,-0.1298828125,30.553529411764707,279.82188746392484
-0.87346337890625,-0.0552197265625,-0.2411572265624999,0.9078239369036694,1.0693359375,-0.3681640625,-0.0244140625,30.60058823529412,279.82188746392484
-0.83781884765625,-0.0635205078125,-0.2260205078124999,0.8700922631265176,1.0107421875,-0.58642578125,0.01171875,30.60058823529412,279.82188746392484
-0.87883447265625,-0.0781689453125,-0.2055126953124999,0.9059226690368588,0.9384765625,-0.58203125,-0.068359375,30.50647058823529,279.82188746392484
-0.89006494140625,-0.0757275390625,-0.1727978515624999,0.9098402923577243,0.85986328125,-0.36865234375,-0.228515625,30.60058823529412,279.82188746392484
-0.91789697265625,-0.0791455078125,-0.1537548828124999,0.9340446604992144,0.7548828125,0.18017578125,-0.02001953125,30.553529411764707,279.82188746392484
-0.93938134765625,-0.0854931640625,-0.1557080078124999,0.9560289645836196,0.60986328125,0.6630859375,0.32470703125,30.50647058823529,280.01576832586534
-0.93791650390625,-0.0737744140625,-0.1576611328124999,0.9539324217520384,0.52734375,0.71630859375,0.515625,30.553529411764707,280.01576832586534
-0.89836572265625,-0.0513134765625,-0.1654736328124999,0.9149183393488092,0.43115234375,0.3251953125,0.86328125,30.553529411764707,280.01576832586534
-0.90080712890625,-0.0327587890625,-0.1581494140624999,0.9151709451886432,0.3876953125,0.119140625,0.94482421875,30.64764705882353,280.01576832586534
-0.91985009765625,-0.0352001953125,-0.1776806640624999,0.9375146261738756,0.39697265625,0.4853515625,0.89453125,30.60058823529412,280.01576832586534
-0.94865869140625,-0.0298291015625,-0.3168408203124999,1.0006154073853464,0.453125,1.1953125,0.818359375,30.64764705882353,280.01576832586534
-0.92424462890625,-0.0146923828125,-0.2382275390624999,0.9545660587631092,0.54248046875,1.75146484375,0.72607421875,30.50647058823529,280.01576832586534
-0.88664697265625,0.0058154296875,-0.2621533203124999,0.9246085856695316,0.6083984375,2.13671875,0.74853515625,30.50647058823529,280.01576832586534
-0.82365869140625,0.0365771484375,-0.2890087890624999,0.8736576033391158,0.64892578125,1.67724609375,0.5400390625,29.84764705882353,279.57571508493555
-0.80315087890625,0.0761279296875,-0.3041455078124999,0.8621782216507851,0.6376953125,0.75146484375,0.435546875,30.60058823529412,279.57571508493555
-0.77971337890625,0.0922412109375,-0.3070751953124999,0.8430637993751291,0.6572265625,-0.3017578125,0.1962890625,30.64764705882353,279.57571508493555
-0.80754541015625,0.0917529296875,-0.2904736328124999,0.8630892890830916,0.6806640625,-1.34033203125,-0.068359375,30.50647058823529,279.57571508493555
-0.84465478515625,0.0888232421875,-0.2606884765624999,0.8884198085660445,0.72314453125,-1.78173828125,-0.20263671875,30.553529411764707,279.57571508493555
-0.90031884765625,0.0722216796875,-0.2128369140624999,0.9279491098382552,0.78369140625,-1.78125,-0.15087890625,30.50647058823529,279.57571508493555
-0.94621728515625,0.0663623046875,-0.1737744140624999,0.9643280837944448,0.814453125,-1.3017578125,0.04443359375,30.50647058823529,279.57571508493555
-0.96965478515625,0.0717333984375,-0.1425244140624999,0.982694912692472,0.8447265625,-0.39501953125,0.2490234375,29.89470588235294,279.57571508493555
-0.99406884765625,0.0849169921875,-0.1591259765624999,1.010299384271695,0.8818359375,0.68798828125,0.3134765625,30.553529411764707,279.9423862903926
-0.94621728515625,0.0946826171875,-0.0844189453124999,0.9546824116184468,0.9248046875,1.19189453125,0.28076171875,31.16529411764706,279.9423862903926
-0.88713525390625,0.0844287109375,-0.2186962890624999,0.9175866350397563,0.931640625,1.11181640625,0.29833984375,30.64764705882353,279.9423862903926
-0.83879541015625,0.0634326171875,-0.2372509765624999,0.8740077018552569,0.92724609375,0.251953125,0.36083984375,30.553529411764707,279.9423862903926
-0.82365869140625,0.0468310546875,-0.2592236328124999,0.8647564277995913,0.9013671875,-0.32470703125,0.3671875,29.753529411764703,279.9423862903926
-0.84367822265625,0.0326708984375,-0.2426220703124999,0.8784792541613298,0.88916015625,-0.7744140625,0.2802734375,30.553529411764707,279.9423862903926
-0.86369775390625,0.0209521484375,-0.2255322265624999,0.8929040193912708,0.87939453125,-0.65966796875,0.171875,30.50647058823529,279.9423862903926
-0.87004541015625,0.0058154296875,-0.2206494140624999,0.8976073745700467,0.890625,-0.32666015625,0.06005859375,30.60058823529412,279.9423862903926
-0.89836572265625,-0.0117626953125,-0.2016064453124999,0.9207847150318272,0.873046875,0.0908203125,0.03173828125,31.21235294117648,279.73672780471844
-0.90129541015625,-0.0298291015625,-0.2147900390624999,0.927015616130181,0.857421875,0.37158203125,0.08642578125,30.60058823529412,279.73672780471844
-0.89445947265625,-0.0400830078125,-0.2221142578124999,0.9224961459341668,0.84765625,0.455078125,0.1357421875,30.50647058823529,279.73672780471844
-0.87785791015625,-0.0435009765625,-0.2309033203124999,0.9087591478038208,0.83349609375,0.41064453125,0.1435546875,30.553529411764707,279.73672780471844
-0.87297509765625,-0.0352001953125,-0.2450634765624999,0.9074032633966423,0.82861328125,0.2724609375,0.15087890625,30.50647058823529,279.73672780471844
-0.87102197265625,-0.0327587890625,-0.2470166015624999,0.905963363805796,0.8203125,0.03466796875,0.138671875,30.553529411764707,279.73672780471844
-0.87736962890625,-0.0200634765625,-0.2499462890624999,0.9124983047847156,0.84130859375,-0.1796875,0.09033203125,30.60058823529412,279.73672780471844
-0.87395166015625,-0.0034619140625,-0.2475048828124999,0.908329321421956,0.84375,-0.22802734375,0.037109375,30.553529411764707,279.73672780471844
-0.87834619140625,0.0102099609375,-0.2318798828124999,0.908495765159832,0.85498046875,-0.2119140625,0.0341796875,30.50647058823529,279.73672780471844
-0.87053369140625,0.0243701171875,-0.2392041015624999,0.9031286800281828,0.89306640625,-0.19091796875,0.04296875,30.553529411764707,279.7156446543196
-0.86565087890625,0.0209521484375,-0.2352978515624999,0.8973045835307197,0.89794921875,-0.2294921875,0.115234375,30.64764705882353,279.7156446543196
-0.86955712890625,0.0277880859375,-0.2362744140624999,0.9015139360499804,0.92236328125,-0.3369140625,0.19091796875,30.60058823529412,279.7156446543196
-0.89055322265625,0.0380419921875,-0.2289501953124999,0.9202990967542336,0.9208984375,-0.4345703125,0.23876953125,30.64764705882353,279.7156446543196
-0.91447900390625,0.0409716796875,-0.2143017578124999,0.9401466750051876,0.92333984375,-0.4326171875,0.18798828125,29.84764705882353,279.7156446543196
-0.91594384765625,0.0609912109375,-0.2074658203124999,0.9411243947900284,0.94287109375,-0.322265625,-0.04248046875,30.553529411764707,279.7156446543196
-0.92082666015625,0.0526904296875,-0.1947705078124999,0.9426736286481692,0.96484375,-0.19921875,-0.15087890625,30.60058823529412,279.7156446543196
-0.90861962890625,0.0282763671875,-0.1933056640624999,0.9293848840677892,0.94384765625,-0.2421875,0.04248046875,30.553529411764707,279.7156446543196
-0.87102197265625,0.0248583984375,-0.1854931640624999,0.8909011902207675,0.9306640625,0.0185546875,0.12744140625,31.21235294117648,279.7156446543196
-0.86906884765625,0.0229052734375,-0.1918408203124999,0.890285467620348,0.951171875,0.1357421875,0.20263671875,30.60058823529412,279.6187066134822
-0.87248681640625,0.0341357421875,-0.2143017578124999,0.8990682605336107,0.923828125,0.12841796875,0.03857421875,29.89470588235294,279.6187066134822
-0.88615869140625,0.0414599609375,-0.2025830078124999,0.9099648508432268,0.95361328125,-0.03173828125,-0.072265625,30.553529411764707,279.6187066134822
-0.87736962890625,0.0282763671875,-0.2118603515624999,0.9030292504856082,0.92138671875,-0.1591796875,-0.02880859375,30.60058823529412,279.6187066134822
-0.88469384765625,0.0033740234375,-0.2167431640624999,0.9108634295451764,0.8876953125,-0.232421875,0.1015625,30.50647058823529,279.6187066134822
-0.91106103515625,0.0043505859375,-0.2133251953124999,0.9357129775380342,0.8662109375,-0.21435546875,0.2939453125,30.50647058823529,279.6187066134822
-0.90227197265625,0.1356982421875,-0.2079541015624999,0.935817094271335,0.83837890625,-0.10888671875,0.35107421875,30.64764705882353,279.6187066134822
-0.87297509765625,0.0204638671875,-0.2147900390624999,0.8992435998486046,0.837890625,-0.0712890625,0.30859375,30.60058823529412,279.6187066134822
-0.87981103515625,-0.1094189453125,-0.2167431640624999,0.912697957893977,0.81005859375,-0.00390625,0.27294921875,30.553529411764707,279.7485081195184
-0.88664697265625,0.0038623046875,-0.2060009765624999,0.9102714836040376,0.81787109375,-0.16552734375,0.1279296875,30.60058823529412,279.7485081195184
-0.88615869140625,0.0053271484375,-0.2182080078124999,0.9126446951244568,0.80615234375,-0.2490234375,0.173828125,30.50647058823529,279.7485081195184
-0.89348291015625,0.0063037109375,-0.2250439453124999,0.921409911404626,0.83642578125,-0.064453125,0.08935546875,30.50647058823529,279.7485081195184
-0.88908837890625,0.1322802734375,-0.2289501953124999,0.9275744758133846,0.83984375,-0.05517578125,0.05712890625,30.50647058823529,279.7485081195184
-0.88811181640625,0.0092333984375,-0.2304150390624999,0.9175614117394474,0.833984375,-0.09130859375,0.0888671875,30.60058823529412,279.7485081195184
-0.88371728515625,0.0165576171875,-0.2309033203124999,0.9135352965825664,0.8310546875,-0.166015625,0.095703125,30.50647058823529,279.7485081195184
-0.88176416015625,0.0155810546875,-0.2338330078124999,0.9123752950096098,0.8515625,-0.248046875,0.0869140625,30.64764705882353,279.7485081195184
-0.88127587890625,0.0194873046875,-0.2235791015624999,0.9094034002803496,0.85302734375,-0.29248046875,0.06298828125,30.50647058823529,279.78054565275374
-0.88127587890625,0.0219287109375,-0.2265087890624999,0.9101836488467172,0.85546875,-0.30517578125,0.04931640625,30.60058823529412,279.78054565275374
-0.87541650390625,0.0199755859375,-0.2152783203124999,0.9017193768249406,0.85009765625,-0.26318359375,0.06689453125,30.553529411764707,279.78054565275374
-0.88322900390625,0.0136279296875,-0.2084423828124999,0.9075943040595544,0.8525390625,-0.19189453125,0.1083984375,30.60058823529412,279.78054565275374
-0.89885400390625,0.0219287109375,-0.0731884765624999,0.9020953063857592,0.8515625,-0.12548828125,0.10888671875,31.21235294117648,279.78054565275374
-0.89299462890625,0.0272998046875,-0.2074658203124999,0.9171841435553306,0.84619140625,-0.0498046875,0.03515625,30.50647058823529,279.78054565275374
-0.87932275390625,0.0312060546875,-0.0751416015624999,0.8830790359145712,0.86279296875,0.01953125,-0.052734375,30.64764705882353,279.78054565275374
-0.88225244140625,0.0209521484375,-0.2079541015624999,0.9066715343762052,0.84716796875,0.0791015625,-0.0302734375,30.50647058823529,279.78054565275374
-0.89055322265625,0.0199755859375,-0.2040478515624999,0.9138487796918322,0.85400390625,0.0966796875,0.03271484375,31.21235294117648,279.78054565275374
-0.88029931640625,0.0238818359375,-0.2147900390624999,0.9064391813208028,0.845703125,0.05859375,0.0546875,30.50647058823529,279.7586367007683
-0.87736962890625,0.0272998046875,-0.2182080078124999,0.9045095244034564,0.83203125,0.12353515625,0.01171875,30.60058823529412,279.7586367007683
-0.88078759765625,0.0302294921875,-0.2089306640624999,0.9057332039671392,0.826171875,-0.076171875,-0.05078125,30.553529411764707,279.7586367007683
-0.88615869140625,0.0238818359375,-0.2133251953124999,0.911786821245898,0.83935546875,-0.00048828125,-0.087890625,30.60058823529412,279.7586367007683
-0.89397119140625,0.0170458984375,-0.2055126953124999,0.9174478304800008,0.8369140625,-0.10009765625,-0.0693359375,30.553529411764707,279.7586367007683
-0.89543603515625,0.0126513671875,-0.1986767578124999,0.9172994081775834,0.83154296875,-0.0478515625,-0.02978515625,30.60058823529412,279.7586367007683
-0.89836572265625,0.0146044921875,-0.2020947265624999,0.920932430387872,0.8388671875,0.01904296875,-0.12060546875,30.553529411764707,279.7586367007683
-0.89690087890625,0.0180224609375,-0.2035595703124999,0.9198872182756194,0.845703125,0.06396484375,-0.12255859375,30.553529411764707,279.7586367007683
-0.89934228515625,0.0224169921875,-0.2113720703124999,0.9241196997775736,0.8642578125,0.0693359375,-0.060546875,30.60058823529412,279.7586367007683
-0.89152978515625,0.0302294921875,-0.2089306640624999,0.9161829524741556,0.8837890625,0.03955078125,-0.099609375,30.60058823529412,279.5967977129116
-0.88567041015625,0.0316943359375,-0.2045361328124999,0.9095337464782448,0.900390625,0.0205078125,-0.072265625,30.60058823529412,279.5967977129116
-0.88615869140625,0.0229052734375,-0.2079541015624999,0.9105200636244928,0.89892578125,0.04833984375,-0.017578125,30.553529411764707,279.5967977129116
-0.88469384765625,0.0214404296875,-0.2040478515624999,0.9081731232718114,0.9013671875,0.12890625,-0.00537109375,30.50647058823529,279.5967977129116
-0.87883447265625,0.0253466796875,-0.2182080078124999,0.9058737324669868,0.904296875,0.1943359375,-0.05859375,30.553529411764707,279.5967977129116
-0.88762353515625,0.0263232421875,-0.2352978515624999,0.9186585503833667,0.9169921875,0.2275390625,-0.0771484375,30.553529411764707,279.5967977129116
-0.89201806640625,0.0214404296875,-0.2186962890624999,0.9186860125581744,0.90625,0.19189453125,-0.03271484375,30.50647058823529,279.5967977129116
-0.89445947265625,0.0238818359375,-0.2240673828124999,0.9224067878938697,0.9033203125,0.142578125,-0.1162109375,30.60058823529412,279.5967977129116
-0.88322900390625,0.0238818359375,-0.2133251953124999,0.9089397418883656,0.90185546875,0.11962890625,-0.166015625,30.69470588235294,279.59762405227855
-0.87639306640625,0.1376513671875,-0.2138134765624999,0.9125398120045396,0.87841796875,-0.142578125,-0.052734375,30.553529411764707,279.59762405227855
-0.83977197265625,0.0058154296875,-0.2103955078124999,0.8657465304516673,0.8896484375,-0.15185546875,-0.1142578125,30.50647058823529,279.59762405227855
-0.86613916015625,0.0038623046875,-0.2128369140624999,0.8919145217683818,0.9052734375,-0.04736328125,-0.2587890625,30.553529411764707,279.59762405227855
-0.89738916015625,0.0165576171875,-0.3143994140624999,0.9510144326011624,0.9111328125,0.1015625,-0.291015625,30.60058823529412,279.59762405227855
-0.90031884765625,0.0219287109375,-0.1898876953124999,0.9203870015594262,0.9169921875,0.283203125,-0.265625,30.60058823529412,279.59762405227855
-0.88127587890625,0.0053271484375,-0.2020947265624999,0.904166926931543,0.8994140625,0.43115234375,-0.20458984375,30.553529411764707,279.59762405227855
-0.88860009765625,0.0038623046875,-0.2133251953124999,0.913855945927646,0.923828125,0.47705078125,-0.18408203125,30.60058823529412,279.59762405227855
-0.89104150390625,-0.0005322265624999,-0.2245556640624999,0.9189017853999284,0.9189453125,0.3505859375,-0.10205078125,30.50647058823529,279.9078731918175
-0.88078759765625,0.0043505859375,-0.2201611328124999,0.9078968246361208,0.90185546875,0.15869140625,0.083984375,30.60058823529412,279.9078731918175
-0.86613916015625,-0.1103955078125,-0.2221142578124999,0.9009544696736632,0.89208984375,0.00439453125,0.1904296875,30.60058823529412,279.9078731918175
-0.86467431640625,0.0170458984375,-0.1996533203124999,0.8875886910151363,0.8720703125,0.00341796875,0.15966796875,30.60058823529412,279.9078731918175
-0.88322900390625,0.0185107421875,-0.1977001953124999,0.9052742612844792,0.88330078125,0.19970703125,0.05126953125,30.60058823529412,279.9078731918175
-0.89592431640625,0.0106982421875,-0.0805126953124999,0.8995983143716935,0.91162109375,0.513671875,-0.07275390625,31.21235294117648,279.9078731918175
-0.89055322265625,0.0019091796875,-0.2079541015624999,0.9145127641029284,0.9091796875,0.72216796875,-0.07763671875,30.60058823529412,279.9078731918175
-0.88518212890625,0.0023974609375,-0.2230908203124999,0.9128650849176192,0.90966796875,0.72802734375,0.0126953125,31.21235294117648,279.9078731918175
-0.88762353515625,0.0048388671875,-0.2392041015624999,0.9193027558988712,0.8818359375,0.53564453125,0.1533203125,30.60058823529412,279.6734791096384
-0.86858056640625,0.0077685546875,-0.2416455078124999,0.9016014098405656,0.88134765625,0.32568359375,0.13232421875,30.60058823529412,279.6734791096384
-0.86809228515625,0.0180224609375,-0.2401806640624999,0.9008861060286962,0.87548828125,0.126953125,0.06640625,30.553529411764707,279.6734791096384
-0.86272119140625,0.0136279296875,-0.2309033203124999,0.8931908630860058,0.87548828125,0.03662109375,0.02197265625,30.60058823529412,279.6734791096384
-0.87443994140625,0.0131396484375,-0.2226025390624999,0.9024243746069246,0.8759765625,0.0546875,0.04345703125,30.60058823529412,279.6734791096384
-0.87981103515625,0.0126513671875,-0.2221142578124999,0.9075033102959036,0.751953125,0.10302734375,0.0810546875,30.60058823529412,279.6734791096384
-0.88127587890625,-0.0015087890625,-0.2177197265624999,0.9077727306550182,0.86474609375,0.18798828125,0.166015625,30.50647058823529,279.6734791096384
-0.88957666015625,0.0033740234375,-0.2235791015624999,0.9172489482056656,0.8330078125,0.2763671875,0.24169921875,29.84764705882353,279.6734791096384
-0.90764306640625,0.0126513671875,-0.2289501953124999,0.9361592733187474,0.75732421875,0.35009765625,0.15625,30.553529411764707,279.6734791096384
-0.88664697265625,0.0233935546875,-0.2357861328124999,0.9177609781136284,0.90087890625,0.41015625,0.0166015625,30.60058823529412,279.8564013794269
-0.87981103515625,0.0155810546875,-0.2318798828124999,0.9099881905283308,0.8916015625,0.41845703125,-0.037109375,30.553529411764707,279.8564013794269
-0.87199853515625,0.0082568359375,-0.2396923828124999,0.9043793778236424,0.892578125,0.35595703125,0.04736328125,30.60058823529412,279.8564013794269
-0.87297509765625,0.0014208984375,-0.2343212890624999,0.9038772076937336,0.890625,0.26416015625,0.18017578125,30.50647058823529,279.8564013794269
-0.87541650390625,0.0077685546875,-0.2250439453124999,0.9039132608138846,0.89208984375,0.1416015625,0.244140625,30.60058823529412,279.8564013794269
-0.87541650390625,0.0170458984375,-0.2352978515624999,0.9066475042236156,0.86328125,0.0654296875,0.248046875,30.553529411764707,279.8564013794269
-0.88029931640625,0.0199755859375,-0.2274853515624999,0.90943691132171,0.86865234375,0.0244140625,0.1318359375,30.60058823529412,279.8564013794269
-0.88615869140625,0.0282763671875,-0.2152783203124999,0.912371379698383,0.86279296875,0.0390625,-0.0224609375,30.553529411764707,279.8564013794269
-0.89494775390625,0.0238818359375,-0.2211376953124999,0.922173359297324,0.87158203125,0.10107421875,-0.06640625,30.553529411764707,279.8454468599072
-0.90813134765625,0.0082568359375,-0.2235791015624999,0.9352851621784396,0.85791015625,0.201171875,-0.0546875,30.553529411764707,279.8454468599072
-0.90617822265625,0.0170458984375,-0.2226025390624999,0.9332745706741684,0.87158203125,0.3203125,-0.02099609375,30.50647058823529,279.8454468599072
-0.90129541015625,0.0160693359375,-0.2309033203124999,0.9305417686796936,0.88720703125,0.4404296875,0.00537109375,30.553529411764707,279.8454468599072
-0.89592431640625,0.0189990234375,-0.2396923828124999,0.927628040756595,0.998046875,0.45703125,-0.0283203125,30.60058823529412,279.8454468599072
-0.88029931640625,0.0224169921875,-0.2367626953124999,0.91185853173378,0.90771484375,0.35009765625,-0.09033203125,30.69470588235294,279.8454468599072
-0.86760400390625,0.0204638671875,-0.2440869140624999,0.9015175533903808,0.90869140625,0.1357421875,-0.1025390625,30.553529411764707,279.8454468599072
-0.86223291015625,0.0209521484375,-0.2372509765624999,0.8945236775851844,0.888671875,-0.0908203125,-0.06396484375,30.60058823529412,279.8454468599072
-0.86027978515625,0.0058154296875,-0.2221142578124999,0.8885099163737745,0.87060546875,-0.1826171875,-0.123046875,30.553529411764707,279.8454468599072
-0.87639306640625,0.0111865234375,-0.2182080078124999,0.9032190652466696,0.85400390625,-0.08984375,0.0224609375,30.50647058823529,279.79150014972413
-0.89787744140625,0.1352099609375,-0.2235791015624999,0.9351220497766316,0.85302734375,0.1142578125,0.048828125,30.60058823529412,279.79150014972413
-0.90910791015625,0.0165576171875,-0.2294384765624999,0.9377597568262956,0.8623046875,0.36669921875,0.03271484375,30.553529411764707,279.79150014972413
-0.88908837890625,0.1361865234375,-0.2431103515624999,0.9317336302339734,0.88671875,0.45849609375,-0.087890625,30.60058823529412,279.79150014972413
-0.90276025390625,0.0067919921875,-0.2479931640624999,0.9362279725646324,0.85791015625,0.234375,0.03955078125,30.553529411764707,279.79150014972413
-0.86027978515625,0.0004443359375,-0.2489697265624999,0.8955821743020096,0.8720703125,0.01708984375,-0.0732421875,30.553529411764707,279.79150014972413
-0.84904931640625,0.0014208984375,-0.2538525390624999,0.8861872670213493,0.87890625,-0.17431640625,-0.2587890625,30.553529411764707,279.79150014972413
-0.85149072265625,-0.0015087890625,-0.2260205078124999,0.880978999276327,0.9033203125,-0.14501953125,-0.29541015625,30.553529411764707,279.79150014972413
-0.86760400390625,-0.0015087890625,-0.2201611328124999,0.8951032948436033,0.85693359375,-0.12939453125,-0.14208984375,30.553529411764707,279.92047728699225
-0.90471337890625,-0.0015087890625,-0.2157666015624999,0.9300880607588884,0.8466796875,-0.1220703125,0.07958984375,30.50647058823529,279.92047728699225
-0.91399072265625,0.0053271484375,-0.2211376953124999,0.940377211495628,0.86181640625,0.24560546875,0.13037109375,30.50647058823529,279.92047728699225
-0.89983056640625,-0.0015087890625,-0.2416455078124999,0.9317134087955312,0.75048828125,0.419921875,0.01513671875,30.50647058823529,279.92047728699225
-0.87883447265625,0.0033740234375,-0.2455517578124999,0.9125004548645193,0.98974609375,0.44287109375,-0.013671875,30.60058823529412,279.92047728699225
-0.88127587890625,-0.0088330078125,-0.2538525390624999,0.917151191656794,0.83935546875,0.3017578125,0.21044921875,30.553529411764707,279.92047728699225
-0.89104150390625,-0.0068798828125,-0.2577587890624999,0.9276000688928348,0.8232421875,0.02294921875,0.46728515625,30.64764705882353,279.92047728699225
-0.88908837890625,0.0028857421875,-0.2523876953124999,0.9242218466143676,0.8056640625,-0.2763671875,0.556640625,30.60058823529412,279.92047728699225
-0.87639306640625,0.0233935546875,-0.2309033203124999,0.9066026740404,0.80078125,-0.4599609375,0.34814453125,30.64764705882353,279.99550844751667
-0.89006494140625,0.0312060546875,-0.2343212890624999,0.920921215021992,0.83251953125,-0.42529296875,0.13134765625,30.60058823529412,279.99550844751667
-0.90178369140625,0.0189990234375,-0.2084423828124999,0.9257553758582308,0.84765625,-0.1904296875,0.00830078125,30.60058823529412,279.99550844751667
-0.79387353515625,-0.1094189453125,-0.2089306640624999,0.8281664795198963,0.85546875,0.00341796875,0.126953125,30.553529411764707,279.99550844751667
-0.90959619140625,0.0146044921875,-0.2323681640624999,0.9389214484090704,0.86279296875,0.31884765625,0.30126953125,30.553529411764707,279.99550844751667
-0.88225244140625,0.0209521484375,-0.2475048828124999,0.9165517060741664,0.85986328125,0.25244140625,0.20458984375,30.60058823529412,279.99550844751667
-0.87053369140625,0.0219287109375,-0.2611767578124999,0.909133144846354,0.845703125,0.07177734375,0.109375,30.64764705882353,279.99550844751667
-0.87053369140625,0.0170458984375,-0.2597119140624999,0.9086086885083924,0.84912109375,-0.15625,0.080078125,30.553529411764707,279.99550844751667
-0.86858056640625,-0.1113720703125,-0.2450634765624999,0.90933604675565,0.8505859375,-0.26318359375,0.0595703125,30.50647058823529,279.72742532131053
-0.87004541015625,0.1376513671875,-0.2421337890624999,0.9135401942051092,0.85205078125,-0.216796875,0.0126953125,30.50647058823529,279.72742532131053
-0.87981103515625,0.0097216796875,-0.2328564453124999,0.9101560815388928,0.86376953125,-0.14208984375,-0.01416015625,30.553529411764707,279.72742532131053
-0.87688134765625,0.0092333984375,-0.2274853515624999,0.9059557045957936,0.87890625,-0.0625,0.1044921875,30.60058823529412,279.72742532131053
-0.89201806640625,0.0087451171875,-0.2309033203124999,0.9214602819444282,0.86083984375,-0.0283203125,0.2021484375,30.69470588235294,279.72742532131053
-0.89152978515625,-0.1103955078125,-0.2362744140624999,0.9288908034352082,0.853515625,-0.029296875,0.17333984375,30.60058823529412,279.72742532131053
-0.88322900390625,-0.1099072265625,-0.2401806640624999,0.9218784210411864,0.86962890625,-0.04541015625,0.06103515625,30.69470588235294,279.72742532131053
-0.87443994140625,0.0087451171875,-0.2348095703124999,0.9054596747020432,0.86474609375,-0.068359375,0.0244140625,30.60058823529412,279.72742532131053
-0.88567041015625,0.0067919921875,-0.2304150390624999,0.915177194214535,0.8642578125,-0.12060546875,0.07177734375,30.64764705882353,279.72742532131053
-0.89592431640625,0.0033740234375,-0.2338330078124999,0.9259425685779892,0.998046875,-0.18896484375,0.1240234375,30.50647058823529,279.7156446543196
-0.89494775390625,0.0131396484375,-0.2221142578124999,0.922192429000857,0.8759765625,-0.22998046875,0.09619140625,30.553529411764707,279.7156446543196
-0.88713525390625,0.0175341796875,-0.2157666015624999,0.9131657201901804,0.85888671875,-0.2236328125,0.04833984375,30.553529411764707,279.7156446543196
-0.89104150390625,0.0194873046875,-0.2230908203124999,0.918751452154063,0.86279296875,-0.1748046875,0.0048828125,30.50647058823529,279.7156446543196
-0.89885400390625,0.1327685546875,-0.2172314453124999,0.934213846121252,0.85302734375,-0.06884765625,0.0078125,30.60058823529412,279.7156446543196
-0.89250634765625,0.0121630859375,-0.2177197265624999,0.9187586193340838,0.8623046875,0.06201171875,-0.00390625,30.553529411764707,279.7156446543196
-0.89250634765625,0.0102099609375,-0.2352978515624999,0.9230584504022336,0.861328125,0.12109375,-0.0078125,30.64764705882353,279.7156446543196
-0.89006494140625,0.0155810546875,-0.2333447265624999,0.9202761164999416,0.86376953125,0.11962890625,-0.0087890625,30.50647058823529,279.7156446543196
-0.87688134765625,0.0150927734375,-0.2411572265624999,0.9095633554628252,0.86181640625,0.04443359375,-0.0146484375,30.60058823529412,279.7282519554079
-0.88176416015625,0.0175341796875,-0.2514111328124999,0.917073082854052,0.751953125,-0.064453125,-0.048828125,30.60058823529412,279.7282519554079
-0.87883447265625,0.0160693359375,-0.2440869140624999,0.9122426626194456,0.87158203125,-0.1826171875,-0.02734375,30.60058823529412,279.7282519554079
-0.87834619140625,0.0214404296875,-0.2333447265624999,0.9090662711802574,0.857421875,-0.2587890625,0.01806640625,30.553529411764707,279.7282519554079
-0.87151025390625,0.1381396484375,-0.2294384765624999,0.9117317037711772,0.8544921875,-0.22998046875,0.033203125,30.60058823529412,279.7282519554079
-0.88322900390625,0.0141162109375,-0.2318798828124999,0.913269413046116,0.8720703125,-0.189453125,0.046875,30.69470588235294,279.7282519554079
-0.89543603515625,0.0136279296875,-0.2284619140624999,0.9242219753398064,0.865234375,-0.0859375,0.06689453125,30.50647058823529,279.7282519554079
-0.89934228515625,0.0189990234375,-0.2333447265624999,0.9293154847392636,0.86376953125,-0.03564453125,0.0322265625,30.553529411764707,279.7282519554079
-0.87981103515625,0.0214404296875,-0.2313916015624999,0.9099830893382336,0.88671875,-0.03466796875,-0.1591796875,30.60058823529412,279.7282519554079
-0.88713525390625,0.1381396484375,-0.2352978515624999,0.928146863456248,0.84326171875,-0.2216796875,0.015625,30.64764705882353,279.6414421547664
-0.85002587890625,-0.0034619140625,-0.2357861328124999,0.8821287208145945,0.86962890625,-0.265625,0.0498046875,30.553529411764707,279.6414421547664
-0.85393212890625,0.0014208984375,-0.2250439453124999,0.883089393579464,0.8505859375,-0.31298828125,-0.05517578125,30.60058823529412,279.6414421547664
-0.86955712890625,0.0063037109375,-0.2182080078124999,0.8965400559243097,0.857421875,-0.2255859375,-0.10888671875,30.553529411764707,279.6414421547664
-0.88860009765625,0.1352099609375,-0.2123486328124999,0.9235712257041984,0.8466796875,-0.2451171875,-0.00244140625,30.64764705882353,279.6414421547664
-0.89641259765625,0.0053271484375,-0.2206494140624999,0.9231847527301488,0.84716796875,-0.02392578125,0.083984375,30.64764705882353,279.6414421547664
-0.89397119140625,0.0077685546875,-0.2289501953124999,0.9228559115267532,0.830078125,-0.0361328125,0.05810546875,30.60058823529412,279.6414421547664
-0.89397119140625,-0.1099072265625,-0.2396923828124999,0.9320496381058816,0.84521484375,-0.16552734375,0.07080078125,30.60058823529412,279.6414421547664
-0.88811181640625,0.0111865234375,-0.2377392578124999,0.919449667710128,0.841796875,-0.28125,0.17333984375,30.553529411764707,279.87748473345863
-0.88908837890625,0.0077685546875,-0.2152783203124999,0.9148132329304424,0.83740234375,-0.357421875,0.333984375,30.553529411764707,279.87748473345863
-0.88567041015625,0.1381396484375,-0.2133251953124999,0.9214131955056278,0.8134765625,-0.36279296875,0.4228515625,30.69470588235294,279.87748473345863
-0.88957666015625,0.0155810546875,-0.2025830078124999,0.91248522103883,0.8232421875,-0.26611328125,0.49755859375,30.553529411764707,279.87748473345863
-0.88469384765625,0.0150927734375,-0.2030712890624999,0.9078264946190772,0.841796875,-0.044921875,0.22412109375,30.553529411764707,279.87748473345863
-0.89055322265625,0.0146044921875,-0.2143017578124999,0.9160914675822576,0.86376953125,0.22607421875,0.1376953125,30.60058823529412,279.87748473345863
-0.89348291015625,0.0165576171875,-0.2182080078124999,0.9198916241067256,0.75390625,0.2568359375,0.13134765625,30.553529411764707,279.87748473345863
-0.88762353515625,0.0150927734375,-0.2372509765624999,0.9189076982228273,0.85009765625,0.3427734375,0.17724609375,30.50647058823529,279.87748473345863
-0.88420556640625,0.0209521484375,-0.2431103515624999,0.9172573898447408,0.83740234375,0.234375,0.16015625,30.553529411764707,279.52176926272176
-0.87541650390625,0.0209521484375,-0.2514111328124999,0.9110436902463313,0.84521484375,-0.00146484375,0.10205078125,30.459411764705884,279.52176926272176
-0.87639306640625,0.0214404296875,-0.2479931640624999,0.9110571377755976,0.8330078125,-0.31103515625,0.01025390625,30.60058823529412,279.52176926272176
-0.88713525390625,0.0165576171875,-0.2382275390624999,0.918714032644549,0.8486328125,-0.3564453125,-0.037109375,30.60058823529412,279.52176926272176
-0.89250634765625,0.0136279296875,-0.2279736328124999,0.9212628714606896,0.859375,-0.31787109375,-0.03271484375,30.553529411764707,279.52176926272176
-0.88860009765625,0.0102099609375,-0.2265087890624999,0.9170717574866224,0.75537109375,-0.20849609375,-0.033203125,30.50647058823529,279.52176926272176
-0.88811181640625,0.0106982421875,-0.2123486328124999,0.913208077430138,0.880859375,-0.109375,-0.03662109375,30.60058823529412,279.52176926272176
-0.88176416015625,-0.1103955078125,-0.2167431640624999,0.9146982023864814,0.873046875,-0.076171875,-0.115234375,30.553529411764707,279.52176926272176
-0.87395166015625,0.0111865234375,-0.2108837890624999,0.8991043404888224,0.8837890625,-0.02978515625,0.078125,30.64764705882353,279.52176926272176
-0.88420556640625,0.1303271484375,-0.2108837890624999,0.918300942922855,0.875,0.02685546875,0.0732421875,30.64764705882353,279.7594626358899
-0.89152978515625,0.0189990234375,-0.2138134765624999,0.9170073737282982,0.75048828125,0.07666015625,0.1171875,30.60058823529412,279.7594626358899
-0.87492822265625,0.0170458984375,-0.2123486328124999,0.9004898107759488,0.888671875,0.12353515625,-0.06689453125,30.553529411764707,279.7594626358899
-0.88127587890625,-0.1103955078125,-0.2182080078124999,0.9145759003826108,0.8828125,0.13330078125,-0.04345703125,30.50647058823529,279.7594626358899
-0.88811181640625,-4.394531249999993e-05,-0.2211376953124999,0.9152291956989372,0.87255859375,0.0810546875,0.02587890625,30.64764705882353,279.7594626358899
-0.88029931640625,0.0053271484375,-0.2157666015624999,0.9063721593945928,0.87158203125,0.01513671875,0.03564453125,30.60058823529412,279.7594626358899
-0.88908837890625,0.1337451171875,-0.2221142578124999,0.9261212908692033,0.8779296875,-0.04541015625,0.02294921875,30.50647058823529,279.7594626358899
-0.88176416015625,0.0141162109375,-0.2201611328124999,0.908943466860603,0.99755859375,-0.060546875,-0.02685546875,30.64764705882353,279.7594626358899
-0.88322900390625,0.1381396484375,-0.2138134765624999,0.9191801991837104,0.86328125,-0.01708984375,0.013671875,30.60058823529412,279.7594626358899
-0.88469384765625,0.0121630859375,-0.2040478515624999,0.9080014705206236,0.87451171875,0.06591796875,0.0263671875,30.50647058823529,279.8454468599072
-0.88420556640625,0.0136279296875,-0.2094189453124999,0.9087692219629606,0.99853515625,0.1669921875,0.0205078125,30.50647058823529,279.8454468599072
-0.87981103515625,0.0180224609375,-0.2186962890624999,0.9067636591365276,0.880859375,0.12939453125,0.01708984375,30.553529411764707,279.8454468599072
-0.88176416015625,0.0194873046875,-0.2157666015624999,0.9079884446015108,0.89892578125,0.275390625,-0.0732421875,30.64764705882353,279.8454468599072
-0.87932275390625,0.0204638671875,-0.2313916015624999,0.9094885093673244,0.91259765625,0.19384765625,-0.0966796875,30.50647058823529,279.8454468599072
-0.88274072265625,0.0141162109375,-0.2260205078124999,0.9113263525207262,0.912109375,0.06591796875,-0.0693359375,30.60058823529412,279.8454468599072
-0.88176416015625,0.0185107421875,-0.2328564453124999,0.9121802485451888,0.89697265625,-0.029296875,-0.0419921875,30.50647058823529,279.8454468599072
-0.88469384765625,0.0087451171875,-0.2191845703124999,0.9114831633214728,0.8720703125,-0.0341796875,0.013671875,30.60058823529412,279.8454468599072
-0.87541650390625,0.0019091796875,-0.2103955078124999,0.9003465832590251,0.8857421875,0.033203125,0.02783203125,29.753529411764703,279.8353182774472
-0.88371728515625,0.0111865234375,-0.2064892578124999,0.90758977075687,0.8837890625,0.10107421875,0.03662109375,30.50647058823529,279.8353182774472
-0.90520166015625,0.0219287109375,-0.2255322265624999,0.9331321981001676,0.99853515625,0.1845703125,0.0009765625,30.50647058823529,279.8353182774472
-0.88371728515625,0.0150927734375,-0.2186962890624999,0.9105010152348416,0.87841796875,0.24365234375,-0.14013671875,30.60058823529412,279.8353182774472
-0.89641259765625,0.0165576171875,-0.2186962890624999,0.9228530580615,0.86962890625,0.1591796875,0.0478515625,30.60058823529412,279.8353182774472
-0.86369775390625,-0.0010205078125,-0.2323681640624999,0.8944103170294233,0.900390625,0.1318359375,-0.0244140625,29.753529411764703,279.8353182774472
-0.84904931640625,-4.394531249999993e-05,-0.2416455078124999,0.8827668407156399,0.88037109375,0.02783203125,-0.12841796875,30.60058823529412,279.8353182774472
-0.85783837890625,0.0014208984375,-0.2309033203124999,0.8883721329534204,0.89306640625,0.01123046875,-0.27685546875,30.553529411764707,279.8353182774472
-0.88615869140625,-0.0005322265624999,-0.2250439453124999,0.9142878578116233,0.75,0.0458984375,-0.0869140625,30.553529411764707,279.97442450427
-0.88762353515625,0.0092333984375,-0.2079541015624999,0.9117048339054976,0.87158203125,0.00341796875,0.04296875,30.553529411764707,279.97442450427
-0.87785791015625,0.0067919921875,-0.2050244140624999,0.9015074331049332,0.884765625,0.26171875,0.029296875,29.84764705882353,279.97442450427
-0.88811181640625,0.0053271484375,-0.2274853515624999,0.9167990849288616,0.892578125,0.3349609375,-0.0458984375,30.553529411764707,279.97442450427
-0.88322900390625,0.0038623046875,-0.2289501953124999,0.912428946643166,0.89111328125,0.30322265625,0.03759765625,30.50647058823529,279.97442450427
-0.88762353515625,0.0043505859375,-0.2377392578124999,0.9189202481535144,0.8798828125,0.205078125,0.2392578125,30.64764705882353,279.97442450427
-0.87492822265625,0.0082568359375,-0.2416455078124999,0.9077224915061236,0.8583984375,0.052734375,0.36572265625,30.553529411764707,279.97442450427
-0.87395166015625,0.0170458984375,-0.2352978515624999,0.9052331997299564,0.8505859375,-0.03662109375,0.31787109375,30.553529411764707,279.97442450427
-0.88469384765625,0.0224169921875,-0.2211376953124999,0.9121883609801644,0.865234375,0.00732421875,0.15673828125,30.60058823529412,279.97442450427
-0.89690087890625,0.0155810546875,-0.2099072265624999,0.9212681475070869,0.884765625,0.203125,0.03173828125,30.60058823529412,279.9423862903926
-0.90666650390625,0.0082568359375,-0.2260205078124999,0.9344504238305535,0.91455078125,0.38134765625,0.0244140625,30.60058823529412,279.9423862903926
-0.89641259765625,0.0082568359375,-0.2250439453124999,0.9242664647699496,0.91455078125,0.47119140625,0.078125,30.60058823529412,279.9423862903926
-0.87688134765625,0.1332568359375,-0.2411572265624999,0.9191491120132969,0.8896484375,0.3779296875,0.11083984375,30.64764705882353,279.9423862903926
-0.85735009765625,0.0170458984375,-0.2455517578124999,0.8919839787628092,0.75,0.1953125,0.0927734375,29.753529411764703,279.9423862903926
-0.85832666015625,0.0131396484375,-0.2440869140624999,0.8924548882227035,0.853515625,0.11962890625,0.0693359375,30.60058823529412,279.9423862903926
-0.87395166015625,0.0155810546875,-0.2377392578124999,0.90584448348504,0.85888671875,-0.08203125,0.04150390625,30.60058823529412,279.9423862903926
-0.88225244140625,0.0033740234375,-0.2377392578124999,0.913729012950056,0.85986328125,-0.00732421875,0.0068359375,30.60058823529412,279.9423862903926
-0.89055322265625,0.0053271484375,-0.2343212890624999,0.9208799527635616,0.85400390625,0.10791015625,-0.04248046875,30.553529411764707,279.9423862903926
-0.88469384765625,0.0023974609375,-0.2313916015624999,0.914456683049244,0.88623046875,0.22265625,-0.0732421875,30.60058823529412,279.76959116976843
-0.88274072265625,0.0019091796875,-0.2392041015624999,0.9145782801964416,0.8798828125,0.19580078125,-0.0146484375,30.60058823529412,279.76959116976843
-0.86906884765625,-0.0024853515625,-0.2387158203124999,0.9012613837319456,0.86962890625,0.06591796875,0.15625,30.60058823529412,279.76959116976843
-0.88127587890625,0.0082568359375,-0.2279736328124999,0.9103226501298376,0.86669921875,-0.02197265625,0.22802734375,30.60058823529412,279.76959116976843
-0.88127587890625,0.0097216796875,-0.2196728515624999,0.9082939213225696,0.86376953125,0.015625,0.11669921875,30.50647058823529,279.76959116976843
-0.86467431640625,0.0141162109375,-0.2147900390624999,0.8910643645350868,0.87109375,0.1455078125,0.0361328125,29.84764705882353,279.76959116976843
-0.87248681640625,-0.0010205078125,-0.2162548828124999,0.8988884583635263,0.88525390625,0.3037109375,0.0673828125,30.60058823529412,279.76959116976843
-0.88127587890625,0.0004443359375,-0.2387158203124999,0.9130348378040558,0.88818359375,0.39208984375,0.1455078125,30.553529411764707,279.5225960556288
-0.89152978515625,0.0038623046875,-0.2435986328124999,0.92421889675897,0.87890625,0.33642578125,0.16015625,30.50647058823529,279.5225960556288
-0.88567041015625,0.0121630859375,-0.2489697265624999,0.9200793122500196,0.86376953125,0.23046875,0.09765625,30.60058823529412,279.5225960556288
-0.88518212890625,0.0214404296875,-0.2548291015624999,0.921382094661784,0.85498046875,0.07080078125,0.03515625,30.64764705882353,279.5225960556288
-0.88371728515625,0.0165576171875,-0.2445751953124999,0.9170863759390432,0.85791015625,-0.056640625,-0.125,30.60058823529412,279.5225960556288
-0.88811181640625,0.0106982421875,-0.2313916015624999,0.9178230352851088,0.85107421875,-0.1044921875,0.02001953125,30.50647058823529,279.5225960556288
-0.88957666015625,-0.1108837890625,-0.2250439453124999,0.9242762716273856,0.865234375,-0.07470703125,0.01123046875,30.60058823529412,279.5225960556288
-0.88518212890625,0.0194873046875,-0.2250439453124999,0.913549086640012,0.865234375,0.05126953125,0.01123046875,30.553529411764707,279.5225960556288
-0.89055322265625,0.0155810546875,-0.2260205078124999,0.9189195185653788,0.87939453125,0.16015625,-0.0029296875,30.50647058823529,279.5225960556288
-0.89494775390625,0.0141162109375,-0.2377392578124999,0.9260943279916534,0.8896484375,0.2138671875,-0.04443359375,29.80058823529412,279.8243637245363
-0.88274072265625,0.0146044921875,-0.2421337890624999,0.9154634052945516,0.900390625,0.17626953125,-0.06787109375,30.50647058823529,279.8243637245363
-0.87248681640625,0.0165576171875,-0.2470166015624999,0.906931420195115,0.888671875,0.10546875,-0.046875,30.50647058823529,279.8243637245363
-0.87395166015625,0.0097216796875,-0.2445751953124999,0.9075808732603168,0.87158203125,0.01171875,-0.02392578125,30.50647058823529,279.8243637245363
-0.87639306640625,0.0102099609375,-0.2440869140624999,0.909806282548021,0.88623046875,-0.0419921875,-0.01953125,30.50647058823529,279.8243637245363
-0.87736962890625,0.0043505859375,-0.2387158203124999,0.909275335744108,0.86865234375,-0.0654296875,0.01220703125,30.64764705882353,279.8243637245363
-0.88811181640625,0.0009326171875,-0.2255322265624999,0.9163013987948868,0.8671875,-0.046875,0.08984375,29.753529411764703,279.8243637245363
-0.88322900390625,0.0067919921875,-0.2162548828124999,0.909343597788729,0.86474609375,0.0048828125,0.056640625,30.50647058823529,279.8243637245363
-0.88127587890625,0.0126513671875,-0.2255322265624999,0.9097648141426086,0.99560546875,0.0576171875,-0.04345703125,30.60058823529412,279.8243637245363
-0.90617822265625,0.0121630859375,-0.2318798828124999,0.9354545376067732,0.849609375,0.03369140625,0.10546875,30.50647058823529,279.8243637245363
-0.86711572265625,-0.0063916015625,-0.2338330078124999,0.8981138038082063,0.8662109375,0.1103515625,0.0771484375,30.553529411764707,279.8243637245363
-0.85393212890625,-0.0015087890625,-0.2392041015624999,0.8868037885728265,0.86865234375,0.1015625,-0.1064453125,30.64764705882353,279.8243637245363
-0.85783837890625,0.0019091796875,-0.2465283203124999,0.8925617861009314,0.89208984375,0.11572265625,-0.13720703125,30.553529411764707,279.8243637245363
-0.86125634765625,0.0004443359375,-0.2470166015624999,0.8959798520391491,0.99853515625,0.03515625,-0.04150390625,30.553529411764707,279.8243637245363
-0.89641259765625,0.0058154296875,-0.2396923828124999,0.9279233819866868,0.8388671875,-0.06494140625,0.18701171875,30.60058823529412,279.8243637245363
-0.91447900390625,-0.0005322265624999,-0.2377392578124999,0.9448767573370188,0.83056640625,-0.0751953125,0.2158203125,30.60058823529412,279.8243637245363
-0.91106103515625,0.0102099609375,-0.2411572265624999,0.942493109261622,0.85546875,-0.06201171875,0.0380859375,30.553529411764707,279.8243637245363
-0.88713525390625,0.0087451171875,-0.2416455078124999,0.9194987695717112,0.8564453125,-0.0615234375,0.03076171875,30.60058823529412,279.7265991287357
-0.88176416015625,-0.0029736328125,-0.2343212890624999,0.912372370875002,0.82861328125,-0.1171875,0.296875,30.553529411764707,279.7265991287357
-0.89494775390625,-0.0005322265624999,-0.2313916015624999,0.924377541246332,0.81640625,-0.19873046875,0.50341796875,30.60058823529412,279.7265991287357
-0.89641259765625,0.0199755859375,-0.2103955078124999,0.9209890547547523,0.8076171875,-0.20263671875,0.38916015625,30.50647058823529,279.7265991287357
-0.88811181640625,0.0243701171875,-0.2186962890624999,0.9149669763996128,0.84326171875,-0.0791015625,0.17529296875,30.60058823529412,279.7265991287357
-0.89152978515625,0.0243701171875,-0.2245556640624999,0.91969805191434,0.8857421875,0.099609375,0.00146484375,30.553529411764707,279.7265991287357
-0.89445947265625,0.0106982421875,-0.2377392578124999,0.9255766609609588,0.876953125,0.19775390625,0.2041015625,30.553529411764707,279.7265991287357
-0.88567041015625,0.0116748046875,-0.2396923828124999,0.9176060237755448,0.87109375,0.1396484375,0.26806640625,30.553529411764707,279.7265991287357
-0.86613916015625,0.0224169921875,-0.2518994140624999,0.9023042065179234,0.8603515625,-0.02685546875,0.240234375,30.553529411764707,279.8336668728106
-0.85979150390625,0.0209521484375,-0.2431103515624999,0.8937466451687304,0.830078125,-0.18505859375,0.1455078125,30.553529411764707,279.8336668728106
-0.87883447265625,0.0243701171875,-0.2387158203124999,0.9110044872601843,0.857421875,-0.28369140625,0.02392578125,30.60058823529412,279.8336668728106
-0.88567041015625,0.0141162109375,-0.2479931640624999,0.9198434389934528,0.84130859375,-0.294921875,-0.02392578125,30.50647058823529,279.8336668728106
-0.89299462890625,0.0121630859375,-0.2269970703124999,0.92147437177894,0.84130859375,-0.224609375,-0.0615234375,30.553529411764707,279.8336668728106
-0.88664697265625,0.0048388671875,-0.2318798828124999,0.9164794317437188,0.85986328125,-0.10888671875,-0.02880859375,30.60058823529412,279.8336668728106
-0.88567041015625,0.0058154296875,-0.2230908203124999,0.9133539340017618,0.86181640625,-0.0322265625,0.00537109375,30.553529411764707,279.8336668728106
-0.88518212890625,-0.0015087890625,-0.2328564453124999,0.9152987500827308,0.86328125,-0.0625,0.05224609375,30.50647058823529,279.8336668728106
-0.88176416015625,0.0009326171875,-0.2333447265624999,0.91211768173049,0.86572265625,-0.1328125,0.0068359375,30.60058823529412,279.8336668728106
-0.88567041015625,0.0063037109375,-0.2279736328124999,0.9145620752336344,0.8515625,-0.22216796875,0.1494140625,30.60058823529412,280.06041047275795
-0.87834619140625,0.0131396484375,-0.2230908203124999,0.9063300703533068,0.84814453125,-0.21923828125,0.05029296875,30.60058823529412,280.06041047275795
-0.87346337890625,0.1342333984375,-0.2177197265624999,0.9101421641045172,0.86279296875,-0.16259765625,-0.0458984375,30.50647058823529,280.06041047275795
-0.88371728515625,0.0043505859375,-0.2206494140624999,0.910857470523274,0.8525390625,-0.07373046875,-0.01318359375,30.64764705882353,280.06041047275795
-0.89348291015625,-0.0029736328125,-0.2196728515624999,0.9200960357196336,0.75048828125,-0.01318359375,0.06884765625,31.21235294117648,280.06041047275795
-0.89152978515625,0.0004443359375,-0.2309033203124999,0.920946197443972,0.8623046875,0.009765625,0.24951171875,30.60058823529412,280.06041047275795
-0.88664697265625,0.0141162109375,-0.2323681640624999,0.9166990155997232,0.849609375,-0.0283203125,0.1015625,30.60058823529412,280.06041047275795
-0.87981103515625,0.0189990234375,-0.2323681640624999,0.9101776662520716,0.8466796875,-0.09765625,0.0087890625,30.553529411764707,280.06041047275795
-0.88713525390625,0.0141162109375,-0.2304150390624999,0.9166784149093464,0.83251953125,-0.1787109375,-0.02685546875,30.50647058823529,280.06041047275795
-0.88469384765625,0.0087451171875,-0.2309033203124999,0.9143719289691588,0.84375,-0.18408203125,-0.02197265625,30.69470588235294,279.96264512174105
-0.89201806640625,0.0092333984375,-0.2309033203124999,0.9214650453344324,0.849609375,-0.14501953125,0.03173828125,30.69470588235294,279.96264512174105
-0.88567041015625,0.0058154296875,-0.2138134765624999,0.9111323160817716,0.85400390625,-0.0712890625,0.064453125,30.60058823529412,279.96264512174105
-0.88713525390625,0.0131396484375,-0.2186962890624999,0.913788638545083,0.86279296875,0.015625,0.0390625,30.64764705882353,279.96264512174105
-0.88615869140625,0.0180224609375,-0.2255322265624999,0.9145856005160587,0.86572265625,0.060546875,-0.0322265625,30.60058823529412,279.96264512174105
-0.88274072265625,0.0219287109375,-0.2372509765624999,0.9143303985315806,0.869140625,0.06396484375,-0.05322265625,30.64764705882353,279.96264512174105
-0.88518212890625,0.1381396484375,-0.2318798828124999,0.9254178752642376,0.87158203125,0.005859375,-0.0205078125,30.60058823529412,279.96264512174105
-0.87834619140625,-0.1069775390625,-0.2348095703124999,0.915462593518749,0.8662109375,-0.09765625,0.0205078125,30.60058823529412,279.96264512174105
-0.87736962890625,-0.1108837890625,-0.2221142578124999,0.9118154549729598,0.84716796875,-0.146484375,0.0576171875,30.64764705882353,279.7594626358899
-0.87932275390625,0.0131396484375,-0.2377392578124999,0.9109890836906724,0.8564453125,-0.16650390625,0.0673828125,29.84764705882353,279.7594626358899
-0.89641259765625,0.0189990234375,-0.2318798828124999,0.926112729737338,0.8681640625,-0.15185546875,0.06640625,30.60058823529412,279.7594626358899
-0.89299462890625,0.0224169921875,-0.2279736328124999,0.9219077535479752,0.85693359375,-0.14404296875,0.05029296875,30.60058823529412,279.7594626358899
-0.88957666015625,0.0150927734375,-0.2216259765624999,0.9168928506603516,0.86279296875,-0.1025390625,-0.10986328125,30.553529411764707,279.7594626358899
-0.89055322265625,0.0189990234375,-0.2108837890624999,0.9153785980480252,0.8388671875,-0.18017578125,-0.0107421875,30.50647058823529,279.7594626358899
-0.85490869140625,0.0033740234375,-0.2162548828124999,0.88184263279587,0.86328125,-0.15478515625,0.04833984375,30.60058823529412,279.7594626358899
-0.84416650390625,-0.0098095703125,-0.2191845703124999,0.872212812248302,0.849609375,-0.181640625,-0.044921875,30.60058823529412,279.7594626358899
-0.87736962890625,0.0009326171875,-0.2250439453124999,0.9057721086585327,0.8505859375,-0.10546875,-0.06494140625,30.553529411764707,279.6734791096384
-0.88957666015625,0.0067919921875,-0.2186962890624999,0.9160899695457494,0.84765625,-0.0830078125,-0.125,30.553529411764707,279.6734791096384
-0.90422509765625,0.1381396484375,-0.2157666015624999,0.939819565688926,0.85205078125,-0.03515625,0.056640625,30.60058823529412,279.6734791096384
-0.89299462890625,0.0028857421875,-0.2235791015624999,0.9205625179306828,0.85791015625,-0.07861328125,0.0029296875,30.60058823529412,279.6734791096384
-0.88078759765625,0.0019091796875,-0.2313916015624999,0.9106769517374456,0.849609375,-0.2314453125,0.0517578125,30.553529411764707,279.6734791096384
-0.87932275390625,-0.0015087890625,-0.2138134765624999,0.9049458463032192,0.83935546875,-0.3291015625,0.20947265625,30.553529411764707,279.6734791096384
-0.88957666015625,0.0004443359375,-0.2099072265624999,0.9140064964169208,0.81201171875,-0.359375,0.2529296875,30.60058823529412,279.6734791096384
-0.89152978515625,0.0072802734375,-0.1937939453124999,0.9123784595450828,0.81982421875,-0.3076171875,0.427734375,30.60058823529412,279.6734791096384
-0.89641259765625,-0.1113720703125,-0.1898876953124999,0.9230474636299106,0.82666015625,-0.09423828125,0.330078125,30.60058823529412,279.6734791096384
-0.89836572265625,0.0170458984375,-0.2084423828124999,0.9223880751884104,0.84130859375,0.16796875,0.1767578125,29.753529411764703,280.01576832586534
-0.90276025390625,0.0214404296875,-0.2113720703124999,0.9274232691529009,0.8642578125,0.26123046875,0.08544921875,30.553529411764707,280.01576832586534
-0.89397119140625,0.1352099609375,-0.2401806640624999,0.9354961122263062,0.87158203125,0.41650390625,0.10205078125,30.60058823529412,280.01576832586534
-0.88371728515625,-0.1113720703125,-0.2450634765624999,0.923805220636106,0.86279296875,0.22021484375,0.15576171875,31.21235294117648,280.01576832586534
-0.87395166015625,0.0214404296875,-0.2460400390624999,0.9081777893875884,0.84765625,-0.078125,0.173828125,30.60058823529412,280.01576832586534
-0.87102197265625,0.0243701171875,-0.2426220703124999,0.9045101704593717,0.845703125,-0.3466796875,0.099609375,30.64764705882353,280.01576832586534
-0.87004541015625,0.0238818359375,-0.2304150390624999,0.9003557341672659,0.849609375,-0.447265625,-0.017578125,31.16529411764706,280.01576832586534
-0.88371728515625,0.0136279296875,-0.2269970703124999,0.9125073317414816,0.8505859375,-0.35107421875,-0.06787109375,30.64764705882353,280.01576832586534
-0.88908837890625,0.0102099609375,-0.2147900390624999,0.9147224440719486,0.8603515625,-0.13818359375,-0.05859375,30.553529411764707,279.4787780776346
-0.89592431640625,0.0072802734375,-0.2123486328124999,0.9207743072907004,0.88720703125,0.06884765625,-0.0625,30.64764705882353,279.4787780776346
-0.89201806640625,0.1293505859375,-0.2182080078124999,0.9273847850547364,0.892578125,0.19482421875,-0.068359375,30.60058823529412,279.4787780776346
-0.88078759765625,0.0053271484375,-0.2152783203124999,0.9067303490520844,0.89453125,0.1826171875,-0.01123046875,30.64764705882353,279.4787780776346
-0.87590478515625,-0.0005322265624999,-0.2265087890624999,0.9047185791434208,0.890625,0.11376953125,0.05322265625,30.69470588235294,279.4787780776346
-0.87932275390625,0.0106982421875,-0.2206494140624999,0.9066471870850856,0.87646484375,0.03369140625,0.02734375,30.553529411764707,279.4787780776346
-0.87688134765625,0.0170458984375,-0.2230908203124999,0.9049756762635596,0.89111328125,0.00537109375,-0.0517578125,30.60058823529412,279.4787780776346
-0.87199853515625,0.0038623046875,-0.2084423828124999,0.8965738060331105,0.8828125,0.04248046875,-0.01806640625,30.64764705882353,279.4787780776346
-0.87639306640625,-0.0029736328125,-0.2050244140624999,0.9000603644749194,0.87939453125,0.06591796875,0.06689453125,30.60058823529412,279.4787780776346
-0.87785791015625,-0.0044384765625,-0.2196728515624999,0.904936667514194,0.87255859375,0.10791015625,0.078125,30.553529411764707,279.7586367007683
-0.89055322265625,0.0097216796875,-0.2226025390624999,0.9180040543681988,0.85498046875,0.08447265625,0.01220703125,30.69470588235294,279.7586367007683
-0.89348291015625,0.0146044921875,-0.2255322265624999,0.921623451932282,0.86181640625,0.03955078125,0.013671875,30.553529411764707,279.7586367007683
-0.89299462890625,0.0077685546875,-0.2147900390624999,0.9184957912684272,0.85693359375,0.03857421875,0.03515625,30.60058823529412,279.7586367007683
-0.89201806640625,0.0053271484375,-0.2123486328124999,0.9169604959664064,0.8505859375,0.0556640625,0.05322265625,30.553529411764707,279.7586367007683
-0.89348291015625,0.0077685546875,-0.2103955078124999,0.9179533380792806,0.8603515625,0.14111328125,0.0234375,30.60058823529412,279.7586367007683
-0.88860009765625,0.0180224609375,-0.2191845703124999,0.915410737601442,0.990234375,0.21826171875,-0.00537109375,31.21235294117648,279.7586367007683
-0.88908837890625,0.0136279296875,-0.2294384765624999,0.9183168736885062,0.88818359375,0.2158203125,-0.03466796875,30.64764705882353,279.7586367007683
-0.88029931640625,0.1337451171875,-0.2309033203124999,0.9198537852116204,0.87109375,0.18017578125,-0.06201171875,30.60058823529412,279.4147052134397
-0.87053369140625,0.0033740234375,-0.2304150390624999,0.9005172858605893,0.87646484375,0.1005859375,-0.04345703125,30.64764705882353,279.4147052134397
-0.87785791015625,0.0121630859375,-0.2323681640624999,0.9081725688178424,0.75048828125,0.04150390625,0.01416015625,30.60058823529412,279.4147052134397
-0.88029931640625,0.0082568359375,-0.2284619140624999,0.909499811974753,0.86279296875,0.00927734375,0.052734375,30.553529411764707,279.4147052134397
-0.87883447265625,-0.1113720703125,-0.2211376953124999,0.9130474514847547,0.87255859375,0.0234375,0.0625,30.60058823529412,279.4147052134397
-0.88518212890625,0.0131396484375,-0.2157666015624999,0.9111944238448196,0.99560546875,0.05615234375,0.0498046875,30.50647058823529,279.4147052134397
-0.88811181640625,0.0131396484375,-0.2250439453124999,0.91627508212506,0.8896484375,0.08349609375,0.0302734375,30.64764705882353,279.4147052134397
-0.89445947265625,-0.1074658203125,-0.2162548828124999,0.926484120263366,0.87548828125,0.1162109375,0.04931640625,30.553529411764707,279.4147052134397
-0.88957666015625,0.1293505859375,-0.2182080078124999,0.9250367252442592,0.87451171875,0.13427734375,-0.0439453125,30.553529411764707,279.8867889814909
-0.89348291015625,0.0121630859375,-0.2221142578124999,0.9207575114678144,0.86962890625,0.0634765625,-0.11083984375,30.553529411764707,279.8867889814909
-0.87736962890625,0.0063037109375,-0.2191845703124999,0.9043556149887884,0.86865234375,0.04541015625,0.08203125,30.553529411764707,279.8867889814909
-0.85735009765625,0.0038623046875,-0.2279736328124999,0.8871505422454574,0.87353515625,0.03271484375,-0.00732421875,30.64764705882353,279.8867889814909
-0.85637353515625,-0.0083447265625,-0.2191845703124999,0.8840176141008114,0.8916015625,0.02783203125,-0.21337890625,30.60058823529412,279.8867889814909
-0.88420556640625,0.0014208984375,-0.2167431640624999,0.9103840408223284,0.87255859375,0.095703125,-0.0810546875,30.69470588235294,279.8867889814909
-0.90031884765625,0.0082568359375,-0.2064892578124999,0.923731571603317,0.85107421875,0.22021484375,0.119140625,30.553529411764707,279.8867889814909
-0.89787744140625,0.0092333984375,-0.2230908203124999,0.9252235781370056,0.8720703125,0.33837890625,0.07421875,30.553529411764707,279.8867889814909
-0.89494775390625,-0.1074658203125,-0.2362744140624999,0.9318293746699864,0.892578125,0.287109375,-0.044921875,30.60058823529412,279.72577337767365
-0.87834619140625,0.0028857421875,-0.2396923828124999,0.9104684496698232,0.88037109375,0.1337890625,0.0537109375,30.60058823529412,279.72577337767365
-0.87443994140625,0.0028857421875,-0.2367626953124999,0.9059305230127632,0.85009765625,-0.09033203125,0.2958984375,30.64764705882353,279.72577337767365
-0.88615869140625,0.0082568359375,-0.2201611328124999,0.9131354368853613,0.83056640625,-0.1875,0.49951171875,30.553529411764707,279.72577337767365
-0.88664697265625,0.0180224609375,-0.2040478515624999,0.91000175216645,0.84521484375,-0.0390625,0.2265625,30.60058823529412,279.72577337767365
-0.90031884765625,0.0141162109375,-0.2060009765624999,0.9236935082596466,0.88671875,0.12744140625,0.05712890625,30.50647058823529,279.72577337767365
-0.89885400390625,0.0116748046875,-0.2045361328124999,0.9219055542888764,0.89404296875,0.5205078125,-0.0078125,30.60058823529412,279.72577337767365
-0.89983056640625,0.0092333984375,-0.2313916015624999,0.9291514285407718,0.90185546875,0.59765625,0.04052734375,30.60058823529412,279.72577337767365
-0.87639306640625,0.0102099609375,-0.2494580078124999,0.9112619534519568,0.880859375,0.4443359375,0.11572265625,30.553529411764707,280.0806705430319
-0.86174462890625,0.0121630859375,-0.2538525390624999,0.8984391229776071,0.86767578125,0.1904296875,0.13623046875,30.60058823529412,280.0806705430319
-0.85832666015625,0.0141162109375,-0.2494580078124999,0.8939537016020439,0.8671875,-0.05126953125,0.07373046875,30.60058823529412,280.0806705430319
-0.86955712890625,0.1298388671875,-0.2421337890624999,0.911930098017374,0.8564453125,-0.1689453125,0.001953125,30.60058823529412,280.0806705430319
-0.88469384765625,0.0097216796875,-0.2216259765624999,0.9120832136510616,0.865234375,-0.0908203125,-0.04248046875,30.553529411764707,280.0806705430319
-0.88664697265625,-0.0005322265624999,-0.2226025390624999,0.9141635673021972,0.86279296875,0.06640625,-0.04931640625,30.60058823529412,280.0806705430319
-0.89006494140625,0.0077685546875,-0.2226025390624999,0.9175117660060365,0.88427734375,0.23828125,-0.05322265625,30.553529411764707,280.0806705430319
-0.88371728515625,0.0028857421875,-0.2343212890624999,0.9142598285497496,0.880859375,0.31103515625,-0.0654296875,30.64764705882353,280.0806705430319
-0.88225244140625,-0.0015087890625,-0.2352978515624999,0.9130918495757432,0.75732421875,0.2333984375,0.06689453125,30.60058823529412,280.0806705430319
-0.87541650390625,-0.0024853515625,-0.2338330078124999,0.906111531670617,0.8876953125,0.08837890625,0.19091796875,30.60058823529412,279.8977433728916
-0.88176416015625,-0.0010205078125,-0.2318798828124999,0.911744128374508,0.8740234375,0.021484375,0.19189453125,29.753529411764703,279.8977433728916
-0.87297509765625,0.0111865234375,-0.2279736328124999,0.902320695037128,0.88818359375,0.03173828125,0.08544921875,30.50647058823529,279.8977433728916
-0.86906884765625,0.0082568359375,-0.2206494140624999,0.896679988196673,0.88623046875,0.10107421875,0.009765625,30.60058823529412,279.8977433728916
-0.87395166015625,-0.0005322265624999,-0.2226025390624999,0.9018556857679898,0.880859375,0.1904296875,0.02978515625,30.60058823529412,279.8977433728916
-0.87736962890625,-0.0093212890625,-0.2304150390624999,0.9071689161248035,0.8876953125,0.28076171875,0.099609375,30.553529411764707,279.8977433728916
-0.88274072265625,-0.0015087890625,-0.2265087890624999,0.9113395039186404,0.88623046875,0.3076171875,0.1708984375,30.60058823529412,279.8977433728916
-0.89055322265625,0.0077685546875,-0.2392041015624999,0.9221518286213436,0.86083984375,0.2333984375,0.14453125,30.553529411764707,279.8977433728916
-0.88469384765625,0.0194873046875,-0.2484814453124999,0.9191332807538808,0.85302734375,0.1064453125,0.0693359375,30.69470588235294,279.8977433728916
-0.87981103515625,0.0204638671875,-0.2348095703124999,0.9108357490532092,0.84716796875,-0.0146484375,0.01171875,30.64764705882353,279.77972003644174
-0.89592431640625,0.0116748046875,-0.2357861328124999,0.926505144194662,0.84814453125,-0.04150390625,0.015625,30.60058823529412,279.77972003644174
-0.90227197265625,0.0106982421875,-0.2323681640624999,0.9317747199278804,0.8515625,-0.123046875,0.03076171875,30.553529411764707,279.77972003644174
-0.89299462890625,0.0136279296875,-0.2289501953124999,0.921977938812318,0.86328125,0.09228515625,0.0224609375,30.553529411764707,279.77972003644174
-0.89445947265625,0.0126513671875,-0.2294384765624999,0.9235040984443604,0.888671875,0.1474609375,-0.0224609375,30.60058823529412,279.77972003644174
-0.89006494140625,0.0199755859375,-0.2372509765624999,0.9213591318448618,0.8876953125,0.162109375,-0.04736328125,30.60058823529412,279.77972003644174
-0.87541650390625,0.0102099609375,-0.2362744140624999,0.9067987082888708,0.87646484375,0.09130859375,-0.02978515625,30.50647058823529,279.77972003644174
-0.87492822265625,-0.1094189453125,-0.2460400390624999,0.9154275510468324,0.869140625,0.015625,0.01123046875,30.64764705882353,279.77972003644174
-0.87346337890625,0.0126513671875,-0.2309033203124999,0.9035566804099084,0.86669921875,-0.04296875,0.02099609375,30.553529411764707,279.7578112071643
-0.88127587890625,0.0038623046875,-0.2387158203124999,0.9130428987769152,0.85791015625,-0.0439453125,0.0234375,30.60058823529412,279.7578112071643
-0.88322900390625,0.0019091796875,-0.2265087890624999,0.911813220912521,0.86181640625,-0.013671875,0.04931640625,30.69470588235294,279.7578112071643
-0.88713525390625,0.0048388671875,-0.2304150390624999,0.9165824914240608,0.849609375,0.00927734375,0.1025390625,30.553529411764707,279.7578112071643
-0.87932275390625,0.0087451171875,-0.2191845703124999,0.9062708527117982,0.84521484375,0.03369140625,0.029296875,30.50647058823529,279.7578112071643
-0.89592431640625,0.1366748046875,-0.2362744140624999,0.9365820741958232,0.85205078125,0.0087890625,-0.02685546875,30.50647058823529,279.7578112071643
-0.90520166015625,0.0072802734375,-0.2309033203124999,0.9342159232545189,0.84033203125,-0.001953125,0.10791015625,31.21235294117648,279.7578112071643
-0.86760400390625,0.0043505859375,-0.2401806640624999,0.9002457367750537,0.86279296875,0.0400390625,-0.06689453125,30.64764705882353,279.7578112071643
-0.85442041015625,0.0023974609375,-0.2357861328124999,0.8863605843770329,0.86279296875,-0.01318359375,-0.24462890625,30.64764705882353,279.6819558093358
-0.86320947265625,-0.0039501953125,-0.2387158203124999,0.8956179099336714,0.88720703125,0.107421875,-0.369140625,30.64764705882353,279.6819558093358
-0.88029931640625,-0.0063916015625,-0.2309033203124999,0.9101011385374606,0.8994140625,0.1298828125,-0.0556640625,30.50647058823529,279.6819558093358
-0.89690087890625,-0.0015087890625,-0.2196728515624999,0.923411947475686,0.86474609375,0.08837890625,0.15869140625,30.553529411764707,279.6819558093358
-0.89201806640625,0.1376513671875,-0.2313916015624999,0.931765100740198,0.8505859375,0.13916015625,0.150390625,30.553529411764707,279.6819558093358
-0.88127587890625,0.0111865234375,-0.2406689453124999,0.9136158132861056,0.86279296875,0.18017578125,0.01513671875,30.60058823529412,279.6819558093358
-0.86369775390625,0.0087451171875,-0.2455517578124999,0.8979676792302344,0.85693359375,0.154296875,-0.0244140625,30.553529411764707,279.6819558093358
-0.87346337890625,-0.0039501953125,-0.2387158203124999,0.905504898496303,0.8349609375,0.04736328125,0.1923828125,30.50647058823529,279.6819558093358
-0.87639306640625,-0.0098095703125,-0.2450634765624999,0.9100643614929468,0.81201171875,-0.001953125,0.48046875,30.50647058823529,279.6819558093358
-0.89543603515625,0.0087451171875,-0.2450634765624999,0.928406310661376,0.79931640625,-0.27880859375,0.59033203125,30.50647058823529,279.81175802638995
-0.90471337890625,0.0268115234375,-0.2260205078124999,0.932904296116608,0.81396484375,-0.27783203125,0.43359375,30.60058823529412,279.81175802638995
-0.91301416015625,0.0272998046875,-0.2230908203124999,0.9402710513939596,0.84716796875,-0.1435546875,0.1376953125,30.60058823529412,279.81175802638995
-1.03947900390625,0.0214404296875,-0.2206494140624999,1.0628558018438996,0.8701171875,0.02783203125,0.0126953125,30.64764705882353,279.81175802638995
-0.91008447265625,0.0146044921875,-0.2318798828124999,0.9392738251517488,0.75244140625,0.1328125,0.1240234375,30.60058823529412,279.81175802638995
-0.90031884765625,0.0023974609375,-0.2318798828124999,0.9297032081891314,0.888671875,0.146484375,0.29248046875,30.60058823529412,279.81175802638995
-0.87785791015625,0.0146044921875,-0.2396923828124999,0.9101100153246792,0.845703125,0.05615234375,0.32080078125,30.64764705882353,279.81175802638995
-0.87346337890625,0.0102099609375,-0.2558056640624999,0.910208248347116,0.85498046875,-0.052734375,0.2001953125,30.553529411764707,279.81175802638995
-0.87639306640625,0.0165576171875,-0.2528759765624999,0.912296673815221,0.85986328125,-0.11083984375,0.03759765625,30.64764705882353,279.7569861550879
-0.86809228515625,0.0082568359375,-0.2440869140624999,0.9017931095900285,0.8515625,-0.119140625,0.01513671875,30.60058823529412,279.7569861550879
-0.87834619140625,0.0043505859375,-0.2494580078124999,0.9130937833638152,0.85498046875,-0.1025390625,0.02001953125,30.64764705882353,279.7569861550879
-0.88078759765625,0.0043505859375,-0.2387158203124999,0.9125738121656448,0.8642578125,-0.1171875,-0.0029296875,30.553529411764707,279.7569861550879
-0.88371728515625,0.0038623046875,-0.2372509765624999,0.9150186792417364,0.85693359375,-0.21826171875,0.00048828125,30.64764705882353,279.7569861550879
-0.88664697265625,0.0067919921875,-0.2279736328124999,0.9155113120743492,0.84814453125,-0.2587890625,0.19580078125,30.50647058823529,279.7569861550879
-0.90276025390625,0.1376513671875,-0.2196728515624999,0.939244449882492,0.8525390625,-0.22216796875,0.13916015625,30.64764705882353,279.7569861550879
-0.88957666015625,0.0141162109375,-0.2167431640624999,0.9157092884064266,0.8701171875,-0.1318359375,-0.01708984375,30.64764705882353,279.7569861550879
-0.88274072265625,0.0092333984375,-0.2172314453124999,0.909123720906534,0.87158203125,-0.0322265625,-0.0595703125,30.64764705882353,279.8758346040803
-0.88469384765625,0.0023974609375,-0.2157666015624999,0.910628452361114,0.8662109375,0.0107421875,0.025390625,30.64764705882353,279.8758346040803
-0.89690087890625,-0.0039501953125,-0.2377392578124999,0.9278829372992312,0.85693359375,0.12060546875,0.10546875,30.64764705882353,279.8758346040803
-0.88762353515625,0.0106982421875,-0.2289501953124999,0.916737794837113,0.857421875,-0.0673828125,0.10693359375,30.60058823529412,279.8758346040803
-0.88225244140625,0.0189990234375,-0.2269970703124999,0.9111849445580876,0.86279296875,-0.12060546875,0.0576171875,30.553529411764707,279.8758346040803
-0.88615869140625,0.0185107421875,-0.2230908203124999,0.9139963829462748,0.83837890625,-0.15283203125,-0.02734375,30.553529411764707,279.8758346040803
-0.89543603515625,0.0121630859375,-0.2221142578124999,0.9226529018214086,0.83837890625,-0.1357421875,-0.01904296875,30.60058823529412,279.8758346040803
-0.88957666015625,0.0067919921875,-0.2152783203124999,0.9152800230799288,0.84228515625,-0.0791015625,0.0283203125,30.64764705882353,279.8758346040803
-0.89055322265625,0.0072802734375,-0.2240673828124999,0.9183377574755384,0.84814453125,-0.04443359375,0.06201171875,30.60058823529412,279.8758346040803
-0.88225244140625,0.0111865234375,-0.2294384765624999,0.9116668926758432,0.85986328125,0.0166015625,0.033203125,30.553529411764707,279.73672780471844
-0.87688134765625,0.0087451171875,-0.2274853515624999,0.9059508596593848,0.85791015625,0.0322265625,-0.0185546875,30.553529411764707,279.73672780471844
-0.88762353515625,0.0146044921875,-0.2348095703124999,0.9182724898774188,0.8701171875,0.01611328125,-0.056640625,30.553529411764707,279.73672780471844
-0.87688134765625,-0.1079541015625,-0.2255322265624999,0.9118331926015012,0.7509765625,-0.044921875,-0.0537109375,30.553529411764707,279.73672780471844
-0.87932275390625,0.0121630859375,-0.2323681640624999,0.909588593742562,0.86279296875,-0.10009765625,-0.12255859375,30.60058823529412,279.73672780471844
-0.87297509765625,0.1356982421875,-0.2333447265624999,0.9137555994221018,0.859375,-0.15283203125,0.03369140625,30.60058823529412,279.73672780471844
-0.88322900390625,0.0111865234375,-0.2338330078124999,0.9137267026800108,0.85888671875,-0.16259765625,0.05615234375,30.64764705882353,279.73672780471844
-0.88078759765625,0.0160693359375,-0.2226025390624999,0.9086236328313348,0.86328125,-0.17333984375,0.0498046875,30.60058823529412,279.73672780471844
-0.88127587890625,0.1347216796875,-0.2289501953124999,0.9204429898985796,0.8720703125,-0.1484375,0.05810546875,30.553529411764707,279.73672780471844
-0.88811181640625,0.0097216796875,-0.2309033203124999,0.9176891918442168,0.87060546875,-0.11865234375,0.0869140625,30.64764705882353,279.78054565275374
-0.89690087890625,0.0082568359375,-0.2240673828124999,0.9245028685531193,0.8505859375,-0.0869140625,0.0263671875,30.50647058823529,279.78054565275374
-0.88518212890625,0.0160693359375,-0.2162548828124999,0.9113571194832032,0.865234375,-0.11279296875,-0.115234375,30.60058823529412,279.78054565275374
-0.89397119140625,-0.1099072265625,-0.2172314453124999,0.9265277061953024,0.84130859375,-0.18212890625,0.0361328125,30.60058823529412,279.78054565275374
-0.84807275390625,-0.0019970703125,-0.2265087890624999,0.8778027202797472,0.85791015625,-0.15576171875,-0.060546875,30.64764705882353,279.78054565275374
-0.86027978515625,-0.0088330078125,-0.2255322265624999,0.889395365399291,0.849609375,-0.171875,-0.11865234375,30.60058823529412,279.78054565275374
-0.86955712890625,-0.0015087890625,-0.2133251953124999,0.89534323911628,0.8408203125,-0.1416015625,-0.0712890625,30.553529411764707,279.78054565275374
-0.90617822265625,0.0097216796875,-0.2182080078124999,0.9321310084670968,0.83447265625,-0.11181640625,0.1201171875,30.553529411764707,279.78054565275374
-0.89641259765625,0.0053271484375,-0.2206494140624999,0.9231847527301488,0.837890625,-0.08154296875,0.0810546875,30.60058823529412,279.73590243382245
-0.88908837890625,0.0131396484375,-0.2216259765624999,0.9163890382116574,0.8505859375,-0.14306640625,0.00390625,30.553529411764707,279.73590243382245
-0.88371728515625,0.0009326171875,-0.2299267578124999,0.9131393233329288,0.84765625,-0.23681640625,0.10546875,30.64764705882353,279.73590243382245
-0.87785791015625,0.0014208984375,-0.2201611328124999,0.9050455534267609,0.84326171875,-0.31689453125,0.28955078125,30.50647058823529,279.73590243382245
-0.88225244140625,0.0053271484375,-0.2128369140624999,0.9075777106481911,0.8232421875,-0.2578125,0.45068359375,30.553529411764707,279.73590243382245
-0.89152978515625,0.0185107421875,-0.1972119140624999,0.913269152246629,0.8173828125,-0.328125,0.47265625,30.50647058823529,279.73590243382245
-0.90324853515625,0.0175341796875,-0.1918408203124999,0.9235628100229014,0.8271484375,-0.13720703125,0.3486328125,30.553529411764707,279.73590243382245
-0.89983056640625,0.0224169921875,-0.1972119140624999,0.9214608558294388,0.8564453125,0.14501953125,0.1572265625,30.60058823529412,279.73590243382245
-0.89836572265625,0.0102099609375,-0.2138134765624999,0.923515791800971,0.85498046875,0.35205078125,0.0712890625,30.553529411764707,279.9078731918175
-0.89690087890625,0.1361865234375,-0.2294384765624999,0.9357456760659476,0.85009765625,0.34033203125,0.10107421875,30.553529411764707,279.9078731918175
-0.87932275390625,0.0165576171875,-0.2396923828124999,0.9115564154798832,0.853515625,0.14453125,0.13916015625,30.64764705882353,279.9078731918175
-0.86858056640625,0.1381396484375,-0.2470166015624999,0.9135272104631176,0.83740234375,-0.19873046875,0.1669921875,30.553529411764707,279.9078731918175
-0.86467431640625,0.0199755859375,-0.2323681640624999,0.8955756032607962,0.83349609375,-0.4326171875,0.10791015625,30.69470588235294,279.9078731918175
-0.87736962890625,0.0243701171875,-0.2284619140624999,0.9069543618704992,0.83447265625,-0.517578125,0.0185546875,30.553529411764707,279.9078731918175
-0.88762353515625,0.0102099609375,-0.2211376953124999,0.914812365326217,0.849609375,-0.4189453125,-0.0185546875,29.80058823529412,279.9078731918175
-0.89836572265625,0.0111865234375,-0.2221142578124999,0.9254841184341857,0.849609375,-0.19873046875,-0.037109375,31.21235294117648,279.9078731918175
-0.90031884765625,0.0038623046875,-0.2108837890624999,0.9246950401791576,0.865234375,-0.00439453125,-0.05078125,30.60058823529412,279.9078731918175
-0.89104150390625,0.0009326171875,-0.2191845703124999,0.9176043304831366,0.75390625,0.0673828125,-0.0390625,30.553529411764707,279.86570502322127
-0.88762353515625,0.0048388671875,-0.2055126953124999,0.9111171289870174,0.85888671875,0.1240234375,0.04833984375,30.50647058823529,279.86570502322127
-0.87834619140625,0.0019091796875,-0.2182080078124999,0.9050471874982232,0.85205078125,-0.099609375,0.1171875,30.50647058823529,279.86570502322127
-0.88713525390625,0.0082568359375,-0.2108837890624999,0.9118931442621786,0.86669921875,-0.1318359375,0.103515625,30.60058823529412,279.86570502322127
-0.88322900390625,0.0165576171875,-0.0829541015624999,0.8872705399111345,0.86474609375,-0.0849609375,-0.03173828125,30.64764705882353,279.86570502322127
-0.88225244140625,0.0063037109375,-0.2025830078124999,0.9052342139983616,0.8681640625,-0.00927734375,-0.08251953125,30.60058823529412,279.86570502322127
-0.88029931640625,0.0063037109375,-0.2064892578124999,0.9042148178551664,0.87060546875,0.05224609375,-0.04638671875,31.21235294117648,279.86570502322127
-0.88420556640625,-4.394531249999993e-05,-0.2060009765624999,0.9078853936151255,0.865234375,0.09228515625,0.02685546875,30.60058823529412,279.86570502322127
-0.89445947265625,0.0043505859375,-0.2030712890624999,0.9172320449395572,0.859375,0.0771484375,0.02490234375,30.60058823529412,279.9938596175103
-0.88762353515625,0.0204638671875,-0.2206494140624999,0.9148663694494792,0.8583984375,0.0341796875,-0.0126953125,30.60058823529412,279.9938596175103
-0.88957666015625,0.0155810546875,-0.2191845703124999,0.9163139633460784,0.85498046875,-0.0126953125,-0.037109375,30.553529411764707,279.9938596175103
-0.88469384765625,0.1356982421875,-0.2133251953124999,0.9201113280297736,0.853515625,-0.02099609375,-0.125,30.60058823529412,279.9938596175103
-0.89152978515625,0.0131396484375,-0.2079541015624999,0.915556069576559,0.869140625,0.01513671875,0.0439453125,30.553529411764707,279.9938596175103
-0.89494775390625,0.0106982421875,-0.2016064453124999,0.9174372422129408,0.8642578125,0.08349609375,0.04052734375,30.60058823529412,279.9938596175103
-0.88420556640625,0.0209521484375,-0.2128369140624999,0.9097021645437546,0.8798828125,0.15625,-0.01904296875,30.60058823529412,279.9938596175103
-0.87785791015625,0.0141162109375,-0.2084423828124999,0.9023757558731748,0.75732421875,0.2392578125,-0.08154296875,30.553529411764707,279.9938596175103
-0.87932275390625,0.0121630859375,-0.2108837890624999,0.9043386637129652,0.89794921875,0.24853515625,-0.08203125,30.69470588235294,279.9938596175103
-0.87785791015625,-0.1103955078125,-0.2196728515624999,0.9116347076996788,0.89453125,0.20947265625,-0.07421875,30.64764705882353,279.5521544271685
-0.88078759765625,0.0121630859375,-0.2196728515624999,0.9078495990846674,0.8896484375,0.138671875,-0.02880859375,30.60058823529412,279.5521544271685
-0.88322900390625,0.0136279296875,-0.2191845703124999,0.910121458747056,0.88232421875,0.08544921875,-0.12451171875,30.64764705882353,279.5521544271685
-0.88664697265625,0.0175341796875,-0.2108837890624999,0.9115493810360268,0.8828125,0.072265625,0.00146484375,30.553529411764707,279.5521544271685
-0.88225244140625,0.0131396484375,-0.2152783203124999,0.9082327762886124,0.87841796875,0.080078125,-0.0068359375,30.50647058823529,279.5521544271685
-0.89494775390625,0.0097216796875,-0.2177197265624999,0.921101445342606,0.88427734375,0.103515625,0.0146484375,30.50647058823529,279.5521544271685
-0.88420556640625,0.0106982421875,-0.2045361328124999,0.9076171911525212,0.7509765625,0.1552734375,0.06689453125,30.553529411764707,279.5521544271685
-0.88518212890625,0.0106982421875,-0.2064892578124999,0.9090102679908848,0.8857421875,0.25341796875,-0.0458984375,30.60058823529412,279.5521544271685
-0.89348291015625,0.0199755859375,-0.2123486328124999,0.918587326622878,0.99853515625,0.228515625,-0.03857421875,30.60058823529412,279.76794050137016
-0.87443994140625,0.0033740234375,-0.2182080078124999,0.9012609665542068,0.89453125,0.29345703125,0.015625,30.553529411764707,279.76794050137016
-0.84807275390625,-0.0044384765625,-0.2304150390624999,0.8788277340972462,0.89697265625,0.30810546875,-0.16845703125,30.50647058823529,279.76794050137016
-0.85930322265625,-0.0078564453125,-0.2338330078124999,0.8905849918693924,0.90771484375,0.25537109375,-0.22509765625,30.60058823529412,279.76794050137016
-0.86076806640625,-0.0117626953125,-0.2260205078124999,0.8900254463202665,0.89111328125,0.22900390625,-0.17578125,30.60058823529412,279.76794050137016
-0.88762353515625,0.0087451171875,-0.2235791015624999,0.9153904259349648,0.87158203125,0.18896484375,-0.01123046875,30.64764705882353,279.76794050137016
-0.88713525390625,0.0102099609375,-0.2123486328124999,0.9122527850782314,0.9990234375,0.21875,0.05419921875,30.50647058823529,279.76794050137016
-0.88860009765625,0.0077685546875,-0.2230908203124999,0.9162095819758348,0.87939453125,0.22607421875,-0.01416015625,30.60058823529412,279.76794050137016
-0.89152978515625,0.0053271484375,-0.2279736328124999,0.9202313369957325,0.8828125,0.1875,-0.06689453125,30.64764705882353,279.76794050137016
-0.88225244140625,0.0082568359375,-0.2309033203124999,0.9120054216057734,0.87451171875,0.2412109375,0.0703125,29.84764705882353,279.86405589959617
-0.88176416015625,-0.0044384765625,-0.2269970703124999,0.9105247960054196,0.84326171875,0.04296875,0.2958984375,30.64764705882353,279.86405589959617
-0.88811181640625,0.0082568359375,-0.2265087890624999,0.91657896839425,0.8330078125,-0.01708984375,0.36572265625,30.459411764705884,279.86405589959617
-0.87834619140625,0.0189990234375,-0.2206494140624999,0.905836165526398,0.8388671875,-0.03759765625,0.3740234375,29.84764705882353,279.86405589959617
-0.88567041015625,0.0175341796875,-0.2128369140624999,0.9110538265499476,0.8515625,0.03515625,0.08349609375,30.553529411764707,279.86405589959617
-0.90959619140625,0.0111865234375,-0.2138134765624999,0.9344552276525162,0.86279296875,0.169921875,0.001953125,30.553529411764707,279.86405589959617
-0.90813134765625,0.0082568359375,-0.2201611328124999,0.9344739933978574,0.8564453125,0.2724609375,0.01806640625,30.60058823529412,279.86405589959617
-0.90178369140625,0.0019091796875,-0.2250439453124999,0.9294419015598432,0.86865234375,0.2802734375,0.05224609375,30.60058823529412,279.86405589959617
-0.87297509765625,0.0116748046875,-0.2367626953124999,0.9045874176021188,0.853515625,0.19140625,0.10009765625,30.553529411764707,279.7890244412964
-0.85930322265625,0.0097216796875,-0.2265087890624999,0.8887084848508668,0.85205078125,0.052734375,0.1123046875,30.553529411764707,279.7890244412964
-0.86174462890625,0.0043505859375,-0.2245556640624999,0.8905324133962337,0.84814453125,-0.0703125,0.0830078125,30.553529411764707,279.7890244412964
-0.86711572265625,0.0067919921875,-0.2250439453124999,0.8958686203664917,0.82470703125,-0.08154296875,0.03125,30.60058823529412,279.7890244412964
-0.88127587890625,0.0077685546875,-0.2211376953124999,0.908630510973542,0.8486328125,-0.00390625,0.00146484375,30.60058823529412,279.7890244412964
-0.88322900390625,0.0048388671875,-0.2230908203124999,0.9109810108254668,0.859375,0.15673828125,-0.04296875,30.64764705882353,279.7890244412964
-0.88908837890625,0.0058154296875,-0.2372509765624999,0.9202173605232916,0.8583984375,0.244140625,-0.052734375,30.50647058823529,279.7890244412964
-0.87981103515625,-0.0039501953125,-0.2260205078124999,0.908387764986704,0.85693359375,0.22265625,0.0546875,30.60058823529412,279.7890244412964
-0.88811181640625,-0.0015087890625,-0.2323681640624999,0.9180086266232036,0.85302734375,0.10595703125,0.2353515625,30.64764705882353,279.76794050137016
-0.88860009765625,0.0116748046875,-0.2313916015624999,0.918307414699918,0.857421875,0.05029296875,0.20263671875,30.50647058823529,279.76794050137016
-0.87883447265625,-0.1113720703125,-0.2221142578124999,0.9132844638437024,0.873046875,0.03515625,0.03515625,30.69470588235294,279.76794050137016
-0.86809228515625,0.0097216796875,-0.2196728515624999,0.8955081732275516,0.7509765625,0.08203125,-0.00927734375,29.80058823529412,279.76794050137016
-0.87590478515625,-0.0044384765625,-0.2191845703124999,0.9029234566655624,0.88818359375,0.166015625,0.0654296875,30.553529411764707,279.76794050137016
-0.89445947265625,0.0014208984375,-0.2245556640624999,0.9222174436863668,0.99560546875,0.21337890625,0.1572265625,30.553529411764707,279.76794050137016
-0.89445947265625,0.0072802734375,-0.2269970703124999,0.9228425762481268,0.75830078125,0.2265625,0.150390625,30.50647058823529,279.76794050137016
-0.88469384765625,0.1381396484375,-0.2299267578124999,0.9244631309627356,0.869140625,0.21728515625,0.07861328125,29.84764705882353,279.76794050137016
-0.88664697265625,0.0180224609375,-0.2299267578124999,0.916151721701654,0.853515625,0.16455078125,0.015625,30.553529411764707,279.76794050137016
-0.88371728515625,0.0082568359375,-0.2323681640624999,0.913793947831462,0.853515625,0.08056640625,0.00341796875,30.60058823529412,279.9837294171934
-0.89299462890625,0.0058154296875,-0.2309033203124999,0.9223825506855592,0.84521484375,0.02880859375,0.04052734375,30.553529411764707,279.9837294171934
-0.89445947265625,0.1332568359375,-0.2265087890624999,0.9322667880339462,0.865234375,0.12353515625,0.07275390625,30.553529411764707,279.9837294171934
-0.89104150390625,0.0072802734375,-0.2230908203124999,0.9185736106445366,0.759765625,0.03076171875,0.052734375,30.64764705882353,279.9837294171934
-0.88615869140625,0.0170458984375,-0.2201611328124999,0.9132572000316572,0.87255859375,0.09716796875,0.0009765625,30.50647058823529,279.9837294171934
-0.87981103515625,-0.1103955078125,-0.2289501953124999,0.9157908154494256,0.890625,0.13525390625,-0.0380859375,30.50647058823529,279.9837294171934
-0.88371728515625,0.0014208984375,-0.2269970703124999,0.912406668633434,0.880859375,0.1416015625,-0.0185546875,30.60058823529412,279.9837294171934
-0.88127587890625,0.0033740234375,-0.2294384765624999,0.9106594167434172,0.85986328125,0.142578125,0.02978515625,31.21235294117648,279.85392589119965
-0.87736962890625,0.0038623046875,-0.2182080078124999,0.9041057005671904,0.86083984375,0.080078125,0.033203125,30.60058823529412,279.85392589119965
-0.88664697265625,0.0111865234375,-0.2338330078124999,0.9170310070928634,0.8720703125,0.0048828125,0.02197265625,30.60058823529412,279.85392589119965
-0.88274072265625,0.0087451171875,-0.2323681640624999,0.9128541089243551,0.87353515625,0.00048828125,0.05322265625,30.553529411764707,279.85392589119965
-0.87981103515625,0.0077685546875,-0.2382275390624999,0.91152628508037,0.86181640625,0.037109375,0.10888671875,30.64764705882353,279.85392589119965
-0.88322900390625,0.0048388671875,-0.2318798828124999,0.9131731314652352,0.85791015625,-0.0341796875,0.1025390625,30.553529411764707,279.85392589119965
-0.88518212890625,0.0126513671875,-0.2372509765624999,0.9165126754751262,0.8564453125,-0.0537109375,-0.056640625,30.64764705882353,279.85392589119965
-0.90080712890625,0.1371630859375,-0.2260205078124999,0.9388037417820828,0.8505859375,-0.04541015625,0.064453125,30.553529411764707,279.85392589119965
-0.88029931640625,0.0033740234375,-0.2362744140624999,0.9114624892117316,0.86083984375,0.14501953125,0.05712890625,30.50647058823529,279.68961232765105
-0.86662744140625,0.0023974609375,-0.2377392578124999,0.8986483320646227,0.869140625,0.146484375,-0.00830078125,30.60058823529412,279.68961232765105
-0.85979150390625,0.0019091796875,-0.2396923828124999,0.8925791357267905,0.9033203125,0.1455078125,-0.20654296875,30.553529411764707,279.68961232765105
-0.85393212890625,-0.0005322265624999,-0.2338330078124999,0.885368984992198,0.88671875,0.12109375,-0.1669921875,30.60058823529412,279.68961232765105
-0.87443994140625,-0.0054150390625,-0.2348095703124999,0.9054336353841486,0.86376953125,0.09814453125,0.0537109375,30.50647058823529,279.68961232765105
-0.91008447265625,0.0014208984375,-0.2250439453124999,0.9374969566052948,0.8671875,0.11669921875,0.255859375,30.60058823529412,279.68961232765105
-0.90910791015625,0.0072802734375,-0.2367626953124999,0.9394608925238074,0.869140625,0.13671875,0.23828125,30.60058823529412,279.68961232765105
-0.89397119140625,0.0160693359375,-0.2372509765624999,0.925057155262118,0.869140625,0.10107421875,0.1015625,30.553529411764707,279.68961232765105
-0.86809228515625,0.1356982421875,-0.2318798828124999,0.9087169573270416,0.85986328125,0.12255859375,0.13623046875,30.64764705882353,279.9171795787817
-0.88811181640625,0.0028857421875,-0.2479931640624999,0.922090849846213,0.8310546875,-0.13623046875,0.32763671875,30.60058823529412,279.9171795787817
-0.89934228515625,0.0043505859375,-0.2382275390624999,0.9303697296429202,0.8251953125,-0.23193359375,0.46923828125,30.60058823529412,279.9171795787817
-0.90520166015625,0.0111865234375,-0.2240673828124999,0.93258853515186,0.822265625,-0.21044921875,0.39013671875,30.60058823529412,279.9171795787817
-0.89983056640625,0.0214404296875,-0.2206494140624999,0.9267366962575194,0.84375,-0.052734375,0.21533203125,30.60058823529412,279.9171795787817
-0.90422509765625,0.0194873046875,-0.2245556640624999,0.9318948591649108,0.88623046875,0.1396484375,0.12109375,30.64764705882353,279.9171795787817
-0.89934228515625,0.0155810546875,-0.2294384765624999,0.9282786918068094,0.888671875,0.21728515625,0.15185546875,30.60058823529412,279.9171795787817
-0.88762353515625,0.0067919921875,-0.2328564453124999,0.917683930035133,0.8779296875,0.2021484375,0.12548828125,30.60058823529412,279.9171795787817
-0.87541650390625,0.0150927734375,-0.2499462890624999,0.9105245710784482,0.86083984375,0.064453125,0.28564453125,30.60058823529412,279.9171795787817
-0.86223291015625,0.0194873046875,-0.2455517578124999,0.8967279476883209,0.85498046875,-0.09326171875,0.21875,30.553529411764707,279.59514635874046
-0.86809228515625,0.0238818359375,-0.2387158203124999,0.9006329998967479,0.86572265625,-0.1826171875,0.1298828125,30.64764705882353,279.59514635874046
-0.88371728515625,0.0209521484375,-0.2392041015624999,0.915758611650692,0.84326171875,-0.1640625,0.0458984375,30.60058823529412,279.59514635874046
-0.88127587890625,-0.1030712890625,-0.2431103515624999,0.9199856022829004,0.859375,-0.10791015625,-0.0126953125,30.50647058823529,279.59514635874046
-0.88811181640625,-0.1089306640625,-0.2460400390624999,0.9279785497711583,0.8662109375,-0.05078125,-0.0078125,30.553529411764707,279.59514635874046
-0.88176416015625,0.0097216796875,-0.2431103515624999,0.9147159057482523,0.853515625,-0.06689453125,-0.0009765625,30.60058823529412,279.59514635874046
-0.88225244140625,0.0048388671875,-0.2523876953124999,0.9176558907063704,0.99658203125,-0.00146484375,0.0009765625,30.64764705882353,279.59514635874046
-0.88274072265625,0.0111865234375,-0.2279736328124999,0.9117720652663278,0.9990234375,-0.26953125,0.103515625,30.60058823529412,279.59514635874046
-0.88469384765625,0.0038623046875,-0.2191845703124999,0.9114493937358203,0.86376953125,-0.29296875,0.1728515625,30.553529411764707,279.59514635874046
-0.88664697265625,-0.1108837890625,-0.2152783203124999,0.9191206797771015,0.85888671875,-0.20654296875,0.06884765625,30.553529411764707,279.9180033435431
-0.87981103515625,0.0043505859375,-0.2123486328124999,0.9050847071064948,0.87060546875,-0.05029296875,-0.04736328125,30.69470588235294,279.9180033435431
-0.89006494140625,0.0023974609375,-0.2143017578124999,0.9155034632053476,0.88916015625,0.080078125,-0.00927734375,30.553529411764707,279.9180033435431
-0.88860009765625,-0.0029736328125,-0.2284619140624999,0.9175041265432552,0.99169921875,0.08740234375,0.07470703125,30.553529411764707,279.9180033435431
-0.88908837890625,0.0019091796875,-0.2289501953124999,0.9180958459806114,0.86279296875,0.11376953125,0.09228515625,30.64764705882353,279.9180033435431
-0.87932275390625,0.0175341796875,-0.2484814453124999,0.9139250415975996,0.85693359375,-0.00830078125,0.04443359375,30.60058823529412,279.9180033435431
-0.88420556640625,0.0077685546875,-0.2455517578124999,0.917701204025874,0.853515625,-0.2060546875,-0.00732421875,30.553529411764707,279.9180033435431
-0.88664697265625,0.1361865234375,-0.2299267578124999,0.9260431616531994,0.85498046875,-0.20556640625,-0.001953125,30.553529411764707,280.10010890288675
-0.88762353515625,0.0116748046875,-0.2230908203124999,0.9153039688188148,0.86376953125,-0.1630859375,0.0302734375,30.50647058823529,280.10010890288675
-0.88713525390625,0.0092333984375,-0.2221142578124999,0.9145649008646736,0.861328125,-0.08984375,0.08154296875,30.553529411764707,280.10010890288675
-0.88322900390625,0.1381396484375,-0.2167431640624999,0.9198660962224264,0.86572265625,-0.0048828125,0.08203125,30.553529411764707,280.10010890288675
-0.87346337890625,0.0116748046875,-0.2279736328124999,0.9027992870026776,0.86474609375,0.05078125,0.0087890625,30.60058823529412,280.10010890288675
-0.88713525390625,0.0155810546875,-0.2323681640624999,0.9171950128834424,0.75048828125,0.052734375,-0.03857421875,30.64764705882353,280.10010890288675
-0.88567041015625,-0.1094189453125,-0.2323681640624999,0.922160259764764,0.8671875,0.02880859375,-0.05126953125,30.50647058823529,280.10010890288675
-0.87785791015625,0.0082568359375,-0.2284619140624999,0.9071369973387144,0.88623046875,-0.03173828125,-0.02587890625,30.553529411764707,280.10010890288675
-0.88029931640625,0.0063037109375,-0.2401806640624999,0.9124984244514608,0.880859375,-0.1142578125,0.03515625,30.553529411764707,280.10010890288675
-0.87883447265625,0.0131396484375,-0.2279736328124999,0.9080168819728952,0.87109375,-0.1806640625,0.025390625,30.553529411764707,279.6389637249802
