AccX,AccY,AccZ,Magnitude,GyroX,GyroY,GyroZ,Temperature,Altitude
-0.25090478515625,-0.0063916015625,0.9463427734375,0.979060114917474,0.85986328125,-0.12255859375,0.1044921875,30.553529411764707,301.7215178989804
-0.23235009765625,-0.0054150390625,0.9409716796875,0.9692489837512508,0.83740234375,-0.1474609375,0.12353515625,30.553529411764707,301.7215178989804
-0.23186181640625,-0.0098095703125,0.9468310546875,0.9748564897960956,0.80908203125,-0.1279296875,-0.1435546875,30.50647058823529,301.74268034443736
-0.24651025390625,-0.0083447265625,0.9424365234375,0.974178392519198,0.81591796875,-0.138671875,-0.2880859375,30.50647058823529,301.74268034443736
-0.27043603515625,-0.0215283203125,0.9385302734375,0.9769535259392736,0.80712890625,-0.26025390625,-0.37109375,29.753529411764703,301.74268034443736
-0.28313134765625,-0.0268994140625,0.9556201171875,0.9970440044832533,0.814453125,-0.3974609375,-0.14892578125,31.21235294117648,301.74268034443736
-0.27629541015625,-0.0391064453125,0.9565966796875,0.9964665951889904,0.80517578125,-0.494140625,-0.06298828125,30.50647058823529,301.74268034443736
-0.26408837890625,-0.0322705078125,0.9653857421875,1.0013758978359315,0.81396484375,-0.14501953125,-0.09521484375,30.553529411764707,301.74268034443736
-0.25822900390625,-0.0361767578125,0.9575732421875,0.9924401696917144,0.8056640625,0.0439453125,-0.0654296875,30.60058823529412,301.74268034443736
-0.25041650390625,-0.0420361328125,0.9512255859375,0.9845331773143045,0.83447265625,0.02587890625,-0.017578125,30.553529411764707,301.74268034443736
-0.26067041015625,-0.0493603515625,0.9414599609375,0.97812696777353,0.81640625,0.01416015625,0.02685546875,30.553529411764707,301.9277139076504
-0.26945947265625,-0.0508251953125,0.9439013671875,0.9829249202564608,0.87353515625,-0.146484375,0.0986328125,30.412352941176472,301.9277139076504
-0.27727197265625,-0.0425244140625,0.9590380859375,0.9992207578361806,0.798828125,-0.3515625,0.23876953125,30.50647058823529,301.9277139076504
-0.28020166015625,-0.0308056640625,0.9834521484375,1.023054293553859,0.8359375,-0.2080078125,0.41455078125,30.50647058823529,301.9277139076504
-0.26457666015625,-0.0259228515625,0.9839404296875,1.0192210616476631,0.8603515625,-0.01171875,0.4912109375,30.60058823529412,301.9277139076504
-0.26311181640625,-0.0122509765625,0.9683154296875,1.0035002171052176,0.84375,0.0810546875,0.494140625,31.21235294117648,301.9277139076504
-0.25578759765625,-0.0254345703125,0.9624560546875,0.9961906793813948,0.830078125,0.01318359375,0.14208984375,29.753529411764703,301.9277139076504
-0.24895166015625,-0.0200634765625,0.9429248046875,0.9754417765716656,0.80126953125,-0.04052734375,-0.017578125,30.553529411764707,301.9277139076504
-0.26457666015625,-0.0176220703125,0.9390185546875,0.975739305608284,0.78125,-0.04931640625,-0.09619140625,30.50647058823529,301.61265080103584
-0.26945947265625,-0.0190869140625,0.9497607421875,0.987430091243509,0.7841796875,-0.09912109375,-0.14990234375,31.16529411764706,301.61265080103584
-0.26945947265625,-0.0205517578125,0.9429248046875,0.9808863183102964,0.79443359375,-0.09765625,-0.19775390625,30.553529411764707,301.61265080103584
-0.27727197265625,-0.0264111328125,0.9482958984375,0.9883533810082876,0.80859375,-0.052734375,-0.177734375,31.21235294117648,301.61265080103584
-0.28654931640625,-0.0308056640625,0.9443896484375,0.987386098619545,0.83154296875,-0.02734375,-0.1318359375,30.50647058823529,301.61265080103584
-0.29387353515625,-0.0190869140625,0.9453662109375,0.9901733372172706,0.853515625,-0.048828125,-0.0498046875,31.16529411764706,301.61265080103584
-0.30168603515625,-0.0308056640625,0.9321826171875,0.9802692918444232,0.85595703125,0.01318359375,0.01513671875,29.80058823529412,301.61265080103584
-0.31633447265625,-0.0337353515625,0.8057177734375001,0.8662486380761796,0.99169921875,0.10888671875,0.115234375,31.21235294117648,301.61265080103584
-0.33293603515625,-0.0249462890625,0.9365771484375,0.9943065301097406,0.8896484375,0.20068359375,0.21337890625,30.459411764705884,301.61265080103584
-0.31145166015625,-0.0273876953125,0.9248583984375,0.9762762312117368,0.998046875,0.28955078125,0.3701171875,30.553529411764707,301.7025842193361
-0.29533837890625,-0.0239697265625,0.9136279296875,0.9604766003144064,0.83056640625,0.326171875,0.2138671875,29.80058823529412,301.7025842193361
-0.25871728515625,-0.0293408203125,0.9131396484375,0.9495364842510224,0.82373046875,0.3310546875,0.1005859375,31.21235294117648,301.7025842193361
-0.22649072265625,-0.0352001953125,0.9058154296875,0.9343653963302252,0.81494140625,0.38623046875,-0.048828125,31.21235294117648,301.7025842193361
-0.22795556640625,-0.0337353515625,0.8921435546875001,0.9214238635780432,0.751953125,0.43359375,-0.1005859375,30.553529411764707,301.7025842193361
-0.22063134765625,0.0082568359375,0.9165576171875,0.9427747517475952,1.08203125,0.36865234375,-0.22802734375,30.50647058823529,301.7025842193361
-0.22697900390625,-0.0034619140625,0.8843310546875001,0.913002117931802,1.09326171875,-0.23681640625,-0.62060546875,30.60058823529412,301.7025842193361
-0.24065087890625,-0.0156689453125,0.8501513671875001,0.8836943524184888,0.84716796875,-1.2119140625,-1.1181640625,31.21235294117648,301.7025842193361
-0.21477197265625,0.0004443359375,0.8799365234375001,0.9057678968435326,0.90966796875,-2.9052734375,-1.21826171875,29.753529411764703,301.7025842193361
-0.23820947265625,0.0243701171875,0.9136279296875,0.9444859180421744,1.12841796875,-4.52197265625,-0.56201171875,31.21235294117648,301.58510833130543
-0.34026025390625,0.0146044921875,0.9282763671875,0.9887807367961934,1.67578125,-5.15283203125,0.478515625,30.60058823529412,301.58510833130543
-0.45305322265625,0.0702685546875,0.8589404296875001,0.9736393347070726,1.8896484375,-3.99169921875,1.18359375,30.60058823529412,301.58510833130543
-0.34953759765625,0.0185107421875,0.7241748046875001,0.8043309813104388,1.93310546875,-1.97021484375,1.021484375,30.553529411764707,301.58510833130543
-0.21721337890625,0.1913623046875,0.5776904296875001,0.6461636140976295,2.1005859375,-0.2685546875,0.3447265625,29.80058823529412,301.58510833130543
-0.21867822265625,0.1732958984375,0.3867724609375,0.4769114907600851,2.10595703125,1.328125,-0.68310546875,29.753529411764703,301.58510833130543
-0.30559228515625,0.1850146484375,0.2627490234375,0.4434570037792057,2.19873046875,3.26171875,-1.359375,30.50647058823529,301.58510833130543
-0.39494775390625,0.2348193359375,0.1484912109375,0.4828804081461635,2.5927734375,5.833984375,-1.5302734375,30.553529411764707,301.58510833130543
-0.43791650390625,0.3109912109375,-0.0067822265624999,0.5371521165098304,3.57666015625,9.5205078125,-1.69482421875,30.553529411764707,301.75965469254334
-0.32365869140625,0.2860888671875,-0.1561962890624999,0.459346349902042,4.265625,12.728515625,-2.72314453125,30.553529411764707,301.75965469254334
-0.28313134765625,0.2743701171875,-0.2997509765624999,0.4952706019756262,5.052734375,15.99951171875,-4.8125,30.50647058823529,301.75965469254334
0.10798193359375,0.1596240234375,-0.4730908203124999,0.510837401826623,6.0908203125,15.99951171875,-6.4091796875,30.553529411764707,301.75965469254334
0.24128271484375,-0.0278759765625,-0.7279736328124999,0.7674242820121813,5.3857421875,15.24462890625,-6.3310546875,30.60058823529412,301.75965469254334
0.59821630859375,-0.1587353515625,-1.0341259765625,1.2051872050036654,3.2900390625,8.611328125,-4.86669921875,31.21235294117648,301.75965469254334
1.17780615234375,-0.1177197265625,-1.0780712890625,1.601038091621064,0.2431640625,0.41455078125,-2.533203125,31.21235294117648,301.75965469254334
1.32148291015625,-0.225751953125,-0.7848583984374999,2.0132814972556647,-3.86376953125,-10.9111328125,0.69580078125,30.50647058823529,301.75965469254334
1.46515966796875,-0.3337841796874999,-0.4916455078124999,2.11547902716838,-7.16357421875,16.0,4.92138671875,30.553529411764707,301.5231842362969
1.60883642578125,-0.4418164062499999,-0.1984326171874999,1.981620989810481,-8.3779296875,16.0,7.576171875,31.21235294117648,301.5231842362969
1.75251318359375,-0.5498486328125,0.0947802734375,1.839189842813559,-6.63818359375,16.0,7.630859375,30.50647058823529,301.5231842362969
1.61335302734375,-0.4971142578125,0.3418505859375,1.722466951574261,-3.2109375,16.0,4.37109375,30.50647058823529,301.5231842362969
1.34138037109375,-0.4526806640625,0.4863818359375,1.496926308774619,-0.7294921875,16.0,0.38525390625,30.50647058823529,301.5231842362969
1.06208349609375,-0.3105908203125,0.6231005859375001,1.2699379317638992,0.11474609375,16.0,-1.67822265625,29.753529411764703,301.5231842362969
0.79352880859375,-0.2080517578125,0.7158740234375001,1.088783321616235,-0.79052734375,16.0,-2.55908203125,30.50647058823529,301.5231842362969
0.78522802734375,-0.0981884765625,0.8281787109375001,1.1454710861064634,-2.857421875,16.0,-2.58447265625,30.50647058823529,301.5231842362969
0.55427099609375,0.0087451171875,0.8408740234375001,1.0071553690853017,-5.27587890625,16.0,-5.67626953125,30.50647058823529,301.5231842362969
0.14264990234375,0.1581591796875,1.5742724609375005,1.5886148375312117,-6.63037109375,16.0,-4.3974609375,31.21235294117648,301.75022459760174
-0.26750634765625,0.2206591796875,1.9087451171875005,1.9399891860533325,-2.9453125,16.0,-2.17724609375,29.80058823529412,301.75022459760174
0.2647202148437499,-0.0127392578125,1.3535693359375005,1.3792711945178946,-1.0078125,-6.97509765625,-0.83251953125,29.753529411764703,301.75022459760174
0.4336655273437499,0.0307177734375,1.2607958984375005,1.3336475054256705,-0.515625,2.37548828125,0.59716796875,30.553529411764707,301.75022459760174
0.4082749023437499,0.3866748046875,1.2373583984375005,1.359140024665498,0.572265625,9.08740234375,1.5224609375,30.60058823529412,301.75022459760174
0.4273178710937499,0.4696826171875,1.0723193359375005,1.246222725707422,1.33203125,12.53515625,1.7119140625,30.50647058823529,301.75022459760174
0.4986069335937499,0.5082568359375,1.1167529296875005,1.324413451861078,1.99462890625,11.36376953125,1.42529296875,29.753529411764703,301.75022459760174
0.4400131835937499,0.5282763671875,0.9976123046875,1.21157658954316,2.1943359375,6.45458984375,1.439453125,30.50647058823529,301.75022459760174
0.4810288085937499,0.5282763671875,0.8589404296875001,1.1172480908812028,1.41796875,-1.80078125,1.5927734375,29.753529411764703,301.27652904139825
0.66218115234375,0.5204638671875,0.8716357421875001,1.2120707003412872,0.90625,-9.5234375,1.07470703125,30.50647058823529,301.27652904139825
0.96198583984375,0.4799365234375,0.8062060546875001,1.3437723115185636,1.05078125,16.0,-1.3701171875,30.60058823529412,301.27652904139825
1.32575537109375,0.3222216796875,1.0322802734375005,1.7108643072356031,1.0361328125,16.0,-5.09033203125,30.50647058823529,301.27652904139825
1.59772802734375,0.1527880859375,1.1714404296875005,1.9870459805627625,0.0556640625,16.0,-8.97412109375,30.50647058823529,301.27652904139825
1.70661474609375,-0.0381298828125,1.3511279296875005,2.177047188723653,-0.59912109375,16.0,-11.6826171875,30.553529411764707,301.27652904139825
1.06013037109375,0.2328662109375,2.0508349609375003,2.320350644388748,2.314453125,16.0,-9.2607421875,30.64764705882353,301.27652904139825
0.98884130859375,-0.3291455078125,2.0239794921875003,2.27654055173417,4.43798828125,-12.66943359375,-9.01171875,29.753529411764703,301.27652904139825
1.87458349609375,-0.8530712890625,1.6650927734375005,2.648457636475164,2.7509765625,-6.57421875,-9.82666015625,30.412352941176472,301.27652904139825
2.06940771484375,-0.9297314453125,1.5767138671875005,2.762765909308833,2.6962890625,-0.55517578125,-4.87109375,31.21235294117648,301.4824163479637
1.96784521484375,-0.9058056640625,1.5249560546875005,2.6492243505145456,4.38623046875,4.0654296875,3.1142578125,30.60058823529412,301.4824163479637
2.27741552734375,-1.1523876953125,1.0957568359375005,2.7776432326700684,1.24365234375,3.66748046875,9.7255859375,31.21235294117648,301.4824163479637
2.89704443359375,-0.9072705078125,1.1514208984375005,3.246810174605455,-3.9931640625,-1.23095703125,6.6865234375,29.80058823529412,301.4824163479637
4.31550146484375,-0.5767041015625,1.5020068359375005,4.6056666237397765,-5.23583984375,-10.8828125,-3.27197265625,30.50647058823529,301.4824163479637
4.87751318359375,-0.1562939453125,1.6714404296875005,5.158321021753698,-2.07666015625,16.0,-7.345703125,30.553529411764707,301.4824163479637
4.70417333984375,0.3866748046875,1.6563037109375005,5.002210131406133,6.0576171875,-15.9736328125,-3.396484375,30.60058823529412,301.4824163479637
4.46735693359375,0.2963427734375,1.0591357421875005,4.600746192942602,12.09326171875,-11.1396484375,4.62060546875,30.60058823529412,301.4824163479637
3.88972021484375,-0.2876416015625,0.5122607421875001,3.933836817751855,8.2783203125,-5.77001953125,12.03564453125,30.553529411764707,301.3320810947217
0.2788803710937499,-0.5581494140625,0.7534716796875001,0.9782763422933228,4.6640625,15.99951171875,11.693359375,30.553529411764707,301.3320810947217
0.6581121419270832,-0.2534619140624999,0.7300341796875001,2.2441512568745505,7.10986328125,15.99951171875,4.8896484375,29.753529411764703,301.3320810947217
1.0373439127604165,0.0512255859375,0.7065966796875001,1.4643518819224768,3.484375,15.7998046875,-0.47216796875,30.553529411764707,301.3320810947217
1.41657568359375,0.3559130859375,0.6831591796875001,1.612472404998595,1.353515625,9.98095703125,-6.39404296875,30.553529411764707,301.3320810947217
1.45270849609375,0.4213427734375,0.6260302734375001,1.6370111821888085,0.38818359375,2.3681640625,-7.5966796875,30.553529411764707,301.3320810947217
1.11188818359375,0.3197802734375,0.5781787109375001,1.2933852395464085,-0.1318359375,-5.0791015625,-6.197265625,31.21235294117648,301.3320810947217
0.90290380859375,0.3051318359375,0.6714404296875001,1.1658357412151266,1.59423828125,-12.05322265625,-4.06201171875,30.60058823529412,301.3320810947217
0.4336655273437499,0.1522998046875,0.5767138671875001,0.7374685788022055,3.787109375,16.0,-1.01220703125,30.553529411764707,301.3320810947217
0.13727880859375,-0.0102978515625,0.4287646484375,0.4503228184152517,3.84033203125,16.0,2.56689453125,30.60058823529412,301.3226581737548
0.2637436523437499,-0.0884228515625,0.5181201171875001,0.5880712292439187,2.40380859375,16.0,6.4736328125,30.553529411764707,301.3226581737548
0.57429052734375,0.0014208984375,0.6904833984375001,0.8980974068924437,1.49267578125,16.0,8.90380859375,30.50647058823529,301.3226581737548
1.05964208984375,0.1967333984375,0.9185107421875,1.4160534496066983,1.9990234375,16.0,8.91455078125,30.64764705882353,301.3226581737548
1.52448583984375,0.2074755859375,0.8750537109375001,1.7699780201092052,2.88623046875,16.0,3.34033203125,30.553529411764707,301.3226581737548
1.54108740234375,0.3017138671875,0.9844287109375,1.8533972931441087,0.5966796875,16.0,-1.96435546875,31.21235294117648,301.3226581737548
1.28181005859375,0.3432177734375,1.1045458984375005,1.7265158870020896,-0.2783203125,-13.01904296875,-4.3876953125,30.60058823529412,301.3226581737548
1.18415380859375,0.2606982421875,1.1133349609375005,1.646116202196079,-1.34521484375,0.38330078125,-6.05224609375,30.50647058823529,301.3226581737548
0.60700537109375,0.0492724609375,1.0532763671875005,1.216665279203445,-2.05712890625,13.310546875,-7.19921875,30.60058823529412,301.138687539504
0.11335302734375,-0.0806103515625,1.2568896484375005,1.2645625828468774,-1.712890625,15.99951171875,-6.30712890625,30.50647058823529,301.138687539504
-0.17522119140625,-0.1611767578125,1.1763232421875005,1.2001736471391495,-0.69677734375,15.99951171875,-4.029296875,30.553529411764707,301.138687539504
-0.38322900390625,-0.2090283203125,1.0068896484375005,1.0974443367470783,0.248046875,15.99951171875,-1.35498046875,30.553529411764707,301.138687539504
-0.63811181640625,-0.2778759765625,0.7783740234375001,1.044158928971126,0.5556640625,15.99951171875,1.6357421875,29.80058823529412,301.138687539504
-0.70549462890625,-0.3076611328125,0.5884326171875001,0.9688297007364964,0.52978515625,15.99951171875,3.2802734375,30.50647058823529,301.138687539504
-0.48332666015625,-0.2261181640625,0.4424365234375,0.6931696486490536,0.67578125,15.99951171875,3.15673828125,29.84764705882353,301.138687539504
-0.05266259765625,-0.1387158203125,0.3091357421875,0.3428998907767256,0.52099609375,15.99951171875,2.61279296875,30.50647058823529,301.138687539504
0.20026708984375,-0.1108837890625,0.2412646484375,0.3325819486036669,-0.3525390625,15.3388671875,2.4990234375,30.553529411764707,300.9554870348338
0.3067124023437499,-0.0776806640625,0.3242724609375,0.4530556392355445,-0.43505859375,11.22900390625,2.775390625,30.50647058823529,300.9554870348338
0.4273178710937499,-0.0591259765625,0.4199755859375,0.6020597452446979,-0.1044921875,7.783203125,2.80517578125,30.64764705882353,300.9554870348338
0.66511083984375,-0.0400830078125,0.5728076171875001,0.8786851786054986,0.65966796875,4.197265625,2.04931640625,30.553529411764707,300.9554870348338
0.91755224609375,-0.0181103515625,0.6343310546875001,1.1156191088746907,1.60205078125,1.77783203125,1.20751953125,30.553529411764707,300.9554870348338
1.13874365234375,-0.0059033203125,0.5845263671875001,1.2800168080464067,2.009765625,2.86279296875,0.6689453125,30.50647058823529,300.9554870348338
1.30622412109375,-0.1016064453125,0.6265185546875001,1.4522640337155963,2.4267578125,6.96630859375,1.30078125,30.50647058823529,300.9554870348338
1.66169287109375,0.0287646484375,0.5923388671875001,1.7643457530837017,3.50390625,14.19287109375,2.4638671875,30.412352941176472,300.9554870348338
1.94538427734375,-0.1523876953125,0.1709521484375,1.958817662079428,2.90234375,15.99951171875,3.134765625,30.553529411764707,300.9554870348338
2.29108740234375,-0.3506298828125,0.0796435546875,2.3191304180021013,0.97216796875,15.99951171875,2.677734375,30.50647058823529,300.71827235206194
2.72272802734375,-0.2925244140625,0.3457568359375,2.760138806890572,0.71533203125,15.99951171875,1.28759765625,30.60058823529412,300.71827235206194
3.39167333984375,-0.2495556640625,0.4116748046875,3.4256681419085275,0.65673828125,15.99951171875,1.15771484375,30.553529411764707,300.71827235206194
3.47223974609375,-0.2500439453125,0.1675341796875,3.485260181149205,-1.0498046875,15.99951171875,1.7841796875,29.753529411764703,300.71827235206194
3.43952490234375,-0.1675244140625,-0.0136181640624999,3.4436291085920097,-2.18603515625,15.99951171875,2.10107421875,30.64764705882353,300.71827235206194
3.00837255859375,-0.0459423828125,-0.0438916015624999,3.009043473684971,-0.900390625,15.99951171875,2.34716796875,30.50647058823529,300.71827235206194
2.36286474609375,-0.0185986328125,-0.2426220703124999,2.375361274938593,1.15185546875,15.99951171875,2.70654296875,30.553529411764707,300.71827235206194
2.19001318359375,-0.2798291015625,-0.5292431640624999,2.270365696777194,0.47509765625,7.859375,1.21484375,30.553529411764707,300.71827235206194
1.10505224609375,-0.2602978515625,-0.6889111328124999,1.3279661091450703,-1.75732421875,-10.55419921875,0.29931640625,30.50647058823529,301.159834314382
0.4990952148437499,0.0146044921875,-0.0897900390624999,0.5073180223359199,-1.73046875,16.0,0.5517578125,30.50647058823529,301.159834314382
-0.13420556640625,0.2753466796875,0.2417529296875,0.3902196907920491,-0.42626953125,16.0,0.60205078125,30.60058823529412,301.159834314382
-0.37590478515625,0.1928271484375,0.6738818359375001,0.7953637189892432,-1.251953125,16.0,-1.12158203125,30.50647058823529,301.159834314382
-0.33440087890625,0.0756396484375,0.8677294921875001,0.9330057748165324,-3.15576171875,16.0,-3.44873046875,30.553529411764707,301.159834314382
-1.01115869140625,0.1894091796875,1.3403857421875005,1.6896602245468844,-2.02734375,16.0,-5.23291015625,30.50647058823529,301.159834314382
-0.76518701171875,0.210771484375,1.3409960937500005,2.551482317672466,1.396484375,-5.3623046875,-1.38037109375,30.459411764705884,301.159834314382
-0.51921533203125,0.2321337890624999,1.3416064453125005,2.161744333759453,7.25146484375,15.87451171875,0.71875,30.60058823529412,301.159834314382
-0.27324365234375,0.25349609375,1.3422167968750005,1.6864094892350023,9.138671875,15.99951171875,3.6318359375,31.21235294117648,300.8912810326351
-0.02727197265625,0.2748583984375,1.3428271484375005,1.3709396960716322,8.61669921875,15.99951171875,4.15185546875,30.553529411764707,300.8912810326351
-0.13762353515625,0.4228076171875,0.8521044921875001,0.96113921165812,7.1767578125,15.99951171875,1.53759765625,31.21235294117648,300.8912810326351
0.92389990234375,0.1054248046875,0.4580615234375,1.036593352403956,4.14453125,15.99951171875,-6.3759765625,30.553529411764707,300.8912810326351
1.32673193359375,0.2187060546875,0.4951708984375,1.432914575483753,2.53759765625,14.02734375,-12.1494140625,30.553529411764707,300.8912810326351
1.06745458984375,0.0185107421875,0.4668505859375,1.1652259088026695,2.61279296875,4.306640625,-13.25244140625,30.50647058823529,300.8912810326351
1.19245458984375,-0.1411572265625,0.5303271484375001,1.3126767293664092,2.22509765625,-7.8583984375,-12.7080078125,30.50647058823529,300.8912810326351
1.52057958984375,-0.3350048828125,0.7759326171875001,1.7396729540270053,0.1513671875,16.0,-11.203125,30.553529411764707,300.8912810326351
1.33845068359375,-0.2856884765625,0.9683154296875,1.676515108617893,-1.45703125,16.0,-6.47119140625,30.50647058823529,300.8912810326351
1.78718115234375,-0.3188916015625,1.6821826171875005,2.474963975981796,-0.509765625,16.0,-2.20263671875,30.553529411764707,300.9131956639776
2.03425146484375,-0.3935986328125,1.7612841796875005,2.719415537866231,0.7861328125,16.0,2.18017578125,30.50647058823529,300.9131956639776
2.17145849609375,-0.4766064453125,1.6118701171875005,2.745999085697808,0.2412109375,16.0,6.18310546875,29.753529411764703,300.9131956639776
2.08259130859375,-0.6689892578125,1.3789599609375005,2.585781073402677,-1.126953125,16.0,5.4306640625,31.21235294117648,300.9131956639776
1.87604833984375,-0.7974072265625,1.8140185546875005,2.7287504420806084,0.13330078125,-14.0712890625,1.078125,31.16529411764706,300.9131956639776
0.89704443359375,0.0048388671875,2.8945849609375003,3.0304016609292472,3.68408203125,6.64990234375,1.67138671875,29.80058823529412,300.9131956639776
-0.04192041015625,0.2856005859375,2.7866748046875003,2.80158553011605,1.3837890625,15.99951171875,1.791015625,30.60058823529412,300.9131956639776
-0.65129541015625,0.0072802734375,1.9761279296875005,2.0807018787329743,-1.607421875,15.99951171875,16.0,31.16529411764706,300.9131956639776
6.25495458984375,3.6239794921875,2.7373583984375003,7.729865152918212,2.6611328125,-12.88330078125,0.38427734375,29.753529411764703,300.70885475625414
1.59821630859375,-0.1011181640625,1.1475146484375005,1.9701040887569985,1.23583984375,-8.294921875,0.2109375,30.50647058823529,300.70885475625414
0.82477880859375,0.0102099609375,0.3296435546875,0.8882731559349757,0.7626953125,-6.39111328125,0.13330078125,30.553529411764707,300.70885475625414
0.75983740234375,-0.0747509765625,0.6436083984375001,0.9985851776572836,0.93505859375,-5.5009765625,0.2880859375,30.50647058823529,300.70885475625414
0.86091162109375,0.1034716796875,0.6611865234375001,1.0904324035019268,0.61767578125,-4.5595703125,0.44287109375,31.21235294117648,300.70885475625414
0.87311865234375,0.0297412109375,0.3369677734375,0.9363589061006584,0.5400390625,-2.27685546875,0.56396484375,30.60058823529412,300.70885475625414
0.91022802734375,0.0063037109375,0.5742724609375001,1.0762637492384897,0.71533203125,-2.162109375,0.23828125,30.553529411764707,300.70885475625414
0.91364599609375,-0.0264111328125,0.6074755859375001,1.097484916354065,0.8115234375,-2.982421875,0.01318359375,31.16529411764706,300.70885475625414
0.92438818359375,-0.1050244140625,0.5962451171875001,1.1050031137000744,0.82666015625,-2.37255859375,0.03076171875,30.553529411764707,300.70885475625414
0.82380224609375,0.0141162109375,0.4614794921875,0.9443583693651326,0.85400390625,-2.0810546875,0.1376953125,30.50647058823529,300.9672131747887
0.91755224609375,0.0302294921875,0.5850146484375001,1.088603732032943,0.7890625,-2.3369140625,0.28515625,30.412352941176472,300.9672131747887
0.92048193359375,0.0067919921875,0.5840380859375001,1.0901530200187048,0.71728515625,-2.7939453125,0.31005859375,31.21235294117648,300.9672131747887
0.94050146484375,-0.0068798828125,0.6240771484375001,1.1287438262788572,0.7275390625,-3.45703125,0.28759765625,30.50647058823529,300.9672131747887
0.92682958984375,-0.0015087890625,0.5625537109375001,1.0841964963713548,0.654296875,-3.94287109375,0.25,29.89470588235294,300.9672131747887
0.93317724609375,0.0043505859375,0.5176318359375001,1.067137019225339,0.68408203125,-3.6806640625,0.2421875,31.21235294117648,300.9672131747887
0.97175146484375,0.0009326171875,0.5137255859375001,1.0991886811860918,0.73388671875,-3.0771484375,0.232421875,31.16529411764706,300.9672131747887
0.95759130859375,-0.0039501953125,0.5356982421875001,1.0972553599869426,0.7509765625,-2.68115234375,0.1728515625,30.553529411764707,300.9672131747887
0.97126318359375,0.0053271484375,0.4712451171875,1.0795612584694776,0.7578125,-2.3642578125,0.18310546875,29.753529411764703,300.74249760828013
0.99372412109375,-0.0098095703125,0.4683154296875,1.0985914610066152,0.79736328125,-1.77001953125,0.13525390625,30.50647058823529,300.74249760828013
0.97761083984375,0.0009326171875,0.4790576171875,1.0886781087815562,0.84423828125,-1.1591796875,0.05322265625,30.64764705882353,300.74249760828013
0.97712255859375,-0.0049267578125,0.4697802734375,1.0841984471333428,0.98681640625,-0.8740234375,0.05126953125,29.80058823529412,300.74249760828013
0.98102880859375,-0.0024853515625,0.4863818359375,1.0949844704803786,0.87890625,-0.6181640625,0.0361328125,30.553529411764707,300.74249760828013
0.96882177734375,-0.0010205078125,0.4849169921875,1.0834025876856073,0.89404296875,-0.306640625,0.03466796875,30.50647058823529,300.74249760828013
0.97370458984375,-0.0044384765625,0.4946826171875,1.092168128130672,0.89501953125,-0.2705078125,0.0224609375,30.50647058823529,300.74249760828013
0.96735693359375,-0.0122509765625,0.5088427734375001,1.0930921697085771,0.9228515625,-0.3330078125,-0.091796875,30.50647058823529,300.74249760828013
0.96833349609375,0.0268115234375,0.4775927734375,1.0800386449965147,0.884765625,-0.12109375,0.10546875,30.50647058823529,300.7832465800101
0.97858740234375,-0.0195751953125,0.5029833984375001,1.1004584460129097,0.88623046875,0.11083984375,-0.07666015625,30.60058823529412,300.7832465800101
0.96638037109375,-0.0015087890625,0.5239794921875001,1.0992942310013272,0.95703125,-0.10546875,-0.07861328125,30.60058823529412,300.7832465800101
0.97028662109375,0.0004443359375,0.5029833984375001,1.0929083326664175,0.8955078125,-0.09765625,0.0712890625,30.50647058823529,300.7832465800101
0.95222021484375,0.0087451171875,0.4951708984375,1.0733098496199045,0.86572265625,-0.08935546875,0.13134765625,30.553529411764707,300.7832465800101
0.98151708984375,0.0048388671875,0.4981005859375,1.100683154228447,0.83447265625,-0.16259765625,0.1689453125,30.50647058823529,300.7832465800101
0.96345068359375,0.0028857421875,0.4839404296875,1.0781669104138556,0.79638671875,-0.1904296875,0.2080078125,30.60058823529412,300.7832465800101
0.96100927734375,0.0009326171875,0.5064013671875001,1.086269784908401,0.78173828125,-0.22705078125,0.287109375,30.553529411764707,300.7832465800101
0.98493505859375,-0.0019970703125,0.4883349609375,1.0993507593169418,0.77001953125,-0.2080078125,0.3720703125,30.553529411764707,300.7190420219389
0.98102880859375,-0.0039501953125,0.5020068359375001,1.1020181444340469,0.80029296875,-0.14990234375,0.20361328125,29.753529411764703,300.7190420219389
0.97028662109375,0.0048388671875,0.5015185546875001,1.0922455778830251,0.8125,-0.17822265625,0.21142578125,30.64764705882353,300.7190420219389
0.98444677734375,-0.0015087890625,0.4883349609375,1.0989125388040486,0.79345703125,-0.19384765625,0.2431640625,30.553529411764707,300.7190420219389
0.97272802734375,-0.0019970703125,0.5044482421875001,1.0957517202888412,0.78076171875,-0.27392578125,0.26171875,30.553529411764707,300.7190420219389
0.98005224609375,-0.0059033203125,0.5073779296875001,1.1036166081561525,0.7587890625,-0.35595703125,0.25244140625,30.553529411764707,300.7190420219389
0.98298193359375,-0.0029736328125,0.4883349609375,1.0976034613363976,0.76708984375,-0.38720703125,0.12939453125,30.553529411764707,300.7190420219389
0.97663427734375,-0.0073681640625,0.5005419921875001,1.097456644914701,0.775390625,-0.38330078125,0.22216796875,30.60058823529412,300.7190420219389
0.98981787109375,-0.0068798828125,0.4951708984375,1.1067885838693303,0.80078125,-0.283203125,0.158203125,30.553529411764707,300.7190420219389
0.98786474609375,-0.0102978515625,0.4907763671875,1.1031066335180078,0.83740234375,-0.19287109375,0.08251953125,30.50647058823529,300.7840161758195
0.98249365234375,-0.0117626953125,0.4927294921875,1.0991881050885366,0.861328125,-0.1416015625,0.03662109375,30.553529411764707,300.7840161758195
0.97516943359375,0.0038623046875,0.4775927734375,1.085847686764943,0.99853515625,-0.0537109375,0.01416015625,30.459411764705884,300.7840161758195
0.97712255859375,-0.0005322265624999,0.5005419921875001,1.097866596504758,0.84375,-0.07568359375,0.0390625,31.21235294117648,300.7840161758195
0.96931005859375,-0.0049267578125,0.4981005859375,1.0898121197458042,0.84130859375,-0.20654296875,0.0615234375,30.50647058823529,300.7840161758195
0.97907568359375,-0.0176220703125,0.4961474609375,1.0977531756097978,0.8291015625,-0.34912109375,0.05859375,30.50647058823529,300.7840161758195
0.98395849609375,-0.0102978515625,0.5039599609375001,1.1055568777815117,0.83349609375,-0.46240234375,0.056640625,29.753529411764703,300.7840161758195
0.99323583984375,0.0033740234375,0.5034716796875001,1.1135585075924967,0.81005859375,-0.61328125,0.0791015625,30.553529411764707,300.7840161758195
0.98444677734375,-0.0181103515625,0.4932177734375,1.101238945139,0.8388671875,-0.81103515625,0.03125,30.553529411764707,300.8043919007551
0.98639990234375,-0.0063916015625,0.5117724609375001,1.1112770454249103,0.830078125,-1.169921875,0.056640625,29.84764705882353,300.8043919007551
0.98591162109375,-0.0098095703125,0.5103076171875001,1.1101944948688072,0.8193359375,-1.51171875,0.0654296875,30.50647058823529,300.8043919007551
0.98835302734375,0.0028857421875,0.5088427734375001,1.11165237473191,0.80224609375,-2.1962890625,0.08447265625,29.84764705882353,300.8043919007551
1.00104833984375,-0.0073681640625,0.5332568359375001,1.1342464113320587,0.755859375,-3.00390625,0.00537109375,30.553529411764707,300.8043919007551
1.00690771484375,-0.0034619140625,0.4717333984375,1.1119386360147,0.69140625,-3.85107421875,0.3388671875,30.50647058823529,300.8043919007551
1.01716162109375,-0.0176220703125,0.4751513671875,1.1228076961476148,0.673828125,-3.94091796875,0.42919921875,29.753529411764703,300.8043919007551
1.04157568359375,-0.0254345703125,0.4614794921875,1.1395131169628554,0.8603515625,-4.17919921875,0.23046875,30.50647058823529,300.8043919007551
0.87263037109375,-0.0898876953125,0.5747607421875001,1.0487675972701171,0.83056640625,-4.75927734375,-0.09521484375,30.553529411764707,300.8043919007551
0.97370458984375,0.0009326171875,0.4326708984375,1.0655072052371666,0.7177734375,-4.359375,-0.11962890625,30.50647058823529,300.7190420219389
1.08063818359375,0.0058154296875,0.3799365234375,1.14549747485755,0.66259765625,-3.74267578125,0.31787109375,29.753529411764703,300.7190420219389
1.03669287109375,-0.0449658203125,0.3696826171875,1.1015531178402511,0.7080078125,-3.060546875,0.10302734375,30.60058823529412,300.7190420219389
1.04157568359375,-0.0268994140625,0.3481982421875,1.0985652001557114,0.828125,-2.3056640625,0.0830078125,30.50647058823529,300.7190420219389
1.04011083984375,-0.0283642578125,0.3442919921875,1.0959799570093252,0.82275390625,-1.58984375,0.00341796875,30.553529411764707,300.7190420219389
0.96100927734375,0.0219287109375,0.3467333984375,1.0218824536590083,0.7734375,-1.1845703125,0.193359375,29.753529411764703,300.7190420219389
1.02546240234375,-0.0249462890625,0.3418505859375,1.081229521916793,0.853515625,-0.689453125,0.03857421875,30.50647058823529,300.7190420219389
1.04889990234375,-0.0229931640625,0.3623583984375,1.1099654497544162,0.92626953125,-0.423828125,-0.10400390625,30.50647058823529,300.7190420219389
1.03718115234375,-0.0176220703125,0.3882373046875,1.1076025843641857,0.9326171875,-0.4462890625,-0.14306640625,30.50647058823529,300.6110089267268
1.01813818359375,-0.0073681640625,0.3779833984375,1.086062199060254,0.92431640625,-0.603515625,-0.12353515625,30.50647058823529,300.6110089267268
1.02399755859375,-0.0137158203125,0.3701708984375,1.088937839264864,0.93212890625,-0.77099609375,-0.15576171875,30.50647058823529,300.6110089267268
1.04108740234375,-0.0098095703125,0.3682177734375,1.1043294506911618,0.9521484375,-0.8955078125,-0.22216796875,30.553529411764707,300.6110089267268
1.03034521484375,0.0014208984375,0.3447802734375,1.0865020559830618,0.92578125,-0.84814453125,-0.12158203125,29.80058823529412,300.6110089267268
1.03132177734375,-0.0063916015625,0.3804248046875,1.0992672527713756,0.9423828125,-0.95849609375,-0.1005859375,30.553529411764707,300.6110089267268
1.02839208984375,-0.0005322265624999,0.3711474609375,1.0933165193477423,0.92138671875,-0.87939453125,-0.072265625,30.553529411764707,300.6110089267268
1.02936865234375,-0.0029736328125,0.3589404296875,1.0901591154434012,0.90966796875,-1.02001953125,0.01513671875,30.553529411764707,300.6110089267268
1.03571630859375,0.0053271484375,0.3643115234375,1.0979342131962604,0.859375,-1.25927734375,0.04443359375,30.553529411764707,300.7832465800101
1.03132177734375,-0.0107861328125,0.3403857421875,1.08609548501458,0.87353515625,-1.32470703125,0.06494140625,30.553529411764707,300.7832465800101
1.04841162109375,-0.0073681640625,0.3384326171875,1.1017067910576106,0.86376953125,-1.16943359375,0.0576171875,30.553529411764707,300.7832465800101
1.04304052734375,-0.0146923828125,0.3550341796875,1.101906836597638,0.75244140625,-1.20361328125,0.01708984375,30.60058823529412,300.7832465800101
1.05378271484375,-0.0190869140625,0.3418505859375,1.1080090899887534,0.88134765625,-1.27197265625,0.0244140625,30.64764705882353,300.7832465800101
1.06843115234375,-0.0229931640625,0.3735888671875,1.1320964864262402,0.7509765625,-1.50927734375,-0.08447265625,30.50647058823529,300.7832465800101
1.05915380859375,-0.0078564453125,0.3223193359375,1.1071396787717371,0.890625,-1.37939453125,-0.1044921875,31.21235294117648,300.7832465800101
1.06452490234375,-0.0161572265625,0.3408740234375,1.1178861406845653,0.89306640625,-1.5068359375,-0.1513671875,30.60058823529412,300.7832465800101
1.02204443359375,-0.0171337890625,0.3071826171875,1.0673469685485455,0.9326171875,-1.57763671875,-0.236328125,30.50647058823529,300.7832465800101
0.98395849609375,0.1230029296875,0.3589404296875,1.054581563849392,0.923828125,-1.94873046875,-0.13330078125,30.553529411764707,300.8905121498358
1.02302099609375,-0.0317822265625,0.1992724609375,1.042732747189809,0.9541015625,-2.38037109375,-0.361328125,30.50647058823529,300.8905121498358
1.11823583984375,0.0399951171875,0.1929248046875,1.1354606920424897,0.95361328125,-2.59375,-0.36376953125,30.553529411764707,300.8905121498358
0.96686865234375,-0.1035595703125,0.3340380859375,1.0281736323914932,0.91357421875,-2.93310546875,-0.2236328125,30.50647058823529,300.8905121498358
1.06306005859375,0.0077685546875,0.1870654296875,1.0794213790746636,0.904296875,-3.0908203125,-0.2783203125,30.553529411764707,300.8905121498358
1.20710302734375,-0.0073681640625,0.2373583984375,1.230240227668122,0.89306640625,-2.8837890625,-0.3203125,30.50647058823529,300.8905121498358
1.09772802734375,0.0019091796875,0.1997607421875,1.115757509991477,0.91015625,-1.98486328125,-0.3642578125,30.553529411764707,300.8905121498358
1.08845068359375,-0.0044384765625,0.2202685546875,1.110523672360935,0.96923828125,-0.84716796875,-0.32763671875,30.60058823529412,300.8905121498358
1.07087255859375,0.0185107421875,0.2256396484375,1.0945427973690454,0.95263671875,0.02783203125,-0.2431640625,30.553529411764707,300.9774015885719
1.03766943359375,0.0111865234375,0.2568896484375,1.069053451982516,0.935546875,0.45703125,-0.240234375,30.553529411764707,300.9774015885719
1.06794287109375,0.0219287109375,0.2739794921875,1.102745485786572,0.927734375,0.62109375,-0.0458984375,30.553529411764707,300.9774015885719
1.06159521484375,0.0126513671875,0.2730029296875,1.0962094037586152,0.9072265625,0.24951171875,-0.123046875,30.50647058823529,300.9774015885719
1.06647802734375,0.0204638671875,0.2710498046875,1.1005735546924684,0.900390625,0.2177734375,-0.12158203125,30.50647058823529,300.9774015885719
1.07429052734375,0.0111865234375,0.2896044921875,1.1126976396767945,0.9111328125,0.0771484375,-0.0517578125,30.50647058823529,300.9774015885719
1.06745458984375,0.0009326171875,0.2842333984375,1.104648720607885,0.91650390625,-0.11572265625,-0.00439453125,30.60058823529412,300.9774015885719
1.04304052734375,0.0214404296875,0.2656787109375,1.076558596246449,0.912109375,-0.171875,0.044921875,30.459411764705884,300.9774015885719
1.01276708984375,-0.0107861328125,0.2769091796875,1.0499962917681336,0.89208984375,-0.27734375,-0.03125,30.50647058823529,300.9774015885719
1.07819677734375,0.0077685546875,0.2627490234375,1.1097773156961448,0.88037109375,-0.17919921875,-0.03076171875,30.553529411764707,300.66579563265856
1.08454443359375,0.0106982421875,0.2637255859375,1.1161999218344212,0.8984375,-0.00634765625,-0.0380859375,30.50647058823529,300.66579563265856
1.06159521484375,0.0116748046875,0.2466357421875,1.0899311402873202,0.8984375,0.162109375,-0.07421875,31.21235294117648,300.66579563265856
0.95759130859375,0.0077685546875,0.2651904296875,0.9936636396356988,0.92626953125,0.4072265625,-0.08935546875,30.60058823529412,300.66579563265856
1.09138037109375,0.0136279296875,0.2612841796875,1.1223039951061693,0.9375,0.53564453125,-0.109375,29.753529411764703,300.66579563265856
1.07184912109375,0.0077685546875,0.2808154296875,1.108051530562524,0.93701171875,0.56103515625,-0.0927734375,30.50647058823529,300.66579563265856
1.04548193359375,0.0023974609375,0.2759326171875,1.0812848979421734,0.9072265625,0.51806640625,-0.05908203125,30.64764705882353,300.66579563265856
1.05671240234375,0.0194873046875,0.2730029296875,1.0915820884977183,0.892578125,0.4111328125,-0.001953125,31.16529411764706,300.66579563265856
1.06013037109375,0.0229052734375,0.2686083984375,1.093869977180916,0.90185546875,0.3369140625,0.0166015625,31.21235294117648,300.8709053039413
1.04645849609375,0.0111865234375,0.2754443359375,1.082159925590234,0.875,0.36572265625,0.052734375,30.553529411764707,300.8709053039413
1.05964208984375,0.0175341796875,0.2720263671875,1.0941421984691806,0.8525390625,0.4111328125,0.1220703125,30.50647058823529,300.8709053039413
1.07624365234375,0.0058154296875,0.2764208984375,1.1111897819570065,0.8583984375,0.44775390625,0.1474609375,30.50647058823529,300.8709053039413
1.07966162109375,0.0102099609375,0.2900927734375,1.1180014653683554,0.8525390625,0.43994140625,0.1650390625,30.60058823529412,300.8709053039413
0.96003271484375,0.0175341796875,0.2852099609375,1.0016561200559526,0.8515625,0.4248046875,0.17822265625,31.21235294117648,300.8709053039413
1.06598974609375,0.0019091796875,0.2847216796875,1.1033604209994885,0.826171875,0.43359375,0.2314453125,29.84764705882353,300.8709053039413
1.06013037109375,0.0150927734375,0.2808154296875,1.096796016165259,0.8232421875,0.48291015625,0.2119140625,29.80058823529412,300.8709053039413
1.05671240234375,-0.0005322265624999,0.2930224609375,1.0965872273312698,0.8193359375,0.4638671875,0.2001953125,30.50647058823529,300.6869400427718
1.04304052734375,0.0033740234375,0.2954638671875,1.0840866305462298,0.8251953125,0.37841796875,0.19091796875,30.60058823529412,300.6869400427718
1.05817724609375,0.0077685546875,0.2852099609375,1.095967224149726,0.83056640625,0.31591796875,0.158203125,30.459411764705884,300.6869400427718
1.06696630859375,-0.0015087890625,0.2856982421875,1.104555505942384,0.84619140625,0.2783203125,0.244140625,29.80058823529412,300.6869400427718
1.04938818359375,0.0023974609375,0.2954638671875,1.0901927373169065,0.8642578125,0.1884765625,0.09130859375,30.60058823529412,300.6869400427718
1.07038427734375,0.0038623046875,0.2983935546875,1.111204811032261,0.86962890625,0.13037109375,0.0810546875,30.50647058823529,300.6869400427718
1.07575537109375,0.0048388671875,0.2900927734375,1.114193363053905,0.88427734375,0.08251953125,0.06494140625,30.50647058823529,300.6869400427718
1.07038427734375,-0.1079541015625,0.2944873046875,1.1153920216009154,0.8818359375,0.07080078125,0.05712890625,30.50647058823529,300.6869400427718
1.06013037109375,0.0087451171875,0.2988818359375,1.101491367484723,0.8583984375,0.0830078125,0.05029296875,30.50647058823529,300.6869400427718
1.06403662109375,0.0077685546875,0.2856982421875,1.1017521350374433,0.89111328125,0.07470703125,0.0341796875,30.64764705882353,300.7299993522914
1.05182958984375,0.0028857421875,0.2832568359375,1.0893063153604536,0.8759765625,0.078125,0.02490234375,30.553529411764707,300.7299993522914
1.05768896484375,-0.0015087890625,0.2900927734375,1.096750673579615,0.89404296875,0.08251953125,0.02783203125,30.60058823529412,300.7299993522914
1.07282568359375,0.0126513671875,0.2754443359375,1.1076933631064871,0.8623046875,0.1591796875,0.138671875,31.21235294117648,300.7299993522914
1.06110693359375,0.0072802734375,0.2817919921875,1.097910585504601,0.86669921875,0.2138671875,0.0830078125,31.21235294117648,300.7299993522914
1.06696630859375,-0.0005322265624999,0.2803271484375,1.1031775455883732,0.89404296875,0.265625,0.01171875,30.553529411764707,300.7299993522914
1.05622412109375,0.0097216796875,0.2959521484375,1.0969464796429145,0.8857421875,0.275390625,0.07373046875,30.50647058823529,300.7299993522914
1.06257177734375,0.0092333984375,0.2998583984375,1.1041100926844496,0.88427734375,0.26513671875,0.0009765625,31.21235294117648,300.7299993522914
1.05768896484375,0.0004443359375,0.2881396484375,1.0962347379956332,0.75146484375,0.310546875,0.11279296875,30.60058823529412,300.7299993522914
1.06013037109375,0.0087451171875,0.2979052734375,1.101226785331644,0.87939453125,0.365234375,0.0771484375,30.50647058823529,300.75191405493683
1.06501318359375,0.0048388671875,0.2983935546875,1.1060358083458215,0.875,0.3056640625,0.08251953125,30.50647058823529,300.75191405493683
1.06208349609375,0.0053271484375,0.3066943359375,1.1054913599306608,0.8876953125,0.2412109375,0.08251953125,30.60058823529412,300.75191405493683
1.06110693359375,0.0048388671875,0.2993701171875,1.1025397073218028,0.9970703125,0.2353515625,0.0849609375,30.553529411764707,300.75191405493683
1.06257177734375,0.0043505859375,0.2969287109375,1.1032879809843217,0.8798828125,0.22021484375,0.091796875,30.60058823529412,300.75191405493683
1.05768896484375,0.0048388671875,0.1787646484375,1.072700405760567,0.99755859375,0.18505859375,0.07861328125,30.553529411764707,300.75191405493683
1.05134130859375,0.0033740234375,0.3052294921875,1.0947579522848028,0.8857421875,0.16357421875,0.08251953125,30.60058823529412,300.75191405493683
1.05475927734375,-0.0024853515625,0.3115771484375,1.099819816853444,0.87158203125,0.16259765625,0.05615234375,30.60058823529412,300.75191405493683
1.06257177734375,0.0072802734375,0.1777880859375,1.0773673412026654,0.87646484375,0.17626953125,0.06982421875,29.89470588235294,300.8482210173169
1.05964208984375,0.0048388671875,0.3022998046875,1.1019300999238513,0.89111328125,0.19384765625,0.07177734375,30.553529411764707,300.8482210173169
1.05475927734375,-0.0005322265624999,0.3062060546875,1.0983075909485047,0.88232421875,0.21435546875,0.080078125,30.60058823529412,300.8482210173169
1.06452490234375,0.0038623046875,0.2964404296875,1.1050362498401485,0.8857421875,0.2958984375,0.091796875,30.553529411764707,300.8482210173169
1.06013037109375,0.0092333984375,0.2939990234375,1.1001804784417335,0.87109375,0.36279296875,0.1015625,30.50647058823529,300.8482210173169
1.06208349609375,0.0033740234375,0.3022998046875,1.104272569895214,0.875,0.4580078125,0.10205078125,30.553529411764707,300.8482210173169
1.05573583984375,0.0028857421875,0.2939990234375,1.095911454826878,0.876953125,0.52587890625,0.1142578125,31.21235294117648,300.8482210173169
1.04645849609375,0.0063037109375,0.2993701171875,1.0884565163033542,0.86328125,0.57421875,0.1201171875,30.60058823529412,300.8482210173169
1.05622412109375,0.0121630859375,0.4258349609375,1.1388997974345372,0.859375,0.65234375,0.11376953125,30.50647058823529,300.8482210173169
1.05768896484375,0.0019091796875,0.3193896484375,1.1048616831297715,0.87060546875,0.6904296875,0.10693359375,29.80058823529412,300.6877104129232
1.05671240234375,-0.0005322265624999,0.3242724609375,1.1053479151175325,0.75146484375,0.67333984375,0.1064453125,30.60058823529412,300.6877104129232
1.05817724609375,0.0009326171875,0.3179248046875,1.1049054870716122,0.89208984375,0.634765625,0.083984375,31.16529411764706,300.6877104129232
1.05280615234375,0.0092333984375,0.3164599609375,1.0993784411821623,0.865234375,0.5771484375,0.083984375,29.753529411764703,300.6877104129232
1.05475927734375,0.0058154296875,0.3213427734375,1.1026387125462558,0.869140625,0.4814453125,0.09765625,30.50647058823529,300.6877104129232
1.04694677734375,0.0004443359375,0.3145068359375,1.093166182186545,0.86279296875,0.3818359375,0.1015625,29.80058823529412,300.6877104129232
1.04694677734375,0.0009326171875,0.3228076171875,1.0955834893240923,0.8671875,0.30859375,0.09814453125,30.553529411764707,300.6877104129232
1.05134130859375,-0.0039501953125,0.3184130859375,1.0985085545842903,0.8671875,0.22509765625,0.08935546875,30.60058823529412,300.6877104129232
1.05817724609375,0.0072802734375,0.3281787109375,1.107922990484662,0.87744140625,0.17236328125,0.07373046875,30.50647058823529,300.8380331775879
1.05524755859375,0.0004443359375,0.3276904296875,1.1049563905699054,0.9990234375,0.24609375,0.0625,29.753529411764703,300.8380331775879
1.05329443359375,0.0033740234375,0.3232958984375,1.101798886285626,0.75146484375,0.08203125,0.07080078125,30.50647058823529,300.8380331775879
1.05524755859375,-0.0039501953125,0.3262255859375,1.1045298306887603,0.87255859375,0.0380859375,0.05615234375,29.753529411764703,300.8380331775879
1.05524755859375,0.0082568359375,0.3154833984375,1.101428781150848,0.876953125,0.04931640625,0.00244140625,30.60058823529412,300.8380331775879
1.06403662109375,0.0067919921875,0.3296435546875,1.1139501493933606,0.86376953125,0.06396484375,0.0869140625,30.50647058823529,300.8380331775879
1.05378271484375,-0.0102978515625,0.3101123046875,1.098514313684105,0.87841796875,0.0224609375,0.0361328125,31.21235294117648,300.8380331775879
1.04743505859375,0.0087451171875,0.3047412109375,1.0909004925700465,0.85009765625,0.0419921875,0.1015625,30.50647058823529,300.8380331775879
1.05964208984375,-0.1074658203125,0.3203662109375,1.1122161526494383,0.83251953125,0.03076171875,0.169921875,30.553529411764707,300.8380331775879
1.06550146484375,-0.0024853515625,0.3203662109375,1.1126248503727647,0.84765625,0.029296875,0.11572265625,29.753529411764703,300.6336940727106
1.05768896484375,-0.0054150390625,0.3340380859375,1.1091964261829734,0.86376953125,0.017578125,0.08544921875,30.553529411764707,300.6336940727106
1.05085302734375,-0.0010205078125,0.3228076171875,1.099317008068187,0.865234375,-0.025390625,0.09130859375,30.50647058823529,300.6336940727106
1.04255224609375,-0.0015087890625,0.3057177734375,1.0864533212591974,0.85546875,-0.05908203125,0.09521484375,30.60058823529412,300.6336940727106
1.05427099609375,0.0028857421875,0.3306201171875,1.104900593990951,0.8662109375,-0.11962890625,0.06396484375,30.50647058823529,300.6336940727106
1.05378271484375,-0.0054150390625,0.3242724609375,1.1025606385473656,0.87744140625,-0.15966796875,0.0478515625,30.553529411764707,300.6336940727106
1.06110693359375,0.0019091796875,0.3164599609375,1.1072933109002212,0.9033203125,-0.2041015625,0.0361328125,31.21235294117648,300.6336940727106
1.06452490234375,0.0097216796875,0.3189013671875,1.1113081754220897,0.8701171875,-0.12646484375,0.01806640625,30.553529411764707,300.6336940727106
1.05329443359375,-0.0063916015625,0.3120654296875,1.098569455617694,0.8798828125,-0.2412109375,0.0322265625,30.50647058823529,300.7299993522914
1.06647802734375,0.0312060546875,0.3154833984375,1.1126000967759484,0.87939453125,-0.2421875,0.0849609375,30.553529411764707,300.7299993522914
1.06550146484375,0.0180224609375,0.3125537109375,1.1105440121414472,0.99755859375,-0.23193359375,0.04541015625,30.553529411764707,300.7299993522914
1.06598974609375,0.0116748046875,0.3086474609375,1.1098349854751717,0.88720703125,-0.21142578125,0.02197265625,31.21235294117648,300.7299993522914
1.05866552734375,0.0111865234375,0.3081591796875,1.1026603815855138,0.8779296875,-0.20166015625,0.03662109375,30.553529411764707,300.7299993522914
1.04352880859375,0.0048388671875,0.3062060546875,1.087537556559788,0.75634765625,-0.1591796875,0.0185546875,30.553529411764707,300.7299993522914
1.05768896484375,0.0028857421875,0.3115771484375,1.1026307601770686,0.88427734375,-0.14453125,0.02783203125,30.553529411764707,300.7299993522914
1.05231787109375,0.0072802734375,0.3189013671875,1.099601739812494,0.9970703125,-0.13720703125,0.02294921875,30.50647058823529,300.7299993522914
1.05524755859375,-0.0010205078125,0.3164599609375,1.1016784277777385,0.88671875,-0.11474609375,0.03515625,30.60058823529412,300.8043919007551
1.04938818359375,0.0038623046875,0.3071826171875,1.0934311306917557,0.87890625,-0.12841796875,0.0322265625,30.553529411764707,300.8043919007551
1.05475927734375,0.0004443359375,0.3110888671875,1.0996788685180492,0.9990234375,-0.17041015625,0.03076171875,30.50647058823529,300.8043919007551
1.06257177734375,0.0077685546875,0.3047412109375,1.1054349090258742,0.75146484375,-0.197265625,0.04248046875,31.21235294117648,300.8043919007551
1.05915380859375,-0.0034619140625,0.3091357421875,1.1033511146527375,0.88916015625,-0.193359375,0.04296875,30.50647058823529,300.8043919007551
1.05231787109375,-0.0010205078125,0.3096240234375,1.0969234153527323,0.8984375,-0.19384765625,0.03173828125,30.50647058823529,300.8043919007551
1.05768896484375,0.0038623046875,0.3042529296875,1.100586529525584,0.88623046875,-0.17919921875,0.04736328125,30.553529411764707,300.8043919007551
1.06354833984375,-0.0010205078125,0.1792529296875,1.0785488980209212,0.89111328125,-0.14990234375,0.04736328125,31.21235294117648,300.8043919007551
1.04889990234375,0.0053271484375,0.3149951171875,1.0951900782508808,0.880859375,-0.1494140625,0.05322265625,30.60058823529412,300.5147045555839
1.06159521484375,0.0058154296875,0.3052294921875,1.104619057549994,0.87744140625,-0.1337890625,0.0498046875,29.84764705882353,300.5147045555839
1.05671240234375,0.0043505859375,0.3066943359375,1.1003278804798335,0.87353515625,-0.10693359375,0.04345703125,30.60058823529412,300.5147045555839
1.05378271484375,-4.394531249999993e-05,0.3052294921875,1.0970975594429575,0.88525390625,-0.08837890625,0.03173828125,29.753529411764703,300.5147045555839
1.05720068359375,-0.0044384765625,0.3135302734375,1.102721278395897,0.8955078125,-0.1357421875,0.0078125,30.60058823529412,300.5147045555839
1.06891943359375,0.0072802734375,0.3086474609375,1.1126117979955423,0.87939453125,-0.08203125,0.10595703125,30.50647058823529,300.5147045555839
1.04792333984375,-0.0010205078125,0.2993701171875,1.0898471611608356,0.86572265625,-0.0283203125,0.02099609375,30.60058823529412,300.5147045555839
1.05134130859375,-0.0054150390625,0.1797412109375,1.0666090064840752,0.88671875,-0.01708984375,-0.01220703125,30.60058823529412,300.5147045555839
1.04841162109375,0.0189990234375,0.3096240234375,1.093341175491726,0.86767578125,-0.05126953125,0.0947265625,30.50647058823529,300.5147045555839
1.05671240234375,0.0028857421875,0.1914599609375,1.0739210145151556,0.86572265625,-0.04150390625,0.11376953125,30.60058823529412,300.4606887586415
1.06061865234375,0.0009326171875,0.3013232421875,1.1025917158026708,0.75244140625,0.0078125,0.0634765625,30.60058823529412,300.4606887586415
1.05378271484375,0.0023974609375,0.1826708984375,1.0695010121820243,0.88330078125,0.0419921875,0.060546875,30.553529411764707,300.4606887586415
1.04792333984375,-0.0015087890625,0.3037646484375,1.0910630432170605,0.75146484375,0.00439453125,0.05908203125,30.50647058823529,300.4606887586415
1.05036474609375,0.0053271484375,0.2949755859375,1.0910110332376268,0.88671875,0.03369140625,0.0654296875,30.60058823529412,300.4606887586415
1.06647802734375,0.0019091796875,0.3081591796875,1.1101086018042416,0.8818359375,0.00927734375,0.0537109375,29.753529411764703,300.4606887586415
1.05866552734375,0.0092333984375,0.2988818359375,1.1000855904365336,0.88818359375,-0.009765625,0.041015625,29.84764705882353,300.4606887586415
1.06061865234375,-0.0015087890625,0.3110888671875,1.1053010836111172,0.8896484375,-0.02099609375,0.04150390625,30.553529411764707,300.4606887586415
1.05036474609375,0.0023974609375,0.3066943359375,1.0942272448407042,0.89208984375,-0.0107421875,0.037109375,30.553529411764707,300.4606887586415
1.05573583984375,0.0038623046875,0.2998583984375,1.0975008610664456,0.869140625,0.1240234375,0.03955078125,30.64764705882353,300.60005162749286
1.04059912109375,-0.0029736328125,0.2949755859375,1.081603425296148,0.88671875,0.05029296875,0.041015625,30.553529411764707,300.60005162749286
1.05622412109375,0.0077685546875,0.3101123046875,1.1008357670155844,0.8779296875,-0.01611328125,0.044921875,30.553529411764707,300.60005162749286
1.05427099609375,0.0082568359375,0.1782763671875,1.0692698310724842,0.99755859375,0.11865234375,0.05615234375,30.459411764705884,300.60005162749286
1.06159521484375,0.0043505859375,0.3047412109375,1.104477493397127,0.8759765625,-0.0048828125,0.048828125,30.553529411764707,300.60005162749286
1.06745458984375,0.0033740234375,0.3013232421875,1.1091737382822549,0.87744140625,-0.0068359375,0.02392578125,30.60058823529412,300.60005162749286
1.05915380859375,0.0038623046875,0.3242724609375,1.1076887363237955,0.89794921875,-0.0078125,0.021484375,31.16529411764706,300.60005162749286
1.06257177734375,-0.1108837890625,0.3018115234375,1.1101550307790249,0.88330078125,-0.04833984375,0.0361328125,30.553529411764707,300.60005162749286
1.05915380859375,-4.394531249999993e-05,0.3101123046875,1.1036196961401283,0.8837890625,-0.03369140625,0.02197265625,30.553529411764707,300.7315401412444
1.05036474609375,-0.0019970703125,0.1816943359375,1.0659657216994316,0.8837890625,-0.06103515625,0.01416015625,30.64764705882353,300.7315401412444
1.05231787109375,0.0048388671875,0.2993701171875,1.0940835358983323,0.87939453125,-0.04541015625,0.02490234375,30.60058823529412,300.7315401412444
1.05134130859375,0.0072802734375,0.3047412109375,1.0946409252264404,0.8876953125,-0.05810546875,0.0283203125,30.553529411764707,300.7315401412444
1.06843115234375,-0.0005322265624999,0.2969287109375,1.1089238341485463,0.88623046875,-0.04150390625,0.0244140625,30.50647058823529,300.7315401412444
1.06452490234375,0.0043505859375,0.1787646484375,1.0794392038641885,0.88525390625,-0.06884765625,0.02001953125,31.21235294117648,300.7315401412444
1.06403662109375,0.0028857421875,0.3018115234375,1.106016480083476,0.89208984375,-0.064453125,0.01318359375,30.50647058823529,300.7315401412444
1.06696630859375,0.0092333984375,0.3120654296875,1.1117046333117997,0.88623046875,-0.09326171875,0.0185546875,29.753529411764703,300.7315401412444
1.05720068359375,0.0077685546875,0.2954638671875,1.097739738119386,0.88330078125,-0.14306640625,0.02783203125,30.50647058823529,300.7315401412444
1.05524755859375,0.0009326171875,0.4253466796875,1.1377469303909675,0.87451171875,-0.15625,0.03515625,30.412352941176472,300.63292356715004
1.04987646484375,0.0023974609375,0.2964404296875,1.09092770961465,0.88720703125,-0.12939453125,0.0400390625,30.553529411764707,300.63292356715004
1.05964208984375,-4.394531249999993e-05,0.4204638671875,1.140013694702782,0.89697265625,-0.10107421875,0.0166015625,30.50647058823529,300.63292356715004
1.05622412109375,0.0019091796875,0.3003466796875,1.098098887599222,0.89697265625,-0.10400390625,0.01953125,30.50647058823529,300.63292356715004
1.05720068359375,0.0097216796875,0.1865771484375,1.0735822412680398,0.88671875,-0.154296875,0.00439453125,30.553529411764707,300.63292356715004
1.06061865234375,0.0048388671875,0.3042529296875,1.1034061743340744,0.912109375,-0.22119140625,0.05810546875,30.50647058823529,300.63292356715004
1.07966162109375,0.0097216796875,0.3013232421875,1.1209636137721497,0.99267578125,-0.12744140625,0.044921875,30.553529411764707,300.63292356715004
1.04938818359375,-4.394531249999993e-05,0.2949755859375,1.090057869150327,0.89404296875,-0.044921875,-0.0224609375,30.60058823529412,300.63292356715004
1.05182958984375,0.0063037109375,0.4253466796875,1.1345946504208608,0.892578125,-0.1533203125,0.02490234375,30.64764705882353,300.978170519997
1.06843115234375,0.0131396484375,0.4253466796875,1.1500598139144047,0.87890625,-0.21630859375,0.08154296875,30.60058823529412,300.978170519997
1.06598974609375,0.0038623046875,0.3081591796875,1.109644599049709,0.8828125,-0.16455078125,0.05908203125,30.60058823529412,300.978170519997
1.05964208984375,-0.0005322265624999,0.2891162109375,1.0983759944847669,0.86962890625,-0.0625,0.04541015625,30.553529411764707,300.978170519997
1.06061865234375,0.0019091796875,0.2969287109375,1.1014001225919474,0.9951171875,-0.10302734375,0.060546875,30.553529411764707,300.978170519997
1.05720068359375,0.0063037109375,0.3018115234375,1.0994558735312392,0.86962890625,-0.15185546875,0.0556640625,30.64764705882353,300.978170519997
1.05817724609375,0.0106982421875,0.3032763671875,1.100831545437767,0.8798828125,-0.21337890625,0.05029296875,30.553529411764707,300.978170519997
1.05915380859375,0.0019091796875,0.3057177734375,1.1023945719302628,0.8935546875,-0.22509765625,0.04296875,31.16529411764706,300.978170519997
1.06647802734375,0.0004443359375,0.2905810546875,1.1053564717251814,0.8876953125,-0.20751953125,0.02783203125,31.21235294117648,300.55776316475027
1.05817724609375,0.0038623046875,0.2881396484375,1.0967125687935455,0.8818359375,-0.1640625,0.02734375,30.553529411764707,300.55776316475027
1.06745458984375,0.0038623046875,0.3027880859375,1.1095741722668575,0.87841796875,-0.13671875,0.02685546875,30.50647058823529,300.55776316475027
1.06354833984375,0.0028857421875,0.2935107421875,1.1033095460802589,0.88232421875,-0.12646484375,0.04052734375,30.60058823529412,300.55776316475027
1.05182958984375,0.0033740234375,0.2974169921875,1.0930753575791965,0.88134765625,-0.14697265625,0.04541015625,30.60058823529412,300.55776316475027
1.06696630859375,0.0004443359375,0.2886279296875,1.1053159651901765,0.8623046875,-0.15673828125,0.041015625,30.553529411764707,300.55776316475027
1.06696630859375,0.0067919921875,0.2964404296875,1.1074024395789264,0.88427734375,-0.09814453125,0.0380859375,30.50647058823529,300.55776316475027
1.06940771484375,0.0072802734375,0.2808154296875,1.1056867406726152,0.994140625,-0.01171875,0.02197265625,30.60058823529412,300.55776316475027
1.05378271484375,0.0116748046875,0.2964404296875,1.0947471121319594,0.8916015625,0.02734375,0.02978515625,30.64764705882353,300.55776316475027
1.05427099609375,0.0097216796875,0.2979052734375,1.09559545280287,0.8857421875,-0.0078125,0.03125,30.50647058823529,301.0204621291955
1.06110693359375,0.0131396484375,0.2861865234375,1.099101133235261,0.87744140625,-0.0400390625,0.04345703125,30.50647058823529,301.0204621291955
1.05720068359375,0.0053271484375,0.2949755859375,1.0975938502928753,0.8837890625,-0.03515625,0.064453125,30.50647058823529,301.0204621291955
1.05964208984375,0.0087451171875,0.2856982421875,1.0975159776659655,0.87890625,-0.0517578125,0.0419921875,30.50647058823529,301.0204621291955
1.06306005859375,-0.0005322265624999,0.2935107421875,1.1028352221532998,0.7548828125,-0.09130859375,0.0341796875,30.60058823529412,301.0204621291955
1.05622412109375,0.0063037109375,0.2900927734375,1.0953551697748585,0.99853515625,-0.24951171875,0.03466796875,30.50647058823529,301.0204621291955
1.05964208984375,0.0038623046875,0.2891162109375,1.098382656178067,0.87939453125,-0.14501953125,0.03271484375,30.553529411764707,301.0204621291955
1.05573583984375,0.0053271484375,0.2866748046875,1.0939785124414827,0.876953125,-0.18408203125,0.02978515625,30.50647058823529,301.0204621291955
1.06208349609375,0.0082568359375,0.2871630859375,1.100250955891232,0.87646484375,-0.18310546875,0.0380859375,30.50647058823529,300.9883588864186
1.06110693359375,0.0087451171875,0.2925341796875,1.100727326762079,0.86181640625,-0.15869140625,0.04296875,30.553529411764707,300.9883588864186
1.06745458984375,0.0033740234375,0.2896044921875,1.1060476695458588,0.86865234375,-0.20458984375,0.0625,30.50647058823529,300.9883588864186
1.06940771484375,0.0067919921875,0.2842333984375,1.1065566485781633,0.857421875,-0.21533203125,0.068359375,30.553529411764707,300.9883588864186
1.07477880859375,-0.1108837890625,0.2915576171875,1.1191293697419928,0.87890625,-0.17822265625,0.05078125,31.21235294117648,300.9883588864186
1.05817724609375,0.0009326171875,0.2847216796875,1.095813117648006,0.88427734375,-0.17578125,0.02392578125,30.553529411764707,300.9883588864186
1.05817724609375,0.0097216796875,0.2910693359375,1.0975221881718822,0.75439453125,-0.1865234375,0.02392578125,31.21235294117648,300.9883588864186
1.06696630859375,0.0019091796875,0.2842333984375,1.1041781438828533,0.87939453125,-0.22412109375,0.06005859375,30.50647058823529,300.9883588864186
1.08942724609375,0.0126513671875,0.2686083984375,1.1221239919609078,0.853515625,-0.0244140625,0.13037109375,30.553529411764707,300.57967791074327
1.05134130859375,0.0023974609375,0.2764208984375,1.0870753460857991,0.86181640625,0.1572265625,0.0576171875,30.50647058823529,300.57967791074327
1.05427099609375,-0.0015087890625,0.2954638671875,1.094892006757897,0.884765625,0.048828125,0.02685546875,30.553529411764707,300.57967791074327
1.07087255859375,0.0063037109375,0.2808154296875,1.1070975923879898,0.75048828125,-0.0439453125,0.06787109375,30.60058823529412,300.57967791074327
1.06354833984375,0.1376513671875,0.2861865234375,1.1099485106392222,0.85498046875,0.02294921875,0.08447265625,30.60058823529412,300.57967791074327
1.06843115234375,0.0077685546875,0.2754443359375,1.103392523058126,0.873046875,0.11376953125,0.06640625,30.50647058823529,300.57967791074327
1.05964208984375,0.0063037109375,0.2837451171875,1.0969924278990086,0.86279296875,0.09765625,0.0771484375,30.60058823529412,300.57967791074327
1.06061865234375,0.0116748046875,0.2788623046875,1.0967280482141355,0.86767578125,0.06396484375,0.07177734375,30.50647058823529,300.57967791074327
1.06452490234375,-0.0024853515625,0.2949755859375,1.1046402314697443,0.88232421875,0.048828125,0.06298828125,30.553529411764707,300.57967791074327
1.06940771484375,0.0077685546875,0.2852099609375,1.1068143172308689,0.75244140625,0.0458984375,0.06298828125,30.553529411764707,300.9131956639776
1.06061865234375,0.0033740234375,0.2891162109375,1.0993231977723776,0.88134765625,0.04296875,0.03857421875,30.64764705882353,300.9131956639776
1.06306005859375,0.0082568359375,0.2793505859375,1.0991822475734725,0.8857421875,0.046875,0.052734375,30.50647058823529,300.9131956639776
1.07233740234375,0.0067919921875,0.2891162109375,1.11064927814773,0.88134765625,0.03857421875,0.052734375,30.553529411764707,300.9131956639776
1.06208349609375,0.0067919921875,0.2759326171875,1.0973633368490772,0.869140625,0.05615234375,0.052734375,30.60058823529412,300.9131956639776
1.06794287109375,0.0048388671875,0.2891162109375,1.1063966621345518,0.88037109375,0.0537109375,0.05224609375,30.553529411764707,300.9131956639776
1.06598974609375,0.0058154296875,0.2910693359375,1.1050291020251752,0.880859375,0.0361328125,0.0595703125,29.753529411764703,300.9131956639776
1.06452490234375,0.0014208984375,0.2891162109375,1.103088151549638,0.75341796875,0.03515625,0.0634765625,30.50647058823529,300.9131956639776
1.06306005859375,0.0077685546875,0.2788623046875,1.099054695451916,0.86962890625,0.06396484375,0.06640625,30.60058823529412,300.9131956639776
1.06306005859375,0.0043505859375,0.2939990234375,1.1029737265944055,0.88916015625,0.0146484375,0.0625,30.60058823529412,300.8912810326351
1.07184912109375,0.0043505859375,0.2817919921875,1.1082807373804004,0.880859375,0.12158203125,0.0673828125,30.60058823529412,300.8912810326351
1.06110693359375,0.0009326171875,0.2798388671875,1.097387163167281,0.8740234375,0.00146484375,0.056640625,30.60058823529412,300.8912810326351
1.05915380859375,0.0058154296875,0.2905810546875,1.098306860046133,0.99755859375,0.0166015625,0.0517578125,30.553529411764707,300.8912810326351
1.06257177734375,-0.0005322265624999,0.2861865234375,1.1004370911005374,0.89208984375,0.0380859375,0.052734375,30.553529411764707,300.8912810326351
1.06061865234375,0.0023974609375,0.2788623046875,1.0966685271740242,0.88623046875,0.05078125,0.046875,30.553529411764707,300.8912810326351
1.06306005859375,0.0038623046875,0.2861865234375,1.100915224607276,0.88623046875,0.06005859375,0.04248046875,31.21235294117648,300.8912810326351
1.05964208984375,0.0077685546875,0.2778857421875,1.0955008875950123,0.88330078125,0.05615234375,0.033203125,30.553529411764707,300.8912810326351
1.06501318359375,0.0067919921875,0.2925341796875,1.1044797230695582,0.8896484375,0.087890625,0.0390625,30.553529411764707,300.8912810326351
1.06354833984375,0.0053271484375,0.2876513671875,1.1017743683439498,0.896484375,0.08837890625,0.041015625,30.50647058823529,300.78247742638246
1.06598974609375,0.0053271484375,0.2910693359375,1.1050266402266462,0.88623046875,0.0859375,0.02392578125,30.553529411764707,300.78247742638246
1.06013037109375,0.0111865234375,0.2886279296875,1.0987755111112016,0.88232421875,0.09765625,0.044921875,30.50647058823529,300.78247742638246
1.06696630859375,0.0087451171875,0.2764208984375,1.10222597222248,0.88427734375,0.099609375,0.02880859375,29.80058823529412,300.78247742638246
1.05768896484375,0.0038623046875,0.2905810546875,1.096885688252446,0.87890625,0.11865234375,0.02490234375,30.50647058823529,300.78247742638246
1.06550146484375,0.0038623046875,0.2900927734375,1.1042925817836218,0.89208984375,0.12353515625,0.01904296875,30.60058823529412,300.78247742638246
1.06110693359375,0.0102099609375,0.2861865234375,1.099070013247709,0.89697265625,0.1328125,0.1220703125,29.89470588235294,300.78247742638246
1.06208349609375,0.0053271484375,0.2915576171875,1.101388022145352,0.884765625,0.0986328125,0.0185546875,30.60058823529412,300.78247742638246
1.07429052734375,0.0136279296875,0.2881396484375,1.112344512554346,0.7509765625,0.16748046875,0.087890625,30.50647058823529,300.79420387156034
1.06110693359375,-0.0049267578125,0.2861865234375,1.0990336317240326,0.8681640625,0.22412109375,0.05224609375,30.50647058823529,300.79420387156034
1.05085302734375,-0.0010205078125,0.2998583984375,1.092798327976037,0.869140625,0.1796875,-0.125,30.60058823529412,300.79420387156034
1.04792333984375,0.0131396484375,0.2939990234375,1.0884628621742427,0.87060546875,0.083984375,0.0537109375,30.553529411764707,300.79420387156034
1.06794287109375,0.0116748046875,0.2944873046875,1.1078632810986029,0.86181640625,0.07275390625,0.09521484375,29.84764705882353,300.79420387156034
1.06306005859375,0.0092333984375,0.2832568359375,1.100189246870454,0.8837890625,0.0888671875,0.0703125,30.64764705882353,300.79420387156034
1.06403662109375,0.0063037109375,0.2822802734375,1.1008613993469558,0.900390625,0.07666015625,0.0556640625,30.60058823529412,300.79420387156034
1.06061865234375,0.0033740234375,0.2930224609375,1.1003569749619884,0.9990234375,0.03759765625,0.04931640625,30.50647058823529,300.79420387156034
1.05964208984375,0.0067919921875,0.2842333984375,1.0971217409720926,0.89453125,0.02099609375,0.029296875,30.64764705882353,300.74018690404887
1.05915380859375,0.0082568359375,0.2876513671875,1.0975510350973128,0.87744140625,0.01025390625,0.0419921875,30.64764705882353,300.74018690404887
1.05671240234375,0.0014208984375,0.2871630859375,1.0950368752442163,0.88623046875,-0.01416015625,0.0390625,30.412352941176472,300.74018690404887
1.05134130859375,-4.394531249999993e-05,0.2881396484375,1.0901114649835104,0.90673828125,-0.04248046875,0.0263671875,30.64764705882353,300.74018690404887
1.05524755859375,-0.0044384765625,0.2964404296875,1.096104027155076,0.890625,-0.095703125,0.0234375,30.60058823529412,300.74018690404887
1.06989599609375,0.0102099609375,0.2886279296875,1.108191214346818,0.91064453125,-0.13330078125,0.0380859375,30.50647058823529,300.74018690404887
1.05915380859375,0.0043505859375,0.2930224609375,1.0989485340408414,0.88232421875,-0.12890625,0.03857421875,30.553529411764707,300.74018690404887
1.05768896484375,0.0077685546875,0.2969287109375,1.098605004618667,0.8837890625,-0.14990234375,0.03759765625,29.753529411764703,300.74018690404887
1.06257177734375,-0.1113720703125,0.2896044921875,1.106947732256735,0.8828125,-0.1875,0.03857421875,30.60058823529412,300.74018690404887
1.06891943359375,0.0102099609375,0.2803271484375,1.105113708614561,0.884765625,-0.19287109375,0.041015625,30.553529411764707,300.71827235206194
1.05817724609375,0.0048388671875,0.2949755859375,1.0985322458104645,0.87939453125,-0.1708984375,0.05517578125,30.64764705882353,300.71827235206194
1.05768896484375,0.0063037109375,0.2920458984375,1.0972859654246898,0.87353515625,-0.18359375,0.0556640625,30.553529411764707,300.71827235206194
1.06843115234375,0.0097216796875,0.2817919921875,1.105009667476054,0.88720703125,-0.18896484375,0.0634765625,30.64764705882353,300.71827235206194
1.05475927734375,0.0082568359375,0.2949755859375,1.0952606560913158,0.99755859375,-0.22119140625,0.0673828125,29.753529411764703,300.71827235206194
1.06696630859375,0.0214404296875,0.2842333984375,1.1043846343039587,0.876953125,-0.287109375,0.0419921875,30.50647058823529,300.71827235206194
1.06891943359375,0.0067919921875,0.2876513671875,1.1069680192837985,0.75146484375,-0.35693359375,0.0302734375,30.553529411764707,300.71827235206194
1.06794287109375,0.0077685546875,0.2798388671875,1.1040254154459843,0.908203125,-0.2578125,-0.001953125,30.60058823529412,300.71827235206194
1.05524755859375,0.0023974609375,0.2837451171875,1.092732560723238,0.998046875,-0.458984375,0.00390625,30.50647058823529,300.9656758768087
1.06257177734375,0.0058154296875,0.2905810546875,1.1016033544671175,0.8876953125,-0.5712890625,-0.02587890625,30.64764705882353,300.9656758768087
1.06013037109375,0.0038623046875,0.2822802734375,1.0970749627463117,0.8876953125,-0.748046875,-0.01416015625,30.553529411764707,300.9656758768087
1.06208349609375,0.0063037109375,0.2886279296875,1.100621266032053,0.87841796875,-0.865234375,-0.02587890625,30.60058823529412,300.9656758768087
1.06745458984375,0.0087451171875,0.2866748046875,1.1053136306477578,0.884765625,-0.93408203125,-0.01220703125,30.60058823529412,300.9656758768087
1.06647802734375,0.0072802734375,0.2700732421875,1.100167233348644,0.88330078125,-0.9072265625,0.01708984375,30.60058823529412,300.9656758768087
1.07770849609375,0.0131396484375,0.2593310546875,1.1085489835090936,0.75048828125,-0.75634765625,0.0283203125,30.50647058823529,300.9656758768087
1.06794287109375,0.0038623046875,0.2593310546875,1.0989856638022135,0.75048828125,-0.7216796875,0.04150390625,30.50647058823529,300.9656758768087
1.06501318359375,0.0063037109375,0.2617724609375,1.0967304314667998,0.99609375,-0.67333984375,0.04931640625,30.60058823529412,300.77305883690286
1.06306005859375,0.0102099609375,0.2588427734375,1.094166583679336,0.86474609375,-0.65234375,0.0400390625,30.50647058823529,300.77305883690286
1.07087255859375,0.0053271484375,0.2607958984375,1.1021846106262885,0.75146484375,-0.53759765625,0.06787109375,30.50647058823529,300.77305883690286
1.08747412109375,0.0126513671875,0.2437060546875,1.1145190273080507,0.87451171875,-0.37353515625,0.07275390625,30.50647058823529,300.77305883690286
1.05378271484375,-0.0015087890625,0.2437060546875,1.0815973962798016,0.75439453125,-0.08984375,0.01611328125,30.50647058823529,300.77305883690286
1.06110693359375,0.0063037109375,0.2764208984375,1.096538268545749,0.8798828125,-0.244140625,0.017578125,30.60058823529412,300.77305883690286
1.07966162109375,0.0097216796875,0.2695849609375,1.1128520918264044,0.8876953125,-0.32763671875,0.07958984375,30.60058823529412,300.77305883690286
1.07136083984375,0.0087451171875,0.2544482421875,1.101196819000871,0.8642578125,-0.27685546875,0.08251953125,30.50647058823529,300.77305883690286
1.06208349609375,0.0058154296875,0.2554248046875,1.0923813449280524,0.87255859375,-0.2197265625,0.07177734375,30.64764705882353,300.77305883690286
1.07526708984375,0.0043505859375,0.2632373046875,1.1070285094242995,0.8740234375,-0.29150390625,0.06591796875,30.553529411764707,300.79497352871635
1.07575537109375,0.0072802734375,0.2573779296875,1.1061401446058272,0.88134765625,-0.4072265625,0.068359375,29.753529411764703,300.79497352871635
1.06452490234375,0.0053271484375,0.2417529296875,1.0916437721312455,0.86474609375,-0.44677734375,0.08935546875,30.553529411764707,300.79497352871635
1.08405615234375,0.0058154296875,0.2598193359375,1.1147724646688173,0.99951171875,-0.45556640625,0.06689453125,30.553529411764707,300.79497352871635
1.07087255859375,0.0131396484375,0.2422412109375,1.098007965083429,0.8671875,-0.4873046875,0.08056640625,30.553529411764707,300.79497352871635
1.07722021484375,0.0063037109375,0.2583544921875,1.1077861579172488,0.8818359375,-0.3837890625,0.04833984375,30.50647058823529,300.79497352871635
1.07429052734375,0.0043505859375,0.2510302734375,1.1032385340082254,0.880859375,-0.38330078125,0.052734375,29.80058823529412,300.79497352871635
1.06501318359375,-0.1099072265625,0.2485888671875,1.0991492640077234,0.75048828125,-0.400390625,0.05322265625,30.553529411764707,300.79497352871635
1.07087255859375,0.0072802734375,0.2598193359375,1.1019651203452188,0.8671875,-0.36181640625,0.0595703125,30.553529411764707,300.7613320388601
1.07477880859375,0.0072802734375,0.2432177734375,1.1019788451233627,0.8603515625,-0.314453125,0.078125,31.21235294117648,300.7613320388601
1.06843115234375,0.0072802734375,0.2334521484375,1.0936626697889995,0.998046875,-0.28125,0.06201171875,30.50647058823529,300.7613320388601
1.08063818359375,-0.1094189453125,0.2427294921875,1.1129550735819036,0.8583984375,-0.30224609375,0.03515625,30.60058823529412,300.7613320388601
0.95954443359375,0.0053271484375,0.2407763671875,0.9893064022572762,0.87548828125,-0.3359375,0.05419921875,30.60058823529412,300.7613320388601
1.08796240234375,-0.1094189453125,0.2383349609375,1.119123875230961,0.87060546875,-0.29736328125,0.0595703125,30.60058823529412,300.7613320388601
1.06696630859375,-0.0044384765625,0.2383349609375,1.0932704868208274,0.88330078125,-0.2783203125,0.0556640625,30.50647058823529,300.7613320388601
1.07917333984375,0.0053271484375,0.2402880859375,1.1056137843675324,0.8798828125,-0.2724609375,0.04296875,31.21235294117648,300.7613320388601
1.07868505859375,0.0038623046875,0.2451708984375,1.1062030294984515,0.87841796875,-0.28076171875,0.05908203125,30.50647058823529,300.91242665848006
1.07477880859375,0.0082568359375,0.2256396484375,1.0982399162700736,0.892578125,-0.26708984375,0.0615234375,30.60058823529412,300.91242665848006
1.06501318359375,-0.0015087890625,0.2354052734375,1.0907204043361038,0.99853515625,-0.2197265625,0.06494140625,30.50647058823529,300.91242665848006
1.07868505859375,0.0043505859375,0.2471240234375,1.1066393568779938,0.75390625,-0.21728515625,0.0595703125,30.64764705882353,300.91242665848006
1.07868505859375,0.0058154296875,0.2334521484375,1.10367349359579,0.86572265625,-0.228515625,0.06298828125,31.21235294117648,300.91242665848006
1.07136083984375,0.0063037109375,0.2236865234375,1.0944813596813077,0.86474609375,-0.19677734375,0.06494140625,30.50647058823529,300.91242665848006
1.07526708984375,0.0097216796875,0.2300341796875,1.0996406455663117,0.87255859375,-0.1650390625,0.06396484375,30.64764705882353,300.91242665848006
1.07966162109375,0.0067919921875,0.2329638671875,1.1045304480346454,0.87841796875,-0.15869140625,0.08837890625,30.60058823529412,300.91242665848006
1.08210302734375,0.0106982421875,0.2349169921875,1.1073605588925557,0.99609375,-0.1455078125,0.1123046875,29.753529411764703,300.91242665848006
0.95807958984375,0.0111865234375,0.2256396484375,0.984355062834943,0.87646484375,-0.1171875,0.11279296875,29.84764705882353,300.8685976971319
1.07673193359375,0.0023974609375,0.2358935546875,1.102271823908507,0.87353515625,-0.0859375,0.095703125,30.60058823529412,300.8685976971319
1.20075537109375,-4.394531249999993e-05,0.2324755859375,1.2230528856916465,0.7529296875,-0.0732421875,0.091796875,30.50647058823529,300.8685976971319
1.09919287109375,0.0116748046875,0.2080615234375,1.118772035073699,0.7568359375,-0.05224609375,0.0654296875,30.50647058823529,300.8685976971319
1.05280615234375,-0.1084423828125,0.2515185546875,1.0878520708970467,0.9873046875,-0.01708984375,0.00927734375,30.50647058823529,300.8685976971319
1.10212255859375,0.0141162109375,0.2178271484375,1.123531071296597,0.861328125,0.14404296875,0.1123046875,30.60058823529412,300.8685976971319
1.06843115234375,-0.0024853515625,0.2290576171875,1.092711625390065,0.87744140625,0.36279296875,0.068359375,30.50647058823529,300.8685976971319
1.08600927734375,-0.1099072265625,0.2583544921875,1.1217142205396238,0.88818359375,-0.0244140625,0.06396484375,31.21235294117648,300.8685976971319
1.08307958984375,0.1273974609375,0.2319873046875,1.1149482591248792,0.87451171875,0.09619140625,0.1025390625,30.60058823529412,300.8685976971319
1.07722021484375,0.0111865234375,0.2261279296875,1.1007553634479317,0.86962890625,0.2578125,0.10693359375,30.50647058823529,300.75114420101505
1.20173193359375,0.0116748046875,0.2300341796875,1.2236060089375034,0.7607421875,0.26220703125,0.11181640625,29.80058823529412,300.75114420101505
1.07966162109375,0.0067919921875,0.2397998046875,1.1059924473290144,0.88037109375,0.23583984375,0.09228515625,30.553529411764707,300.75114420101505
1.07624365234375,0.0043505859375,0.2393115234375,1.1025376782941212,0.88671875,0.2333984375,0.08349609375,30.60058823529412,300.75114420101505
1.07868505859375,0.0053271484375,0.2437060546875,1.105885380695135,0.88818359375,0.21337890625,0.0859375,30.64764705882353,300.75114420101505
1.07575537109375,0.0121630859375,0.2388232421875,1.10201365695055,0.876953125,0.18798828125,0.06884765625,30.64764705882353,300.75114420101505
1.06843115234375,0.0009326171875,0.2407763671875,1.0952256644497615,0.869140625,0.16943359375,0.05322265625,30.553529411764707,300.75114420101505
1.07966162109375,0.0019091796875,0.2397998046875,1.1059732398923705,0.87890625,0.13916015625,0.0302734375,30.50647058823529,300.9445297789424
1.07673193359375,0.0019091796875,0.2485888671875,1.1050573409000906,0.8779296875,0.1455078125,0.0322265625,30.553529411764707,300.9445297789424
1.07282568359375,0.0063037109375,0.2456591796875,1.1006103382735943,0.8818359375,0.14013671875,0.0400390625,30.553529411764707,300.9445297789424
1.08063818359375,-0.0005322265624999,0.2358935546875,1.1060854109195264,0.89794921875,0.14208984375,0.03759765625,30.50647058823529,300.9445297789424
1.08649755859375,0.0063037109375,0.2393115234375,1.1125586217596537,0.8779296875,0.18017578125,0.0517578125,31.21235294117648,300.9445297789424
1.06598974609375,0.0121630859375,0.2349169921875,1.0916355035701992,0.88818359375,0.1796875,0.0341796875,30.50647058823529,300.9445297789424
1.07282568359375,0.0082568359375,0.2407763671875,1.0995437152355996,0.8798828125,0.1494140625,0.03955078125,30.553529411764707,300.9445297789424
1.07331396484375,0.1381396484375,0.2402880859375,1.1085232491213497,0.8876953125,0.15234375,0.04931640625,30.60058823529412,300.9445297789424
1.08210302734375,0.0082568359375,0.2290576171875,1.1061114451617533,0.88623046875,0.14892578125,0.0458984375,29.84764705882353,300.9445297789424
1.07429052734375,0.0023974609375,0.2397998046875,1.100731498271773,0.88427734375,0.15478515625,0.04150390625,30.60058823529412,301.05179753755056
1.07331396484375,0.0023974609375,0.2358935546875,1.0989332937401894,0.88232421875,0.1474609375,0.03564453125,29.753529411764703,301.05179753755056
1.08552099609375,-0.0029736328125,0.2476123046875,1.1134076202744103,0.88134765625,0.2421875,0.06494140625,30.553529411764707,301.05179753755056
1.06696630859375,-0.0005322265624999,0.2231982421875,1.0900618524904342,0.88232421875,0.1552734375,0.0263671875,30.50647058823529,301.05179753755056
1.09675146484375,0.1293505859375,0.2515185546875,1.1326327441281991,0.896484375,0.08984375,0.0205078125,31.21235294117648,301.05179753755056
1.07868505859375,0.0146044921875,0.2402880859375,1.1052208426685428,0.88623046875,0.0205078125,0.05712890625,30.50647058823529,301.05179753755056
1.05768896484375,0.0106982421875,0.2388232421875,1.0843693742203784,0.87939453125,0.14013671875,0.03955078125,30.553529411764707,301.05179753755056
1.07331396484375,0.0009326171875,0.2456591796875,1.10106864884446,0.8955078125,0.13134765625,0.0185546875,30.50647058823529,301.05179753755056
1.08600927734375,0.0116748046875,0.2583544921875,1.1163778460604843,0.8759765625,0.04345703125,0.037109375,30.50647058823529,301.05179753755056
1.06843115234375,0.0097216796875,0.2358935546875,1.094205377201942,0.8642578125,0.087890625,0.0517578125,30.553529411764707,300.77075156005486
1.07575537109375,0.0077685546875,0.2446826171875,1.1032586061448644,0.884765625,0.0859375,0.04931640625,30.553529411764707,300.77075156005486
1.19831396484375,0.0048388671875,0.2505419921875,1.224234888746636,0.87939453125,0.07275390625,0.03271484375,31.21235294117648,300.77075156005486
1.07038427734375,0.0077685546875,0.2388232421875,1.0967312308107142,0.8720703125,0.001953125,0.0322265625,31.21235294117648,300.77075156005486
1.06403662109375,0.0077685546875,0.2388232421875,1.0905369422809512,0.89599609375,0.00341796875,0.05859375,30.50647058823529,300.77075156005486
0.95905615234375,0.0033740234375,0.2437060546875,0.9895416759661524,0.87841796875,0.01220703125,0.060546875,30.69470588235294,300.77075156005486
1.09626318359375,0.0233935546875,0.2471240234375,1.1240153509022726,0.85498046875,0.0849609375,0.08251953125,30.553529411764707,300.77075156005486
1.05915380859375,-0.0044384765625,0.2344287109375,1.0847964375147348,0.75439453125,0.15673828125,0.00830078125,31.21235294117648,300.77075156005486
1.06110693359375,0.0019091796875,0.2544482421875,1.091189936463913,0.998046875,0.02099609375,0.03857421875,30.50647058823529,300.5022063329518
1.08063818359375,0.0170458984375,0.2417529296875,1.10748089171183,0.86279296875,0.0126953125,0.103515625,30.553529411764707,300.5022063329518
1.05866552734375,0.0063037109375,0.2422412109375,1.086044768798262,0.87158203125,0.1201171875,0.10693359375,30.64764705882353,300.5022063329518
1.20710302734375,0.0087451171875,0.2529833984375,1.233359151091869,0.87548828125,0.02197265625,0.06884765625,30.553529411764707,300.5022063329518
1.08405615234375,0.1303271484375,0.2500537109375,1.1201293520874278,0.888671875,-0.03173828125,0.0595703125,30.64764705882353,300.5022063329518
1.05134130859375,-0.0078564453125,0.2349169921875,1.0772958108648658,0.88427734375,0.09326171875,0.0693359375,30.60058823529412,300.5022063329518
1.07575537109375,0.0063037109375,0.2495654296875,1.1043424554474677,0.87646484375,0.04248046875,0.06298828125,30.60058823529412,300.5022063329518
1.08307958984375,-0.0005322265624999,0.2481005859375,1.111132567223079,0.884765625,-0.017578125,0.06298828125,30.60058823529412,300.5022063329518
1.07966162109375,-0.1108837890625,0.2437060546875,1.1123655297747177,0.892578125,0.0185546875,0.0458984375,30.553529411764707,300.7613320388601
1.06354833984375,0.0004443359375,0.2534716796875,1.0933357951802478,0.8828125,0.04052734375,0.04248046875,30.60058823529412,300.7613320388601
1.07575537109375,-0.0039501953125,0.2524951171875,1.1049972880887935,0.8828125,0.12109375,0.033203125,30.50647058823529,300.7613320388601
1.07966162109375,0.0160693359375,0.2461474609375,1.1074818337770758,0.880859375,-0.06103515625,0.037109375,30.60058823529412,300.7613320388601
1.06598974609375,0.0092333984375,0.2344287109375,1.0915018162767949,0.8720703125,-0.025390625,0.05224609375,30.50647058823529,300.7613320388601
1.06940771484375,-0.0015087890625,0.2495654296875,1.0981429964749003,0.994140625,0.0380859375,0.05078125,30.50647058823529,300.7613320388601
1.07917333984375,0.0092333984375,0.2476123046875,1.107254354928837,0.88623046875,0.0087890625,0.05126953125,30.60058823529412,300.7613320388601
1.06745458984375,0.0043505859375,0.2437060546875,1.094929618773661,0.8818359375,0.02490234375,0.0576171875,31.21235294117648,300.7613320388601
1.07136083984375,0.0102099609375,0.2402880859375,1.0980239781974517,0.88232421875,0.05029296875,0.06005859375,30.553529411764707,300.7613320388601
1.07380224609375,0.0033740234375,0.2383349609375,1.0999391807528356,0.8642578125,0.02978515625,0.060546875,31.21235294117648,300.5898646023936
1.08112646484375,0.0102099609375,0.2437060546875,1.1083010950906962,0.8701171875,0.017578125,0.076171875,30.553529411764707,300.5898646023936
1.07917333984375,0.0048388671875,0.2417529296875,1.1059308256295517,0.99365234375,0.02783203125,0.05322265625,30.64764705882353,300.5898646023936
1.07380224609375,0.0043505859375,0.2397998046875,1.100260940705497,0.88330078125,0.0048828125,0.03759765625,30.50647058823529,300.5898646023936
1.07477880859375,0.0063037109375,0.2437060546875,1.1020806981637647,0.88623046875,-0.02099609375,0.033203125,31.21235294117648,300.5898646023936
1.07429052734375,0.0102099609375,0.2564013671875,1.1045116756007956,0.88671875,-0.05126953125,0.03076171875,30.553529411764707,300.5898646023936
1.07526708984375,0.0077685546875,0.2485888671875,1.103655784124989,0.89111328125,-0.03662109375,0.056640625,29.753529411764703,300.5898646023936
1.07526708984375,0.0063037109375,0.2393115234375,1.101593870953632,0.88134765625,-0.02392578125,0.05712890625,30.553529411764707,300.5898646023936
1.07526708984375,0.0048388671875,0.2329638671875,1.1002249281631735,0.87939453125,-0.01318359375,0.05126953125,30.60058823529412,300.7175031243668
1.07380224609375,0.0126513671875,0.2363818359375,1.0995852368820156,0.88330078125,0.01171875,0.0546875,30.50647058823529,300.7175031243668
1.06647802734375,0.0063037109375,0.2471240234375,1.0947535807379385,0.88037109375,0.01513671875,0.0478515625,29.753529411764703,300.7175031243668
1.07966162109375,0.0038623046875,0.2461474609375,1.107371981759635,0.89306640625,-0.04736328125,0.04638671875,30.50647058823529,300.7175031243668
1.07282568359375,0.0087451171875,0.2324755859375,1.097759683405254,0.9990234375,-0.03955078125,0.03857421875,30.50647058823529,300.7175031243668
1.06843115234375,0.0131396484375,0.2446826171875,1.0961694033375402,0.8818359375,-0.0244140625,0.0400390625,30.50647058823529,300.7175031243668
1.07331396484375,0.0087451171875,0.2539599609375,1.1029845900839277,0.88818359375,-0.07373046875,0.00927734375,30.60058823529412,300.7175031243668
1.08112646484375,0.0092333984375,0.2593310546875,1.1118328491988267,0.99755859375,-0.029296875,0.08544921875,30.60058823529412,300.7175031243668
1.08112646484375,0.0038623046875,0.2349169921875,1.1063613078924377,0.99951171875,0.0654296875,0.0693359375,30.553529411764707,300.7175031243668
1.07038427734375,-4.394531249999993e-05,0.2451708984375,1.0981034890011705,0.75830078125,0.06884765625,0.00732421875,30.553529411764707,300.62119623789886
1.06452490234375,0.0043505859375,0.2603076171875,1.0958979199148997,0.89013671875,-0.052734375,0.03271484375,30.60058823529412,300.62119623789886
1.07233740234375,0.0111865234375,0.2407763671875,1.0990932179610466,0.888671875,-0.0322265625,0.08251953125,30.64764705882353,300.62119623789886
1.07136083984375,0.0028857421875,0.2393115234375,1.097766998004884,0.75439453125,0.0126953125,0.0869140625,30.64764705882353,300.62119623789886
1.07673193359375,0.0053271484375,0.2441943359375,1.1040882704906194,0.8740234375,0.056640625,0.07763671875,30.553529411764707,300.62119623789886
1.07477880859375,-0.0015087890625,0.2393115234375,1.1011002538809138,0.8779296875,-0.02197265625,0.05908203125,31.21235294117648,300.62119623789886
1.07477880859375,0.0043505859375,0.2446826171875,1.1022876204303145,0.88232421875,-0.06005859375,0.02978515625,30.60058823529412,300.62119623789886
1.07380224609375,0.0028857421875,0.2446826171875,1.1013306380818069,0.88037109375,-0.060546875,0.03466796875,30.60058823529412,300.62119623789886
1.07331396484375,0.0131396484375,0.2490771484375,1.10191421778804,0.88134765625,-0.03662109375,0.03125,30.60058823529412,300.7613320388601
1.20270849609375,0.0077685546875,0.2407763671875,1.2265974629086889,0.88037109375,-0.044921875,0.04638671875,30.553529411764707,300.7613320388601
1.08454443359375,0.0053271484375,0.2456591796875,1.1120312223649111,0.8740234375,-0.03125,0.0380859375,30.553529411764707,300.7613320388601
1.07136083984375,0.0092333984375,0.2402880859375,1.0980153318788033,0.888671875,0.01904296875,0.044921875,30.60058823529412,300.7613320388601
1.07526708984375,0.0043505859375,0.2441943359375,1.1026554837314342,0.99951171875,0.00732421875,0.06982421875,30.553529411764707,300.7613320388601
1.07526708984375,0.0038623046875,0.2407763671875,1.1019017609998434,0.8876953125,-0.005859375,0.0556640625,31.16529411764706,300.7613320388601
0.96540380859375,0.0092333984375,0.2358935546875,0.9938488509009448,0.875,-0.11376953125,0.0595703125,30.60058823529412,300.7613320388601
1.06550146484375,0.0058154296875,0.2349169921875,1.0911064036220524,0.76416015625,0.00634765625,0.05322265625,30.50647058823529,300.7613320388601
1.06598974609375,-0.0010205078125,0.2354052734375,1.0916734049043226,0.88232421875,-0.0576171875,0.01953125,30.553529411764707,301.00873661962873
1.08112646484375,0.1322802734375,0.2388232421875,1.115064592180737,0.88818359375,-0.04296875,0.04345703125,29.84764705882353,301.00873661962873
1.07184912109375,-0.1108837890625,0.2314990234375,1.1021558650748169,0.75341796875,-0.046875,0.04052734375,30.60058823529412,301.00873661962873
1.07722021484375,0.0087451171875,0.2422412109375,1.1041560906951084,0.8837890625,-0.03466796875,0.0400390625,31.21235294117648,301.00873661962873
1.07477880859375,0.0097216796875,0.2373583984375,1.1007193137975555,0.88623046875,-0.01953125,0.0439453125,29.84764705882353,301.00873661962873
1.07526708984375,0.0053271484375,0.2485888671875,1.1036412994723814,0.88818359375,-0.01708984375,0.0478515625,30.50647058823529,301.00873661962873
1.08161474609375,0.0097216796875,0.2412646484375,1.1082389636757335,0.8779296875,-0.00537109375,0.04541015625,30.69470588235294,301.00873661962873
1.07575537109375,0.0072802734375,0.2388232421875,1.101970581198666,0.8876953125,-0.0107421875,0.0478515625,30.64764705882353,301.00873661962873
1.07233740234375,0.0043505859375,0.2354052734375,1.0978807197621814,0.8818359375,0.00341796875,0.04052734375,30.69470588235294,301.1065837357579
1.07868505859375,0.0043505859375,0.2466357421875,1.106530420980725,0.88134765625,-0.0234375,0.0322265625,30.553529411764707,301.1065837357579
1.07575537109375,0.0063037109375,0.2319873046875,1.1005032779346031,0.7568359375,-0.015625,0.03662109375,30.553529411764707,301.1065837357579
1.07868505859375,-0.1060009765625,0.2402880859375,1.110196391143978,0.87939453125,-0.005859375,0.05078125,30.553529411764707,301.1065837357579
1.08112646484375,0.0102099609375,0.2402880859375,1.1075545316287578,0.89306640625,-0.00048828125,0.05810546875,30.553529411764707,301.1065837357579
1.07282568359375,0.0043505859375,0.2373583984375,1.0987779048948934,0.875,0.00439453125,0.06689453125,30.64764705882353,301.1065837357579
1.07575537109375,0.0043505859375,0.2427294921875,1.1028083026585596,0.876953125,0.00341796875,0.05908203125,31.21235294117648,301.1065837357579
1.07233740234375,0.0033740234375,0.2334521484375,1.0974601560464885,0.8798828125,0.0078125,0.05126953125,30.60058823529412,301.1065837357579
1.06794287109375,0.0116748046875,0.2441943359375,1.095567958042042,0.99951171875,-0.025390625,0.06103515625,30.553529411764707,301.1065837357579
1.07429052734375,0.0028857421875,0.2446826171875,1.1018067198026202,0.88623046875,-0.06103515625,0.0078125,30.553529411764707,300.6431107835942
1.05817724609375,0.0087451171875,0.2427294921875,1.08569478565699,0.88818359375,-0.00634765625,0.083984375,30.553529411764707,300.6431107835942
0.97663427734375,0.1356982421875,0.2383349609375,1.0144121835923532,0.99853515625,0.06689453125,0.0791015625,30.64764705882353,300.6431107835942
1.06061865234375,0.0053271484375,0.2432177734375,1.088161380276769,0.994140625,0.10107421875,-0.017578125,30.60058823529412,300.6431107835942
1.06843115234375,0.0033740234375,0.2481005859375,1.0968638986106167,0.88720703125,-0.0732421875,0.0263671875,30.50647058823529,300.6431107835942
1.08259130859375,0.1381396484375,0.2427294921875,1.1180358269262956,0.88037109375,-0.02587890625,0.0859375,30.60058823529412,300.6431107835942
1.06598974609375,0.0092333984375,0.2300341796875,1.0905664208328736,0.88232421875,0.076171875,0.09033203125,30.60058823529412,300.6431107835942
1.07673193359375,0.0038623046875,0.2388232421875,1.1029066665983047,0.8642578125,0.12060546875,0.05517578125,30.60058823529412,300.6431107835942
1.07770849609375,0.0053271484375,0.2373583984375,1.103550175738259,0.89013671875,0.02392578125,0.0439453125,30.60058823529412,300.6431107835942
1.07575537109375,0.0019091796875,0.2397998046875,1.102160246848113,0.88525390625,0.04150390625,0.06201171875,30.50647058823529,300.9868222273959
1.07966162109375,0.0072802734375,0.2349169921875,1.1049471533347337,0.751953125,0.087890625,0.0732421875,30.553529411764707,300.9868222273959
1.07722021484375,0.1298388671875,0.2427294921875,1.1118359272294405,0.8876953125,0.09619140625,0.05126953125,30.50647058823529,300.9868222273959
1.07282568359375,0.0063037109375,0.2417529296875,1.0997450446182833,0.75439453125,0.1318359375,0.0537109375,30.553529411764707,300.9868222273959
1.07917333984375,0.0033740234375,0.2412646484375,1.1058187518980411,0.88427734375,0.154296875,0.04345703125,30.553529411764707,300.9868222273959
1.08161474609375,0.0058154296875,0.2354052734375,1.1069507310409443,0.88720703125,0.134765625,0.05615234375,29.753529411764703,300.9868222273959
1.08014990234375,0.1264208984375,0.2495654296875,1.1157907325256218,0.86376953125,0.15771484375,0.0625,30.553529411764707,300.9868222273959
1.06940771484375,0.0019091796875,0.2441943359375,1.0969354489842904,0.87890625,0.1884765625,0.07861328125,30.50647058823529,300.9868222273959
1.07770849609375,0.0097216796875,0.2314990234375,1.1023347547188715,0.8623046875,0.22314453125,0.05224609375,30.50647058823529,300.6431107835942
1.06843115234375,0.0058154296875,0.2393115234375,1.0949196097298746,0.99560546875,0.14892578125,0.0498046875,29.753529411764703,300.6431107835942
1.07380224609375,0.0146044921875,0.2427294921875,1.1009914446923004,0.873046875,0.17138671875,0.0615234375,30.553529411764707,300.6431107835942
1.08259130859375,0.0009326171875,0.2466357421875,1.1103305816476126,0.8857421875,0.1123046875,0.048828125,30.553529411764707,300.6431107835942
1.06891943359375,0.0087451171875,0.2368701171875,1.0948847816119402,0.8779296875,0.1416015625,0.0546875,31.21235294117648,300.6431107835942
1.07331396484375,0.0004443359375,0.2422412109375,1.1003108055633657,0.9970703125,0.13671875,0.0439453125,30.50647058823529,300.6431107835942
1.06891943359375,-0.1103955078125,0.2402880859375,1.101142265060728,0.890625,0.111328125,0.044921875,30.60058823529412,300.6431107835942
1.07526708984375,-0.1113720703125,0.2490771484375,1.1093432644679897,0.99609375,0.087890625,0.03857421875,30.553529411764707,300.6431107835942
1.07917333984375,0.0072802734375,0.2407763671875,1.1057311421891167,0.88427734375,0.0634765625,0.0537109375,30.553529411764707,301.0360388303687
1.06745458984375,0.0028857421875,0.2358935546875,1.093212421274825,0.865234375,0.10205078125,0.07421875,30.50647058823529,301.0360388303687
1.06696630859375,-0.0098095703125,0.2671435546875,1.099945003241054,0.8896484375,0.00341796875,0.0341796875,30.553529411764707,301.0360388303687
1.08503271484375,-0.1079541015625,0.2373583984375,1.1159252168645442,0.8896484375,-0.04345703125,0.0556640625,30.553529411764707,301.0360388303687
1.05182958984375,-0.0005322265624999,0.2305224609375,1.0767944902963915,0.88427734375,0.111328125,0.06298828125,29.80058823529412,301.0360388303687
1.09284521484375,0.0063037109375,0.2534716796875,1.121872672268145,0.88525390625,0.11767578125,0.0458984375,30.64764705882353,301.0360388303687
1.07819677734375,0.0014208984375,0.2437060546875,1.1053971913833347,0.888671875,0.0185546875,0.06787109375,30.64764705882353,301.0360388303687
1.05622412109375,0.0063037109375,0.2358935546875,1.0822637848024632,0.89208984375,0.123046875,0.0732421875,30.50647058823529,301.0360388303687
1.06696630859375,0.0038623046875,0.2393115234375,1.0934816076741525,0.9931640625,0.06005859375,0.05615234375,30.50647058823529,300.5139338405563
1.19977880859375,-0.1113720703125,0.2505419921875,1.2307088272396571,0.8818359375,0.03173828125,0.06103515625,30.553529411764707,300.5139338405563
1.08014990234375,0.0043505859375,0.2524951171875,1.1092774780616173,0.8818359375,0.04931640625,0.0556640625,30.50647058823529,300.5139338405563
1.09138037109375,0.0063037109375,0.2461474609375,1.1188116122503793,0.87744140625,0.08935546875,0.0791015625,30.60058823529412,300.5139338405563
1.06306005859375,0.0023974609375,0.2466357421875,1.091298137687714,0.86279296875,0.13427734375,0.0390625,30.64764705882353,300.5139338405563
1.06843115234375,0.0272998046875,0.2446826171875,1.0964305677006154,0.8720703125,0.0400390625,-0.00341796875,30.60058823529412,300.5139338405563
1.07819677734375,-0.1020947265625,0.2573779296875,1.1131823851267786,0.8701171875,0.11962890625,0.0390625,30.553529411764707,300.5139338405563
1.03669287109375,-0.0019970703125,0.2314990234375,1.0622277981294557,0.87939453125,0.068359375,0.07421875,30.50647058823529,300.5139338405563
1.05182958984375,-0.0015087890625,0.2490771484375,1.0809196031107322,0.869140625,0.03369140625,0.10302734375,30.553529411764707,300.5139338405563
1.09333349609375,-0.0098095703125,0.2388232421875,1.1191563350842666,0.99658203125,0.12109375,0.048828125,30.412352941176472,300.74018690404887
1.06598974609375,0.1273974609375,0.2358935546875,1.0991860720430566,0.7529296875,0.033203125,0.06689453125,29.80058823529412,300.74018690404887
1.07038427734375,0.0087451171875,0.2534716796875,1.1000213046404728,0.99658203125,0.04931640625,0.06298828125,30.60058823529412,300.74018690404887
1.08698583984375,0.0063037109375,0.2622607421875,1.1181943702617827,0.873046875,0.11669921875,0.0595703125,30.64764705882353,300.74018690404887
1.07868505859375,0.0126513671875,0.2441943359375,1.1060526146748495,0.86572265625,-0.12109375,0.0537109375,30.64764705882353,300.74018690404887
1.06110693359375,-0.1079541015625,0.2251513671875,1.0900895149992489,0.87890625,0.05224609375,0.0439453125,30.60058823529412,300.74018690404887
1.07477880859375,0.0077685546875,0.2515185546875,1.1038439297274871,0.8798828125,0.01171875,0.04638671875,30.553529411764707,300.74018690404887
1.07526708984375,0.0038623046875,0.2437060546875,1.1025456330646333,0.89013671875,0.02587890625,0.04296875,30.50647058823529,300.74018690404887
1.06989599609375,0.0116748046875,0.2422412109375,1.0970389910109828,0.884765625,0.09423828125,0.0537109375,30.50647058823529,300.74018690404887
1.07429052734375,0.0092333984375,0.2451708984375,1.1019501632233053,0.8828125,0.0869140625,0.05859375,30.553529411764707,300.74018690404887
1.07233740234375,0.0038623046875,0.2544482421875,1.102119017989958,0.88720703125,0.06005859375,0.05908203125,31.21235294117648,300.74018690404887
1.06550146484375,-0.0049267578125,0.2422412109375,1.0927023605736317,0.7529296875,0.0693359375,0.03271484375,30.60058823529412,300.74018690404887
1.06159521484375,0.0014208984375,0.2607958984375,1.093160976148225,0.9970703125,0.06591796875,0.046875,30.553529411764707,300.74018690404887
1.20319677734375,0.0004443359375,0.2524951171875,1.2294049237937597,0.7548828125,0.01708984375,0.052734375,30.553529411764707,300.74018690404887
1.06843115234375,0.0058154296875,0.2578662109375,1.0991241646257746,0.88134765625,0.0234375,0.05615234375,30.60058823529412,300.74018690404887
1.09040380859375,-0.0063916015625,0.2539599609375,1.1196057253005032,0.89013671875,-0.03466796875,0.046875,30.60058823529412,300.74018690404887
1.05427099609375,0.0048388671875,0.2451708984375,1.0824137458850092,0.89111328125,0.01904296875,0.03515625,30.553529411764707,300.74018690404887
1.06306005859375,0.0106982421875,0.2510302734375,1.092349458161332,0.87451171875,-0.06396484375,0.029296875,30.60058823529412,300.8451473521079
1.20270849609375,-0.1094189453125,0.2383349609375,1.2309686372018052,0.8828125,-0.0849609375,0.02587890625,30.50647058823529,300.8451473521079
1.06745458984375,0.0067919921875,0.2485888671875,1.0960391678338544,0.88671875,-0.11865234375,0.0419921875,30.64764705882353,300.8451473521079
1.10944677734375,-0.0015087890625,0.2437060546875,1.1358992337765768,0.88623046875,-0.0869140625,0.041015625,30.60058823529412,300.8451473521079
1.05720068359375,0.1347216796875,0.2510302734375,1.0949152545064935,0.8896484375,0.0166015625,0.04833984375,30.60058823529412,300.8451473521079
1.09089208984375,-0.0005322265624999,0.2524951171875,1.1197319407573885,0.880859375,-0.056640625,0.0302734375,30.553529411764707,300.8451473521079
1.07282568359375,-0.1103955078125,0.2397998046875,1.1048285214691644,0.86474609375,-0.03662109375,0.0673828125,30.60058823529412,300.8451473521079
1.06843115234375,-0.0078564453125,0.2432177734375,1.0957927433358177,0.8818359375,0.0068359375,0.04833984375,30.553529411764707,300.8451473521079
1.07429052734375,0.0023974609375,0.2578662109375,1.1048080682646748,0.88232421875,-0.048828125,0.03369140625,30.50647058823529,300.7065459307026
1.07038427734375,0.0009326171875,0.2451708984375,1.098103884156764,0.8896484375,-0.07958984375,0.05517578125,30.50647058823529,300.7065459307026
1.05231787109375,-0.0054150390625,0.2261279296875,1.0763531321346564,0.888671875,-0.0263671875,0.0400390625,30.60058823529412,300.7065459307026
1.06598974609375,0.0004443359375,0.2515185546875,1.0952606628394592,0.88916015625,-0.072265625,0.02197265625,30.60058823529412,300.7065459307026
1.08405615234375,0.0028857421875,0.2495654296875,1.1124158272145426,0.8974609375,-0.16650390625,0.00830078125,30.50647058823529,300.7065459307026
1.09577490234375,0.0165576171875,0.2349169921875,1.1207956033603117,0.87255859375,-0.0966796875,0.0546875,30.50647058823529,300.7065459307026
1.06257177734375,0.0058154296875,0.2285693359375,1.086893068595442,0.89208984375,0.013671875,-0.02587890625,30.553529411764707,300.7065459307026
1.08552099609375,0.0077685546875,0.2568896484375,1.1155305799827464,0.9033203125,-0.11279296875,-0.04296875,29.753529411764703,300.7065459307026
1.20417333984375,0.0111865234375,0.2393115234375,1.2277738293134637,0.90478515625,-0.1875,0.0078125,30.553529411764707,300.7065459307026
1.06843115234375,0.0170458984375,0.2388232421875,1.0949302402258714,0.88671875,-0.12890625,0.02734375,30.553529411764707,300.7276914851413
1.07233740234375,0.0028857421875,0.2417529296875,1.0992544341442538,0.89306640625,-0.06298828125,0.03271484375,30.60058823529412,300.7276914851413
1.07282568359375,0.0038623046875,0.2520068359375,1.1020332618097903,0.89404296875,-0.10791015625,0.02734375,30.60058823529412,300.7276914851413
1.06208349609375,0.0048388671875,0.2539599609375,1.0920349944345913,0.89208984375,-0.19287109375,0.03466796875,30.64764705882353,300.7276914851413
1.07575537109375,0.0019091796875,0.2422412109375,1.1026940045545714,0.88037109375,-0.17333984375,0.03759765625,30.50647058823529,300.7276914851413
1.06598974609375,0.0097216796875,0.2388232421875,1.0924583245332122,0.8837890625,-0.13916015625,0.02490234375,30.64764705882353,300.7276914851413
1.07819677734375,0.1352099609375,0.2402880859375,1.1128919033107734,0.88671875,-0.1103515625,0.03173828125,30.50647058823529,300.7276914851413
1.20563818359375,0.0053271484375,0.2437060546875,1.2300343285213866,0.8828125,-0.09521484375,0.0390625,30.50647058823529,300.7276914851413
1.08356787109375,0.0175341796875,0.2329638671875,1.1084669332636452,0.88134765625,-0.09228515625,0.03173828125,29.84764705882353,300.64157186059987
1.07624365234375,0.0106982421875,0.2441943359375,1.1036510885692423,0.88037109375,-0.09326171875,0.0400390625,30.60058823529412,300.64157186059987
1.07917333984375,0.0097216796875,0.2461474609375,1.1069318773128898,0.9990234375,-0.11572265625,0.05078125,30.64764705882353,300.64157186059987
1.07819677734375,0.0097216796875,0.2285693359375,1.1022008633009248,0.8779296875,-0.00244140625,0.05810546875,31.21235294117648,300.64157186059987
1.07184912109375,-0.1094189453125,0.2339404296875,1.1025249061246265,0.998046875,-0.10498046875,0.05810546875,30.50647058823529,300.64157186059987
1.06891943359375,0.0033740234375,0.2295458984375,1.0932938575872542,0.86181640625,-0.072265625,0.03662109375,30.50647058823529,300.64157186059987
1.07526708984375,0.0028857421875,0.2314990234375,1.0999088325227395,0.873046875,-0.07861328125,0.02880859375,30.64764705882353,300.64157186059987
1.07868505859375,0.0116748046875,0.2363818359375,1.1043433021751323,0.8779296875,-0.10205078125,0.03466796875,30.60058823529412,300.64157186059987
1.20466162109375,0.0126513671875,0.2324755859375,1.226953371764762,0.8701171875,-0.0859375,0.03564453125,30.60058823529412,300.63061470347014
1.08649755859375,0.0116748046875,0.2422412109375,1.1132358466071497,0.75,-0.1083984375,0.03466796875,30.553529411764707,300.63061470347014
1.08307958984375,0.0121630859375,0.2358935546875,1.1085373731808654,0.8671875,-0.126953125,0.0419921875,29.753529411764703,300.63061470347014
1.08307958984375,0.0082568359375,0.2437060546875,1.1101901703614343,0.88232421875,-0.13330078125,0.03564453125,30.60058823529412,300.63061470347014
1.07575537109375,-0.1099072265625,0.2388232421875,1.1074139957110267,0.8720703125,-0.12939453125,0.04638671875,30.553529411764707,300.63061470347014
1.07575537109375,0.0126513671875,0.2310107421875,1.1003525064881636,0.75390625,-0.08447265625,0.0537109375,30.60058823529412,300.63061470347014
0.96100927734375,-0.1113720703125,0.2246630859375,0.9931848122929636,0.87353515625,-0.041015625,0.06201171875,30.50647058823529,300.63061470347014
1.06940771484375,0.0033740234375,0.2271044921875,1.0932614943247705,0.86572265625,-0.0078125,0.0537109375,30.553529411764707,300.63061470347014
1.07429052734375,0.0111865234375,0.2275927734375,1.0981911245170866,0.873046875,-0.01806640625,0.05419921875,30.60058823529412,300.63061470347014
1.07624365234375,0.0092333984375,0.2339404296875,1.1014144449294698,0.8857421875,-0.00390625,0.04248046875,30.64764705882353,300.82476895951135
1.07575537109375,0.0077685546875,0.2314990234375,1.100409817627733,0.884765625,-0.00830078125,0.05615234375,30.50647058823529,300.82476895951135
1.08454443359375,0.0146044921875,0.2275927734375,1.1082636825919254,0.87646484375,-0.033203125,0.0546875,30.50647058823529,300.82476895951135
1.08210302734375,0.0087451171875,0.2310107421875,1.106521306558148,0.8876953125,-0.05810546875,0.0654296875,30.553529411764707,300.82476895951135
1.07819677734375,0.0077685546875,0.2275927734375,1.1019832628662534,0.88330078125,-0.03564453125,0.0595703125,30.60058823529412,300.82476895951135
1.07575537109375,0.0087451171875,0.2290576171875,1.099906126677768,0.880859375,-0.0712890625,0.0712890625,30.50647058823529,300.82476895951135
1.07233740234375,0.1366748046875,0.2310107421875,1.1054200422046487,0.75341796875,-0.09375,0.06640625,30.60058823529412,300.82476895951135
1.10016943359375,0.0136279296875,0.2290576171875,1.123844248583039,0.8779296875,0.0390625,0.1142578125,30.553529411764707,300.82476895951135
1.06452490234375,-4.394531249999993e-05,0.2153857421875,1.0860958924417408,0.86328125,0.23583984375,0.0390625,30.60058823529412,300.7613320388601
1.06306005859375,-0.0015087890625,0.2603076171875,1.0944674596293926,0.88232421875,0.0087890625,-0.12451171875,30.553529411764707,300.7613320388601
1.08796240234375,0.0116748046875,0.2280810546875,1.1116741687587408,0.89111328125,-0.01513671875,0.06494140625,30.64764705882353,300.7613320388601
1.07184912109375,0.0121630859375,0.2344287109375,1.0972535256542972,0.7529296875,0.0703125,0.08544921875,30.553529411764707,300.7613320388601
1.20661474609375,0.0092333984375,0.2354052734375,1.2293982446301828,0.87353515625,0.04296875,0.0712890625,30.50647058823529,300.7613320388601
1.08503271484375,0.0082568359375,0.2363818359375,1.1105136379090896,0.88623046875,-0.03125,0.06884765625,30.69470588235294,300.7613320388601
1.07770849609375,0.0102099609375,0.2280810546875,1.101626440025093,0.8798828125,-0.017578125,0.07763671875,30.50647058823529,300.7613320388601
1.07526708984375,-0.1060009765625,0.2344287109375,1.1056185336928233,0.85986328125,0.0263671875,0.09228515625,31.21235294117648,300.7613320388601
1.07770849609375,0.0048388671875,0.2305224609375,1.1020978278651092,0.99853515625,0.0625,0.10498046875,31.16529411764706,300.6744434158998
1.07575537109375,0.0121630859375,0.2290576171875,1.0999386124180706,0.86865234375,0.07373046875,0.1025390625,30.553529411764707,300.6744434158998
1.07770849609375,0.0072802734375,0.2329638671875,1.102624491088844,0.86181640625,0.09228515625,0.0791015625,30.553529411764707,300.6744434158998
1.08014990234375,0.0136279296875,0.2393115234375,1.106426471687458,0.8642578125,0.099609375,0.0869140625,30.60058823529412,300.6744434158998
1.07233740234375,0.0067919921875,0.2373583984375,1.0983135458201505,0.87109375,0.11279296875,0.0927734375,30.553529411764707,300.6744434158998
1.07673193359375,0.0077685546875,0.2354052734375,1.1021922019433146,0.8681640625,0.109375,0.09423828125,30.50647058823529,300.6744434158998
1.07917333984375,0.0106982421875,0.2290576171875,1.1032664872128728,0.88134765625,0.0947265625,0.083984375,30.64764705882353,300.6744434158998
1.20368505859375,0.0048388671875,0.2422412109375,1.2278281391114818,0.8720703125,0.09130859375,0.07763671875,30.50647058823529,300.6744434158998
1.07526708984375,0.0116748046875,0.2368701171875,1.101109925476089,0.875,0.10302734375,0.05712890625,30.553529411764707,300.6744434158998
1.07917333984375,0.0077685546875,0.2388232421875,1.1053108109850351,0.8681640625,0.09375,0.06005859375,30.60058823529412,300.62119623789886
1.07966162109375,0.0082568359375,0.2412646484375,1.106320939866978,0.87255859375,0.0810546875,0.06005859375,30.60058823529412,300.62119623789886
1.07136083984375,0.0087451171875,0.2339404296875,1.0966397087775457,0.8828125,0.1259765625,0.0478515625,30.69470588235294,300.62119623789886
1.07331396484375,0.0033740234375,0.2305224609375,1.0977954527868334,0.869140625,0.14501953125,0.0576171875,31.21235294117648,300.62119623789886
1.08161474609375,0.0111865234375,0.2388232421875,1.1077238547052304,0.7529296875,0.13232421875,0.06396484375,30.50647058823529,300.62119623789886
1.07282568359375,0.0053271484375,0.2324755859375,1.097737775584796,0.89111328125,0.1240234375,0.06103515625,30.553529411764707,300.62119623789886
1.07184912109375,0.0111865234375,0.2393115234375,1.0982967185355872,0.88427734375,0.1162109375,0.0595703125,30.50647058823529,300.62119623789886
1.08112646484375,0.0067919921875,0.2358935546875,1.106583179560635,0.88330078125,0.10009765625,0.05859375,30.553529411764707,300.62119623789886
1.08161474609375,0.0063037109375,0.2339404296875,1.1066428151763346,0.87939453125,0.11376953125,0.05078125,30.553529411764707,300.62119623789886
1.07233740234375,0.0106982421875,0.2349169921875,1.0978196345801372,0.8896484375,0.1025390625,0.052734375,30.60058823529412,300.99854758629425
1.07673193359375,0.0053271484375,0.2402880859375,1.1032308913253464,0.87646484375,0.09814453125,0.0546875,30.60058823529412,300.99854758629425
1.08112646484375,0.0067919921875,0.2368701171875,1.106791767479249,0.99853515625,0.08740234375,0.0380859375,30.60058823529412,300.99854758629425
1.08014990234375,0.0121630859375,0.2397998046875,1.1065151144565983,0.8837890625,0.115234375,0.0576171875,30.553529411764707,300.99854758629425
1.07966162109375,0.0053271484375,0.2437060546875,1.1068379446263152,0.88134765625,0.11474609375,0.0498046875,30.50647058823529,300.99854758629425
1.06794287109375,0.0063037109375,0.2471240234375,1.0961806400641656,0.8818359375,0.09423828125,0.0576171875,30.553529411764707,300.99854758629425
1.07477880859375,0.0097216796875,0.2471240234375,1.1028663932762142,0.87939453125,0.080078125,0.05029296875,30.64764705882353,300.99854758629425
1.07917333984375,0.0033740234375,0.2437060546875,1.1063539770593396,0.8857421875,0.06494140625,0.03564453125,30.553529411764707,300.99854758629425
1.07673193359375,-0.1099072265625,0.2407763671875,1.1087851524381114,0.8798828125,0.01953125,0.02978515625,30.50647058823529,300.74883729227633
0.95856787109375,0.0063037109375,0.2402880859375,0.9882461558277346,0.89501953125,0.02001953125,0.05712890625,30.64764705882353,300.74883729227633
1.08893896484375,0.0097216796875,0.2310107421875,1.1132154073749356,0.859375,0.0986328125,0.0849609375,31.21235294117648,300.74883729227633
1.06550146484375,0.0048388671875,0.2349169921875,1.0911016357050598,0.99951171875,0.1640625,0.03857421875,30.60058823529412,300.74883729227633
1.07380224609375,0.0077685546875,0.2427294921875,1.1009219865801194,0.8876953125,0.08544921875,0.00927734375,30.50647058823529,300.74883729227633
1.07429052734375,0.0082568359375,0.2437060546875,1.1016174261382932,0.880859375,0.05517578125,0.07177734375,30.553529411764707,300.74883729227633
1.07282568359375,0.0058154296875,0.2417529296875,1.099742354196353,0.87939453125,0.07568359375,0.078125,31.21235294117648,300.74883729227633
1.07868505859375,0.0111865234375,0.2363818359375,1.104338248138315,0.99609375,0.10009765625,0.06689453125,31.21235294117648,300.74883729227633
1.07477880859375,0.0053271484375,0.2354052734375,1.1002697435969326,0.88134765625,0.05322265625,0.05322265625,30.553529411764707,300.74883729227633
1.06891943359375,0.0043505859375,0.2397998046875,1.0954960654610066,0.880859375,0.03515625,0.05810546875,30.50647058823529,300.9977794165247
1.07819677734375,0.0053271484375,0.2378466796875,1.104132108138918,0.875,0.05224609375,0.07421875,30.553529411764707,300.9977794165247
1.07624365234375,0.0033740234375,0.2344287109375,1.101484726973638,0.9970703125,0.0546875,0.05810546875,30.50647058823529,300.9977794165247
1.07819677734375,0.0102099609375,0.2417529296875,1.105014485420568,0.88525390625,0.03955078125,0.04345703125,30.60058823529412,300.9977794165247
1.07380224609375,0.0028857421875,0.2349169921875,1.0992022491072229,0.9873046875,0.0439453125,0.04150390625,30.553529411764707,300.9977794165247
1.06940771484375,0.0087451171875,0.2417529296875,1.096427752592228,0.88134765625,0.06396484375,0.04736328125,30.50647058823529,300.9977794165247
1.07282568359375,0.0082568359375,0.2310107421875,1.0974466208996752,0.88623046875,0.03369140625,0.04345703125,30.50647058823529,300.9977794165247
1.07722021484375,-0.1108837890625,0.2349169921875,1.1080995438873231,0.87744140625,-0.12060546875,0.06005859375,30.50647058823529,300.9977794165247
1.07380224609375,0.0048388671875,0.2373583984375,1.0997334620990924,0.88232421875,-0.005859375,0.05908203125,30.60058823529412,300.8685976971319
1.06891943359375,0.0092333984375,0.2344287109375,1.0943632082964536,0.86962890625,-0.005859375,0.06298828125,30.60058823529412,300.8685976971319
1.07526708984375,-0.0005322265624999,0.2393115234375,1.1015759633434898,0.7509765625,-0.009765625,0.05859375,31.21235294117648,300.8685976971319
1.07966162109375,0.0341357421875,0.2515185546875,1.1090969517177316,0.87939453125,-0.0107421875,0.05859375,30.553529411764707,300.8685976971319
1.07331396484375,-0.0005322265624999,0.2319873046875,1.0980989299375057,0.880859375,-0.00732421875,0.05126953125,30.64764705882353,300.8685976971319
1.06891943359375,0.0341357421875,0.2383349609375,1.095699574707481,0.869140625,0.05810546875,0.03857421875,30.553529411764707,300.8685976971319
1.07087255859375,0.0019091796875,0.2441943359375,1.0983635807054783,0.89404296875,0.005859375,0.025390625,31.21235294117648,300.8685976971319
