AccX,AccY,AccZ,Magnitude,GyroX,GyroY,GyroZ,Temperature,Altitude
0.0274155273437499,-0.1611767578125,0.9526904296875,0.9666170975193016,1.49755859375,5.16943359375,0.4892578125,30.130000000000003,302.39193541169266
0.0493881835937499,-0.1299267578125,0.9277880859375,0.9381422533293808,1.60400390625,5.1611328125,0.48291015625,30.08294117647059,302.39193541169266
0.0337631835937499,-0.1221142578125,0.9238818359375,0.9325285471784382,1.7001953125,4.8544921875,0.5126953125,30.08294117647059,302.23080569926094
0.0283920898437499,0.0131396484375,0.8999560546875001,0.9004996732345033,1.7958984375,4.4169921875,0.521484375,30.130000000000003,302.23080569926094
0.0215561523437499,-0.1143017578125,0.8857958984375001,0.8934002088826666,1.91943359375,3.904296875,0.498046875,30.03588235294118,302.23080569926094
0.0122788085937499,-0.1060009765625,0.8745654296875001,0.881051455351597,2.001953125,3.46728515625,0.3642578125,30.130000000000003,302.23080569926094
0.0244858398437499,-0.1025830078125,0.8613818359375001,0.867814206571759,2.1015625,3.126953125,0.0400390625,30.03588235294118,302.23080569926094
0.0156967773437499,-0.0977001953125,0.8550341796875001,0.8607410559610573,2.18603515625,2.88134765625,-0.22998046875,30.08294117647059,302.23080569926094
0.0117905273437499,-0.1011181640625,0.8682177734375001,0.8741658891487271,2.18798828125,2.65625,-0.4326171875,30.08294117647059,302.25531107039814
-0.00920556640625,-0.1074658203125,0.8799365234375001,0.8865223800150634,2.2041015625,2.44775390625,-0.5771484375,30.08294117647059,302.25531107039814
-0.02824853515625,-0.1089306640625,0.8936083984375001,0.9006663305961898,2.17822265625,2.20849609375,-0.70068359375,30.03588235294118,302.25531107039814
-0.06486962890625,-0.1001416015625,0.9063037109375,0.9141240755920504,2.1884765625,2.0576171875,-0.83056640625,30.08294117647059,302.25531107039814
-0.08098291015625,-0.1113720703125,1.0464404296875005,1.0554617675063498,2.17724609375,2.005859375,-0.93359375,30.08294117647059,302.25531107039814
-0.10393212890625,-0.1118603515625,0.9448779296875,0.9571357937519668,2.14599609375,1.83154296875,-1.0107421875,30.03588235294118,302.25531107039814
-0.11076806640625,-0.1182080078125,0.9692919921875,0.982735805679834,2.05322265625,1.60009765625,-1.10693359375,30.08294117647059,302.25531107039814
-0.14445947265625,-0.1401806640625,0.9971240234375,1.0172391439250228,2.0498046875,1.7373046875,-1.32177734375,30.03588235294118,302.0049027738106
-0.04924462890625,-0.1514111328125,1.0073779296875005,1.0198826686620148,2.04736328125,2.22802734375,-1.4912109375,30.03588235294118,302.0049027738106
-0.21037744140625,-0.1538525390625,1.0093310546875005,1.0424387030349551,2.03466796875,2.85546875,-1.65087890625,30.03588235294118,302.0049027738106
-0.21037744140625,-0.1743603515625,0.9922412109375,1.0291757968065296,1.953125,3.2705078125,-1.7998046875,30.08294117647059,302.0049027738106
-0.21330712890625,-0.1797314453125,0.9722216796875,1.0114436801575912,1.80224609375,3.4599609375,-1.86669921875,30.17705882352941,302.0049027738106
-0.21477197265625,-0.1982861328125,0.9507373046875,0.9946586415594276,1.703125,3.34619140625,-1.76220703125,30.08294117647059,302.0049027738106
-0.19963525390625,-0.2007275390625,0.9356005859375,0.9774938546849764,1.55419921875,2.939453125,-1.60400390625,30.03588235294118,302.0049027738106
-0.18401025390625,-0.2056103515625,0.9448779296875,0.9843422637593257,1.4990234375,2.6240234375,-1.55615234375,30.08294117647059,302.0049027738106
-0.16643212890625,-0.2075634765625,0.9336474609375,0.9708140046631069,1.43603515625,2.08837890625,-1.48681640625,30.08294117647059,302.4235214620944
-0.28801416015625,-0.2124462890625,0.9434130859375,1.009016269891152,1.38818359375,1.84814453125,-1.3642578125,30.08294117647059,302.4235214620944
-0.14152978515625,-0.2163525390625,0.9614794921875,0.9956314153050304,1.376953125,1.31884765625,-1.13525390625,30.03588235294118,302.4235214620944
-0.11565087890625,-0.2227001953125,0.9658740234375,0.9979394430201456,1.3193359375,1.19482421875,-1.06298828125,30.130000000000003,302.4235214620944
-0.12102197265625,-0.2261181640625,0.9956591796875,1.0281599798088774,1.28564453125,1.35546875,-1.021484375,30.03588235294118,302.4235214620944
-0.16399072265625,-0.2173291015625,1.0098193359375005,1.0458776155633778,1.2763671875,1.6435546875,-0.84375,30.03588235294118,302.4235214620944
-0.18791650390625,-0.2046337890625,1.0122607421875005,1.049694912934426,1.3740234375,1.8876953125,-0.72607421875,30.03588235294118,302.4235214620944
-0.20305322265625,-0.1934033203125,1.0254443359375005,1.063095264614272,1.2294921875,2.03076171875,-0.64794921875,29.988823529411768,302.4235214620944
-0.22893212890625,-0.1787548828125,1.0029833984375005,1.0441929540636137,1.1982421875,2.15380859375,-0.54443359375,29.988823529411768,302.4235214620944
-0.24895166015625,-0.1777783203125,0.9829638671875,1.029465892812332,1.205078125,2.32177734375,-0.43310546875,30.08294117647059,302.05078350133186
-0.27385400390625,-0.1655712890625,0.9756396484375,1.0267826404943508,1.21240234375,2.52001953125,-0.27880859375,30.08294117647059,302.05078350133186
-0.30119775390625,-0.1543408203125,0.9482958984375,1.0068794797622458,1.21044921875,2.642578125,-0.15673828125,30.130000000000003,302.05078350133186
-0.32610009765625,-0.1450634765625,0.9404833984375,1.005929276172219,1.20068359375,2.65478515625,-0.23046875,30.08294117647059,302.05078350133186
-0.33781884765625,-0.1323681640625,1.0439990234375005,1.1052496847443694,1.19140625,2.6005859375,-0.2958984375,30.03588235294118,302.05078350133186
-0.34953759765625,-0.1348095703125,0.9116748046875,0.9856475546183509,1.14501953125,2.48974609375,-0.27392578125,30.03588235294118,302.05078350133186
-0.34563134765625,-0.1299267578125,0.9111865234375,0.9831596367693608,1.13916015625,2.09423828125,-0.23046875,30.03588235294118,302.05078350133186
-0.33098291015625,-0.2358837890625,0.9004443359375001,0.987922492344368,1.12548828125,1.5595703125,-0.13134765625,30.130000000000003,302.05078350133186
-0.33147119140625,-0.0937939453125,0.9048388671875,0.968196173553026,1.0966796875,1.44140625,-0.361328125,29.988823529411768,302.2026493604486
-0.33488916015625,-0.1045361328125,0.8970263671875001,0.963189937698248,1.0751953125,1.61572265625,-0.44287109375,30.03588235294118,302.2026493604486
-0.33781884765625,0.0106982421875,0.8984912109375001,0.959959625374752,1.04443359375,1.703125,-0.41162109375,30.130000000000003,302.2026493604486
-0.32707666015625,-0.1045361328125,0.9004443359375001,0.9636944260523068,1.06103515625,1.72607421875,-0.330078125,30.03588235294118,302.2026493604486
-0.30022119140625,-0.0913525390625,0.8877490234375001,0.941581849218,1.11474609375,1.54248046875,-0.24072265625,30.08294117647059,302.2026493604486
-0.16789697265625,-0.0752392578125,0.9004443359375001,0.9190486066934844,1.197265625,1.181640625,-0.1015625,30.08294117647059,302.2026493604486
-0.30852197265625,-0.0508251953125,0.9023974609375,0.9550341279748618,1.33740234375,0.81591796875,0.1435546875,30.08294117647059,302.2026493604486
-0.32121728515625,-0.0298291015625,0.9146044921875,0.96983075673683,1.48974609375,0.41748046875,0.423828125,30.224117647058826,302.2026493604486
-0.32854150390625,0.0023974609375,0.9404833984375,0.9962200009759274,1.724609375,0.140625,0.67919921875,30.03588235294118,302.03318500365685
-0.30901025390625,0.0243701171875,0.9297412109375,0.9800509981355392,1.76611328125,0.13525390625,0.75,30.130000000000003,302.03318500365685
-0.29533837890625,0.0468310546875,1.0498583984375005,1.091613742359388,2.04931640625,0.234375,0.74658203125,30.03588235294118,302.03318500365685
-0.27434228515625,0.0565966796875,0.9155810546875,0.957473519884011,2.14404296875,0.451171875,0.3251953125,30.03588235294118,302.03318500365685
-0.24211572265625,0.0634326171875,0.8848193359375001,0.9195373713609972,2.16064453125,0.599609375,0.123046875,30.08294117647059,302.03318500365685
-0.19572900390625,0.0522021484375,0.8716357421875001,0.8948652269087104,2.24560546875,0.62158203125,-0.35009765625,29.94176470588236,302.03318500365685
-0.19572900390625,0.0312060546875,0.8452685546875001,0.8681950186235736,1.9619140625,0.1279296875,-0.51123046875,30.08294117647059,302.03318500365685
-0.18352197265625,0.0014208984375,0.8301318359375001,0.8501771570896124,1.99609375,-0.3681640625,-0.95849609375,30.08294117647059,302.03318500365685
-0.18010400390625,-0.0229931640625,0.8101123046875001,0.8302096626893477,1.75732421875,-0.8974609375,-1.1748046875,30.08294117647059,302.03318500365685
-0.17815087890625,-0.0430126953125,0.8193896484375001,0.8396351729052597,1.64453125,-1.677734375,-1.34912109375,30.03588235294118,302.19515264390344
-0.18010400390625,-0.0654736328125,0.8164599609375001,0.8386483867693258,1.54833984375,-2.0869140625,-1.47265625,30.03588235294118,302.19515264390344
-0.19279931640625,-0.0996533203125,0.8203662109375001,0.8485888761373047,1.43505859375,-2.39208984375,-1.41845703125,30.08294117647059,302.19515264390344
-0.23381494140625,-0.1025830078125,0.8579638671875001,0.8951506564349924,1.3876953125,-2.55078125,-1.044921875,30.03588235294118,302.19515264390344
-0.23918603515625,-0.1269970703125,0.8745654296875001,0.915534218959732,1.34912109375,-2.74267578125,-0.548828125,29.988823529411768,302.19515264390344
-0.20549462890625,-0.1309033203125,0.8774951171875001,0.9106928145461888,1.30224609375,-2.75634765625,0.02734375,30.130000000000003,302.19515264390344
-0.18108056640625,-0.1172314453125,0.9160693359375,0.9411250775242568,1.3037109375,-2.57373046875,0.22900390625,30.08294117647059,302.19515264390344
-0.18205712890625,-0.1035595703125,0.9429248046875,0.9659071229077136,1.33203125,-2.37744140625,0.4912109375,30.03588235294118,302.19515264390344
-0.21330712890625,-0.0845166015625,0.9668505859375,0.9937016869813542,1.30419921875,-2.23779296875,0.84228515625,30.03588235294118,302.19515264390344
-0.22990869140625,-0.0830517578125,0.9834521484375,1.013377387317388,1.3193359375,-1.8466796875,1.09619140625,30.08294117647059,302.0559989604811
-0.23235009765625,-0.0771923828125,0.9922412109375,1.0220018847966263,1.34130859375,-1.693359375,1.205078125,30.17705882352941,302.0559989604811
-0.21379541015625,-0.0708447265625,1.0151904296875005,1.0398745410936292,1.34619140625,-1.6826171875,1.24609375,30.08294117647059,302.0559989604811
-0.22111962890625,-0.0752392578125,1.0064013671875005,1.033149818797198,1.328125,-1.67333984375,1.35888671875,29.988823529411768,302.0559989604811
-0.24065087890625,-0.0649853515625,1.0278857421875005,1.0576790819659811,1.3876953125,-1.65478515625,1.52099609375,30.130000000000003,302.0559989604811
-0.24358056640625,-0.0488720703125,1.0313037109375005,1.0608050319360662,1.40380859375,-1.77978515625,1.5361328125,30.08294117647059,302.0559989604811
-0.23186181640625,-0.0425244140625,1.0503466796875005,1.0764740476338113,1.49462890625,-1.9541015625,1.47900390625,30.08294117647059,302.0559989604811
-0.22453759765625,-0.0303173828125,0.9282763671875,0.9555277548772,1.29296875,-2.04296875,1.04052734375,30.03588235294118,302.0559989604811
-0.23137353515625,-0.0361767578125,1.0669482421875005,1.0923465668383463,1.2138671875,-1.89990234375,0.99560546875,30.03588235294118,301.9480216589302
-0.23625634765625,-0.0210400390625,1.0850146484375005,1.1106378943542197,1.216796875,-1.6982421875,0.76904296875,30.03588235294118,301.9480216589302
-0.22942041015625,-0.0039501953125,1.0840380859375005,1.10805591032326,1.263671875,-0.98388671875,0.52099609375,30.130000000000003,301.9480216589302
-0.22356103515625,0.0053271484375,1.0654833984375005,1.088697748365695,1.29443359375,0.052734375,0.3193359375,29.988823529411768,301.9480216589302
-0.19865869140625,-0.0029736328125,1.0542529296875005,1.0728109609423389,1.35888671875,0.78466796875,0.17724609375,30.08294117647059,301.9480216589302
-0.19182275390625,-0.0059033203125,0.9976123046875,1.0159040941795614,1.40576171875,1.07080078125,0.2021484375,30.130000000000003,301.9480216589302
-0.17766259765625,-0.0010205078125,0.9678271484375,0.983999201877128,1.45751953125,1.033203125,0.27001953125,30.08294117647059,301.9480216589302
-0.15959619140625,0.0126513671875,0.9380419921875,0.9516058955839792,1.49560546875,0.8017578125,0.271484375,30.08294117647059,302.324206423272
-0.18156884765625,0.0028857421875,0.9043505859375,0.9224020577994668,1.478515625,0.69580078125,0.31591796875,30.03588235294118,302.324206423272
-0.19328759765625,0.0146044921875,0.8760302734375001,0.8972192745247732,1.42138671875,0.6611328125,0.3583984375,30.08294117647059,302.324206423272
-0.18791650390625,0.0248583984375,0.8750537109375001,0.8953488423171804,1.3515625,0.4521484375,0.3330078125,30.03588235294118,302.324206423272
-0.15178369140625,0.0136279296875,0.8511279296875001,0.864663380824356,1.232421875,0.1181640625,0.28515625,30.03588235294118,302.324206423272
-0.10295556640625,0.0399951171875,0.8550341796875001,0.8621385657113071,1.24560546875,-0.59326171875,0.1796875,30.03588235294118,302.324206423272
-0.08635400390625,0.0312060546875,0.8608935546875001,0.8657762669086508,1.09912109375,-1.30517578125,0.236328125,30.08294117647059,302.324206423272
-0.16594384765625,-0.0039501953125,0.9019091796875,0.9170567774257748,0.9775390625,-2.84619140625,0.13818359375,29.988823529411768,302.324206423272
0.0069077148437499,-0.0488720703125,0.9526904296875,0.9539681601600476,0.7802734375,-4.29443359375,-0.14404296875,30.17705882352941,302.324206423272
-0.02385400390625,-0.1011181640625,1.0698779296875005,1.0749105455981636,0.8583984375,-5.41357421875,-0.81640625,30.03588235294118,302.00288114628626
-0.13615869140625,-0.1401806640625,1.1089404296875005,1.1260278346550603,0.755859375,-5.67578125,-0.69140625,30.03588235294118,302.00288114628626
-0.22551416015625,-0.1733837890625,1.1743701171875005,1.2083309757196623,0.6064453125,-4.35888671875,-0.4580078125,30.130000000000003,302.00288114628626
-0.34026025390625,-0.1499462890625,1.2065966796875005,1.2625911758858688,0.638671875,-1.00830078125,-0.3525390625,30.130000000000003,302.00288114628626
-0.41301416015625,-0.1250439453125,1.2036669921875005,1.2786832730706192,0.619140625,2.33740234375,0.05419921875,30.08294117647059,302.00288114628626
-0.53899072265625,-0.1157666015625,1.1514208984375005,1.276590376943778,0.6220703125,5.115234375,0.60009765625,30.130000000000003,302.00288114628626
-0.39445947265625,-0.0967236328125,1.0684130859375005,1.143004925149138,0.72802734375,6.4580078125,1.208984375,30.08294117647059,302.00288114628626
-0.33488916015625,-0.0654736328125,0.9917529296875,1.048814292297528,0.75048828125,6.306640625,1.73046875,30.130000000000003,302.00288114628626
-0.25481103515625,-0.0200634765625,0.9453662109375,0.9793102059671897,0.74169921875,5.09033203125,2.18994140625,29.988823529411768,302.00288114628626
-0.13518212890625,0.0087451171875,1.0391162109375005,1.0479089582990293,0.76318359375,2.81884765625,2.15234375,30.03588235294118,302.2298086059327
-0.08537744140625,0.0180224609375,0.9023974609375,0.906606471466958,0.8017578125,0.9267578125,1.798828125,30.130000000000003,302.2298086059327
-0.10783837890625,0.0341357421875,0.9346240234375,0.9414438007902118,0.83251953125,-0.6025390625,1.5478515625,30.08294117647059,302.2298086059327
-0.14885400390625,0.0365771484375,0.9766162109375,0.9885720134277828,0.90234375,-1.48681640625,1.4404296875,30.08294117647059,302.2298086059327
-0.18401025390625,0.0434130859375,0.9956591796875,1.0134503794805372,1.01953125,-1.45166015625,1.359375,29.988823529411768,302.2298086059327
-0.17375634765625,0.0551318359375,1.0034716796875005,1.019895190507109,1.22705078125,-0.2607421875,1.23974609375,30.03588235294118,302.2298086059327
-0.29045556640625,0.0634326171875,0.9902880859375,1.0339529129169225,1.32275390625,0.861328125,0.99169921875,30.130000000000003,302.2298086059327
-0.18205712890625,0.0644091796875,0.9482958984375,0.9677595009127986,1.3505859375,1.6123046875,0.99755859375,30.08294117647059,302.2298086059327
-0.18449853515625,0.0424365234375,0.9287646484375,0.9478630387263216,1.31494140625,1.43505859375,0.7685546875,30.03588235294118,302.445766972287
-0.19621728515625,0.0268115234375,0.9102099609375,0.9315053696962644,1.26025390625,0.923828125,0.73291015625,30.03588235294118,302.445766972287
-0.20793603515625,0.0219287109375,0.9058154296875,0.929634259125508,1.24853515625,0.1865234375,0.81201171875,30.08294117647059,302.445766972287
-0.21916650390625,0.0053271484375,0.9121630859375,0.9381384920639312,1.201171875,-0.29443359375,0.884765625,30.130000000000003,302.445766972287
-0.20305322265625,-0.0049267578125,0.9209521484375,0.9430841658543944,1.1728515625,-0.44482421875,1.20849609375,30.03588235294118,302.445766972287
-0.20988916015625,-0.0156689453125,0.9434130859375,0.9666060345954908,1.21435546875,-0.24609375,1.421875,30.08294117647059,302.445766972287
-0.19865869140625,-0.0273876953125,0.9531787109375,0.974045695288598,1.2734375,0.3203125,1.51416015625,30.08294117647059,302.445766972287
-0.19133447265625,-0.0469189453125,0.9482958984375,0.9685429153368827,1.31494140625,0.8701171875,1.52587890625,30.03588235294118,302.445766972287
-0.19377587890625,-0.0640087890625,0.9619677734375,0.983375926823226,1.39599609375,1.2275390625,1.5625,30.08294117647059,302.2399100855437
-0.18986962890625,-0.0820751953125,0.9600146484375,0.9820463018010704,1.4599609375,1.4404296875,1.634765625,30.08294117647059,302.2399100855437
-0.19035791015625,-0.0835400390625,0.9526904296875,0.9751072386685335,1.5478515625,1.57666015625,1.6865234375,30.03588235294118,302.2399100855437
-0.29045556640625,-0.0815869140625,0.9395068359375,0.9867593198829744,1.62158203125,1.66162109375,1.68212890625,30.130000000000003,302.2399100855437
-0.18938134765625,-0.0547314453125,0.9048388671875,0.926063821515154,1.7451171875,2.10693359375,1.81103515625,30.03588235294118,302.2399100855437
-0.22063134765625,-0.0215283203125,0.8853076171875001,0.912639708315554,1.86572265625,2.40478515625,2.001953125,30.03588235294118,302.2399100855437
-0.20647119140625,0.0243701171875,0.8823779296875001,0.9065401625366896,1.875,2.23583984375,2.36572265625,30.03588235294118,302.2399100855437
-0.17815087890625,0.0619677734375,0.8677294921875001,0.8879933627070911,1.83544921875,1.5556640625,2.21484375,30.130000000000003,302.2399100855437
-0.22160791015625,0.1278857421875,0.8364794921875001,0.8747358285499264,1.9990234375,1.43505859375,1.9111328125,30.03588235294118,302.2399100855437
-0.26262353515625,0.1723193359375,0.8389208984375001,0.895797604702697,2.12353515625,0.658203125,1.41845703125,30.03588235294118,302.1876625234369
-0.23039697265625,0.1635302734375,0.8438037109375001,0.889848086996654,1.81884765625,-0.837890625,0.8076171875,30.03588235294118,302.1876625234369
-0.24455712890625,0.1571826171875,0.8735888671875001,0.920691084630844,1.666015625,-2.87646484375,0.171875,30.03588235294118,302.1876625234369
-0.28752587890625,0.1659716796875,0.9243701171875,0.982180147960818,1.55126953125,-4.44677734375,-0.1748046875,30.130000000000003,302.1876625234369
-0.33147119140625,0.1635302734375,0.9761279296875,1.043762921442809,1.4443359375,-5.41845703125,-0.5869140625,30.03588235294118,302.1876625234369
-0.32707666015625,0.1356982421875,1.0254443359375005,1.084863696810823,1.30615234375,-5.74560546875,-0.9970703125,30.03588235294118,302.1876625234369
-0.35246728515625,0.1156787109375,1.0977099609375005,1.1586983686926409,1.2001953125,-5.0380859375,-1.19677734375,30.03588235294118,302.1876625234369
-0.33195947265625,0.0878466796875,1.1392138671875005,1.1898413195929252,1.1767578125,-3.77197265625,-1.4189453125,30.03588235294118,302.1876625234369
-0.33098291015625,0.0746630859375,1.1699755859375005,1.2181818972990068,1.21484375,-1.47509765625,-1.5478515625,30.03588235294118,302.1328024606494
-0.35246728515625,0.0683154296875,1.1650927734375005,1.219156001402237,1.24853515625,0.755859375,-1.78759765625,30.03588235294118,302.1328024606494
-0.29485009765625,0.0497607421875,1.1411669921875005,1.179692678458766,1.2861328125,3.33349609375,-2.2158203125,30.03588235294118,302.1328024606494
-0.24455712890625,0.0102099609375,1.0645068359375005,1.092285327356768,1.32861328125,5.22509765625,-2.732421875,30.08294117647059,302.1328024606494
-0.22844384765625,-0.0449658203125,0.9907763671875,1.017765359159776,1.30419921875,6.03857421875,-2.9091796875,30.08294117647059,302.1328024606494
-0.21184228515625,-0.0688916015625,0.9229052734375,0.9494089478643094,1.3037109375,5.6533203125,-2.97705078125,30.130000000000003,302.1328024606494
-0.16350244140625,-0.0815869140625,0.8521044921875001,0.8714766425430823,1.1337890625,3.95263671875,-2.90771484375,29.988823529411768,302.1328024606494
-0.14494775390625,-0.0893994140625,0.7979052734375001,0.8158767872519458,0.845703125,1.734375,-2.67529296875,30.08294117647059,302.1328024606494
-0.13762353515625,-0.1162548828125,0.8110888671875001,0.8308553337869077,0.544921875,-0.81201171875,-2.30517578125,30.08294117647059,302.07881366097644
-0.16057275390625,-0.1333447265625,0.8491748046875001,0.8744496979901811,0.2900390625,-2.31396484375,-1.85888671875,30.03588235294118,302.07881366097644
-0.20305322265625,-0.1362744140625,0.9019091796875,0.9344739137952144,0.080078125,-3.0009765625,-1.2314453125,30.03588235294118,302.07881366097644
-0.22697900390625,-0.1416455078125,0.9605029296875,0.9970701058782202,-0.04296875,-2.51318359375,-0.78857421875,30.130000000000003,302.07881366097644
-0.24358056640625,-0.1396923828125,0.9976123046875,1.0363762659432765,-0.06298828125,-1.6728515625,-0.4345703125,30.03588235294118,302.07881366097644
-0.24846337890625,-0.2358837890625,1.0347216796875005,1.089965213672122,-0.09423828125,-1.1484375,0.32275390625,30.08294117647059,302.07881366097644
-0.21770166015625,-0.0718212890625,1.0908740234375005,1.1147010565205842,-0.09130859375,-1.14990234375,1.142578125,30.08294117647059,302.07881366097644
-0.19475244140625,-0.0435009765625,1.1099169921875005,1.1277129856227308,-0.046875,-0.99462890625,1.87255859375,30.03588235294118,302.07881366097644
-0.22160791015625,0.0053271484375,1.1206591796875005,1.1423727243645818,0.07177734375,0.068359375,2.30078125,30.130000000000003,302.2298086059327
-0.33000634765625,0.0248583984375,1.1211474609375005,1.1689712394378653,0.2265625,1.9091796875,2.56103515625,30.03588235294118,302.2298086059327
-0.41154931640625,0.0478076171875,1.0894091796875005,1.1655345421234802,0.32373046875,3.7919921875,2.96044921875,30.03588235294118,302.2298086059327
-0.42766259765625,0.0756396484375,1.0230029296875005,1.1113737661106855,0.3310546875,4.9111328125,3.13623046875,30.03588235294118,302.2298086059327
-0.39348291015625,0.0897998046875,0.9614794921875,1.0427538632889728,0.380859375,5.00537109375,3.31103515625,29.988823529411768,302.2298086059327
-0.32317041015625,0.1215380859375,0.9097216796875,0.9730386193915206,0.40234375,4.02001953125,3.1396484375,30.03588235294118,302.2298086059327
-0.25481103515625,0.1659716796875,0.8721240234375001,0.9236209040252948,0.41650390625,2.5166015625,2.81640625,30.08294117647059,302.2298086059327
-0.19719384765625,0.2133349609375,0.8604052734375001,0.9081268929344292,0.4697265625,1.181640625,2.376953125,30.03588235294118,302.2298086059327
-0.18401025390625,0.2587451171875,0.8433154296875001,0.9011047237474836,0.49609375,-0.10400390625,1.93359375,30.08294117647059,302.2298086059327
-0.17229150390625,0.2743701171875,0.8677294921875001,0.926238519570276,0.51416015625,-0.7685546875,1.41650390625,29.94176470588236,302.26359568401546
-0.16643212890625,0.2768115234375,0.8682177734375001,0.926351107924434,0.4853515625,-1.2138671875,0.89501953125,30.03588235294118,302.26359568401546
-0.14348291015625,0.2450732421875,0.8828662109375001,0.9274162959309794,0.43359375,-1.193359375,0.162109375,30.08294117647059,302.26359568401546
-0.11662744140625,0.2294482421875,0.8779833984375001,0.9149334969623552,0.330078125,-0.81982421875,-0.71533203125,30.17705882352941,302.26359568401546
-0.12346337890625,0.2138232421875,0.8980029296875001,0.9313285384641962,0.28271484375,-0.3798828125,-1.4345703125,29.988823529411768,302.26359568401546
-0.14641259765625,0.1918505859375,0.8926318359375001,0.924680966931928,0.31005859375,0.1044921875,-2.1025390625,30.08294117647059,302.26359568401546
-0.18352197265625,0.1552294921875,0.8999560546875001,0.931502769754938,0.36474609375,0.37255859375,-2.5498046875,30.08294117647059,302.26359568401546
-0.23088525390625,0.1103076171875,0.9009326171875,0.9365657219828496,0.43212890625,0.39404296875,-2.78662109375,30.03588235294118,302.26359568401546
-0.28264306640625,0.0648974609375,0.8980029296875001,0.943667338181732,0.51025390625,0.13232421875,-2.80615234375,30.03588235294118,302.26359568401546
-0.32610009765625,0.0199755859375,0.8042529296875001,0.8680801072688449,0.5869140625,-0.19384765625,-2.77734375,30.03588235294118,302.1876625234369
-0.34563134765625,-0.0044384765625,0.9443896484375,1.0056602491064148,0.6455078125,-0.5556640625,-2.72265625,30.03588235294118,302.1876625234369
-0.35637353515625,-0.0352001953125,0.9688037109375,1.0328706504863383,0.71240234375,-0.85693359375,-2.6220703125,30.08294117647059,302.1876625234369
-0.35832666015625,-0.0444775390625,1.0083544921875005,1.0710532333990224,0.7763671875,-0.96484375,-2.20458984375,29.988823529411768,302.1876625234369
-0.35783837890625,-0.0537548828125,1.0264208984375005,1.088337150699949,0.8916015625,-0.6923828125,-1.97314453125,30.08294117647059,302.1876625234369
-0.33391259765625,-0.0659619140625,1.0425341796875005,1.0966887036880717,0.95361328125,-0.0625,-1.9697265625,30.130000000000003,302.1876625234369
-0.32854150390625,-0.0649853515625,1.0444873046875005,1.0968666032658854,0.99267578125,0.5634765625,-1.904296875,29.988823529411768,302.1876625234369
-0.31438134765625,-0.0654736328125,1.0391162109375005,1.087605134311591,1.12109375,0.98486328125,-1.7900390625,30.130000000000003,301.8435330440266
-0.27580712890625,-0.0732861328125,1.0093310546875005,1.048899236139822,0.9248046875,0.90966796875,-1.79052734375,30.03588235294118,301.8435330440266
-0.25822900390625,-0.0884228515625,0.9829638671875,1.0201562543713896,0.81005859375,0.54931640625,-1.82470703125,30.130000000000003,301.8435330440266
-0.24553369140625,-0.1196728515625,0.9663623046875,1.0042233262266,0.72265625,0.2265625,-1.712890625,30.03588235294118,301.8435330440266
-0.24895166015625,-0.1240673828125,0.9512255859375,0.9910599174190412,0.6689453125,-0.193359375,-1.54638671875,30.08294117647059,301.8435330440266
-0.24797509765625,-0.1186962890625,0.9473193359375,0.9864047761116636,0.56591796875,-0.18603515625,-1.513671875,30.08294117647059,301.8435330440266
-0.24992822265625,-0.2344189453125,0.9443896484375,1.0046333492759645,0.4716796875,0.0576171875,-1.5341796875,30.08294117647059,301.8435330440266
-0.26897119140625,0.0111865234375,0.9409716796875,0.9787228116719414,0.43212890625,0.4033203125,-1.41650390625,30.03588235294118,301.8435330440266
-0.27727197265625,-0.1069775390625,0.9253466796875,0.9719004158313946,0.419921875,0.501953125,-1.1669921875,30.08294117647059,302.18418083497875
-0.27434228515625,-0.0981884765625,0.9092333984375,0.9547827183127184,0.42578125,0.7587890625,-0.9306640625,30.08294117647059,302.18418083497875
-0.26360009765625,-0.0762158203125,0.9033740234375,0.9441284282193544,0.41455078125,0.69775390625,-0.77392578125,30.03588235294118,302.18418083497875
-0.25578759765625,-0.0659619140625,0.9009326171875,0.9388598670376016,0.4052734375,0.52197265625,-0.703125,30.130000000000003,302.18418083497875
-0.24943994140625,-0.0635205078125,0.9004443359375001,0.9365122217053212,0.4228515625,0.251953125,-0.56494140625,30.08294117647059,302.18418083497875
-0.24748681640625,-0.0625439453125,0.9019091796875,0.9373375260783776,0.44287109375,0.0390625,-0.4375,30.130000000000003,302.18418083497875
-0.24260400390625,-0.0630322265625,0.9180224609375,0.9516275548146522,0.48681640625,-0.0888671875,-0.31201171875,30.17705882352941,302.18418083497875
-0.22990869140625,-0.0601025390625,0.9277880859375,0.9577374661113888,0.49755859375,-0.0791015625,-0.2470703125,30.08294117647059,302.18418083497875
-0.22453759765625,-0.0474072265625,0.9346240234375,0.9623859117204951,0.548828125,0.0380859375,-0.23486328125,30.03588235294118,302.40100936355327
-0.22746728515625,-0.0478955078125,0.9404833984375,0.9687849958693217,0.5859375,0.2080078125,-0.2216796875,30.130000000000003,302.40100936355327
-0.23039697265625,-0.0503369140625,0.9419482421875,0.971021658299454,0.65478515625,0.423828125,-0.2041015625,30.03588235294118,302.40100936355327
-0.24016259765625,-0.0376416015625,0.9468310546875,0.9775397739232056,0.7158203125,0.59423828125,-0.17138671875,30.08294117647059,302.40100936355327
-0.25676416015625,-0.0312939453125,0.9346240234375,0.9697572944507644,0.73876953125,0.71142578125,-0.171875,30.130000000000003,302.40100936355327
-0.27043603515625,-0.0352001953125,0.9419482421875,0.9806330576832456,0.763671875,0.72900390625,-0.21484375,30.03588235294118,302.40100936355327
-0.28801416015625,-0.0337353515625,0.9497607421875,0.9930436535198774,0.7744140625,0.5810546875,-0.33984375,30.03588235294118,302.40100936355327
-0.30559228515625,-0.0288525390625,0.9507373046875,0.999059826177504,0.78955078125,0.29248046875,-0.39013671875,29.988823529411768,302.40100936355327
-0.30852197265625,-0.0244580078125,0.9556201171875,1.0044868392026407,0.771484375,-0.04638671875,-0.72900390625,30.130000000000003,302.16484749391
-0.30266259765625,-0.0264111328125,0.9658740234375,1.0125289255659875,0.8173828125,-0.2734375,-0.85107421875,30.08294117647059,302.16484749391
-0.30608056640625,-0.0249462890625,0.9658740234375,1.0135187514895343,0.87255859375,-0.349609375,-0.91943359375,30.08294117647059,302.16484749391
-0.30461572265625,-0.0254345703125,0.9536669921875,1.001458130849375,0.94287109375,-0.14697265625,-0.93896484375,30.08294117647059,302.16484749391
-0.29338525390625,-0.0200634765625,0.9463427734375,0.990980370713158,1.0458984375,0.16259765625,-0.962890625,30.08294117647059,302.16484749391
-0.27434228515625,-0.0283642578125,0.9321826171875,0.9721278991637594,1.099609375,0.3203125,-0.89990234375,30.08294117647059,302.16484749391
-0.25676416015625,-0.0293408203125,0.9019091796875,0.9382051407245294,1.11328125,0.2216796875,-0.86572265625,30.03588235294118,302.16484749391
-0.23820947265625,-0.0312939453125,0.8960498046875001,0.9277005531726804,1.154296875,0.07861328125,-0.8037109375,30.08294117647059,302.16484749391
-0.21916650390625,-0.0332470703125,0.8687060546875001,0.8965431019028446,1.16943359375,0.07421875,-1.02587890625,30.03588235294118,302.3057419372252
-0.19377587890625,-0.0410595703125,0.8691943359375001,0.8914784199216313,1.13916015625,-0.03173828125,-1.23095703125,30.08294117647059,302.3057419372252
-0.20061181640625,-0.0552197265625,0.8911669921875001,0.915135469232817,1.12109375,-0.12744140625,-1.1845703125,30.03588235294118,302.3057419372252
-0.20842431640625,-0.0508251953125,0.8916552734375001,0.9171003340948412,1.08642578125,-0.55419921875,-1.12060546875,30.08294117647059,302.3057419372252
-0.20695947265625,-0.0644970703125,0.9028857421875,0.9285444301951962,1.02001953125,-0.7490234375,-1.1572265625,30.03588235294118,302.3057419372252
-0.21818994140625,-0.0669384765625,0.9126513671875,0.9407550840705482,1.00537109375,-0.78759765625,-1.248046875,30.08294117647059,302.3057419372252
-0.23869775390625,-0.0767041015625,0.9302294921875,0.9634246441999568,0.9833984375,-0.82177734375,-1.20751953125,30.03588235294118,302.3057419372252
-0.27092431640625,-0.0977001953125,0.9585498046875,1.0008811325281035,1.01318359375,-0.89111328125,-1.015625,30.08294117647059,302.3057419372252
-0.28899072265625,-0.1069775390625,0.9678271484375,1.0157013443418854,1.0498046875,-0.9140625,-0.80029296875,30.03588235294118,302.3057419372252
-0.30070947265625,-0.1055126953125,0.9771044921875,1.0277608206534732,1.05224609375,-0.927734375,-0.7060546875,29.988823529411768,302.2298086059327
-0.29631494140625,-0.0962353515625,0.9917529296875,1.039537234029973,1.02294921875,-0.95849609375,-0.7685546875,30.08294117647059,302.2298086059327
-0.16789697265625,-0.0986767578125,0.9888232421875,1.007818386540809,0.9619140625,-1.04541015625,-0.92578125,30.08294117647059,302.2298086059327
-0.41692041015625,-0.0972119140625,0.9907763671875,1.0793102401153296,0.8759765625,-1.14990234375,-1.0263671875,30.130000000000003,302.2298086059327
-0.29338525390625,-0.1035595703125,1.0015185546875005,1.048732047377348,0.81494140625,-1.24365234375,-1.08349609375,29.988823529411768,302.2298086059327
-0.28459619140625,-0.0981884765625,1.0054248046875005,1.0495308508917236,0.7978515625,-1.23486328125,-1.06982421875,29.988823529411768,302.2298086059327
-0.28410791015625,-0.1011181640625,0.9985888671875,1.0431308227578826,0.78369140625,-1.09521484375,-1.0185546875,30.03588235294118,302.2298086059327
-0.28166650390625,-0.1025830078125,0.9946826171875,1.038870926462765,0.80810546875,-0.82666015625,-0.87646484375,30.08294117647059,302.2298086059327
-0.25822900390625,-0.0962353515625,0.9854052734375,1.0232140608236413,0.84716796875,-0.580078125,-0.69970703125,30.08294117647059,302.2298086059327
-0.24065087890625,-0.0893994140625,0.9736865234375,1.0069610452628612,0.751953125,-0.34423828125,-0.595703125,30.130000000000003,302.1876625234369
-0.22600244140625,-0.0810986328125,0.9658740234375,0.9952721843380266,0.904296875,-0.1357421875,-0.55126953125,30.03588235294118,302.1876625234369
-0.21867822265625,-0.0727978515625,0.9419482421875,0.9697351098193432,0.90478515625,-0.01953125,-0.54736328125,30.08294117647059,302.1876625234369
-0.20842431640625,-0.0654736328125,0.9312060546875,0.9564895234918876,0.9208984375,0.0068359375,-0.580078125,30.17705882352941,302.1876625234369
-0.20598291015625,-0.0605908203125,0.9258349609375,0.9504054827686558,0.90283203125,-0.09619140625,-0.6181640625,30.130000000000003,302.1876625234369
-0.20598291015625,-0.0727978515625,0.9180224609375,0.9436597507864248,0.888671875,-0.3017578125,-0.642578125,30.08294117647059,302.1876625234369
-0.19572900390625,-0.0752392578125,0.9150927734375,0.9388107226080477,0.8583984375,-0.54052734375,-0.65380859375,30.130000000000003,302.1876625234369
-0.20402978515625,-0.0767041015625,0.9224169921875,0.9478210695609433,0.87255859375,-0.79736328125,-0.61767578125,30.03588235294118,302.1876625234369
-0.19817041015625,-0.0786572265625,0.9336474609375,0.957682646844476,0.9150390625,-0.89697265625,-0.5810546875,30.03588235294118,302.1876625234369
-0.18986962890625,-0.0859814453125,0.9414599609375,0.9642562641577512,0.94677734375,-1.1767578125,-0.5625,30.08294117647059,302.208735438467
-0.18986962890625,-0.0825634765625,0.9502490234375,0.9725432690564498,0.990234375,-1.189453125,-0.56982421875,30.08294117647059,302.208735438467
-0.17815087890625,-0.0864697265625,0.9712451171875,0.9912274345110832,0.99462890625,-1.06689453125,-0.5576171875,30.130000000000003,302.208735438467
-0.18791650390625,-0.0850048828125,0.9839404296875,1.005324431074833,1.03369140625,-0.8642578125,-0.533203125,30.08294117647059,302.208735438467
-0.19426416015625,-0.0918408203125,0.9814990234375,1.0047455564498171,1.04345703125,-0.47802734375,-0.47802734375,30.17705882352941,302.208735438467
-0.20451806640625,-0.0893994140625,0.9678271484375,0.9932317372969576,1.03759765625,-0.06982421875,-0.48876953125,30.130000000000003,302.208735438467
-0.20012353515625,-0.0967236328125,0.9624560546875,0.9877887161091232,1.02490234375,-0.0390625,-0.5,30.08294117647059,302.208735438467
-0.18986962890625,-0.0962353515625,0.9473193359375,0.9709405971079904,0.96044921875,-0.12744140625,-0.21826171875,30.130000000000003,302.208735438467
-0.17033837890625,-0.0952587890625,0.9409716796875,0.9609979720040924,0.91650390625,-0.5048828125,-0.13232421875,30.08294117647059,302.3698331290446
-0.17424462890625,-0.0986767578125,0.9390185546875,0.9601323550857273,0.90625,-0.720703125,-0.20654296875,30.08294117647059,302.3698331290446
-0.16789697265625,-0.1152783203125,0.9439013671875,0.9656232575594048,0.84765625,-0.79443359375,-0.23095703125,30.08294117647059,302.3698331290446
-0.18303369140625,-0.1001416015625,0.9702685546875,0.9924468453114612,0.86376953125,-0.955078125,0.02880859375,30.08294117647059,302.3698331290446
-0.17277978515625,-0.0977001953125,0.9844287109375,1.004240045626945,0.89599609375,-1.0986328125,0.2216796875,29.988823529411768,302.3698331290446
-0.04533837890625,-0.0835400390625,0.9819873046875,0.9865766940769642,0.87939453125,-1.11962890625,0.19091796875,30.130000000000003,302.3698331290446
-0.17815087890625,-0.0854931640625,0.9897998046875,1.0093316947940851,0.84765625,-0.6337890625,0.11279296875,29.94176470588236,302.3698331290446
-0.20305322265625,-0.0923291015625,0.9927294921875,1.0174807707692952,0.8232421875,-0.357421875,0.1962890625,30.03588235294118,302.3698331290446
-0.21672509765625,-0.1040478515625,0.9893115234375,1.0181026538493605,0.8349609375,0.0712890625,0.439453125,30.03588235294118,302.16658986084747
-0.20842431640625,-0.1050244140625,0.9937060546875,1.020746073390038,0.841796875,0.201171875,0.60302734375,30.08294117647059,302.16658986084747
-0.18498681640625,-0.1025830078125,0.9829638671875,1.0054657427939475,0.85693359375,0.20458984375,0.6845703125,30.08294117647059,302.16658986084747
-0.17570947265625,-0.1011181640625,0.9795458984375,1.000304388189034,0.837890625,0.1484375,0.64892578125,30.03588235294118,302.16658986084747
-0.17033837890625,-0.1006298828125,0.9854052734375,1.0050696938828176,0.79150390625,0.09765625,0.62841796875,30.130000000000003,302.16658986084747
-0.18547509765625,-0.1016064453125,0.9858935546875,1.0083208729139708,0.7578125,0.0859375,0.63134765625,30.03588235294118,302.16658986084747
-0.17912744140625,-0.0923291015625,0.9888232421875,1.0091494971263115,0.7333984375,0.1240234375,0.61669921875,30.03588235294118,302.16658986084747
-0.17131494140625,-0.0928173828125,0.9829638671875,1.0020887385343646,0.6962890625,0.16650390625,0.54443359375,29.988823529411768,302.16658986084747
-0.18059228515625,-0.1064892578125,0.9883349609375,1.0103264474904847,0.64892578125,0.126953125,0.50927734375,30.03588235294118,302.16658986084747
-0.17863916015625,-0.1094189453125,0.9854052734375,1.0074264281093008,0.6162109375,0.31201171875,0.54931640625,30.03588235294118,302.1336736809428
-0.19084619140625,-0.1143017578125,0.9981005859375,1.0225907980527105,0.63720703125,0.3662109375,0.5029296875,30.03588235294118,302.1336736809428
-0.19621728515625,-0.1182080078125,0.9922412109375,1.0183403050001536,0.64453125,0.43408203125,0.71826171875,30.17705882352941,302.1336736809428
-0.18840478515625,-0.1235791015625,0.9854052734375,1.0108371334350563,0.69921875,0.5673828125,0.79931640625,30.08294117647059,302.1336736809428
-0.18791650390625,-0.1274853515625,0.9844287109375,1.010279671289802,0.7265625,0.68115234375,0.85205078125,30.03588235294118,302.1336736809428
-0.19035791015625,-0.1255322265625,0.9868701171875,1.012870723272454,0.7451171875,0.87109375,0.8408203125,30.130000000000003,302.1336736809428
-0.18401025390625,-0.1372509765625,0.9712451171875,0.9980053515741102,0.77880859375,1.02685546875,0.8232421875,30.08294117647059,302.1336736809428
-0.18693994140625,-0.1352978515625,0.9595263671875,0.986885454173098,0.77880859375,1.17236328125,0.85791015625,30.130000000000003,302.1336736809428
-0.18938134765625,-0.1294384765625,0.9531787109375,0.9803924056414312,0.80615234375,1.30029296875,0.95654296875,30.08294117647059,302.1336736809428
-0.19817041015625,-0.1245556640625,0.9546435546875,0.9829190919999126,0.859375,1.46240234375,1.080078125,30.08294117647059,302.19863457797936
-0.21086572265625,-0.1143017578125,1.0454638671875005,1.0726247910732871,0.89111328125,1.6025390625,1.19970703125,30.08294117647059,302.19863457797936
-0.21818994140625,-0.0986767578125,0.9185107421875,0.9492133251156358,0.92529296875,1.74755859375,1.29296875,29.988823529411768,302.19863457797936
-0.22209619140625,-0.0771923828125,0.8994677734375001,0.9296922381380018,0.8828125,1.474609375,1.3173828125,30.03588235294118,302.19863457797936
-0.22795556640625,-0.0547314453125,0.9087451171875,0.9384971813349856,0.81787109375,1.0888671875,1.29345703125,30.08294117647059,302.19863457797936
-0.23137353515625,-0.0352001953125,0.9067919921875,0.9365065315394836,0.869140625,0.55517578125,1.23388671875,30.17705882352941,302.19863457797936
-0.24162744140625,-0.0200634765625,0.9160693359375,0.9476124691968112,0.50146484375,0.0361328125,1.10693359375,30.08294117647059,302.19863457797936
-0.23772119140625,-0.0059033203125,0.9233935546875,0.953520776319392,0.568359375,-0.55859375,0.962890625,29.988823529411768,301.8874215198756
-0.24162744140625,-0.0112744140625,0.9312060546875,0.9621099984615288,0.5009765625,-0.89794921875,0.8818359375,30.03588235294118,301.8874215198756
-0.24406884765625,-0.0127392578125,0.9658740234375,0.9963154722462196,0.419921875,-1.07080078125,0.7919921875,30.03588235294118,301.8874215198756
-0.24358056640625,-0.0102978515625,0.9878466796875,1.0174864130037369,0.4248046875,-1.0419921875,0.8193359375,30.03588235294118,301.8874215198756
-0.24455712890625,-0.0268994140625,0.9995654296875,1.0293992500493336,0.4599609375,-0.7470703125,0.873046875,30.03588235294118,301.8874215198756
-0.25627587890625,-0.0425244140625,1.0103076171875005,1.0431716700752636,0.541015625,-0.05224609375,0.74951171875,30.03588235294118,301.8874215198756
-0.26652978515625,-0.0601025390625,1.0127490234375005,1.0489571135422109,0.65625,0.44873046875,0.75,30.03588235294118,301.8874215198756
-0.26555322265625,-0.0527783203125,1.0034716796875005,1.039355318018329,0.7099609375,0.6611328125,0.8828125,29.94176470588236,302.2170963037278
-0.26555322265625,-0.0581494140625,0.9873583984375,1.0240978836927637,0.7236328125,0.6806640625,0.87255859375,30.08294117647059,302.2170963037278
-0.26311181640625,-0.0615673828125,0.9663623046875,1.0034313501580034,0.71728515625,0.52197265625,0.55908203125,30.03588235294118,302.2170963037278
-0.26604150390625,-0.0703564453125,0.9507373046875,0.9897623622477076,0.74462890625,0.14697265625,0.5986328125,30.130000000000003,302.2170963037278
-0.27873681640625,-0.0767041015625,0.9492724609375,0.9923184655699698,0.80224609375,-0.3330078125,0.76025390625,30.08294117647059,302.2170963037278
-0.27531884765625,-0.0815869140625,0.9473193359375,0.9898842440720396,0.8388671875,-0.72265625,0.8984375,30.03588235294118,302.2170963037278
-0.26994775390625,-0.0747509765625,0.9639208984375,1.003794300033943,0.75244140625,-0.7626953125,0.8857421875,30.03588235294118,302.2170963037278
-0.24553369140625,-0.0644970703125,0.9497607421875,0.9831033176096122,0.90380859375,-0.830078125,0.8271484375,30.08294117647059,302.087174039188
-0.23967431640625,-0.0688916015625,0.9673388671875,0.9989666234075318,0.8994140625,-0.65087890625,0.7451171875,30.03588235294118,302.087174039188
-0.22453759765625,-0.0649853515625,0.9648974609375,0.9928078055709354,0.916015625,-0.4765625,0.71484375,30.130000000000003,302.087174039188
-0.21477197265625,-0.0649853515625,0.9512255859375,0.9773332141590704,0.90185546875,-0.34228515625,0.6826171875,30.03588235294118,302.087174039188
-0.20061181640625,-0.0596142578125,0.9507373046875,0.9734990411607,0.87109375,-0.28173828125,0.630859375,30.03588235294118,302.087174039188
-0.20061181640625,-0.0635205078125,0.9478076171875,0.970885799151074,0.84521484375,-0.33447265625,0.58935546875,29.988823529411768,302.087174039188
-0.18596337890625,-0.0659619140625,0.9526904296875,0.9729092492206926,0.77392578125,-0.3837890625,0.48681640625,30.08294117647059,302.087174039188
-0.18840478515625,-0.0698681640625,0.9600146484375,0.9808190702845322,0.69775390625,-0.3837890625,0.43017578125,29.988823529411768,302.2035174739147
-0.18010400390625,-0.0757275390625,0.9746630859375,0.9940524349775196,0.62939453125,-0.2734375,0.37109375,30.08294117647059,302.2035174739147
-0.18938134765625,-0.0737744140625,0.9668505859375,0.9879817885659886,0.595703125,-0.06201171875,0.2509765625,30.08294117647059,302.2035174739147
-0.19035791015625,-0.0820751953125,0.9761279296875,0.9978968918483738,0.54296875,0.12451171875,0.38525390625,30.08294117647059,302.2035174739147
-0.19621728515625,-0.0850048828125,0.9766162109375,0.9997531078031092,0.48876953125,0.2333984375,0.3779296875,30.08294117647059,302.2035174739147
-0.21135400390625,-0.0869580078125,0.9766162109375,1.0030012131377717,0.46435546875,0.23486328125,0.39794921875,30.03588235294118,302.2035174739147
-0.20842431640625,-0.0977001953125,0.9771044921875,1.003852186572558,0.439453125,0.12646484375,0.45849609375,29.94176470588236,302.2035174739147
-0.21818994140625,-0.0889111328125,0.9824755859375,1.0103317856190108,0.43359375,-0.0244140625,0.51806640625,30.08294117647059,302.3308383992696
-0.23137353515625,-0.0903759765625,0.9731982421875,1.0043985008487248,0.42724609375,-0.16357421875,0.5751953125,30.03588235294118,302.3308383992696
-0.23820947265625,-0.0889111328125,0.9893115234375,1.0214627907111438,0.439453125,-0.2685546875,0.6552734375,30.03588235294118,302.3308383992696
-0.24065087890625,-0.0923291015625,0.9990771484375,1.0317909948452233,0.43798828125,-0.21923828125,0.74072265625,30.03588235294118,302.3308383992696
-0.24943994140625,-0.0874462890625,1.0024951171875005,1.0367562866095077,0.46435546875,-0.01513671875,0.85302734375,30.08294117647059,302.3308383992696
-0.26067041015625,-0.0835400390625,0.9956591796875,1.0326011829131212,0.4970703125,0.28857421875,0.97900390625,29.988823529411768,302.3308383992696
-0.26701806640625,-0.0806103515625,1.0024951171875005,1.0405734652349838,0.494140625,0.67578125,1.09765625,30.08294117647059,302.3308383992696
-0.27531884765625,-0.0898876953125,0.9956591796875,1.0369269346194765,0.501953125,0.93310546875,1.1640625,30.08294117647059,301.9436729871692
-0.27141259765625,-0.0933056640625,0.9717333984375,1.013230745068245,0.5205078125,1.1103515625,1.287109375,30.08294117647059,301.9436729871692
-0.27238916015625,-0.0859814453125,0.9619677734375,1.00347927763405,0.51025390625,1.13037109375,1.37255859375,30.08294117647059,301.9436729871692
-0.26750634765625,-0.0781689453125,0.9546435546875,0.9944920042685316,0.50439453125,0.97607421875,1.482421875,30.08294117647059,301.9436729871692
-0.24943994140625,-0.0737744140625,0.9277880859375,0.9635630134799636,0.5224609375,0.91455078125,1.4375,30.130000000000003,301.9436729871692
-0.22209619140625,-0.0840283203125,0.9204638671875,0.950600445849606,0.50634765625,0.85888671875,1.2265625,30.03588235294118,301.9436729871692
-0.22502587890625,-0.0806103515625,0.9321826171875,0.9623404318343366,0.5322265625,0.67822265625,1.201171875,30.130000000000003,301.9436729871692
-0.23772119140625,-0.0727978515625,0.9351123046875,0.9675980128202468,0.525390625,0.5068359375,1.25390625,30.130000000000003,302.0946696580707
-0.24260400390625,-0.0620556640625,0.8042529296875001,0.8423362648399442,0.5341796875,0.40771484375,1.171875,29.94176470588236,302.0946696580707
-0.23820947265625,-0.0640087890625,0.9233935546875,0.9557701265361004,0.5341796875,0.38525390625,0.91015625,30.03588235294118,302.0946696580707
-0.24943994140625,-0.0723095703125,0.9258349609375,0.9615712834843156,0.57568359375,0.33544921875,0.82470703125,30.03588235294118,302.0946696580707
-0.26994775390625,-0.0825634765625,0.9370654296875,0.9786624223993352,0.6328125,0.22705078125,0.94775390625,30.03588235294118,302.0946696580707
-0.28166650390625,-0.0718212890625,0.9404833984375,0.9843796725460752,0.6826171875,0.126953125,1.1015625,29.988823529411768,302.0946696580707
-0.27776025390625,-0.0610791015625,0.9395068359375,0.9816081244931908,0.71826171875,0.1064453125,1.09033203125,30.03588235294118,302.0946696580707
-0.26848291015625,-0.0581494140625,0.9443896484375,0.9835325289372416,0.7294921875,0.18115234375,1.12158203125,30.03588235294118,302.41861089996
-0.26408837890625,-0.0591259765625,0.9463427734375,0.9842780083976173,0.72216796875,0.26123046875,0.89306640625,29.94176470588236,302.41861089996
-0.26457666015625,-0.0508251953125,0.9497607421875,0.987233243452904,0.73583984375,0.34521484375,0.80126953125,30.08294117647059,302.41861089996
-0.26750634765625,-0.0503369140625,0.9341357421875,0.9729866575580128,0.7412109375,0.38720703125,0.73828125,30.08294117647059,302.41861089996
-0.26213525390625,-0.0537548828125,0.9302294921875,0.9679521614739512,0.76806640625,0.4541015625,0.65673828125,30.03588235294118,302.41861089996
-0.26701806640625,-0.0571728515625,0.9165576171875,0.9563708738598996,0.75927734375,0.41455078125,0.6357421875,30.03588235294118,302.41861089996
-0.26555322265625,-0.0513134765625,0.9136279296875,0.9528208545393608,0.7998046875,0.31298828125,0.640625,30.03588235294118,302.41861089996
-0.24113916015625,-0.0596142578125,0.9097216796875,0.943024649088688,0.77587890625,0.08056640625,0.62890625,30.03588235294118,302.08456642009736
-0.22893212890625,-0.0649853515625,0.9111865234375,0.941750442557564,0.77392578125,-0.0029296875,0.5537109375,30.03588235294118,302.08456642009736
-0.22795556640625,-0.0679150390625,0.9033740234375,0.9341631650884722,0.763671875,-0.25341796875,0.45947265625,30.03588235294118,302.08456642009736
-0.24406884765625,-0.0684033203125,0.9194873046875,0.9537848395248836,0.76220703125,-0.2119140625,0.396484375,30.03588235294118,302.08456642009736
-0.26457666015625,-0.0732861328125,0.9194873046875,0.959598129345577,0.78076171875,-0.08154296875,0.41015625,29.988823529411768,302.08456642009736
-0.26945947265625,-0.0801220703125,0.9346240234375,0.975986689838466,0.7919921875,0.0888671875,0.4912109375,30.130000000000003,302.08456642009736
-0.28068994140625,-0.0688916015625,0.9307177734375,0.9745606547388151,0.814453125,0.24560546875,0.587890625,30.130000000000003,302.08456642009736
-0.29240869140625,-0.0776806640625,0.9321826171875,0.9800518150412476,0.837890625,0.29248046875,0.6552734375,30.03588235294118,302.08456642009736
-0.27580712890625,-0.0737744140625,1.0518115234375005,1.0898714223988486,0.80810546875,0.15087890625,0.7001953125,30.130000000000003,302.1284529903737
-0.27043603515625,-0.0703564453125,0.9336474609375,0.974568242773734,0.7744140625,-0.10693359375,0.71630859375,30.03588235294118,302.1284529903737
-0.26457666015625,-0.0776806640625,0.9390185546875,0.9786679420089474,0.7587890625,-0.2529296875,0.70751953125,30.03588235294118,302.1284529903737
-0.27287744140625,-0.0771923828125,0.9580615234375,0.9991509619091984,0.76611328125,-0.51953125,0.62890625,29.988823529411768,302.1284529903737
-0.27483056640625,-0.0767041015625,0.9673388671875,1.008543426630349,0.77294921875,-0.5166015625,0.85400390625,30.03588235294118,302.1284529903737
-0.27824853515625,-0.0781689453125,0.9736865234375,1.0156761675119057,0.7998046875,-0.3505859375,0.97509765625,30.08294117647059,302.1284529903737
-0.28557275390625,-0.0718212890625,0.9863818359375,1.0293975041759291,0.8330078125,-0.140625,1.09716796875,30.03588235294118,302.1284529903737
-0.28264306640625,-0.0654736328125,0.9893115234375,1.0309758435518368,0.85498046875,0.01806640625,1.2724609375,30.03588235294118,302.1284529903737
-0.27238916015625,-0.0561962890625,0.9761279296875,1.0149776414241982,0.865234375,0.12744140625,1.29150390625,30.03588235294118,302.1284529903737
-0.25676416015625,-0.0405712890625,0.9746630859375,1.0087328657906156,0.880859375,0.18212890625,1.22900390625,30.08294117647059,302.38916831564296
-0.23332666015625,-0.0478955078125,0.9668505859375,0.9957586884059684,0.87060546875,0.4501953125,0.798828125,30.130000000000003,302.38916831564296
-0.22893212890625,-0.0430126953125,0.9761279296875,1.0035366195209814,0.84765625,0.482421875,0.67236328125,29.988823529411768,302.38916831564296
-0.25578759765625,-0.0352001953125,0.9766162109375,1.0101710609251848,0.861328125,0.3779296875,0.740234375,30.03588235294118,302.38916831564296
-0.25383447265625,-0.0273876953125,0.9644091796875,0.997630738915318,0.85693359375,0.27978515625,0.66259765625,30.08294117647059,302.38916831564296
-0.26506494140625,-0.0273876953125,0.9526904296875,0.9892565712874404,0.87109375,0.36474609375,0.580078125,30.03588235294118,302.38916831564296
-0.28996728515625,-0.0400830078125,0.9424365234375,0.9868506851014212,0.90966796875,0.49072265625,0.68896484375,30.08294117647059,302.38916831564296
-0.31340478515625,-0.0449658203125,0.9356005859375,0.987721084497949,0.9541015625,0.50537109375,0.919921875,29.94176470588236,302.38916831564296
-0.29826806640625,-0.0415478515625,0.9326708984375,0.9800842148506403,0.9775390625,0.49609375,0.9638671875,30.03588235294118,302.3031319601729
-0.28215478515625,-0.0268994140625,0.9165576171875,0.9593814501479082,0.9482421875,0.20654296875,0.822265625,29.988823529411768,302.3031319601729
-0.26701806640625,-0.0220166015625,0.9097216796875,0.9483548455220444,0.88671875,0.06494140625,0.5830078125,30.03588235294118,302.3031319601729
-0.25969384765625,-0.0293408203125,0.9185107421875,0.9549679375565184,0.79443359375,-0.03369140625,0.3623046875,29.988823529411768,302.3031319601729
-0.25920556640625,-0.0430126953125,0.9282763671875,0.9647458895962466,0.7392578125,-0.12158203125,0.271484375,30.08294117647059,302.3031319601729
-0.26457666015625,-0.0444775390625,0.9292529296875,0.9672073551794848,0.6875,-0.13671875,0.322265625,30.03588235294118,302.3031319601729
-0.25920556640625,-0.0386181640625,0.9414599609375,0.9772541871488616,0.72802734375,-0.0341796875,0.4306640625,30.08294117647059,302.3031319601729
-0.25627587890625,-0.0259228515625,0.9448779296875,0.9793587812200586,0.86767578125,0.22900390625,0.4384765625,30.08294117647059,302.3031319601729
-0.26018212890625,-0.0239697265625,0.9302294921875,0.9662278179234356,0.763671875,0.38232421875,0.36083984375,29.988823529411768,302.1867914381985
-0.25969384765625,-0.0146923828125,1.0518115234375005,1.083496304312632,0.767578125,0.6494140625,0.27978515625,30.03588235294118,302.1867914381985
-0.26311181640625,-0.0303173828125,1.0503466796875005,1.0832244084970355,0.775390625,0.6337890625,0.28173828125,30.08294117647059,302.1867914381985
-0.26555322265625,-0.0347119140625,0.9058154296875,0.944576637283049,0.83203125,0.51220703125,0.40087890625,30.03588235294118,302.1867914381985
-0.26506494140625,-0.0410595703125,0.8975146484375001,0.9367378798985526,0.89208984375,0.3486328125,0.544921875,30.08294117647059,302.1867914381985
-0.27043603515625,-0.0322705078125,0.9053271484375,0.9454069390920952,0.9306640625,0.19287109375,0.6083984375,30.03588235294118,302.1867914381985
-0.26360009765625,-0.0234814453125,0.8965380859375001,0.934781754900482,0.9326171875,0.08349609375,0.59130859375,30.130000000000003,302.1867914381985
-0.26848291015625,-0.0288525390625,0.9199755859375,0.9587860140705896,0.94189453125,0.01220703125,0.541015625,29.988823529411768,302.1867914381985
-0.26652978515625,-0.0215283203125,0.9219287109375,0.9599240298074608,0.95947265625,-0.0517578125,0.494140625,30.03588235294118,302.1867914381985
-0.26799462890625,-0.0371533203125,0.9272998046875,0.9659639838556704,0.94970703125,-0.09423828125,0.470703125,30.03588235294118,301.83256096005294
-0.27287744140625,-0.0469189453125,0.9482958984375,0.9878909840923968,0.94287109375,-0.04833984375,0.47802734375,30.03588235294118,301.83256096005294
-0.28117822265625,-0.0557080078125,0.9487841796875,0.9911387363310182,0.9521484375,0.06982421875,0.47900390625,30.08294117647059,301.83256096005294
-0.28068994140625,-0.0586376953125,0.9702685546875,1.0117540663291529,0.974609375,0.24267578125,0.46240234375,30.03588235294118,301.83256096005294
-0.29875634765625,-0.0659619140625,0.9722216796875,1.019225845348358,0.97412109375,0.416015625,0.4423828125,30.130000000000003,301.83256096005294
-0.30998681640625,-0.0644970703125,0.9688037109375,1.0192312440024829,0.9853515625,0.5361328125,0.43115234375,30.08294117647059,301.83256096005294
-0.31779931640625,-0.0703564453125,0.9736865234375,1.0266508076405998,0.9921875,0.5244140625,0.4111328125,30.03588235294118,301.83256096005294
-0.31828759765625,-0.0596142578125,0.9653857421875,1.0182487347280291,1.01904296875,0.3388671875,0.51416015625,30.08294117647059,301.83256096005294
-0.31340478515625,-0.0547314453125,0.9497607421875,1.001630449749498,0.9833984375,0.04443359375,0.64892578125,30.08294117647059,302.53006460173793
-0.29289697265625,-0.0391064453125,0.9595263671875,1.0039964143283664,0.99462890625,-0.2626953125,0.72705078125,30.130000000000003,302.53006460173793
-0.41740869140625,-0.0356884765625,0.9531787109375,1.041178821339209,1.06396484375,-0.2333984375,0.6201171875,30.03588235294118,302.53006460173793
-0.26701806640625,-0.0283642578125,0.9629443359375,0.9996824360879306,1.05615234375,0.00537109375,0.5146484375,30.130000000000003,302.53006460173793
-0.27727197265625,-0.0229931640625,0.9580615234375,0.9976423783629468,1.095703125,0.3212890625,0.57470703125,29.94176470588236,302.53006460173793
-0.26311181640625,-0.0083447265625,0.9590380859375,0.9945106900746028,1.109375,0.396484375,0.53955078125,30.08294117647059,302.53006460173793
-0.25236962890625,-0.0073681640625,0.9414599609375,0.9747264116070568,1.08056640625,0.3896484375,0.3583984375,30.08294117647059,302.53006460173793
-0.24455712890625,-0.0044384765625,0.9331591796875,0.9646833387221488,1.04443359375,0.3125,0.158203125,30.130000000000003,302.53006460173793
-0.25969384765625,-0.0132275390625,0.9404833984375,0.9757688686552298,1.02197265625,0.20947265625,0.109375,30.03588235294118,302.0906570537389
-0.26945947265625,-0.0117626953125,0.9424365234375,0.9802720893273258,1.0322265625,0.12646484375,0.140625,30.03588235294118,302.0906570537389
-0.27531884765625,-0.0166455078125,0.9541552734375,0.9932219422836428,1.017578125,0.05126953125,0.12646484375,30.08294117647059,302.0906570537389
-0.27824853515625,-0.0185986328125,0.9492724609375,0.9893868614214718,1.01171875,0.06591796875,0.06396484375,30.03588235294118,302.0906570537389
-0.27873681640625,-0.0166455078125,0.9409716796875,0.981528903152904,1.00830078125,0.0927734375,0.00634765625,30.130000000000003,302.0906570537389
-0.28752587890625,-0.0254345703125,0.9478076171875,0.9907862169037476,1.00732421875,0.126953125,-0.01123046875,30.130000000000003,302.0906570537389
-0.29436181640625,-0.0249462890625,0.9512255859375,0.996042826206844,1.0224609375,0.1474609375,-0.0107421875,30.130000000000003,302.0906570537389
-0.30656884765625,-0.0225048828125,0.9551318359375,1.0033781700460824,1.02490234375,0.1611328125,-0.01318359375,30.08294117647059,302.0906570537389
-0.30656884765625,-0.0220166015625,0.9463427734375,0.9950044391534252,1.02099609375,0.19580078125,-0.02685546875,30.130000000000003,302.0906570537389
-0.30998681640625,-0.0220166015625,0.9419482421875,0.9918886268377944,1.12353515625,0.18505859375,-0.03955078125,30.08294117647059,302.3057419372252
-0.30998681640625,-0.0249462890625,0.9399951171875,0.9901035117703672,0.99072265625,0.14306640625,-0.00537109375,29.988823529411768,302.3057419372252
-0.29875634765625,-0.0244580078125,0.9365771484375,0.983376989961824,0.9736328125,0.0400390625,0.0537109375,30.08294117647059,302.3057419372252
-0.28899072265625,-0.0293408203125,0.9448779296875,0.9885195109498488,0.96044921875,-0.04833984375,0.09423828125,30.03588235294118,302.3057419372252
-0.27678369140625,-0.0225048828125,0.9443896484375,0.9843716217236148,0.94091796875,-0.0205078125,0.09326171875,30.03588235294118,302.3057419372252
-0.26262353515625,-0.0190869140625,0.9458544921875,0.9818228719568866,0.94140625,0.080078125,0.0458984375,30.03588235294118,302.3057419372252
-0.26018212890625,-0.0200634765625,0.9351123046875,0.9708410300723442,0.927734375,0.17626953125,-0.01611328125,30.03588235294118,302.3057419372252
-0.25871728515625,-0.0249462890625,0.9390185546875,0.974326843017276,0.90087890625,0.2275390625,-0.0810546875,30.130000000000003,302.3057419372252
-0.26652978515625,-0.0244580078125,0.9312060546875,0.9689071352860668,0.90185546875,0.205078125,-0.1123046875,30.130000000000003,302.3057419372252
-0.26994775390625,-0.0220166015625,1.0469287109375005,1.0813955087610856,0.87646484375,0.24365234375,-0.1328125,30.03588235294118,302.2526236069188
-0.26750634765625,-0.0239697265625,0.9233935546875,0.9616599454413628,0.86962890625,-0.009765625,-0.15478515625,29.94176470588236,302.2526236069188
-0.27092431640625,-0.0234814453125,1.0483935546875005,1.0830883662030768,0.87451171875,-0.1142578125,-0.16259765625,30.08294117647059,302.2526236069188
-0.26652978515625,-0.0132275390625,0.9316943359375,0.9691581036049308,0.99951171875,-0.15625,-0.169921875,30.130000000000003,302.2526236069188
-0.26555322265625,-0.0151806640625,0.9351123046875,0.9722057338868488,0.865234375,-0.24853515625,-0.15576171875,30.130000000000003,302.2526236069188
-0.27727197265625,-0.0239697265625,0.9414599609375,0.9817337483557383,0.845703125,-0.06103515625,-0.1376953125,30.03588235294118,302.2526236069188
-0.27824853515625,-0.0229931640625,0.9409716796875,0.9815185351709458,0.8447265625,0.009765625,-0.10986328125,29.94176470588236,302.2526236069188
-0.27531884765625,-0.0234814453125,0.9492724609375,0.9886708508108586,0.86181640625,0.0673828125,-0.13232421875,30.03588235294118,302.2526236069188
-0.27483056640625,-0.0293408203125,0.9482958984375,0.9877539344194868,0.86669921875,0.13037109375,-0.17578125,30.08294117647059,302.2526236069188
-0.27531884765625,-0.0259228515625,0.9365771484375,0.9765496490620514,0.859375,0.1396484375,-0.17041015625,30.03588235294118,302.25175259533967
-0.28166650390625,-0.0356884765625,0.9575732421875,0.9987773530350006,0.8544921875,0.09375,-0.17333984375,30.130000000000003,302.25175259533967
-0.28410791015625,-0.0166455078125,0.9497607421875,0.991483658435296,0.87939453125,0.064453125,-0.0859375,30.08294117647059,302.25175259533967
-0.25627587890625,-0.0234814453125,0.9399951171875,0.9745868482179908,0.86181640625,0.2734375,-0.2939453125,30.08294117647059,302.25175259533967
-0.25920556640625,-0.0185986328125,0.9380419921875,0.973373625030786,0.841796875,0.39013671875,-0.3779296875,30.08294117647059,302.25175259533967
-0.27336572265625,-0.0171337890625,0.9536669921875,0.9922213044673882,0.83251953125,0.35302734375,-0.29052734375,30.03588235294118,302.25175259533967
-0.28606103515625,-0.0132275390625,0.9482958984375,0.9905912348782926,0.8369140625,0.27587890625,-0.28466796875,29.988823529411768,302.25175259533967
-0.28264306640625,-0.0210400390625,0.9365771484375,0.9785226319337732,0.8408203125,0.15771484375,-0.3134765625,30.08294117647059,302.0485126565611
-0.30266259765625,-0.0268994140625,0.9385302734375,0.9864924230097276,0.8671875,-0.04296875,-0.18505859375,29.988823529411768,302.0485126565611
-0.31926416015625,-0.0337353515625,0.9556201171875,1.008105890409719,0.9189453125,-0.22509765625,0.08447265625,30.17705882352941,302.0485126565611
-0.32854150390625,-0.0405712890625,0.9478076171875,1.0039545948317683,0.990234375,-0.30126953125,0.275390625,30.130000000000003,302.0485126565611
-0.31779931640625,-0.0303173828125,0.9522021484375,1.0042930253157545,1.02001953125,-0.26025390625,0.2548828125,29.988823529411768,302.0485126565611
-0.30412744140625,-0.0249462890625,0.9395068359375,0.987820283618227,1.02880859375,-0.1298828125,0.248046875,30.03588235294118,302.0485126565611
-0.30266259765625,-0.0215283203125,0.9473193359375,0.9947271187801068,1.0146484375,-0.03564453125,-0.05419921875,30.130000000000003,302.0485126565611
-0.28801416015625,-0.0249462890625,0.9399951171875,0.9834456233696104,0.990234375,-0.00537109375,-0.18603515625,30.130000000000003,302.0485126565611
-0.28996728515625,-0.0234814453125,0.9409716796875,0.984916294265033,0.95166015625,-0.05078125,-0.27734375,29.988823529411768,302.0485126565611
-0.28166650390625,-0.0283642578125,0.9248583984375,0.9672143545793772,0.92578125,-0.10009765625,-0.36669921875,30.03588235294118,302.33778743333284
-0.28606103515625,-0.0376416015625,0.8052294921875001,0.8553609419954797,0.90234375,-0.10595703125,-0.3974609375,30.03588235294118,302.33778743333284
-0.28947900390625,-0.0352001953125,0.9331591796875,0.9776621103876536,0.9072265625,-0.13037109375,-0.34765625,30.03588235294118,302.33778743333284
-0.41545556640625,-0.0469189453125,0.9277880859375,1.0176421018682085,0.92919921875,-0.1630859375,-0.2548828125,30.03588235294118,302.33778743333284
-0.28508447265625,-0.0332470703125,0.9390185546875,0.9819034424430224,0.94384765625,-0.17431640625,-0.16943359375,30.08294117647059,302.33778743333284
-0.28606103515625,-0.0410595703125,0.9307177734375,0.9745523987664132,0.9560546875,-0.169921875,-0.12451171875,29.988823529411768,302.33778743333284
-0.27385400390625,-0.0420361328125,0.9404833984375,0.9804448350895956,0.9794921875,-0.11376953125,-0.11279296875,29.988823529411768,302.33778743333284
-0.27678369140625,-0.0386181640625,0.9312060546875,0.9722372605031592,0.97900390625,-0.09326171875,-0.11328125,30.08294117647059,302.33778743333284
-0.28508447265625,-0.0386181640625,0.9463427734375,0.9891052340285283,0.98974609375,-0.09375,-0.11572265625,29.988823529411768,302.33778743333284
-0.28752587890625,-0.0356884765625,0.9312060546875,0.9752381835668776,0.9794921875,-0.16845703125,-0.12890625,30.03588235294118,302.12183049007183
-0.28947900390625,-0.0317822265625,0.9399951171875,0.9840726720949864,0.95751953125,-0.2607421875,-0.14306640625,30.08294117647059,302.12183049007183
-0.29240869140625,-0.0435009765625,0.9360888671875,0.9816606058328836,0.95654296875,-0.3642578125,-0.1630859375,30.08294117647059,302.12183049007183
-0.29143212890625,-0.0395947265625,0.9356005859375,0.9807389482104714,0.95361328125,-0.41748046875,-0.1787109375,30.130000000000003,302.12183049007183
-0.29240869140625,-0.0405712890625,0.9551318359375,0.9997128069237924,0.92919921875,-0.404296875,-0.18798828125,30.08294117647059,302.12183049007183
-0.41643212890625,-0.0381298828125,0.9497607421875,1.0377451871000114,0.927734375,-0.34423828125,-0.19384765625,30.03588235294118,302.12183049007183
-0.28996728515625,-0.0469189453125,0.9639208984375,1.0076834385533389,0.9052734375,-0.27685546875,-0.17333984375,30.130000000000003,302.12183049007183
-0.28459619140625,-0.0405712890625,0.9541552734375,0.9965206006338888,0.92431640625,-0.1943359375,-0.11767578125,30.03588235294118,302.12183049007183
-0.28508447265625,-0.0459423828125,0.9458544921875,0.988951252327159,0.9140625,-0.11767578125,-0.0654296875,30.03588235294118,302.1749488773075
-0.28166650390625,-0.0464306640625,0.9375537109375,0.980050400173752,0.92431640625,-0.05615234375,-0.01416015625,30.03588235294118,302.1749488773075
-0.28557275390625,-0.0430126953125,0.9443896484375,0.9875594654538786,0.89892578125,-0.08935546875,0.08544921875,30.03588235294118,302.1749488773075
-0.27727197265625,-0.0395947265625,0.9497607421875,0.9901984430369491,0.9033203125,-0.2314453125,0.1845703125,30.130000000000003,302.1749488773075
-0.25969384765625,-0.0366650390625,0.9331591796875,0.969314847835836,0.9248046875,-0.23095703125,0.18408203125,30.08294117647059,302.1749488773075
-0.24162744140625,-0.0444775390625,0.9365771484375,0.9682658864676096,0.8994140625,-0.0419921875,-0.03466796875,30.03588235294118,302.1749488773075
-0.25090478515625,-0.0420361328125,0.9448779296875,0.9785267240533956,0.8779296875,-0.0234375,0.044921875,29.988823529411768,302.1749488773075
-0.26457666015625,-0.0415478515625,0.9399951171875,0.9774036287047626,0.88671875,-0.08935546875,0.18994140625,30.03588235294118,302.1749488773075
-0.26262353515625,-0.0312939453125,0.9360888671875,0.9727347015006532,0.880859375,-0.13232421875,0.24951171875,30.130000000000003,302.250882025839
-0.26360009765625,-0.0371533203125,0.9331591796875,0.9703872604943224,0.75,-0.13427734375,0.00732421875,30.03588235294118,302.250882025839
-0.26994775390625,-0.0391064453125,0.9346240234375,0.9736134597932126,0.880859375,-0.1552734375,0.0390625,30.08294117647059,302.250882025839
-0.29875634765625,-0.0522900390625,0.9375537109375,0.9853915791921186,0.90673828125,-0.140625,0.173828125,30.08294117647059,302.250882025839
-0.30022119140625,-0.0430126953125,0.9414599609375,0.989105511953034,0.92041015625,-0.12744140625,0.2763671875,30.03588235294118,302.250882025839
-0.29045556640625,-0.0405712890625,0.9331591796875,0.9781597620980004,0.912109375,-0.1328125,0.2578125,30.17705882352941,302.250882025839
-0.25920556640625,-0.0381298828125,0.9375537109375,0.9734723285805084,0.87841796875,-0.1748046875,0.24365234375,30.03588235294118,302.250882025839
-0.24699853515625,-0.0342236328125,0.9307177734375,0.9635429970710574,0.8408203125,-0.25830078125,-0.05029296875,30.03588235294118,302.250882025839
-0.24846337890625,-0.0308056640625,0.9336474609375,0.9666336539304242,0.8037109375,-0.29833984375,-0.1787109375,30.03588235294118,302.250882025839
-0.24455712890625,-0.0332470703125,0.9326708984375,0.9647738397030912,0.78271484375,-0.30224609375,-0.22509765625,30.08294117647059,302.1876625234369
-0.25188134765625,-0.0381298828125,0.9458544921875,0.9795605247516344,0.75146484375,-0.2568359375,-0.22705078125,30.03588235294118,302.1876625234369
-0.25236962890625,-0.0444775390625,0.9399951171875,0.974299492667258,0.74560546875,-0.13134765625,-0.19970703125,30.130000000000003,302.1876625234369
-0.24943994140625,-0.0478955078125,0.9380419921875,0.9718215078626654,0.7216796875,-0.03759765625,-0.15283203125,30.03588235294118,302.1876625234369
-0.24455712890625,-0.0459423828125,0.9331591796875,0.9657665072223236,0.72509765625,-0.04443359375,-0.06396484375,30.08294117647059,302.1876625234369
-0.24260400390625,-0.0435009765625,0.9365771484375,0.9684656899697344,0.70703125,-0.076171875,-0.01025390625,30.08294117647059,302.1876625234369
-0.23430322265625,-0.0439892578125,0.9380419921875,0.967861474621804,0.7255859375,-0.12451171875,0.01904296875,29.988823529411768,302.1876625234369
-0.24113916015625,-0.0493603515625,0.9458544921875,0.9773562601521047,0.728515625,-0.13818359375,0.0263671875,30.130000000000003,302.1876625234369
-0.25334619140625,-0.0478955078125,0.9512255859375,0.9855497895645912,0.72998046875,-0.0478515625,0.029296875,29.988823529411768,302.1867914381985
-0.26213525390625,-0.0454541015625,0.9492724609375,0.9858494671011826,0.7294921875,0.0625,-0.12451171875,30.08294117647059,302.1867914381985
-0.26994775390625,-0.0503369140625,0.9463427734375,0.98537822159501,0.72509765625,0.146484375,-0.0498046875,30.03588235294118,302.1867914381985
-0.26506494140625,-0.0474072265625,0.9507373046875,0.9881337413617144,0.72412109375,0.1923828125,-0.1123046875,30.08294117647059,302.1867914381985
-0.26848291015625,-0.0400830078125,0.9404833984375,0.97887626557079,0.6875,0.21337890625,-0.1572265625,30.08294117647059,302.1867914381985
-0.27043603515625,-0.0464306640625,0.9399951171875,0.9792253448581992,0.654296875,0.1767578125,-0.1943359375,30.130000000000003,302.1867914381985
-0.27287744140625,-0.0522900390625,0.9492724609375,0.9890978471859682,0.65234375,0.13134765625,-0.1640625,30.03588235294118,302.1867914381985
-0.27238916015625,-0.0518017578125,0.9512255859375,0.9908124908504296,0.67333984375,0.111328125,-0.10595703125,30.130000000000003,302.1867914381985
-0.27434228515625,-0.0508251953125,0.9453662109375,0.9856795436071668,0.70703125,0.14501953125,-0.00732421875,30.03588235294118,302.17669048289446
-0.26652978515625,-0.0483837890625,0.9502490234375,0.9881054214826492,0.7109375,0.23046875,0.03125,30.08294117647059,302.17669048289446
-0.26408837890625,-0.0439892578125,0.9551318359375,0.991944832486951,0.77587890625,0.34423828125,0.0341796875,30.08294117647059,302.17669048289446
-0.26067041015625,-0.0483837890625,0.9512255859375,0.9874817310295986,0.7646484375,0.4013671875,0.0703125,30.08294117647059,302.17669048289446
-0.26164697265625,-0.0508251953125,0.9546435546875,0.9911542035854564,0.7646484375,0.27392578125,0.10302734375,29.988823529411768,302.17669048289446
-0.25139306640625,-0.0454541015625,0.9541552734375,0.9877635521796608,0.80859375,0.13037109375,0.05712890625,30.08294117647059,302.17669048289446
-0.24504541015625,-0.0557080078125,0.9409716796875,0.9739498637748236,0.796875,0.4306640625,-0.1611328125,30.17705882352941,302.17669048289446
-0.25969384765625,-0.0542431640625,0.9458544921875,0.982356318119496,0.79248046875,0.380859375,-0.14013671875,30.08294117647059,302.17669048289446
-0.26848291015625,-0.0527783203125,0.9634326171875,1.0015343389029323,0.8017578125,0.21875,0.03955078125,30.03588235294118,302.17669048289446
-0.26408837890625,-0.0498486328125,0.9639208984375,1.0006852934420312,0.81103515625,0.0576171875,0.0771484375,30.08294117647059,302.101629105138
-0.26945947265625,-0.0391064453125,0.9536669921875,0.9917754047450044,0.7958984375,0.05615234375,-0.01708984375,30.03588235294118,302.101629105138
-0.27385400390625,-0.0400830078125,0.9468310546875,0.9864541089637292,0.7861328125,0.17529296875,-0.0634765625,30.03588235294118,302.101629105138
-0.29240869140625,-0.0527783203125,0.9678271484375,1.012411864389976,0.7998046875,0.27099609375,0.05224609375,30.03588235294118,302.101629105138
-0.30803369140625,-0.0488720703125,0.9541552734375,1.0038354048979252,0.8349609375,0.34228515625,0.27099609375,30.03588235294118,302.101629105138
-0.30217431640625,-0.0605908203125,0.9556201171875,1.0040868355750798,0.8740234375,0.3623046875,0.40771484375,30.130000000000003,302.101629105138
-0.29582666015625,-0.0537548828125,0.9453662109375,0.9920283630359128,0.90087890625,0.3603515625,0.4306640625,30.08294117647059,302.101629105138
-0.28117822265625,-0.0430126953125,0.9502490234375,0.9919095177475092,0.8935546875,0.30615234375,0.3330078125,30.130000000000003,302.101629105138
-0.27727197265625,-0.0298291015625,0.9370654296875,0.9776815133959184,0.875,0.205078125,0.1904296875,30.08294117647059,301.92869210146443
-0.27385400390625,-0.0391064453125,0.9302294921875,0.9704907200256364,0.84716796875,0.06298828125,0.06787109375,30.03588235294118,301.92869210146443
-0.27531884765625,-0.0352001953125,0.9429248046875,0.9829276214044266,0.8173828125,-0.0556640625,-0.01171875,30.130000000000003,301.92869210146443
-0.27776025390625,-0.0405712890625,0.9429248046875,0.983821109471238,0.791015625,-0.0908203125,-0.0361328125,30.08294117647059,301.92869210146443
-0.28117822265625,-0.0464306640625,0.9429248046875,0.9850503473205684,0.80908203125,0.02197265625,-0.00830078125,30.03588235294118,301.92869210146443
-0.28410791015625,-0.0532666015625,0.9473193359375,0.9904385693703756,0.8056640625,0.00927734375,0.07958984375,30.08294117647059,301.92869210146443
-0.28410791015625,-0.0610791015625,0.9365771484375,0.9806246561433956,0.84814453125,0.19873046875,0.17919921875,30.130000000000003,301.92869210146443
-0.27727197265625,-0.0527783203125,0.9522021484375,0.9931536786442912,0.873046875,0.228515625,0.240234375,30.08294117647059,301.92869210146443
-0.26945947265625,-0.0493603515625,0.9434130859375,0.9823813426713044,0.8896484375,0.26708984375,0.23974609375,30.130000000000003,301.92869210146443
-0.26897119140625,-0.0478955078125,0.9370654296875,0.976079454240552,0.91845703125,0.28515625,0.20556640625,29.988823529411768,302.0577409834918
-0.28020166015625,-0.0488720703125,0.9365771484375,0.97881469369144,0.92333984375,0.2275390625,0.1357421875,30.08294117647059,302.0577409834918
-0.28654931640625,-0.0469189453125,0.9326708984375,0.9768249090570634,0.9248046875,0.10400390625,0.0556640625,30.130000000000003,302.0577409834918
-0.28068994140625,-0.0513134765625,0.9287646484375,0.9716088144262623,0.91015625,-0.03271484375,0.00537109375,30.08294117647059,302.0577409834918
-0.28215478515625,-0.0498486328125,0.9380419921875,0.9808256665110976,0.88525390625,-0.11279296875,0.00732421875,30.03588235294118,302.0577409834918
-0.28752587890625,-0.0518017578125,0.9395068359375,0.9838839606003186,0.89013671875,-0.13037109375,0.015625,30.130000000000003,302.0577409834918
-0.28654931640625,-0.0522900390625,0.9351123046875,0.9794282930853156,0.9033203125,-0.091796875,0.03857421875,30.03588235294118,302.0577409834918
-0.28313134765625,-0.0503369140625,0.9507373046875,0.9932766923005052,0.89013671875,-0.09521484375,0.06494140625,30.130000000000003,302.0577409834918
-0.41594384765625,-0.0454541015625,0.9487841796875,1.0369507121253267,0.89404296875,-0.15966796875,0.0615234375,30.17705882352941,302.0357970066237
-0.28313134765625,-0.0449658203125,0.9356005859375,0.9785365304517832,0.8984375,-0.248046875,0.00634765625,30.17705882352941,302.0357970066237
-0.27727197265625,-0.0430126953125,0.9575732421875,0.9978358346602986,0.8955078125,-0.3046875,-0.02490234375,30.130000000000003,302.0357970066237
-0.27141259765625,-0.0410595703125,0.9546435546875,0.993325225184152,0.87890625,-0.29345703125,0.05029296875,30.08294117647059,302.0357970066237
-0.28068994140625,-0.0478955078125,0.9561083984375,0.997609188228528,0.85595703125,-0.24267578125,0.0859375,30.08294117647059,302.0357970066237
-0.27629541015625,-0.0352001953125,0.9551318359375,0.9949145849995306,0.88232421875,-0.1298828125,0.18310546875,30.130000000000003,302.0357970066237
-0.25236962890625,-0.0425244140625,0.9341357421875,0.968559931144082,0.9052734375,0.1640625,0.15771484375,30.03588235294118,302.0357970066237
-0.25188134765625,-0.0430126953125,0.9458544921875,0.9797627394662692,0.9150390625,0.3359375,0.0927734375,30.130000000000003,302.0357970066237
-0.25334619140625,-0.0444775390625,0.9312060546875,0.9660782889951351,0.92529296875,0.29931640625,0.14208984375,30.03588235294118,302.29476992696
-0.25774072265625,-0.0337353515625,0.9346240234375,0.9700981492853764,0.90234375,0.1787109375,0.1376953125,30.03588235294118,302.29476992696
-0.26115869140625,-0.0371533203125,0.9312060546875,0.9678475848985352,0.87890625,0.064453125,0.03662109375,30.08294117647059,302.29476992696
-0.26067041015625,-0.0395947265625,0.9224169921875,0.9593591155447584,0.841796875,0.00390625,-0.0849609375,29.988823529411768,302.29476992696
-0.28068994140625,-0.0430126953125,0.9370654296875,0.979146850416274,0.85693359375,0.0244140625,-0.0166015625,30.130000000000003,302.29476992696
-0.28899072265625,-0.0454541015625,0.9517138671875,0.995661085976158,0.89453125,0.04052734375,0.16357421875,30.130000000000003,302.29476992696
-0.29289697265625,-0.0410595703125,0.9453662109375,0.990551259495322,0.91015625,0.10302734375,0.2451171875,30.08294117647059,302.29476992696
-0.29289697265625,-0.0352001953125,0.9409716796875,0.9861315289124212,0.94189453125,0.19091796875,0.2119140625,30.224117647058826,302.29476992696
-0.28606103515625,-0.0337353515625,0.9356005859375,0.9789368959163324,0.9609375,0.14208984375,0.15087890625,30.03588235294118,302.1227016489645
-0.28654931640625,-0.0430126953125,0.9443896484375,0.987842300555529,0.95849609375,0.1220703125,0.11962890625,30.08294117647059,302.1227016489645
-0.16985009765625,-0.0386181640625,0.9424365234375,0.958398152637179,0.95458984375,-0.15869140625,0.099609375,30.03588235294118,302.1227016489645
-0.28117822265625,-0.0337353515625,0.9551318359375,0.996230942534166,0.9541015625,-0.236328125,0.041015625,30.08294117647059,302.1227016489645
-0.28020166015625,-0.0327587890625,0.9502490234375,0.9912413001681692,0.94140625,-0.10791015625,-0.0029296875,30.130000000000003,302.1227016489645
-0.28947900390625,-0.0381298828125,0.9497607421875,0.993628426055938,0.9521484375,0.080078125,0.02587890625,30.03588235294118,302.1227016489645
-0.27678369140625,-0.0405712890625,0.9487841796875,0.989164627829941,0.974609375,0.19189453125,0.0654296875,30.08294117647059,302.1227016489645
-0.27092431640625,-0.0439892578125,0.9439013671875,0.9829978794491472,0.9765625,0.2041015625,0.09912109375,30.08294117647059,302.1227016489645
-0.26897119140625,-0.0391064453125,0.9399951171875,0.9785017303039476,0.97216796875,0.138671875,0.10009765625,30.130000000000003,302.1227016489645
-0.26164697265625,-0.0391064453125,0.9233935546875,0.9605436529401344,0.9638671875,0.05615234375,0.07666015625,30.08294117647059,302.21970745958873
-0.28020166015625,-0.0347119140625,0.9321826171875,0.9740032438953876,0.9248046875,-0.1328125,0.04638671875,29.988823529411768,302.21970745958873
-0.27971337890625,-0.0400830078125,0.9312060546875,0.9731345940521834,0.9287109375,-0.11962890625,0.0751953125,30.130000000000003,302.21970745958873
-0.27873681640625,-0.0371533203125,0.9448779296875,0.9858341057404492,0.9208984375,-0.08740234375,0.11083984375,30.130000000000003,302.21970745958873
-0.27971337890625,-0.0386181640625,0.9439013671875,0.98523130680726,0.90576171875,-0.03125,0.1201171875,30.08294117647059,302.21970745958873
-0.28264306640625,-0.0356884765625,0.9399951171875,0.9822176900683584,0.8798828125,0.0087890625,0.11865234375,30.08294117647059,302.21970745958873
-0.28361962890625,-0.0376416015625,0.9419482421875,0.9844406914737068,0.87744140625,0.06689453125,0.1044921875,29.988823529411768,302.28205774952426
-0.29045556640625,-0.0376416015625,0.9507373046875,0.9948279995803384,0.857421875,0.09130859375,0.08935546875,30.08294117647059,302.28205774952426
-0.29582666015625,-0.0366650390625,0.9492724609375,0.9949753479574224,0.83984375,0.119140625,0.06494140625,30.130000000000003,302.28205774952426
-0.29680322265625,-0.0425244140625,0.9531787109375,0.9992247663839046,0.83251953125,0.12158203125,0.0068359375,30.03588235294118,302.28205774952426
-0.29485009765625,-0.0405712890625,0.9536669921875,0.9990312015007572,0.8427734375,0.087890625,0.04443359375,30.03588235294118,302.28205774952426
-0.31389306640625,-0.0352001953125,0.9453662109375,0.9967372691287724,0.828125,0.11865234375,0.06787109375,30.03588235294118,302.28205774952426
-0.29143212890625,-0.0308056640625,0.9370654296875,0.9818214166601684,0.82080078125,-0.16845703125,0.16552734375,30.03588235294118,302.28205774952426
-0.28654931640625,-0.0337353515625,0.9517138671875,0.994488747887537,0.85791015625,-0.24658203125,0.25830078125,30.03588235294118,302.28205774952426
-0.25822900390625,-0.0391064453125,0.9336474609375,0.9694890993912384,0.83154296875,-0.1669921875,0.19287109375,30.130000000000003,302.09988659090163
-0.27776025390625,-0.0410595703125,0.9458544921875,0.9866495666423744,0.87353515625,-0.056640625,0.3212890625,30.03588235294118,302.09988659090163
-0.28313134765625,-0.0371533203125,0.9590380859375,1.0006486793648164,0.89404296875,0.05419921875,0.5263671875,30.08294117647059,302.09988659090163
-0.28459619140625,-0.0278759765625,0.9473193359375,0.98953826933238,0.86669921875,0.19873046875,0.59716796875,30.130000000000003,302.09988659090163
-0.28264306640625,-0.0381298828125,0.9375537109375,0.979973444458318,0.8759765625,0.33642578125,0.49169921875,30.03588235294118,302.09988659090163
-0.28264306640625,-0.0371533203125,1.0503466796875005,1.0883453586653125,0.8837890625,0.3447265625,0.47265625,29.988823529411768,302.09988659090163
-0.17033837890625,-0.0488720703125,0.9360888671875,0.9527150727564964,0.93359375,0.22412109375,0.56103515625,30.08294117647059,302.09988659090163
-0.31291650390625,-0.0518017578125,0.9356005859375,0.987901116982853,0.93408203125,0.0947265625,0.64501953125,30.130000000000003,302.09988659090163
-0.30705712890625,-0.0459423828125,0.9341357421875,0.984380194733128,0.9443359375,0.0517578125,0.59814453125,30.03588235294118,302.09988659090163
-0.30266259765625,-0.0259228515625,0.9370654296875,0.9850727190256462,0.9072265625,0.05859375,0.39453125,30.130000000000003,302.0559989604811
-0.28947900390625,-0.0254345703125,0.9448779296875,0.988554152831332,0.87451171875,0.03466796875,0.20849609375,30.03588235294118,302.0559989604811
-0.29387353515625,-0.0283642578125,0.9487841796875,0.9936586966417432,0.84033203125,-0.0478515625,0.099609375,30.03588235294118,302.0559989604811
-0.29875634765625,-0.0303173828125,0.9277880859375,0.9751744620185004,0.8583984375,-0.17138671875,0.0771484375,30.03588235294118,302.0559989604811
-0.30266259765625,-0.0288525390625,0.9302294921875,0.9786541907976466,0.86181640625,-0.22265625,0.07470703125,29.94176470588236,302.0559989604811
-0.30998681640625,-0.0259228515625,0.9346240234375,0.9850309059949918,0.75244140625,-0.150390625,0.11279296875,30.08294117647059,302.0559989604811
-0.30315087890625,-0.0322705078125,0.9390185546875,0.9872677889526782,0.90673828125,-0.02783203125,0.17333984375,30.03588235294118,302.0559989604811
-0.29485009765625,-0.0376416015625,0.9302294921875,0.976565603731518,0.908203125,0.05712890625,0.20849609375,30.08294117647059,302.0559989604811
-0.28264306640625,-0.0386181640625,0.9287646484375,0.9715874833334974,0.888671875,0.08251953125,0.166015625,30.08294117647059,302.12183049007183
-0.27971337890625,-0.0288525390625,0.9321826171875,0.9736716464681724,0.84228515625,0.07080078125,0.0693359375,30.08294117647059,302.12183049007183
-0.28020166015625,-0.0425244140625,0.9356005859375,0.9775836294416304,0.82177734375,0.1240234375,0.017578125,29.988823529411768,302.12183049007183
-0.27922509765625,-0.0391064453125,0.9253466796875,0.9673481518227048,0.81298828125,-0.00341796875,0.01806640625,29.988823529411768,302.12183049007183
-0.28996728515625,-0.0415478515625,0.9346240234375,0.9794535801235534,0.80908203125,-0.26904296875,0.05810546875,29.988823529411768,302.12183049007183
-0.29338525390625,-0.0439892578125,0.9443896484375,0.9898897767370034,0.81396484375,-0.25048828125,0.10400390625,30.08294117647059,302.12183049007183
-0.30168603515625,-0.0449658203125,0.9419482421875,0.9901024592257084,0.80419921875,-0.39501953125,0.13330078125,30.08294117647059,302.12183049007183
-0.30022119140625,-0.0415478515625,0.9473193359375,0.9946219945184772,0.79541015625,-0.32421875,0.16552734375,30.08294117647059,302.12183049007183
-0.30608056640625,-0.0386181640625,0.9497607421875,0.9986101056607029,0.79931640625,-0.17626953125,0.201171875,30.03588235294118,301.92782027955
-0.29631494140625,-0.0381298828125,0.9522021484375,0.9979706227905084,0.7939453125,-0.013671875,0.23974609375,30.03588235294118,301.92782027955
-0.29729150390625,-0.0435009765625,0.9522021484375,0.9984805980817664,0.7802734375,0.1005859375,0.28173828125,30.130000000000003,301.92782027955
-0.29826806640625,-0.0464306640625,0.9439013671875,0.9909941659674086,0.80224609375,0.1572265625,0.33740234375,30.08294117647059,301.92782027955
-0.29094384765625,-0.0430126953125,0.9424365234375,0.987261371246759,0.82666015625,0.15576171875,0.36376953125,30.03588235294118,301.92782027955
-0.28899072265625,-0.0444775390625,0.9429248046875,0.9872188595024904,0.8564453125,0.10302734375,0.3173828125,30.03588235294118,301.92782027955
-0.27531884765625,-0.0386181640625,0.9360888671875,0.9765009973075812,0.8916015625,-0.0380859375,0.34130859375,29.988823529411768,301.92782027955
-0.40617822265625,-0.0415478515625,0.9326708984375,1.0181267000338727,0.85546875,-0.126953125,0.3203125,30.08294117647059,301.92782027955
-0.28215478515625,-0.0317822265625,0.9312060546875,0.973532818655077,0.8857421875,-0.5078125,0.365234375,30.08294117647059,301.92782027955
-0.24699853515625,-0.0342236328125,0.9356005859375,0.9682602903242556,0.9921875,-0.34326171875,0.09814453125,30.03588235294118,302.3808051144632
-0.26018212890625,-0.0415478515625,0.9385302734375,0.9748128222024558,0.85693359375,-0.20556640625,0.0634765625,30.130000000000003,302.3808051144632
-0.27092431640625,-0.0400830078125,0.9468310546875,0.985644803596171,0.85791015625,-0.13720703125,0.28173828125,30.03588235294118,302.3808051144632
-0.26408837890625,-0.0371533203125,0.9443896484375,0.9813230095944347,0.841796875,-0.09765625,0.30029296875,30.130000000000003,302.3808051144632
-0.26701806640625,-0.0400830078125,0.9561083984375,0.993503178085179,0.84716796875,-0.1220703125,0.17626953125,30.03588235294118,302.3808051144632
-0.28752587890625,-0.0420361328125,0.9424365234375,0.9862174041313624,0.892578125,0.02099609375,0.248046875,30.08294117647059,302.3808051144632
-0.31682275390625,-0.0454541015625,0.9517138671875,1.004092634042587,0.93115234375,-0.01513671875,0.4140625,30.130000000000003,302.3808051144632
-0.31340478515625,-0.0376416015625,0.9546435546875,1.0054768848826965,0.958984375,-0.0673828125,0.48583984375,30.130000000000003,302.3808051144632
-0.29680322265625,-0.0225048828125,0.9424365234375,0.98832445251471,0.97314453125,-0.09619140625,0.4853515625,30.03588235294118,302.100757626983
-0.28606103515625,-0.0151806640625,0.9395068359375,0.9822089712323628,0.93701171875,-0.13037109375,0.16064453125,30.130000000000003,302.100757626983
-0.27483056640625,-0.0127392578125,0.9390185546875,0.978493727607998,0.89697265625,-0.2158203125,-0.083984375,30.130000000000003,302.100757626983
-0.28410791015625,-0.0122509765625,0.9370654296875,0.9792645253227066,0.9921875,-0.36328125,-0.26123046875,30.03588235294118,302.100757626983
-0.28801416015625,-0.0166455078125,0.9419482421875,0.9851374119080888,0.8603515625,-0.49755859375,-0.361328125,30.03588235294118,302.100757626983
-0.29533837890625,-0.0317822265625,0.9351123046875,0.98115742384095,0.81201171875,-0.5703125,-0.3828125,30.17705882352941,302.100757626983
-0.29680322265625,-0.0391064453125,0.9224169921875,0.9697806837220204,0.80224609375,-0.5107421875,-0.37548828125,30.08294117647059,302.100757626983
-0.29924462890625,-0.0542431640625,0.9292529296875,0.9777528706731332,0.77197265625,-0.43603515625,-0.3369140625,30.08294117647059,302.100757626983
-0.29338525390625,-0.0522900390625,0.9312060546875,0.9777289356879298,0.76220703125,-0.37060546875,-0.25927734375,30.03588235294118,302.100757626983
-0.16789697265625,-0.0630322265625,0.9302294921875,0.9473591521424036,0.736328125,-0.3076171875,-0.2626953125,30.03588235294118,302.07794274770146
-0.28606103515625,-0.0669384765625,0.9272998046875,0.9727263763529028,0.72509765625,-0.12646484375,-0.28466796875,29.988823529411768,302.07794274770146
-0.28703759765625,-0.0644970703125,0.9297412109375,0.9751764834442512,0.72607421875,-0.22216796875,-0.36669921875,30.08294117647059,302.07794274770146
-0.28410791015625,-0.0610791015625,0.9243701171875,0.968972690435735,0.7470703125,-0.26416015625,-0.47509765625,30.08294117647059,302.07794274770146
-0.17131494140625,-0.0605908203125,0.9146044921875,0.9324813316011872,0.7666015625,-0.36083984375,-0.53466796875,29.988823529411768,302.07794274770146
-0.28654931640625,-0.0713330078125,0.9194873046875,0.965741068929944,0.775390625,-0.48828125,-0.58740234375,29.988823529411768,302.07794274770146
-0.28166650390625,-0.0654736328125,0.9038623046875,0.9489941421586516,0.78857421875,-0.65185546875,-0.642578125,30.03588235294118,302.07794274770146
-0.27483056640625,-0.0664501953125,0.8911669921875001,0.934947098317742,0.79345703125,-0.845703125,-0.7021484375,30.17705882352941,302.07794274770146
-0.26945947265625,-0.0806103515625,0.9004443359375001,0.9433485243032608,0.78857421875,-0.982421875,-0.7470703125,30.08294117647059,302.1758194590617
-0.27678369140625,-0.0845166015625,0.9053271484375,0.9504575284914734,0.78955078125,-1.0830078125,-0.7275390625,30.08294117647059,302.1758194590617
-0.26701806640625,-0.0854931640625,0.9028857421875,0.9454154601730516,0.79443359375,-1.119140625,-0.654296875,30.03588235294118,302.1758194590617
-0.26848291015625,-0.0937939453125,0.9185107421875,0.9615312583255344,0.80126953125,-1.02880859375,-0.6201171875,30.03588235294118,302.1758194590617
-0.27141259765625,-0.1074658203125,0.9126513671875,0.958199467089794,0.79931640625,-0.9921875,-0.61181640625,30.03588235294118,302.1758194590617
-0.27580712890625,-0.1084423828125,0.9175341796875,0.9642086359499044,0.8046875,-0.6669921875,-0.6748046875,30.03588235294118,302.1758194590617
-0.26457666015625,-0.1226025390625,0.9194873046875,0.964618626797913,0.78125,-0.5478515625,-0.66357421875,30.08294117647059,302.1758194590617
-0.26604150390625,-0.1284619140625,0.9126513671875,0.9592773651006852,0.7451171875,-0.55029296875,-0.68603515625,30.03588235294118,302.1758194590617
-0.25334619140625,-0.1221142578125,0.9141162109375,0.9564019195714122,0.76318359375,-0.716796875,-0.64453125,29.988823529411768,302.0476406012776
-0.25383447265625,-0.1435986328125,0.9028857421875,0.948817775075788,0.806640625,-0.615234375,-0.857421875,30.130000000000003,302.0476406012776
-0.27190087890625,-0.1445751953125,0.8027880859375001,0.8598260207581728,0.81103515625,-0.7744140625,-0.8388671875,29.988823529411768,302.0476406012776
-0.28850244140625,-0.1470166015625,0.9150927734375,0.970691672896131,0.8427734375,-1.0302734375,-0.5673828125,30.130000000000003,302.0476406012776
-0.28557275390625,-0.1372509765625,0.9312060546875,0.9836332368457356,0.91455078125,-1.32177734375,-0.33984375,30.03588235294118,302.0476406012776
-0.29436181640625,-0.1279736328125,0.9033740234375,0.9587026420506372,1.01416015625,-1.4462890625,-0.2265625,29.988823529411768,302.0476406012776
-0.30510400390625,-0.1172314453125,0.9248583984375,0.980915247169734,1.14306640625,-1.4208984375,-0.09130859375,30.08294117647059,302.0476406012776
-0.30363916015625,-0.1064892578125,0.9336474609375,0.9875395095513348,1.3212890625,-1.34130859375,0.15478515625,30.130000000000003,302.0476406012776
-0.30998681640625,-0.1001416015625,0.9346240234375,0.989768776985658,1.49462890625,-1.25048828125,0.43115234375,30.130000000000003,302.1328024606494
-0.29680322265625,-0.0879345703125,0.9370654296875,0.9868719578296866,1.50732421875,-1.20703125,0.54296875,30.08294117647059,302.1328024606494
-0.27287744140625,-0.0791455078125,0.9185107421875,0.9614510351282336,1.7021484375,-1.259765625,0.52783203125,30.03588235294118,302.1328024606494
-0.25676416015625,-0.0684033203125,0.9048388671875,0.9430483676586676,1.77001953125,-1.37646484375,0.42919921875,30.17705882352941,302.1328024606494
-0.24651025390625,-0.0610791015625,0.9116748046875,0.9463872946265696,1.80859375,-1.83203125,0.32421875,30.03588235294118,302.1328024606494
-0.23186181640625,-0.0557080078125,0.9082568359375,0.9390387447112296,1.84228515625,-2.14404296875,0.2060546875,30.130000000000003,302.1328024606494
-0.22600244140625,-0.0547314453125,0.9199755859375,0.9489086960022166,1.87451171875,-2.408203125,0.09814453125,30.08294117647059,302.1328024606494
-0.23088525390625,-0.0459423828125,0.9356005859375,0.9647627477346112,1.90576171875,-2.58203125,0.01025390625,30.03588235294118,302.1328024606494
-0.24065087890625,-0.0386181640625,0.9395068359375,0.970606667444234,1.98486328125,-2.6103515625,-0.099609375,30.130000000000003,302.1328024606494
-0.23772119140625,-0.0308056640625,0.9727099609375,1.0018108713170224,2.03125,-2.54345703125,-0.1865234375,30.03588235294118,302.2930296229782
-0.23088525390625,-0.0234814453125,0.9775927734375,1.0047621656006662,2.099609375,-2.41650390625,-0.13134765625,30.130000000000003,302.2930296229782
-0.21428369140625,-0.0102978515625,0.9824755859375,1.0056250907334832,2.18115234375,-2.4072265625,-0.32275390625,30.17705882352941,302.2930296229782
-0.19817041015625,-0.0059033203125,0.9922412109375,1.0118542292914157,2.2421875,-2.45947265625,-0.4267578125,30.03588235294118,302.2930296229782
-0.18254541015625,0.0019091796875,0.9966357421875,1.0132172888091784,2.26171875,-2.56982421875,-0.54541015625,30.08294117647059,302.2930296229782
-0.16985009765625,-0.0073681640625,0.9990771484375,1.0134389444093297,2.2822265625,-2.68359375,-0.73779296875,30.03588235294118,302.2930296229782
-0.16740869140625,0.0023974609375,1.0054248046875005,1.0192695696714378,2.29345703125,-2.78564453125,-0.8974609375,29.988823529411768,302.2930296229782
-0.17277978515625,-0.0024853515625,1.0034716796875005,1.0182408570990866,2.3046875,-2.8876953125,-0.99072265625,30.130000000000003,302.2930296229782
-0.15959619140625,-0.0024853515625,1.0181201171875005,1.030556012211689,2.416015625,-2.92529296875,-1.03662109375,30.130000000000003,302.2930296229782
-0.14104150390625,0.0136279296875,1.0132373046875005,1.0230973863235575,2.48681640625,-2.896484375,-1.08447265625,30.03588235294118,302.0669708470988
-0.10637353515625,0.0204638671875,0.9922412109375,0.9981366236766498,2.505859375,-2.7138671875,-1.20654296875,30.130000000000003,302.0669708470988
-0.08342431640625,0.0321826171875,0.9653857421875,0.969517905268282,2.48779296875,-2.43701171875,-1.34375,30.08294117647059,302.0669708470988
-0.05998681640625,0.0443896484375,0.9492724609375,0.9522011678869648,2.5234375,-2.19384765625,-1.44384765625,29.988823529411768,302.0669708470988
-0.05510400390625,0.0385302734375,0.9272998046875,0.92973434968874,2.560546875,-2.02685546875,-1.54345703125,30.03588235294118,302.0669708470988
-0.04143212890625,0.0292529296875,0.9204638671875,0.9218601227945452,2.53466796875,-2.04833984375,-1.6826171875,30.130000000000003,302.0669708470988
-0.03703759765625,0.1361865234375,0.8892138671875001,0.9003442977021001,2.54931640625,-2.21826171875,-1.75244140625,30.03588235294118,302.0669708470988
-0.04436181640625,0.0028857421875,0.8604052734375001,0.861552977373936,2.556640625,-2.4892578125,-1.72412109375,30.130000000000003,302.3259453273346
0.07966162109375,-0.0088330078125,0.8555224609375001,0.8592686873562053,2.59619140625,-2.73681640625,-1.74853515625,30.130000000000003,302.3259453273346
-0.04338525390625,-4.394531249999993e-05,0.8413623046875001,0.8424801540313943,2.705078125,-2.72900390625,-1.564453125,30.08294117647059,302.3259453273346
-0.05949853515625,-0.0137158203125,0.8340380859375001,0.8362701287304677,2.7587890625,-2.548828125,-1.40380859375,30.08294117647059,302.3259453273346
-0.07219384765625,-0.0112744140625,0.8232958984375001,0.8265320323108336,2.82373046875,-2.474609375,-1.06884765625,30.17705882352941,302.3259453273346
-0.07268212890625,-0.0117626953125,0.7993701171875001,0.8027537836196832,2.8642578125,-2.5078125,-0.80029296875,30.08294117647059,302.3259453273346
-0.05119775390625,-0.0083447265625,0.7861865234375001,0.7878959919311627,2.931640625,-2.5615234375,-0.73681640625,30.08294117647059,302.3259453273346
-0.04973291015625,-0.0098095703125,0.7388232421875001,0.740560175285422,2.85595703125,-2.693359375,-0.41259765625,29.988823529411768,302.3259453273346
-0.05070947265625,0.0170458984375,0.7280810546875001,0.7300438585903446,2.8046875,-3.06640625,-0.18212890625,30.130000000000003,302.3259453273346
-0.02287744140625,0.0287646484375,0.7075732421875001,0.7085271169015057,2.76953125,-3.5537109375,0.05126953125,30.130000000000003,302.14290360560125
7.177734374999578e-05,0.0429248046875,0.7979052734375001,0.799059052504143,2.66943359375,-4.267578125,0.294921875,30.130000000000003,302.14290360560125
-0.00334619140625,0.0595263671875,0.6621630859375001,0.6648417388865875,2.6337890625,-4.7607421875,0.52294921875,30.08294117647059,302.14290360560125
0.0332749023437499,0.0663623046875,0.6670458984375001,0.6711642162926406,2.7265625,-5.736328125,0.8369140625,30.130000000000003,302.14290360560125
0.20417333984375,0.0673388671875,0.6226123046875001,0.6586860843264625,2.5634765625,-6.63671875,0.8876953125,30.03588235294118,302.14290360560125
0.13386083984375,0.0771044921875,0.6421435546875001,0.6604636038313275,2.587890625,-7.67333984375,0.68408203125,30.08294117647059,302.14290360560125
0.17341162109375,0.1083544921875,0.6685107421875001,0.6990843287670347,2.6787109375,-8.6474609375,0.49267578125,30.08294117647059,302.14290360560125
0.19977880859375,0.1244677734375,0.6724169921875001,0.7124243190473719,2.7197265625,-9.875,0.47265625,30.03588235294118,302.14290360560125
0.19929052734375,0.1469287109375,0.6606982421875001,0.7055685137648632,2.65087890625,-10.60986328125,0.427734375,30.03588235294118,302.14290360560125
0.21393896484375,0.1684130859375,0.6704638671875001,0.7236398589059511,2.630859375,-10.60546875,0.36962890625,30.17705882352941,302.09988659090163
0.2676499023437499,0.1640185546875,0.7026904296875001,0.7696183446883259,2.8779296875,-10.77587890625,0.234375,30.08294117647059,302.09988659090163
0.2774155273437499,0.2006396484375,0.6992724609375001,0.778586936675746,3.15087890625,-11.46728515625,0.56884765625,30.08294117647059,302.09988659090163
0.3301499023437499,0.1952685546875,0.7349169921875001,0.8289944221002062,3.140625,-11.8291015625,0.72412109375,30.03588235294118,302.09988659090163
0.3623764648437499,0.1874560546875,0.7251513671875001,0.8320462607605162,3.39990234375,-11.962890625,0.9794921875,30.03588235294118,302.09988659090163
0.4497788085937499,0.2118701171875,0.7715380859375001,0.9178567106412412,3.5439453125,-12.25390625,1.02001953125,30.130000000000003,302.09988659090163
0.51667333984375,0.2152880859375,0.7979052734375001,0.9746553880378948,3.50341796875,-12.72314453125,0.92333984375,30.130000000000003,302.09988659090163
0.56501318359375,0.2123583984375,0.8184130859375001,1.01692475938755,3.43408203125,-12.5712890625,0.59130859375,30.08294117647059,302.09988659090163
0.59772802734375,0.1898974609375,0.8262255859375001,1.0372986836974802,3.2861328125,-11.91357421875,0.31494140625,30.130000000000003,301.9361792463414
0.62848974609375,0.1737841796875,0.8423388671875001,1.065239442205068,2.92578125,-11.361328125,0.30810546875,29.988823529411768,301.9361792463414
0.65485693359375,0.1679248046875,0.8999560546875001,1.125591952651508,2.77880859375,-10.73681640625,0.41552734375,30.08294117647059,301.9361792463414
0.68317724609375,0.1415576171875,0.9316943359375,1.1639690907331095,2.6689453125,-10.16015625,0.68310546875,30.08294117647059,301.9361792463414
0.68903662109375,0.1200732421875,0.9429248046875,1.1740086183638816,2.4658203125,-9.43310546875,0.982421875,30.130000000000003,301.9361792463414
0.70173193359375,0.1015185546875,0.9551318359375,1.1895421588125414,2.2333984375,-8.5791015625,1.33447265625,30.03588235294118,301.9361792463414
0.71833349609375,0.0878466796875,0.9883349609375,1.2249596098458584,2.2216796875,-7.365234375,1.6259765625,30.03588235294118,301.9361792463414
0.71931005859375,0.0912646484375,1.0181201171875005,1.2499219053486716,2.396484375,-6.01416015625,2.25439453125,30.17705882352941,301.9361792463414
0.69929052734375,0.1068896484375,1.0347216796875005,1.2534279368959007,2.41943359375,-5.53173828125,3.3798828125,30.08294117647059,302.250882025839
0.70026708984375,0.1068896484375,1.0230029296875005,1.2443208542054318,2.31005859375,-5.20263671875,4.33935546875,30.03588235294118,302.250882025839
0.71784521484375,0.1347216796875,1.0234912109375005,1.2573726346307217,2.39013671875,-4.7802734375,4.77197265625,30.03588235294118,302.250882025839
0.74811865234375,0.1620654296875,1.0000537109375005,1.2593864165712954,2.40185546875,-4.5048828125,4.9345703125,30.08294117647059,302.250882025839
0.74274755859375,0.2021044921875,0.9888232421875,1.2531127506531656,2.4248046875,-4.0625,4.7607421875,30.03588235294118,302.250882025839
0.76081396484375,0.2157763671875,0.9434130859375,1.2310262306124993,2.22216796875,-3.79931640625,4.3896484375,30.08294117647059,302.250882025839
0.78620458984375,0.2118701171875,1.0493701171875005,1.3282259771945932,2.10400390625,-3.810546875,3.904296875,30.130000000000003,302.250882025839
0.78718115234375,0.3397998046875,1.0371630859375005,1.3456691052046543,2.09716796875,-4.263671875,3.69921875,30.08294117647059,302.250882025839
0.85944677734375,0.2509326171875,0.8814013671875001,1.2563774558368677,1.5849609375,-4.71923828125,3.15478515625,30.08294117647059,302.250882025839
0.91413427734375,0.3046435546875,0.8618701171875001,1.2927758008750825,1.5556640625,-5.08642578125,2.548828125,30.17705882352941,302.11085853348925
0.95417333984375,0.3090380859375,0.8267138671875001,1.2997719489312736,1.39892578125,-4.90869140625,2.0849609375,30.130000000000003,302.11085853348925
0.96442724609375,0.3188037109375,0.9233935546875,1.3727386408030893,1.380859375,-4.0703125,1.86962890625,29.988823529411768,302.11085853348925
0.94391943359375,0.3280810546875,0.7764208984375001,1.265484289547406,1.478515625,-2.69677734375,1.84765625,30.08294117647059,302.11085853348925
0.92145849609375,0.3236865234375,0.7456591796875001,1.228766185134766,1.63671875,-1.291015625,2.0439453125,30.130000000000003,302.11085853348925
0.91071630859375,0.3231982421875,0.7114794921875001,1.200026818989934,1.7314453125,-0.08642578125,2.13818359375,30.03588235294118,302.11085853348925
0.93024755859375,0.3090380859375,0.6826708984375001,1.1945311274316,1.79443359375,0.771484375,1.9541015625,30.03588235294118,302.11085853348925
0.95954443359375,0.2904833984375,0.6787646484375001,1.2107136625879105,1.8017578125,0.85107421875,1.61181640625,30.08294117647059,302.11085853348925
0.99372412109375,0.2416552734375,0.6777880859375001,1.2268991765677075,1.76318359375,0.4404296875,1.0498046875,30.03588235294118,302.100757626983
0.98200537109375,0.2060107421875,0.6763232421875001,1.210036405517053,1.73193359375,0.02197265625,0.7099609375,30.03588235294118,302.100757626983
0.97272802734375,0.1522998046875,0.6548388671875001,1.1824588735627646,1.6220703125,-0.0205078125,0.51806640625,30.08294117647059,302.100757626983
0.92487646484375,0.1107958984375,0.6421435546875001,1.131379932277015,1.5546875,0.37109375,0.44091796875,30.03588235294118,302.100757626983
0.88044287109375,0.0849169921875,0.6494677734375001,1.097359983576876,1.5185546875,0.83984375,0.49560546875,30.17705882352941,302.100757626983
0.82477880859375,0.0790576171875,0.6084521484375001,1.0279709173312737,1.42138671875,1.08203125,0.68701171875,30.17705882352941,302.100757626983
0.85114599609375,0.0946826171875,0.6143115234375001,1.0539416267004538,1.35205078125,0.63232421875,0.736328125,30.03588235294118,302.100757626983
0.88679052734375,0.1210498046875,0.6128466796875001,1.0847264850668492,1.28515625,-0.26611328125,0.33642578125,30.03588235294118,301.8518883133295
0.91315771484375,0.1244677734375,0.6333544921875001,1.118251828336191,1.228515625,-1.46728515625,0.083984375,30.03588235294118,301.8518883133295
0.90925146484375,0.1332568359375,0.6421435546875001,1.1210905206410753,1.2734375,-2.1416015625,0.03466796875,30.130000000000003,301.8518883133295
0.91169287109375,0.1176318359375,0.6509326171875001,1.1263811131884982,1.26611328125,-2.6181640625,0.302734375,30.03588235294118,301.8518883133295
0.90778662109375,0.1049365234375,0.6626513671875001,1.1288024884023864,1.1650390625,-2.36376953125,0.65087890625,29.988823529411768,301.8518883133295
0.89606787109375,0.1244677734375,0.6694873046875001,1.1254524012008271,1.11865234375,-1.27685546875,1.32177734375,30.03588235294118,301.8518883133295
0.91462255859375,0.1464404296875,0.6914599609375001,1.1558962331088922,1.0654296875,-0.287109375,1.62939453125,29.988823529411768,301.8518883133295
0.92682958984375,0.1708544921875,0.7012255859375001,1.1747006718666555,1.04736328125,0.544921875,2.09228515625,30.08294117647059,301.8518883133295
0.94538427734375,0.1938037109375,0.7173388671875001,1.20245014890421,1.08349609375,1.1923828125,2.2626953125,30.03588235294118,302.2500118984217
0.94196630859375,0.1908740234375,0.7114794921875001,1.1957995179595693,1.16015625,1.61474609375,2.33544921875,30.03588235294118,302.2500118984217
0.93268896484375,0.1889208984375,0.7139208984375001,1.1896566144201215,1.21044921875,1.73388671875,2.2880859375,30.08294117647059,302.2500118984217
0.94587255859375,0.1742724609375,0.7236865234375001,1.2036477773613652,1.12939453125,1.87353515625,2.13671875,30.03588235294118,302.2500118984217
0.90729833984375,0.1689013671875,0.7085498046875001,1.1635122582266704,1.271484375,1.82666015625,2.10107421875,30.03588235294118,302.2500118984217
0.88630224609375,0.1684130859375,0.7114794921875001,1.1489550499254533,1.25341796875,2.03515625,1.9912109375,30.130000000000003,302.2500118984217
0.86091162109375,0.1894091796875,0.7100146484375001,1.1318857971014509,1.20849609375,2.1220703125,1.93359375,30.130000000000003,302.2500118984217
0.85163427734375,0.1991748046875,0.7129443359375001,1.1283798878544753,1.1220703125,2.29443359375,1.80419921875,30.130000000000003,302.2500118984217
0.86091162109375,0.1889208984375,0.7026904296875001,1.1272239197138714,1.0615234375,2.4736328125,1.517578125,30.03588235294118,302.2500118984217
0.89460302734375,0.1781787109375,0.6948779296875001,1.1466985509412393,1.03125,2.55029296875,1.35302734375,30.03588235294118,302.0138530857404
0.89020849609375,0.1762255859375,0.7100146484375001,1.1522358372539616,0.94970703125,2.50048828125,1.40869140625,30.130000000000003,302.0138530857404
0.89167333984375,0.1703662109375,0.7188037109375001,1.157922607808842,0.86279296875,2.806640625,1.5029296875,30.03588235294118,302.0138530857404
0.87848974609375,0.1537646484375,0.7202685546875001,1.1463745426223446,0.87451171875,3.3095703125,1.6201171875,30.08294117647059,302.0138530857404
0.87702490234375,0.1425341796875,0.7241748046875001,1.146262543859142,0.59375,4.06005859375,1.416015625,30.08294117647059,302.0138530857404
0.86628271484375,0.1186083984375,0.7334521484375001,1.1412562149949288,0.39111328125,4.81689453125,1.322265625,30.08294117647059,302.0138530857404
0.85651708984375,0.0956591796875,0.7275927734375001,1.1279022332681876,0.22412109375,5.38916015625,1.205078125,30.130000000000003,302.0138530857404
0.95710302734375,0.0736865234375,0.7231982421875001,1.201870045466633,-0.18701171875,6.19140625,1.1875,30.224117647058826,302.0138530857404
0.82038427734375,0.0551318359375,0.7256396484375001,1.0966415919666574,-0.484375,6.462890625,1.2705078125,30.03588235294118,302.02395399085947
0.81501318359375,0.0409716796875,0.7227099609375001,1.0900618586146007,-0.80078125,6.3271484375,1.45458984375,30.03588235294118,302.02395399085947
0.95368505859375,0.0341357421875,0.7368701171875001,1.2056774068894116,-1.05029296875,5.95068359375,1.67041015625,30.08294117647059,302.02395399085947
0.95710302734375,0.0297412109375,0.7466357421875001,1.2142469584439892,-1.23046875,5.5927734375,1.75341796875,29.988823529411768,302.02395399085947
0.82380224609375,0.0429248046875,0.7803271484375001,1.1355188849663258,-1.33203125,5.4228515625,2.0859375,29.94176470588236,302.02395399085947
0.78327490234375,0.0697802734375,0.8101123046875001,1.1290131998381223,-1.29638671875,5.59130859375,2.20947265625,30.130000000000003,302.02395399085947
0.77546240234375,0.0873583984375,0.8496630859375001,1.1536467339836491,-1.16455078125,5.7724609375,2.2119140625,30.03588235294118,302.02395399085947
0.76227880859375,0.0985888671875,0.8745654296875001,1.1643253143210892,-1.02783203125,6.421875,2.037109375,30.03588235294118,302.02395399085947
0.75397802734375,0.1112841796875,0.8892138671875001,1.1711397593645438,-0.8857421875,6.923828125,1.82177734375,30.03588235294118,301.8518883133295
0.74909521484375,0.1029833984375,0.8984912109375001,1.17432349775838,-0.79736328125,7.37109375,1.654296875,30.130000000000003,301.8518883133295
0.72223974609375,0.0941943359375,0.9092333984375,1.164992788215651,-0.6826171875,7.9892578125,1.54541015625,30.130000000000003,301.8518883133295
0.68122412109375,0.0849169921875,0.9272998046875,1.153759995187734,-0.53076171875,8.7021484375,1.54541015625,30.08294117647059,301.8518883133295
0.64313818359375,0.0868701171875,0.9487841796875,1.1495062244641046,-0.3798828125,9.26318359375,1.63525390625,30.08294117647059,301.8518883133295
0.61432958984375,0.0810107421875,0.9653857421875,1.1471413236939336,-0.17578125,9.90771484375,1.693359375,29.988823529411768,301.8518883133295
0.57868505859375,0.0717333984375,0.9844287109375,1.1441686783027725,0.0380859375,10.44287109375,1.72607421875,29.988823529411768,301.8518883133295
0.57868505859375,0.0780810546875,0.9966357421875,1.155099931065011,0.13330078125,10.5048828125,1.66845703125,30.08294117647059,301.8518883133295
0.57966162109375,0.0746630859375,1.0327685546875005,1.1866731053335846,0.4736328125,10.09521484375,1.4560546875,29.988823529411768,301.8518883133295
0.56891943359375,0.0707568359375,1.0669482421875005,1.2112202125375535,0.70068359375,9.21142578125,1.20654296875,30.130000000000003,302.012982098816
0.54401708984375,0.0575732421875,1.0732958984375005,1.204671473000338,0.87646484375,8.33203125,0.962890625,29.988823529411768,302.012982098816
0.52595068359375,0.0634326171875,1.0811083984375005,1.2039282319424551,0.994140625,7.8525390625,0.70556640625,30.03588235294118,302.012982098816
0.4995834960937499,0.0458544921875,1.1016162109375005,1.2104728746334312,1.11474609375,7.41552734375,0.423828125,30.08294117647059,302.012982098816
0.4492905273437499,0.0356005859375,1.1128466796875005,1.2006486214423486,1.2734375,7.50146484375,0.12744140625,30.08294117647059,302.012982098816
0.3892319335937499,0.0214404296875,1.1172412109375005,1.1832958689911015,1.49755859375,8.11669921875,-0.16064453125,30.08294117647059,302.012982098816
0.4527084960937499,0.0189990234375,1.1304248046875005,1.2178531045983405,1.69677734375,8.67431640625,-0.3046875,30.08294117647059,302.012982098816
0.2652084960937499,0.0102099609375,1.1689990234375005,1.1987487253384186,1.99072265625,8.7392578125,-0.244140625,30.08294117647059,302.012982098816
0.19977880859375,0.0033740234375,1.1699755859375005,1.1869144148114017,2.298828125,8.71044921875,0.29931640625,30.130000000000003,301.80887233079886
0.16511083984375,-0.0127392578125,1.1704638671875005,1.1821207816949333,2.51220703125,8.72119140625,0.66259765625,30.03588235294118,301.80887233079886
0.10895849609375,-0.0019970703125,1.1543505859375005,1.1594831682327669,2.91015625,8.728515625,1.13916015625,29.988823529411768,301.80887233079886
0.06843115234375,0.0351123046875,1.1055224609375005,1.108194751922634,3.1083984375,8.71826171875,1.751953125,30.03588235294118,301.80887233079886
0.09528662109375,0.0824755859375,1.0708544921875005,1.0782444555263648,3.1904296875,8.474609375,2.09423828125,30.08294117647059,301.80887233079886
0.13044287109375,0.1112841796875,1.0566943359375005,1.070515030660614,3.1845703125,8.04638671875,1.98974609375,30.08294117647059,301.80887233079886
0.14313818359375,0.1215380859375,1.0474169921875005,1.0641157838595288,3.0029296875,7.47265625,1.45947265625,30.130000000000003,301.80887233079886
0.14948583984375,0.1288623046875,1.0405810546875005,1.0591319281646248,3.10009765625,6.5625,1.02490234375,30.03588235294118,301.80887233079886
0.10358740234375,0.1225146484375,1.0068896484375005,1.019591561919126,3.02197265625,6.109375,0.8671875,30.08294117647059,301.71099703985584
0.07184912109375,0.1439990234375,1.0200732421875005,1.032689418160086,2.8759765625,5.81396484375,0.58837890625,30.08294117647059,301.71099703985584
0.0591538085937499,0.1713427734375,0.9927294921875,1.0091428856902536,3.0126953125,6.04248046875,0.3115234375,30.03588235294118,301.71099703985584
0.0327866210937499,0.1942919921875,0.9463427734375,0.9666379806257936,2.9638671875,6.49658203125,0.095703125,30.03588235294118,301.71099703985584
0.0069077148437499,0.2221240234375,0.9248583984375,0.9511833973912724,2.88330078125,6.984375,-0.083984375,30.130000000000003,301.71099703985584
-0.00334619140625,0.2187060546875,0.8799365234375001,0.9067148507845082,2.86962890625,7.46044921875,-0.3505859375,30.130000000000003,301.71099703985584
-0.01897119140625,0.2196826171875,0.8438037109375001,0.8721382120911906,2.60498046875,7.7900390625,-0.6650390625,30.03588235294118,301.71099703985584
-0.02776025390625,0.2157763671875,0.7910693359375001,0.8204393741125371,2.4306640625,7.9296875,-0.95556640625,30.03588235294118,301.71099703985584
-0.06047509765625,0.1967333984375,0.7310107421875001,0.759432665014365,2.22900390625,7.99169921875,-1.048828125,30.03588235294118,301.71099703985584
-0.06193994140625,0.1850146484375,0.7002490234375001,0.726922053113698,2.10498046875,7.23779296875,-0.94482421875,30.08294117647059,301.871218964365
-0.01262353515625,0.1879443359375,0.7144091796875001,0.738825353566454,1.6806640625,5.1845703125,-0.65771484375,30.130000000000003,301.871218964365
0.14264990234375,0.1815966796875,0.7661669921875001,0.8002113524749862,1.16357421875,1.2724609375,-0.6904296875,30.130000000000003,301.871218964365
0.23835302734375,0.1420458984375,0.8696826171875001,0.9128729690077074,0.6298828125,-2.2197265625,-0.92529296875,30.08294117647059,301.871218964365
0.21589208984375,0.0697802734375,0.9268115234375,0.9541793756913076,0.2021484375,-4.2724609375,-0.9345703125,30.03588235294118,301.871218964365
0.0420639648437499,-0.0068798828125,0.9893115234375,0.990229266549983,-0.37841796875,-4.203125,-0.71533203125,30.08294117647059,301.871218964365
-0.22063134765625,-0.0561962890625,1.1113818359375005,1.1344627802289584,-0.58251953125,-1.7001953125,-0.353515625,30.08294117647059,301.871218964365
-0.53068994140625,-0.1040478515625,1.2695849609375005,1.379965123603932,-0.2802734375,1.9287109375,0.5849609375,30.03588235294118,301.871218964365
-0.82219384765625,-0.1186962890625,1.3784716796875005,1.609433348685641,-0.18115234375,5.82470703125,1.71435546875,30.08294117647059,301.7548845983832
-1.02776025390625,-0.0786572265625,1.3862841796875005,1.7275016427349033,-0.33984375,8.59228515625,2.27783203125,29.988823529411768,301.7548845983832
-1.03703759765625,-0.0688916015625,1.3330615234375005,1.6903390361072543,-0.79638671875,9.58984375,2.064453125,30.130000000000003,301.7548845983832
-0.71330712890625,0.0180224609375,1.2212451171875005,1.4144156056481534,-1.0947265625,8.89111328125,1.3740234375,30.08294117647059,301.7548845983832
-0.48820947265625,0.1020068359375,1.1040576171875005,1.2114854955132623,-1.0166015625,6.90087890625,0.42431640625,30.03588235294118,301.7548845983832
-0.35881494140625,0.0941943359375,0.9775927734375,1.0456138703060038,-1.18212890625,4.27099609375,-0.416015625,30.08294117647059,301.7548845983832
-0.37932275390625,0.1088427734375,0.9150927734375,0.9965577178257786,-1.453125,1.55712890625,-0.7841796875,30.130000000000003,301.7548845983832
-0.40324853515625,0.0717333984375,0.8335498046875001,0.9287412656125624,-1.58349609375,-0.98583984375,-0.75830078125,30.03588235294118,301.7548845983832
-0.41057275390625,0.0629443359375,0.8047412109375001,0.905616029152493,-1.2666015625,-2.64697265625,-0.8505859375,30.17705882352941,301.7548845983832
-0.35100244140625,0.0614794921875,0.7422412109375001,0.823349535159125,-1.06298828125,-3.3359375,-1.4208984375,29.94176470588236,301.8080007422584
-0.29680322265625,0.0766162109375,0.6953662109375001,0.7599318154092056,-0.95654296875,-3.54931640625,-2.248046875,30.08294117647059,301.8080007422584
-0.26457666015625,0.0644091796875,0.6338427734375001,0.6898594153640251,-0.97607421875,-3.5048828125,-2.76953125,30.17705882352941,301.8080007422584
-0.26506494140625,0.0380419921875,0.6060107421875001,0.6625372713885138,-0.9765625,-2.94775390625,-2.98095703125,30.03588235294118,301.8080007422584
-0.24602197265625,-0.0176220703125,0.5962451171875001,0.6452484700963707,-0.87890625,-2.34765625,-2.65478515625,30.08294117647059,301.8080007422584
