AccX,AccY,AccZ,Magnitude,GyroX,GyroY,GyroZ,Temperature,Altitude
0.00197216796875,0.10657275390625,0.7004487304687499,0.7085125724621565,3.154296875,-1.69384765625,-2.78466796875,38.506470588235295,199.6118638037624
0.03126904296875,0.11047900390625,0.6960541992187499,0.7054607087587188,3.04248046875,-1.74755859375,-2.7529296875,38.69470588235294,199.6118638037624
0.11183544921875,0.11047900390625,0.6862885742187499,0.7040630547822272,2.91796875,-1.53271484375,-2.7080078125,38.03588235294118,199.6118638037624
0.14699169921875,0.10608447265625,0.6731049804687499,0.6970873616052771,2.7705078125,-1.42333984375,-2.63134765625,38.03588235294118,199.6118638037624
0.27150341796875,0.07971728515625,0.6496674804687499,0.708616106717883,2.3623046875,-1.09619140625,-2.3720703125,38.13,199.6118638037624
0.41456982421875,0.0181938476562499,0.6145112304687499,0.7415006457296724,1.99365234375,-0.662109375,-1.92724609375,38.506470588235295,200.05666098827064
0.58107373046875,-0.16491162109375,0.5857026367187499,0.8413620514807725,1.6044921875,-0.56103515625,-1.75390625,38.506470588235295,200.05666098827064
0.68800732421875,-0.48522412109375,0.5256440429687499,0.9925211261118724,1.7021484375,-1.2314453125,-2.01025390625,38.60058823529412,200.05666098827064
0.72414013671875,-0.69567333984375,0.4636323242187499,1.1060267923684703,1.46923828125,-2.99462890625,-2.0625,38.506470588235295,200.05666098827064
0.70900341796875,-0.81237255859375,0.5305268554687499,1.2017045248400646,0.72314453125,-4.86328125,-1.55517578125,38.64764705882353,199.83901201479048
0.60988232421875,-0.78942333984375,0.7741791992187499,1.262734766840412,-0.5576171875,-6.19580078125,-0.27587890625,38.69470588235294,199.83901201479048
0.35646435546875,-0.52819287109375,1.07203076171875,1.2471184786800706,-0.96337890625,-6.88916015625,1.07421875,38.506470588235295,199.83901201479048
0.04738232421875,-0.20006787109375,1.32935498046875,1.3451605487039184,-0.77392578125,-6.64404296875,1.40576171875,38.506470588235295,199.83901201479048
-0.31052783203125,0.10168994140625,1.62671826171875,1.6592108611199805,-0.9677734375,-4.6533203125,0.84912109375,38.69470588235294,199.83901201479048
-0.44089892578125,0.28723681640625,1.96216748046875,2.0315014331433146,-0.81298828125,-1.40234375,-0.15673828125,39.44764705882353,199.88244327555336
-0.33933642578125,0.36731494140625,2.16089794921875,2.218005731052125,-0.26953125,1.8056640625,-0.9404296875,38.60058823529412,199.88244327555336
-0.00877001953125,0.41272509765625,2.04273388671875,2.084029906557733,0.708984375,4.00732421875,0.11474609375,38.45941176470589,199.88244327555336
0.33742138671875,0.41077197265625,1.68335888671875,1.7652999595621424,1.869140625,5.88525390625,2.01611328125,38.64764705882353,199.88244327555336
0.53468701171875,0.37952197265625,1.28003857421875,1.4382023083410724,2.42041015625,6.5009765625,3.35302734375,38.64764705882353,199.7736195196356
0.49660107421875,0.35950244140625,1.04956982421875,1.2155046064095556,2.44970703125,5.23681640625,3.708984375,38.36529411764706,199.7736195196356
0.33790966796875,0.37610400390625,0.8278901367187499,0.9700717725700784,2.05712890625,2.5078125,3.08349609375,38.506470588235295,199.7736195196356
0.10939404296875,0.42346728515625,0.8327729492187499,0.9406393480952984,1.00830078125,-0.5087890625,1.427734375,38.60058823529412,199.7736195196356
-0.14793017578125,0.42542041015625,0.91187451171875,1.0170452238747754,0.29638671875,-2.693359375,-0.2138671875,38.64764705882353,199.7736195196356
-0.29880908203125,0.36292041015625,1.01636669921875,1.119821128079461,0.02734375,-2.7744140625,-1.28173828125,39.44764705882353,199.97979612049147
-0.24851611328125,0.29016650390625,1.05591748046875,1.122906311367546,0.2470703125,-1.32421875,-1.81103515625,38.45941176470589,199.97979612049147
-0.10935595703125,0.23254931640625,0.91919873046875,0.9544444541169466,0.5048828125,0.65380859375,-2.181640625,37.84764705882353,199.97979612049147
0.02589794921875,0.19934619140625,0.7522065429687499,0.7786040656758171,1.04833984375,3.224609375,-2.390625,38.64764705882353,199.97979612049147
0.16359326171875,0.13049853515625,0.5324799804687499,0.5721254692440345,1.38037109375,4.7734375,-2.61279296875,38.506470588235295,199.65332404843852
0.23048779296875,0.0240532226562499,0.3112885742187499,0.3880769983739034,1.58154296875,5.123046875,-2.4482421875,38.506470588235295,199.65332404843852
0.25783154296875,-0.05016552734375,0.1008393554687498,0.2813578864980966,1.64990234375,4.384765625,-1.75244140625,38.69470588235294,199.65332404843852
0.34621044921875,-0.12926708984375,-0.0729887695312501,0.3766948581313617,1.56396484375,2.9580078125,-0.822265625,38.36529411764706,199.65332404843852
0.43654248046875,-0.25280224609375,-0.1921293945312501,0.5398073889146005,0.96044921875,0.9453125,0.18798828125,38.506470588235295,199.65332404843852
0.43800732421875,-0.36608349609375,-0.2224028320312501,0.6126422788846786,0.35107421875,-0.91796875,1.21923828125,38.64764705882353,199.6423434529163
0.42091748046875,-0.40123974609375,-0.2058012695312501,0.6168622388752709,0.10546875,-2.28955078125,1.94580078125,38.64764705882353,199.6423434529163
0.39650341796875,-0.40514599609375,-0.1887114257812501,0.5974698660452178,-0.33056640625,-3.47119140625,1.90234375,38.64764705882353,199.6423434529163
0.29835888671875,-0.41100537109375,-0.1262114257812501,0.5233285434119747,-0.85498046875,-4.41943359375,1.61669921875,38.45941176470589,199.6423434529163
0.16603466796875,-0.41002880859375,-0.0729887695312501,0.4483508618503918,-1.39306640625,-4.6435546875,1.58642578125,39.25941176470588,199.7950892705296
0.13673779296875,-0.36754833984375,0.0105073242187498,0.3923001529570176,-1.79833984375,-4.8349609375,2.091796875,38.69470588235294,199.7950892705296
0.14601513671875,-0.29284130859375,0.1169526367187498,0.3474972969756212,-1.77099609375,-4.62451171875,2.32080078125,38.506470588235295,199.7950892705296
0.12648388671875,-0.21764599609375,0.2619721679687499,0.3633144230626815,-1.197265625,-3.6484375,1.96142578125,38.45941176470589,199.7950892705296
0.03468701171875,-0.04967724609375,0.4323823242187499,0.4366067931883834,-0.19384765625,-2.94482421875,1.4794921875,38.64764705882353,199.7950892705296
-0.07078173828125,0.09827197265625,0.6057221679687499,0.6177109193244269,0.98193359375,-2.66064453125,0.64404296875,39.44764705882353,199.5664626584239
-0.07468798828125,0.35852587890625,0.7580659179687499,0.8418925331803357,1.609375,-3.169921875,-1.14404296875,38.60058823529412,199.5664626584239
-0.05369189453125,0.43030322265625,0.92994091796875,1.026076894720503,1.94970703125,-3.71240234375,-3.025390625,39.07117647058824,199.5664626584239
-0.03611376953125,0.46204150390625,1.10962841796875,1.2025230898596238,2.62060546875,-4.0947265625,-3.744140625,38.03588235294118,199.5664626584239
0.05714794921875,0.39221728515625,1.31372998046875,1.3722196429353686,2.5830078125,-4.52197265625,-3.4130859375,38.64764705882353,199.7287147200285
0.18751904296875,0.37073291015625,1.48365185546875,1.5407235671543105,2.373046875,-3.9775390625,-2.84716796875,38.31823529411765,199.7287147200285
0.24513623046875,0.30237353515625,1.52076123046875,1.569788599254098,2.48974609375,-1.908203125,-2.36962890625,38.64764705882353,199.7287147200285
0.24415966796875,0.22620166015625,1.48511669921875,1.521956880078555,2.623046875,0.77197265625,-1.66796875,38.36529411764706,199.7287147200285
0.23341748046875,0.12854541015625,1.38501904296875,1.4104202891502555,2.78466796875,3.59033203125,-1.64013671875,38.64764705882353,199.7287147200285
0.18751904296875,0.08557666015625,1.25122998046875,1.2680943262483446,2.880859375,5.111328125,-1.9052734375,38.69470588235294,199.7941072909136
0.14357373046875,0.04700244140625,1.10572216796875,1.115994694573578,2.93017578125,5.93603515625,-2.3623046875,38.788823529411765,199.7941072909136
0.13917919921875,0.01233447265625,0.99390576171875,1.0036790582096493,2.7734375,6.05908203125,-2.7451171875,38.36529411764706,199.7941072909136
0.17384716796875,-0.00182568359375,0.91040966796875,0.9268613350778576,2.490234375,5.32373046875,-3.06103515625,38.69470588235294,199.7941072909136
0.21583935546875,-0.01842724609375,0.92359326171875,0.9486573163477128,2.3828125,4.0859375,-3.4248046875,38.506470588235295,199.35881590907576
0.27052685546875,-0.01452099609375,0.98414013671875,1.020748474188507,2.4208984375,2.51806640625,-3.76611328125,38.60058823529412,199.35881590907576
0.30617138671875,-0.00670849609375,1.12281201171875,1.1638267635799706,2.45361328125,0.94384765625,-3.7763671875,38.506470588235295,199.35881590907576
0.30275341796875,0.0035454101562499,1.36011669921875,1.3934093574820878,2.720703125,-0.25830078125,-3.1923828125,38.60058823529412,199.35881590907576
0.33595654296875,0.00549853515625,1.58960888671875,1.6247318072185335,3.22021484375,-0.96630859375,-2.22265625,39.40058823529412,199.35881590907576
0.38380810546875,0.0216118164062499,1.83667919921875,1.8764770750730524,3.70703125,-1.11669921875,-1.3330078125,38.03588235294118,199.3048973314069
0.43751904296875,0.06702197265625,2.05787060546875,2.1049337962585297,4.3681640625,-0.64990234375,-0.79150390625,39.118235294117646,199.3048973314069
0.48048779296875,0.15149462890625,2.18872998046875,2.24596484148398,4.62744140625,0.7333984375,-1.00927734375,38.506470588235295,199.3048973314069
0.51955029296875,0.25549853515625,2.32837841796875,2.3992828231897887,5.1669921875,2.345703125,-1.90966796875,38.45941176470589,199.3048973314069
0.50929638671875,0.29895556640625,2.38697216796875,2.458941514324302,5.38037109375,4.1796875,-2.82958984375,38.64764705882353,199.51155975567207
0.49611279296875,0.31360400390625,2.38306591796875,2.454277601250015,5.408203125,5.82373046875,-3.69970703125,38.506470588235295,199.51155975567207
0.49855419921875,0.25745166015625,2.27662060546875,2.344747113895389,5.08935546875,6.515625,-4.14453125,38.64764705882353,199.51155975567207
0.48878857421875,0.16760791015625,2.15601513671875,2.2170719319846426,4.591796875,6.74853515625,-4.19091796875,38.31823529411765,199.51155975567207
0.47951123046875,0.14319384765625,2.11890576171875,2.177199376537935,3.71923828125,4.6767578125,-3.798828125,38.506470588235295,199.51155975567207
0.39601513671875,0.12561572265625,2.07349560546875,2.114708330760306,2.95068359375,3.48193359375,-3.6376953125,38.69470588235294,199.5649888456818
0.32814404296875,0.13684619140625,2.07691357421875,2.107124910348785,2.3994140625,3.35302734375,-3.728515625,38.60058823529412,199.5649888456818
0.25343701171875,0.13684619140625,2.06275341796875,2.0827647160332554,2.1611328125,4.42529296875,-3.80810546875,38.60058823529412,199.5649888456818
0.22999951171875,0.13635791015625,1.97046826171875,1.988526697204228,2.2109375,6.01953125,-3.869140625,38.506470588235295,199.5649888456818
0.21388623046875,0.10852587890625,1.80445263671875,1.8203226373744168,2.58984375,8.0224609375,-3.880859375,38.31823529411765,199.4351877004499
0.20070263671875,0.06897509765625,1.58960888671875,1.6037130432897813,2.87841796875,9.833984375,-3.67431640625,38.64764705882353,199.4351877004499
0.13380810546875,0.0020805664062499,1.34546826171875,1.3521071633336543,3.44921875,10.62353515625,-2.9091796875,38.31823529411765,199.4351877004499
0.07521435546875,-0.07506787109375,1.08570263671875,1.090890736928852,3.59326171875,10.6806640625,-1.6875,38.03588235294118,199.4351877004499
0.03029248046875,-0.13024365234375,0.8400971679687499,0.8506728483840914,3.5556640625,9.9345703125,-0.6455078125,38.69470588235294,199.4351877004499
0.03175732421875,-0.15661083984375,0.6281831054687499,0.6481893988599798,3.34521484375,8.5048828125,0.18408203125,38.64764705882353,199.4895986907544
0.02492138671875,-0.16149365234375,0.4480073242187499,0.4768771726733767,2.798828125,7.06298828125,0.7294921875,38.64764705882353,199.4895986907544
0.05324169921875,-0.14245068359375,0.3894135742187499,0.4180547901625436,2.17578125,5.56884765625,1.0302734375,38.36529411764706,199.4895986907544
0.07130810546875,-0.12877880859375,0.3840424804687499,0.4112875566473634,1.58642578125,4.15478515625,1.5087890625,38.08294117647059,199.4895986907544
0.05128857421875,-0.07848583984375,0.4343354492187499,0.4443397656629713,1.078125,3.037109375,1.71533203125,38.45941176470589,199.597439641934
-0.01316455078125,-0.00426708984375,0.4865815429687499,0.4867782980072716,0.751953125,2.90478515625,1.64794921875,38.08294117647059,199.597439641934
0.01955029296875,0.07385791015625,0.5393159179687499,0.5447007106864172,0.673828125,3.6123046875,1.61669921875,38.45941176470589,199.597439641934
0.08302685546875,0.15051806640625,0.5671479492187499,0.5926263100358764,0.8828125,4.51025390625,1.68896484375,38.64764705882353,199.597439641934
0.17726513671875,0.21545947265625,0.5793549804687499,0.6430380287721498,1.3408203125,5.13916015625,1.87255859375,38.64764705882353,199.597439641934
0.24025341796875,0.21985400390625,0.5476166992187499,0.6371354150747822,1.818359375,5.0107421875,1.87939453125,38.64764705882353,199.64087104030003
0.29591748046875,0.16223681640625,0.5007416992187499,0.6038461635061444,2.109375,4.10546875,1.59423828125,38.64764705882353,199.64087104030003
0.32179638671875,0.05481494140625,0.4704682617187499,0.5726237661774755,2.2236328125,3.2861328125,1.275390625,38.64764705882353,199.64087104030003
0.41017529296875,-0.13903271484375,0.4621674804687499,0.6333819122469915,1.96044921875,2.62353515625,1.42333984375,38.17705882352941,199.64087104030003
0.73634716796875,-0.39879833984375,0.4607026367187499,0.9557688983835676,1.0771484375,1.10302734375,2.1328125,38.64764705882353,199.9553876226596
0.63087841796875,-0.60045849609375,0.5705659179687499,1.0412028863470573,0.36083984375,-1.1904296875,3.10693359375,38.64764705882353,199.9553876226596
0.02589794921875,-0.59557568359375,0.8000581054687499,0.9977344690788952,-0.3818359375,-3.35302734375,3.93896484375,38.64764705882353,199.9553876226596
-0.39060595703125,-0.10192333984375,1.23023388671875,1.2947728746403078,0.20703125,-5.55224609375,3.2041015625,38.64764705882353,199.9553876226596
-1.04978564453125,0.64270556640625,1.76636669921875,2.1529448810088967,2.65478515625,-5.1474609375,-0.0263671875,38.64764705882353,199.9553876226596
-2.09128955078125,1.51135791015625,2.46070263671875,3.5654946619162566,6.47216796875,2.9296875,-4.0615234375,38.60058823529412,199.45616609006188
-2.38962939453125,2.20081103515625,3.06665966796875,4.467471250586792,9.54833984375,13.7080078125,-5.525390625,38.36529411764706,199.45616609006188
-1.23484423828125,2.23401416015625,2.79956982421875,3.788568431646872,12.59375,15.99951171875,-5.7119140625,38.506470588235295,199.45616609006188
-0.12595751953125,1.38489306640625,1.83960888671875,2.3060691572893406,15.080078125,15.99951171875,-4.90576171875,38.36529411764706,199.45616609006188
0.23781201171875,0.48547900390625,0.6994721679687499,0.8840281273321718,15.95751953125,15.99951171875,-2.28369140625,38.60058823529412,199.91146647758245
0.17140576171875,-0.03600537109375,-0.6750395507812501,0.6973913657459027,15.99951171875,15.99951171875,0.560546875,38.36529411764706,199.91146647758245
0.22267529296875,-0.15954052734375,-2.40648486328125,2.42202536385679,15.7685546875,15.99951171875,1.826171875,38.60058823529412,199.91146647758245
0.22755810546875,-0.06090771484375,-3.33568408203125,3.3439917368630976,14.30712890625,6.86279296875,1.78125,38.64764705882353,199.91146647758245
-0.01169970703125,0.03186572265625,-2.58373095703125,2.5839539403299434,15.18212890625,-2.9833984375,0.9765625,38.36529411764706,199.91146647758245
-0.46580126953125,0.05579150390625,-1.78050830078125,1.841274918027175,14.64306640625,-2.7421875,0.47216796875,38.506470588235295,199.2809713152089
-0.52927783203125,0.13879931640625,-1.31468798828125,1.4240101053874383,12.15380859375,0.72265625,-1.7900390625,38.64764705882353,199.2809713152089
-0.57810595703125,0.42249072265625,-0.7331450195312501,1.0247958469612837,9.90673828125,2.1044921875,-5.564453125,38.31823529411765,199.2809713152089
-0.97800830078125,0.80872119140625,-0.0573637695312501,1.2703624694871172,8.392578125,4.66796875,-6.84814453125,38.45941176470589,199.2809713152089
-1.29246142578125,1.05090869140625,0.3059174804687499,1.6936502353384677,6.71630859375,9.41943359375,-7.72998046875,38.45941176470589,199.17264065557933
-1.06052783203125,0.87659228515625,0.4336030273437499,2.113323080273072,5.46337890625,14.17724609375,-10.5458984375,38.45941176470589,199.17264065557933
-0.8285942382812499,0.70227587890625,0.5612885742187499,2.3128011641930333,7.1943359375,14.95458984375,-12.1796875,38.36529411764706,199.17264065557933
-0.59666064453125,0.52795947265625,0.6889741210937499,1.6893836510989628,9.07861328125,13.24072265625,-9.13818359375,38.45941176470589,199.17264065557933
-0.36472705078125,0.35364306640625,0.8166596679687499,0.9617807719411076,10.54931640625,12.40625,-5.134765625,38.64764705882353,199.17264065557933
-0.38181689453125,0.04309619140625,0.3894135742187499,0.5470688754160976,12.05029296875,14.5126953125,-3.08251953125,38.506470588235295,199.4117541209617
-0.49363330078125,0.0020805664062499,-0.2448637695312501,0.5510321497207,12.294921875,15.99951171875,-2.74365234375,38.69470588235294,199.4117541209617
-0.55320361328125,0.10217822265625,-0.6721098632812501,0.8764737846921388,10.7685546875,15.99951171875,-1.68359375,39.21235294117647,199.4117541209617
-0.46824267578125,0.16956103515625,-0.7980864257812501,0.9407146703875382,9.32763671875,15.55224609375,0.43017578125,38.64764705882353,199.4117541209617
-0.17869189453125,0.21350634765625,-0.7600004882812501,0.8093926709875853,8.05615234375,15.01123046875,1.15087890625,38.69470588235294,199.0423510526338
-0.36326220703125,0.37122119140625,-0.7023833007812501,0.8735599036257642,7.88232421875,15.02001953125,-0.466796875,38.31823529411765,199.0423510526338
-1.69285205078125,0.93567431640625,-0.7932036132812501,2.09055171290715,7.98779296875,15.99951171875,-2.74951171875,38.64764705882353,199.0423510526338
-3.05125048828125,1.45911181640625,-0.8151762695312501,3.479029920167373,7.85400390625,15.99951171875,-3.65771484375,38.506470588235295,199.0423510526338
-3.22996142578125,2.00061572265625,-0.5661528320312501,3.841307474153981,7.34326171875,15.99951171875,-2.4033203125,38.31823529411765,199.0423510526338
-1.91062548828125,2.11877978515625,0.0461518554687498,2.853392284320531,9.8486328125,13.09130859375,-2.125,38.64764705882353,199.28146188972804
-0.97752001953125,1.42493212890625,-0.2712309570312501,1.749154993882978,11.04345703125,13.09765625,-4.14306640625,38.64764705882353,199.28146188972804
-0.77439501953125,0.66418994140625,-0.7951567382812501,1.2934875967608346,10.90966796875,15.99951171875,-6.29736328125,38.60058823529412,199.28146188972804
-0.50730517578125,0.14514697265625,-1.85423876953125,1.927855699858909,10.2294921875,15.99951171875,-5.287109375,38.45941176470589,199.28146188972804
-0.47861865234375,0.08984912109375,-1.63231494140625,2.6255047926325528,6.4677734375,15.99951171875,-1.66748046875,38.27117647058824,199.04185958686432
-0.44993212890625,0.03455126953125,-1.41039111328125,2.865372790945247,1.38623046875,3.24169921875,2.13427734375,38.69470588235294,199.04185958686432
-0.42124560546875,-0.0207465820312499,-1.18846728515625,1.963279130102092,-0.88916015625,-9.3642578125,3.70458984375,38.64764705882353,199.04185958686432
-0.39255908203125,-0.07604443359375,-0.96654345703125,1.0459883570555324,-1.0908203125,-12.1533203125,2.99609375,38.36529411764706,199.04185958686432
-1.09812548828125,0.39465869140625,-0.1022856445312501,1.1713656234466676,-0.6259765625,-6.38916015625,0.912109375,38.36529411764706,199.04185958686432
-1.24265673828125,0.56751025390625,0.1579682617187499,1.375215484640489,-0.52392578125,1.38720703125,-0.90869140625,38.506470588235295,199.1831300475667
-1.19968798828125,0.61536181640625,0.1037690429687498,1.3522904453540157,-0.755859375,5.908203125,-1.02392578125,38.64764705882353,199.1831300475667
-1.07761767578125,0.66809619140625,-0.2106840820312501,1.2853015827225416,-0.583984375,7.0478515625,0.3154296875,38.03588235294118,199.1831300475667
-0.94822314453125,0.63391650390625,-0.6550200195312501,1.3153054746849395,0.21435546875,7.60498046875,1.73046875,38.64764705882353,199.1831300475667
-0.63914111328125,0.74280322265625,-1.06029345703125,1.4437729064150586,0.7392578125,7.24853515625,2.2783203125,38.08294117647059,198.7917719729194
-0.26707080078125,0.68958056640625,-1.18334033203125,1.3954004843079753,1.26708984375,4.5048828125,1.5361328125,38.36529411764706,198.7917719729194
-0.13425830078125,0.51624072265625,-0.95091845703125,1.0903099041006683,1.81640625,1.7607421875,-0.53369140625,38.506470588235295,198.7917719729194
-0.39158251953125,0.27502978515625,-0.5353911132812501,0.7180681698182083,2.37890625,1.3603515625,-1.7412109375,38.64764705882353,198.7917719729194
-0.66013720703125,-0.01305615234375,-0.3366606445312501,0.7411423512370882,2.24365234375,3.22705078125,-1.4697265625,39.118235294117646,198.7917719729194
-0.89793017578125,-0.26500927734375,-0.3947661132812501,1.0160456691763358,1.26220703125,6.75439453125,-0.6220703125,38.60058823529412,199.2590108273804
-0.76902392578125,-0.09508740234375,-0.6262114257812501,0.9962831737450322,1.68017578125,8.83251953125,0.82470703125,38.64764705882353,199.2590108273804
-0.50388720703125,0.12903369140625,-0.97435595703125,1.104500584848175,1.78369140625,8.29541015625,1.3994140625,38.60058823529412,199.2590108273804
-0.24753955078125,0.31702197265625,-1.00462939453125,1.0821547859267031,2.34375,6.857421875,0.58740234375,38.64764705882353,199.2590108273804
-0.22214892578125,0.40784228515625,-0.97826220703125,1.082904622066453,2.59521484375,5.7685546875,0.43359375,38.64764705882353,198.8896104422186
-0.51658251953125,0.53577197265625,-1.00804736328125,1.2530237798172486,2.4287109375,5.810546875,1.27099609375,38.60058823529412,198.8896104422186
-0.38816455078125,0.67102587890625,-1.05150439453125,1.3063724355495434,2.43017578125,5.427734375,1.1455078125,38.506470588235295,198.8896104422186
-0.32810595703125,0.64075244140625,-1.02562548828125,1.253046229163001,2.63916015625,4.9599609375,0.359375,38.60058823529412,198.8896104422186
-0.32664111328125,0.43616259765625,-1.26781298828125,1.3799572463429783,2.70166015625,4.0390625,-0.39453125,38.506470588235295,198.8896104422186
-0.35056689453125,0.24915087890625,-1.30834033203125,1.3772173874957734,2.50146484375,2.234375,-0.41552734375,39.21235294117647,199.0738184769804
-0.35740283203125,0.11633837890625,-1.26048876953125,1.3153339275122864,2.4052734375,-0.189453125,-0.09423828125,39.25941176470588,199.0738184769804
-0.44578173828125,-0.00329052734375,-0.7805083007812501,0.8988467018038656,2.44189453125,-1.1650390625,0.466796875,38.506470588235295,199.0738184769804
-0.61619189453125,-0.06041943359375,-0.4611723632812501,0.7720251987443246,2.68701171875,-0.0634765625,0.923828125,39.353529411764704,199.0738184769804
-0.73630908203125,-0.03454052734375,-0.3078520507812501,0.7988222565008487,2.79833984375,1.9189453125,1.19140625,38.506470588235295,199.13969980572065
-0.73826220703125,0.10608447265625,-0.3542387695312501,0.8256937128914213,2.72021484375,3.69775390625,1.5205078125,38.506470588235295,199.13969980572065
-0.64841845703125,0.29163134765625,-0.5720122070312501,0.912520302978158,2.6240234375,4.64404296875,1.83056640625,38.31823529411765,199.13969980572065
-0.53367236328125,0.36877978515625,-0.8342192382812501,1.05675278981824,2.2587890625,4.4443359375,1.98876953125,38.17705882352941,199.13969980572065
-0.44627001953125,0.43372119140625,-1.03783251953125,1.2101104663640678,2.169921875,3.4228515625,2.0771484375,38.03588235294118,199.13969980572065
-0.33933642578125,0.43665087890625,-1.19115283203125,1.3132624525081276,2.05322265625,2.23828125,2.1064453125,38.64764705882353,199.08479866408592
-0.29685595703125,0.40002978515625,-1.19603564453125,1.2956267021122936,1.728515625,0.99853515625,2.00048828125,38.69470588235294,199.08479866408592
-0.31882861328125,0.36926806640625,-1.12425830078125,1.2255477617742196,1.33935546875,0.18603515625,1.85009765625,38.36529411764706,199.08479866408592
-0.33835986328125,0.37122119140625,-1.01097705078125,1.1288787212252414,0.9609375,-0.7021484375,1.64306640625,39.02411764705882,199.08479866408592
-0.39158251953125,0.38879931640625,-0.8664458007812501,1.0272439358457517,0.59326171875,-1.0751953125,1.4423828125,38.45941176470589,198.9764693639944
-0.45066455078125,0.38147509765625,-0.7658598632812501,0.9670383227400486,0.48291015625,-0.65625,1.1943359375,38.69470588235294,198.9764693639944
-0.48337939453125,0.40735400390625,-0.7053129882812501,0.9471321634249772,0.6044921875,-0.013671875,1.15966796875,38.506470588235295,198.9764693639944
-0.43210986328125,0.45276416015625,-0.7497465820312501,0.976644385605363,0.72900390625,0.10400390625,1.21435546875,38.506470588235295,198.9764693639944
-0.38377001953125,0.45813525390625,-0.7853911132812501,0.9869176964589912,0.73779296875,-0.01953125,0.9931640625,38.64764705882353,198.9764693639944
-0.41453173828125,0.42346728515625,-0.8537504882812501,1.0392550215806284,0.763671875,-0.03857421875,0.7509765625,39.40058823529412,198.94303779033032
-0.43113330078125,0.38586962890625,-0.93773486328125,1.1018702134860927,0.80859375,-0.29833984375,0.73095703125,38.64764705882353,198.94303779033032
-0.47068408203125,0.34192431640625,-1.00121142578125,1.1579637569209176,0.837890625,-0.68408203125,0.82275390625,38.36529411764706,198.94303779033032
-0.51804736328125,0.31702197265625,-1.00169970703125,1.1714428303660438,0.8876953125,-1.03173828125,1.04248046875,38.69470588235294,198.94303779033032
-0.56296923828125,0.32971728515625,-0.94359423828125,1.1471782502729693,0.908203125,-1.052734375,1.52392578125,38.45941176470589,199.0403878751128
-0.59275439453125,0.35608447265625,-0.8869536132812501,1.1246513397563058,0.8759765625,-0.6806640625,1.89111328125,38.36529411764706,199.0403878751128
-0.25584033203125,0.38049853515625,-0.8137114257812501,0.9340019781546864,0.88623046875,-1.298828125,1.4384765625,38.64764705882353,199.0403878751128
-0.14695361328125,0.39075244140625,-0.7892973632812501,0.8929015413829756,0.85986328125,-2.13037109375,0.50439453125,38.64764705882353,199.0403878751128
-0.24314501953125,0.31506884765625,-0.8776762695312501,0.963692644666639,0.59912109375,-1.94921875,-0.1220703125,39.25941176470588,199.0403878751128
-0.34373095703125,0.22522509765625,-1.01683642578125,1.0967377226262778,0.1376953125,-1.12744140625,-0.03173828125,39.40058823529412,199.0613689101464
-0.40476611328125,0.18958056640625,-1.16039111328125,1.2434966559672862,-0.5380859375,-0.89599609375,0.466796875,38.45941176470589,199.0613689101464
-0.36326220703125,0.17688525390625,-1.21019580078125,1.275861160289498,-1.0185546875,-1.259765625,1.24951171875,38.45941176470589,199.0613689101464
-0.24900439453125,0.23499072265625,-1.08568408203125,1.1383908617897542,-1.2861328125,-1.9287109375,1.828125,38.69470588235294,199.0613689101464
0.01222607421875,0.22522509765625,-0.96556689453125,0.9915620249484104,-1.19091796875,-3.57958984375,1.11474609375,39.07117647058824,198.96499809338104
-0.18845751953125,0.20422900390625,-0.91576220703125,0.9569985070684054,-1.40966796875,-4.107421875,-0.03564453125,38.64764705882353,198.96499809338104
-0.41062548828125,0.17932666015625,-0.96898486328125,1.0675687368676516,-1.84228515625,-3.54296875,0.12060546875,38.64764705882353,198.96499809338104
-0.46238330078125,0.20032275390625,-1.07298876953125,1.1854249964102048,-2.380859375,-3.42578125,0.59619140625,38.64764705882353,198.96499809338104
-0.39011767578125,0.25501025390625,-1.10228564453125,1.1967688468095952,-3.2099609375,-4.06494140625,0.7548828125,38.60058823529412,198.96499809338104
-0.38425830078125,0.28821337890625,-1.02269580078125,1.129879681397738,-3.50390625,-4.59619140625,0.87158203125,38.60058823529412,198.9969575519582
-0.43259814453125,0.27698291015625,-0.8845122070312501,1.022850199959798,-3.6513671875,-4.46875,0.83642578125,38.08294117647059,198.9969575519582
-0.44822314453125,0.26331103515625,-0.7433989257812501,0.90712659060423,-3.30419921875,-4.51708984375,1.078125,38.60058823529412,198.9969575519582
-0.42722705078125,0.25256884765625,-0.6325590820312501,0.8040180147147629,-3.060546875,-4.86962890625,1.0673828125,38.506470588235295,198.9969575519582
-0.53123095703125,0.28381884765625,-0.5930083007812501,0.8452326974204943,-3.10986328125,-4.876953125,0.97802734375,38.69470588235294,198.78029994132947
-0.60105517578125,0.34485400390625,-0.6452543945312501,0.9468605187700516,-3.0439453125,-4.609375,1.06640625,38.64764705882353,198.78029994132947
-0.64597705078125,0.38977587890625,-0.5339262695312501,0.9242774730613844,-2.95361328125,-3.96923828125,0.98291015625,38.03588235294118,198.78029994132947
-0.69675830078125,0.41418994140625,-0.5568754882812501,0.9834306008652408,-2.82080078125,-3.25390625,0.9873046875,38.506470588235295,198.78029994132947
-0.73582080078125,0.41223681640625,-0.5871489257812501,1.0276747076333037,-2.578125,-3.0166015625,0.98681640625,38.60058823529412,198.78029994132947
-0.75974658203125,0.46350634765625,-0.4904692382812501,1.0161757116394747,-2.19189453125,-2.9619140625,1.234375,38.64764705882353,199.3114650732172
-0.79197314453125,0.51819384765625,-0.3493559570312501,1.008858716630196,-1.6904296875,-2.35498046875,1.4755859375,38.64764705882353,199.3114650732172
-0.78953173828125,0.51331103515625,-0.2687895507812501,0.9793346757752324,-1.23193359375,-0.86767578125,1.427734375,38.03588235294118,199.3114650732172
-0.73191455078125,0.47766650390625,-0.2888090820312501,0.9204753578793252,-0.80029296875,0.72412109375,1.21875,38.64764705882353,199.3114650732172
-0.65183642578125,0.47571337890625,-0.3674223632812501,0.886675328338877,-0.55615234375,0.99169921875,1.22607421875,38.45941176470589,198.909117319206
-0.62693408203125,0.51721728515625,-0.4274809570312501,0.9183136892702412,-0.4189453125,1.12841796875,0.9677734375,38.60058823529412,198.909117319206
-0.56492236328125,0.50403369140625,-0.5212309570312501,0.919167530527268,-0.38525390625,2.26025390625,0.33935546875,38.69470588235294,198.909117319206
-0.53367236328125,0.45325244140625,-0.6721098632812501,0.9705542928094548,-0.486328125,3.361328125,-0.1044921875,38.69470588235294,198.909117319206
-0.55076220703125,0.44299853515625,-0.8361723632812501,1.0948839810499866,-0.50927734375,3.5263671875,-0.029296875,38.36529411764706,198.909117319206
-0.51169970703125,0.48206103515625,-0.94652392578125,1.1790364599401206,-0.533203125,2.974609375,0.0810546875,38.36529411764706,199.09381983426172
-0.48435595703125,0.51477587890625,-0.95384814453125,1.1871904571049536,-0.638671875,1.3974609375,0.26904296875,38.64764705882353,199.09381983426172
-0.48484423828125,0.52991259765625,-0.8327543945312501,1.0997095881006171,-0.9462890625,-0.240234375,0.46875,38.506470588235295,199.09381983426172
-0.53269580078125,0.54407275390625,-0.6545317382812501,1.0040875331018622,-1.1953125,-1.10888671875,0.6298828125,38.64764705882353,199.09381983426172
-0.58543017578125,0.54993212890625,-0.5163481445312501,0.9548660866736708,-1.25927734375,-0.82177734375,0.62060546875,38.64764705882353,198.87715721095267
-0.57664111328125,0.55188525390625,-0.5007231445312501,0.9422398709854451,-1.20068359375,0.2119140625,0.2978515625,38.64764705882353,198.87715721095267
-0.59421923828125,0.50940478515625,-0.6808989257812501,1.037406904456344,-1.234375,0.66015625,0.02392578125,38.506470588235295,198.87715721095267
-0.63230517578125,0.43469775390625,-0.7726958007812501,1.088958572727114,-1.54833984375,0.35107421875,0.1220703125,39.44764705882353,198.87715721095267
-0.55027392578125,0.37317431640625,-1.04906298828125,1.242011923131806,-1.7333984375,-0.748046875,0.20166015625,38.03588235294118,198.87715721095267
-0.46287158203125,0.27307666015625,-1.13988330078125,1.26022018043442,-2.14794921875,-2.60888671875,0.236328125,38.60058823529412,198.91863029409987
-0.42673876953125,0.15393603515625,-1.11791064453125,1.2064520253607047,-2.9365234375,-4.32177734375,1.05859375,38.45941176470589,198.91863029409987
-0.48484423828125,0.08850634765625,-1.04955126953125,1.159510748697326,-3.765625,-5.04248046875,2.2392578125,38.45941176470589,198.91863029409987
-0.53855517578125,0.15442431640625,-0.95677783203125,1.1087435982790297,-4.20068359375,-4.97412109375,3.1416015625,38.64764705882353,198.91863029409987
-0.62937548828125,0.27844775390625,-0.8815825195312501,1.1184070795769152,-4.61767578125,-4.92236328125,3.89013671875,38.45941176470589,199.1152910263564
-0.60252001953125,0.66614306640625,-0.7219145507812501,1.1523617389894345,-4.99267578125,-4.37109375,3.99072265625,38.506470588235295,199.1152910263564
-0.45261767578125,0.84924853515625,-0.4719145507812501,1.0718158321902724,-4.8232421875,-3.5869140625,2.35546875,38.03588235294118,199.1152910263564
-0.42429736328125,0.83069384765625,-0.2751372070312501,0.972512726762135,-4.43017578125,-2.880859375,-0.24072265625,38.36529411764706,199.1152910263564
-0.55613330078125,0.77307666015625,-0.1208403320312501,0.9599657059299634,-3.86669921875,-1.89599609375,-1.38232421875,38.64764705882353,199.1152910263564
-0.61960986328125,0.65442431640625,-0.1027739257812501,0.907055703030242,-3.31298828125,-0.8720703125,-0.89990234375,38.69470588235294,198.9735294870112
-0.63377001953125,0.60510791015625,-0.2048247070312501,0.8998739807332706,-3.017578125,1.06396484375,0.150390625,38.64764705882353,198.9735294870112
-0.53953173828125,0.63147509765625,-0.3356840820312501,0.8958454657483738,-2.40087890625,3.17822265625,0.6923828125,38.36529411764706,198.9735294870112
-0.47996142578125,0.76331103515625,-0.5016997070312501,1.031847519095975,-1.61181640625,5.14306640625,0.4892578125,38.64764705882353,198.9735294870112
-0.34763720703125,0.81799853515625,-0.7082426757812501,1.136477416857917,-0.8154296875,6.9560546875,-0.37890625,38.64764705882353,198.4513907787176
-0.27781298828125,0.81702197265625,-0.90990283203125,1.2540447057419275,-0.2373046875,8.09130859375,-1.2275390625,38.45941176470589,198.4513907787176
-0.17283251953125,0.71008837890625,-1.15892626953125,1.3701119238495978,-0.30029296875,6.34130859375,-1.4208984375,38.64764705882353,198.4513907787176
-0.11033251953125,0.76379931640625,-1.22875048828125,1.4509963552883856,-1.18505859375,1.2958984375,-1.19287109375,38.36529411764706,198.4513907787176
-0.36277392578125,0.82288134765625,-0.94554736328125,1.3049131962530804,-2.78076171875,-1.9619140625,-0.705078125,38.64764705882353,198.4513907787176
-0.50925830078125,0.90930712890625,-0.6203520507812501,1.2128561903634067,-3.57470703125,-2.04833984375,-1.02880859375,38.08294117647059,198.9940249971094
-0.56443408203125,0.89172900390625,-0.2639067382812501,1.0878479746160954,-2.6328125,-1.4931640625,-1.73583984375,38.36529411764706,198.9940249971094
-0.65085986328125,0.87708056640625,0.0871674804687498,1.095667399920827,-1.23681640625,-1.2099609375,-2.03564453125,38.64764705882353,198.9940249971094
-0.67771533203125,0.91077197265625,0.1774995117187499,1.1490473158694463,0.263671875,-1.33642578125,-1.9287109375,38.03588235294118,198.9940249971094
-0.64646533203125,0.89954150390625,0.2321870117187499,1.1318140974466944,0.8994140625,-0.7666015625,-1.916015625,38.64764705882353,198.8422601270464
-0.69480517578125,0.81360400390625,0.2658784179687499,1.1024504708177416,2.19140625,-0.302734375,-1.70703125,38.45941176470589,198.8422601270464
-0.78562548828125,0.62659228515625,0.1858002929687499,1.021932996101876,3.3916015625,-0.66650390625,-0.47314453125,38.36529411764706,198.8422601270464
-0.80515673828125,0.58850634765625,0.0393159179687498,0.9980795739003608,4.13232421875,-0.45703125,0.34912109375,38.506470588235295,198.8422601270464
-0.75486376953125,0.56506884765625,-0.1642973632812501,0.9571393507340828,4.34765625,0.17529296875,0.72265625,38.69470588235294,198.8422601270464
-0.70896533203125,0.51428759765625,-0.3552153320312501,0.9451462888015212,4.0478515625,0.7119140625,0.5576171875,39.40058823529412,198.9835328661433
-0.71140673828125,0.50745166015625,-0.4538481445312501,0.9846750088032904,3.546875,1.39404296875,-0.0146484375,38.506470588235295,198.9835328661433
-0.73923876953125,0.48059619140625,-0.5515043945312501,1.040001805171294,3.0234375,2.1044921875,-0.51904296875,38.36529411764706,198.9835328661433
-0.78513720703125,0.48840869140625,-0.6882231445312501,1.1526641229666512,2.35888671875,2.39697265625,-0.46630859375,38.45941176470589,198.9835328661433
-0.75730517578125,0.52600634765625,-0.8161528320312501,1.2313810345593144,1.154296875,2.44970703125,-0.0693359375,38.69470588235294,198.89618272869225
-0.65525439453125,0.56604541015625,-0.8698637695312501,1.22736657338164,0.17724609375,2.57373046875,-0.4306640625,38.64764705882353,198.89618272869225
-0.55027392578125,0.62708056640625,-0.8195708007812501,1.169498921612291,-0.16064453125,2.7626953125,-1.720703125,38.60058823529412,198.89618272869225
-0.49119189453125,0.63831103515625,-0.7766020507812501,1.1188481577645313,0.203125,2.15576171875,-2.892578125,38.36529411764706,198.89618272869225
-0.49412158203125,0.60217822265625,-0.8156645507812501,1.1278667514700855,0.62060546875,0.3740234375,-3.3798828125,38.64764705882353,198.89618272869225
-0.55222705078125,0.58069384765625,-0.90843798828125,1.2113709749176187,0.40185546875,-2.923828125,-3.19287109375,38.64764705882353,199.0154971431488
-0.62986376953125,0.60999072265625,-0.7951567382812501,1.1836770202757534,-0.07763671875,-5.1259765625,-2.5947265625,38.31823529411765,199.0154971431488
-0.65330126953125,0.59534228515625,-0.5349028320312501,1.033129239244181,-0.03662109375,-5.72412109375,-2.36083984375,38.31823529411765,199.0154971431488
-0.65964892578125,0.51086962890625,-0.3239653320312501,0.8950296192759682,0.45361328125,-4.61572265625,-2.20166015625,38.64764705882353,199.0154971431488
-0.71335986328125,0.39221728515625,-0.2287504882812501,0.8456024356663675,0.8369140625,-2.1064453125,-1.58349609375,38.08294117647059,199.10187431866805
-0.78269580078125,0.30188525390625,-0.2946684570312501,0.8891439268508902,0.84521484375,1.10302734375,-0.28271484375,38.64764705882353,199.10187431866805
-0.76316455078125,0.30090869140625,-0.4943754882812501,0.957796061563365,0.60986328125,2.95947265625,0.46435546875,38.03588235294118,199.10187431866805
-0.66794970703125,0.31262744140625,-0.7204497070312501,1.0309900623210513,0.23486328125,3.48046875,0.17431640625,38.506470588235295,199.10187431866805
-0.56736376953125,0.31311572265625,-0.8171293945312501,1.0429015054923751,0.15185546875,2.75146484375,-0.42626953125,38.60058823529412,199.10187431866805
-0.51267626953125,0.26428759765625,-0.8146879882812501,0.998199083282058,0.36669921875,1.41650390625,-0.6337890625,38.69470588235294,199.14530660672503
-0.52537158203125,0.24963916015625,-0.7516997070312501,0.9504669689370608,0.486328125,0.44287109375,-0.3837890625,38.506470588235295,199.14530660672503
-0.55027392578125,0.29456103515625,-0.7404692382812501,0.9684329040609088,0.4814453125,0.5712890625,-0.15869140625,39.25941176470588,199.14530660672503
-0.55710986328125,0.37659228515625,-0.7663481445312501,1.0195502084894834,0.23779296875,1.00341796875,-0.10595703125,38.506470588235295,199.14530660672503
-0.54636767578125,0.41321337890625,-0.8376372070312501,1.0820808769444354,-0.2412109375,1.44482421875,-0.01171875,38.36529411764706,198.80883293876383
-0.50144580078125,0.45422900390625,-0.8620512695312501,1.095857778368732,-0.58740234375,1.28955078125,-0.12939453125,38.506470588235295,198.80883293876383
-0.47361376953125,0.44543994140625,-0.8527739257812501,1.0723572690955046,-0.779296875,0.8076171875,-0.24951171875,38.64764705882353,198.80883293876383
-0.44138720703125,0.42493212890625,-0.8054106445312501,1.011966544423228,-0.86279296875,0.12255859375,-0.267578125,38.64764705882353,198.80883293876383
-0.46189501953125,0.41321337890625,-0.7360747070312501,0.9622360832488224,-0.73876953125,-0.498046875,-0.30126953125,38.69470588235294,198.80883293876383
-0.52634814453125,0.41467822265625,-0.6594145507812501,0.9401212407869924,-0.45263671875,-0.5400390625,-0.1904296875,38.69470588235294,198.9825581558645
-0.57127001953125,0.42444384765625,-0.5998442382812501,0.9307605090611064,-0.18603515625,-0.3046875,0.095703125,38.64764705882353,198.9825581558645
-0.63962939453125,0.44885791015625,-0.5812895507812501,0.9739079667533874,0.00048828125,0.24853515625,0.38623046875,38.64764705882353,198.9825581558645
-0.65183642578125,0.47034228515625,-0.6071684570312501,1.0073560077723205,0.18798828125,0.6923828125,0.50048828125,38.36529411764706,198.9825581558645
-0.65232470703125,0.48547900390625,-0.6242583007812501,1.025141850053691,0.2841796875,1.021484375,0.61328125,38.36529411764706,199.30805796515816
-0.64304736328125,0.48206103515625,-0.6516020507812501,1.0346390605526228,0.34912109375,1.03662109375,0.75341796875,38.64764705882353,199.30805796515816
-0.57664111328125,0.47717822265625,-0.6589262695312501,0.997194995164931,0.54541015625,0.8046875,0.7666015625,38.69470588235294,199.30805796515816
-0.54783251953125,0.47473681640625,-0.6647856445312501,0.9835829743759948,0.77294921875,0.626953125,0.71826171875,38.27117647058824,199.30805796515816
-0.52488330078125,0.46985400390625,-0.6657622070312501,0.969280444833628,1.04736328125,0.67724609375,0.7490234375,39.25941176470588,199.30805796515816
-0.51609423828125,0.48401416015625,-0.6662504882812501,0.9718604236997552,1.25634765625,0.697265625,0.59912109375,38.45941176470589,199.01452385598296
-0.53318408203125,0.50501025390625,-0.6808989257812501,1.0014709027285926,1.361328125,0.75830078125,0.73779296875,39.25941176470588,199.01452385598296
-0.52390673828125,0.49573291015625,-0.6887114257812501,0.9972726892029709,1.39501953125,0.79150390625,0.876953125,38.60058823529412,199.01452385598296
-0.50242236328125,0.47278369140625,-0.7072661132812501,0.9880172088485112,1.30029296875,0.52734375,1.01708984375,38.36529411764706,199.01452385598296
-0.49119189453125,0.45618212890625,-0.6843168945312501,0.957946357646153,1.1337890625,0.00830078125,1.10107421875,38.64764705882353,198.80785839692143
-0.49509814453125,0.49085009765625,-0.6550200195312501,0.9566123651062408,1.107421875,-0.31005859375,0.94189453125,38.64764705882353,198.80785839692143
-0.55466845703125,0.52747119140625,-0.6979887695312501,1.0358915374597406,0.98046875,-0.31689453125,0.76318359375,38.506470588235295,198.80785839692143
-0.59519580078125,0.55383837890625,-0.7541411132812501,1.108929127563263,0.52392578125,-0.35009765625,1.0205078125,38.506470588235295,198.80785839692143
-0.58103564453125,0.53381884765625,-0.7936918945312501,1.1191567386981578,-0.0751953125,-0.21630859375,1.19580078125,38.45941176470589,198.80785839692143
-0.53709033203125,0.49329150390625,-0.7731840820312501,1.0628340215170171,-0.4580078125,-0.037109375,1.28515625,38.64764705882353,198.7749198255261
-0.51023486328125,0.48743212890625,-0.7136137695312501,1.0035807431703316,-0.56298828125,-0.265625,1.36376953125,38.36529411764706,198.7749198255261
-0.50388720703125,0.48694384765625,-0.6755278320312501,0.9733213652380532,-0.5361328125,-0.677734375,1.39013671875,38.45941176470589,198.7749198255261
-0.53806689453125,0.48303759765625,-0.6452543945312501,0.9691204968433568,-0.3681640625,-0.77392578125,1.30810546875,38.64764705882353,198.7749198255261
-0.56394580078125,0.49670947265625,-0.6276762695312501,0.9791489497404988,-0.17919921875,-0.70849609375,1.1796875,39.40058823529412,199.09040876314936
-0.56980517578125,0.51917041015625,-0.6115629882812501,0.9839843198773052,-0.03955078125,-0.48486328125,0.923828125,38.64764705882353,199.09040876314936
-0.57322314453125,0.53186572265625,-0.5856840820312501,0.9769809436768648,0.0166015625,-0.27783203125,0.69287109375,38.506470588235295,199.09040876314936
-0.60154345703125,0.52747119140625,-0.5685942382812501,0.9815191267964528,0.1123046875,-0.07470703125,0.56201171875,38.60058823529412,199.09040876314936
-0.61228564453125,0.54163134765625,-0.5607817382812501,0.9913296047494567,0.28515625,0.10791015625,0.466796875,38.64764705882353,199.09040876314936
-0.62644580078125,0.56555712890625,-0.5720122070312501,1.0195524372811355,0.43212890625,0.2822265625,0.39990234375,38.64764705882353,199.0140378837991
-0.60203173828125,0.58752978515625,-0.5876372070312501,1.026133982202705,0.44970703125,0.38037109375,0.38720703125,38.31823529411765,199.0140378837991
-0.56589892578125,0.59143603515625,-0.6120512695312501,1.0220787320047966,0.41455078125,0.44482421875,0.380859375,38.64764705882353,199.0140378837991
-0.55125048828125,0.59631884765625,-0.6335356445312501,1.029971204350889,0.27001953125,0.462890625,0.36962890625,38.60058823529412,199.0140378837991
-0.52390673828125,0.60364306640625,-0.6584379882812501,1.035569315134771,0.1982421875,0.3818359375,0.337890625,38.64764705882353,198.8732489438744
-0.50584033203125,0.59192431640625,-0.6657622070312501,1.0244452909617052,0.15185546875,0.23779296875,0.1416015625,38.69470588235294,198.8732489438744
-0.51560595703125,0.58118212890625,-0.6755278320312501,1.0295435987538133,0.0888671875,0.0654296875,0.1142578125,38.45941176470589,198.8732489438744
-0.53855517578125,0.58411181640625,-0.6730864257812501,1.041284604705726,-0.0048828125,-0.09423828125,0.20751953125,38.506470588235295,198.8732489438744
-0.54050830078125,0.59290087890625,-0.6711333007812501,1.0459926303941025,-0.111328125,-0.14892578125,0.3076171875,38.45941176470589,198.8732489438744
-0.55906298828125,0.59876025390625,-0.6618559570312501,1.0531469861237748,-0.2353515625,-0.1982421875,0.390625,38.45941176470589,198.9266878107544
-0.55125048828125,0.58704150390625,-0.6564848632812501,1.0389741112540918,-0.33203125,-0.07568359375,0.40966796875,38.64764705882353,198.9266878107544
-0.53318408203125,0.55823291015625,-0.6550200195312501,1.0124033155317804,-0.37451171875,0.162109375,0.36083984375,38.506470588235295,198.9266878107544
-0.54148486328125,0.52063525390625,-0.6555083007812501,0.9969744516114049,-0.30078125,0.23046875,0.34326171875,38.64764705882353,198.9266878107544
-0.45115283203125,0.48450244140625,-0.6501372070312501,0.9278792386646166,-0.20166015625,0.13525390625,0.39599609375,38.45941176470589,198.8837419359611
-0.60252001953125,0.47766650390625,-0.6589262695312501,1.012610236748734,-0.0478515625,0.16015625,0.55517578125,38.64764705882353,198.8837419359611
-0.70017626953125,0.47961962890625,-0.6691801757812501,1.0807793042548008,0.029296875,0.22509765625,0.896484375,38.36529411764706,198.8837419359611
-0.53855517578125,0.50110400390625,-0.6906645507812501,1.0090413380023209,0.10888671875,0.3427734375,1.12744140625,38.45941176470589,198.8837419359611
-0.49363330078125,0.53186572265625,-0.6833403320312501,0.9967492121679488,0.146484375,0.2919921875,1.14111328125,38.36529411764706,198.8837419359611
-0.47752001953125,0.56555712890625,-0.6891997070312501,1.011373556744375,0.166015625,0.02099609375,0.94189453125,38.506470588235295,198.82835869013343
-0.49851611328125,0.58118212890625,-0.7014067382812501,1.038394142253984,0.1728515625,-0.09326171875,0.53759765625,39.40058823529412,198.82835869013343
-0.52976611328125,0.58313525390625,-0.7023833007812501,1.0554814827109915,0.11328125,-0.07470703125,0.31201171875,39.25941176470588,198.82835869013343
-0.49802783203125,0.56262744140625,-0.6867583007812501,1.0179480944493389,0.0029296875,-0.19677734375,0.392578125,38.08294117647059,198.82835869013343
-0.48484423828125,0.56213916015625,-0.6525786132812501,0.9883993207645272,-0.01416015625,-0.283203125,0.306640625,38.64764705882353,198.7419813777931
-0.48435595703125,0.55676806640625,-0.6227934570312501,0.9656412703495788,-0.0107421875,-0.21875,0.27978515625,39.40058823529412,198.7419813777931
-0.51853564453125,0.56262744140625,-0.6017973632812501,0.9734417902088688,0.0634765625,0.19287109375,0.08740234375,38.60058823529412,198.7419813777931
-0.51267626953125,0.58606494140625,-0.6164458007812501,0.9931336758900218,0.0966796875,0.5302734375,-0.04638671875,38.60058823529412,198.7419813777931
-0.52097705078125,0.58948291015625,-0.6476958007812501,1.019027496761827,-0.0146484375,0.78369140625,-0.02294921875,38.36529411764706,198.7419813777931
-0.51511767578125,0.58557666015625,-0.6740629882812501,1.0308283838703094,-0.12841796875,0.85791015625,-0.1279296875,38.506470588235295,198.95914055854365
-0.48191455078125,0.58215869140625,-0.6779692382812501,1.0152795990712065,-0.171875,0.8515625,-0.3681640625,38.506470588235295,198.95914055854365
-0.46433642578125,0.55872119140625,-0.6774809570312501,0.9933570018748064,-0.1728515625,0.74853515625,-0.548828125,38.36529411764706,198.95914055854365
-0.48044970703125,0.54993212890625,-0.6735747070312501,0.9934586822520646,-0.0712890625,0.71728515625,-0.701171875,38.64764705882353,198.95914055854365
-0.51121142578125,0.55432666015625,-0.6725981445312501,1.0104471446029035,-0.05126953125,0.77783203125,-0.73974609375,38.69470588235294,198.9371817246196
-0.53318408203125,0.55969775390625,-0.6877348632812501,1.0346623039580054,-0.09716796875,0.90380859375,-0.6689453125,38.64764705882353,198.9371817246196
-0.54636767578125,0.58264697265625,-0.7097075195312501,1.068494218591424,-0.123046875,0.95849609375,-0.57470703125,38.64764705882353,198.9371817246196
-0.53318408203125,0.59045947265625,-0.7292387695312501,1.0792204766258169,-0.1572265625,0.8486328125,-0.53857421875,38.60058823529412,198.9371817246196
-0.53416064453125,0.56409228515625,-0.7722075195312501,1.095368501263135,-0.1533203125,0.54541015625,-0.4306640625,38.69470588235294,198.9371817246196
-0.50535205078125,0.55286181640625,-0.7770903320312501,1.079308235586698,-0.115234375,0.36669921875,-0.1201171875,38.506470588235295,198.6761048532944
-0.44822314453125,0.55579150390625,-0.7600004882812501,1.0427890128379718,0.154296875,0.337890625,0.0546875,38.69470588235294,198.6761048532944
-0.39988330078125,0.57922900390625,-0.7355864257812501,1.018086579325928,0.46337890625,0.220703125,-0.0703125,38.64764705882353,198.6761048532944
-0.37156298828125,0.59241259765625,-0.7072661132812501,0.994603989092284,0.51220703125,-0.0087890625,-0.5068359375,38.506470588235295,198.6761048532944
-0.39011767578125,0.57874072265625,-0.6647856445312501,0.9638841103537668,0.375,-0.3828125,-0.98876953125,38.36529411764706,198.79542058720776
-0.43699267578125,0.54700244140625,-0.6301176757812501,0.9419249200030856,0.25732421875,-0.21142578125,-1.21142578125,38.36529411764706,198.79542058720776
-0.46384814453125,0.51184619140625,-0.6242583007812501,0.9310424538851388,0.15576171875,0.13037109375,-1.18603515625,38.64764705882353,198.79542058720776
-0.47459033203125,0.50159228515625,-0.6530668945312501,0.9504352542485428,0.07763671875,0.7099609375,-1.06494140625,39.21235294117647,198.79542058720776
-0.45164111328125,0.48792041015625,-0.6931059570312501,0.9604383840336532,0.0341796875,0.8037109375,-1.10205078125,38.45941176470589,198.79542058720776
-0.45457080078125,0.48157275390625,-0.7458403320312501,0.9974090089387811,-0.02880859375,0.71337890625,-1.216796875,39.25941176470588,199.0125826528536
-0.46970751953125,0.49719775390625,-0.7814848632812501,1.0385323066382353,-0.06787109375,0.5029296875,-1.33984375,38.36529411764706,199.0125826528536
-0.50779345703125,0.51135791015625,-0.8195708007812501,1.0913466015782225,-0.2216796875,0.16015625,-1.1455078125,39.44764705882353,199.0125826528536
-0.50535205078125,0.52210009765625,-0.8327543945312501,1.1051918787308337,-0.4326171875,-0.349609375,-0.9423828125,38.36529411764706,199.0125826528536
-0.49998095703125,0.52600634765625,-0.8049223632812501,1.083772875688825,-0.560546875,-0.880859375,-0.8447265625,38.60058823529412,198.84837817330023
-0.48972705078125,0.50501025390625,-0.7180083007812501,1.0051884702920812,-0.65771484375,-1.02490234375,-0.73876953125,38.64764705882353,198.84837817330023
-0.49998095703125,0.49719775390625,-0.6306059570312501,0.9459653465780888,-0.53564453125,-1.06591796875,-0.79052734375,38.03588235294118,198.84837817330023
-0.53464892578125,0.48596728515625,-0.5798247070312501,0.9263964415762052,-0.34716796875,-0.87744140625,-0.865234375,39.40058823529412,198.84837817330023
-0.58152392578125,0.48254931640625,-0.5783598632812501,0.9515902744747248,-0.1533203125,-0.72412109375,-0.95947265625,38.506470588235295,198.84837817330023
-0.62546923828125,0.48157275390625,-0.6003325195312501,0.9917273916493964,-0.05029296875,-0.43212890625,-0.888671875,38.27117647058824,198.8493469385096
-0.65867236328125,0.49768603515625,-0.6276762695312501,1.0370719218418372,-0.0283203125,-0.080078125,-0.64453125,38.60058823529412,198.8493469385096
-0.63132861328125,0.50403369140625,-0.6545317382812501,1.039729568896505,-0.0380859375,0.1962890625,-0.44482421875,38.08294117647059,198.8493469385096
-0.59373095703125,0.48987353515625,-0.6555083007812501,1.011030989721308,0.02197265625,0.27587890625,-0.19970703125,38.506470588235295,198.8493469385096
-0.54929736328125,0.48206103515625,-0.6555083007812501,0.9817339595413672,0.0634765625,0.24853515625,-0.064453125,39.44764705882353,199.08798571184383
-0.53904345703125,0.47571337890625,-0.6525786132812501,0.9709427964358568,0.10400390625,0.384765625,-0.1181640625,38.64764705882353,199.08798571184383
-0.55173876953125,0.47717822265625,-0.6354887695312501,0.9674506200223234,0.17578125,0.6064453125,-0.20458984375,38.69470588235294,199.08798571184383
-0.55418017578125,0.46252978515625,-0.6711333007812501,0.985631460944282,0.20263671875,0.74267578125,-0.07568359375,38.36529411764706,199.08798571184383
-0.55173876953125,0.45764697265625,-0.7004301757812501,1.0022269466194975,0.2138671875,0.62109375,0.0615234375,39.07117647058824,199.08798571184383
-0.58347705078125,0.47571337890625,-0.7097075195312501,1.0346175384836591,0.095703125,0.14697265625,0.24365234375,39.118235294117646,199.2292659940429
-0.58884814453125,0.47717822265625,-0.7121489257812501,1.0399986951850766,0.02294921875,-0.18359375,0.38818359375,38.64764705882353,199.2292659940429
-0.57664111328125,0.46741259765625,-0.6984770507812501,1.0192446715298913,0.0166015625,-0.29638671875,0.3623046875,38.64764705882353,199.2292659940429
-0.57127001953125,0.47668994140625,-0.6633208007812501,0.9967834369622158,0.0341796875,-0.28271484375,0.13623046875,38.506470588235295,199.2292659940429
-0.58005908203125,0.45960009765625,-0.6506254882812501,0.9854005857588,0.1123046875,-0.18017578125,0.18994140625,38.69470588235294,198.794450643726
-0.54392626953125,0.45178759765625,-0.6403715820312501,0.9539620449239024,0.12451171875,-0.07666015625,0.31689453125,38.36529411764706,198.794450643726
-0.55515673828125,0.47668994140625,-0.6447661132812501,0.9752720877441228,0.09814453125,0.208984375,0.1435546875,38.45941176470589,198.794450643726
-0.56394580078125,0.46252978515625,-0.6467192382812501,0.9747894344619112,0.15625,0.35986328125,0.06689453125,38.64764705882353,198.794450643726
-0.60837939453125,0.46887744140625,-0.6555083007812501,1.0097834793375278,0.21142578125,0.51123046875,0.185546875,38.506470588235295,198.794450643726
-0.57664111328125,0.46741259765625,-0.6799223632812501,1.0066200524845326,0.18701171875,0.51220703125,0.46826171875,38.36529411764706,198.95768624577585
-0.54441455078125,0.46008837890625,-0.6935942382812501,0.9945559244627116,0.15966796875,0.40966796875,0.68408203125,39.118235294117646,198.95768624577585
-0.49949267578125,0.46497119140625,-0.6823637695312501,0.9650447947975044,0.11962890625,0.22412109375,0.45458984375,38.64764705882353,198.95768624577585
-0.50535205078125,0.45960009765625,-0.6765043945312501,0.9613902125643587,0.1796875,0.28076171875,0.19091796875,39.21235294117647,198.95768624577585
-0.51316455078125,0.47083056640625,-0.6887114257812501,0.9794604159651348,0.17724609375,0.3349609375,0.06396484375,38.64764705882353,198.7295447523336
-0.54441455078125,0.46301806640625,-0.6725981445312501,0.9814077628324596,0.298828125,0.49365234375,0.1689453125,38.64764705882353,198.7295447523336
-0.53660205078125,0.47376025390625,-0.6745512695312501,0.9835700047836854,0.32373046875,0.3759765625,0.2666015625,38.60058823529412,198.7295447523336
-0.51462939453125,0.49817431640625,-0.6735747070312501,0.9832212107123554,0.30908203125,0.5205078125,0.369140625,38.60058823529412,198.7295447523336
-0.51609423828125,0.50501025390625,-0.6833403320312501,0.9941542278329544,0.330078125,0.34765625,0.10791015625,38.506470588235295,198.7295447523336
-0.50974658203125,0.50696337890625,-0.6857817382812501,0.99355424512436,0.3896484375,0.02734375,-0.04150390625,38.03588235294118,198.8798654060465
-0.51707080078125,0.52112353515625,-0.6725981445312501,0.9956506495459092,0.443359375,-0.255859375,-0.22314453125,38.64764705882353,198.8798654060465
-0.50291064453125,0.53772509765625,-0.6852934570312501,1.0058302636539145,0.41650390625,-0.63427734375,-0.51611328125,38.69470588235294,198.8798654060465
-0.49851611328125,0.53723681640625,-0.6877348632812501,1.005047737311938,0.36083984375,-0.92822265625,-0.8134765625,38.69470588235294,198.8798654060465
-0.54636767578125,0.55188525390625,-0.6989653320312501,1.0448193652490017,0.2890625,-1.07275390625,-0.8701171875,38.64764705882353,198.91328573654704
-0.58201220703125,0.55872119140625,-0.7053129882812501,1.0716221303696714,0.1826171875,-0.88671875,-0.7744140625,38.36529411764706,198.91328573654704
-0.57371142578125,0.56018603515625,-0.7170317382812501,1.075680114048161,-0.06591796875,-0.71142578125,-0.6357421875,38.45941176470589,198.91328573654704
-0.55222705078125,0.56262744140625,-0.7150786132812501,1.0643504012354843,-0.2646484375,-0.625,-0.46826171875,38.69470588235294,198.91328573654704
-0.53171923828125,0.55530322265625,-0.6857817382812501,1.0302347353932804,-0.38134765625,-0.5263671875,-0.38037109375,39.21235294117647,198.91328573654704
-0.52488330078125,0.53284228515625,-0.6774809570312501,1.0091599612695368,-0.5048828125,-0.52099609375,-0.37646484375,38.64764705882353,198.9781941157616
-0.52781298828125,0.52600634765625,-0.6511137695312501,0.989554631764333,-0.55322265625,-0.34765625,-0.4111328125,38.08294117647059,198.9781941157616
-0.53220751953125,0.51965869140625,-0.6540434570312501,0.9904861650144592,-0.537109375,-0.20361328125,-0.419921875,38.64764705882353,198.9781941157616
-0.52146533203125,0.51868212890625,-0.6667387695312501,0.9927224335901887,-0.48681640625,-0.20654296875,-0.55224609375,39.44764705882353,198.9781941157616
-0.51121142578125,0.52014697265625,-0.6926176757812501,1.0057878701880338,-0.38671875,-0.54833984375,-0.7216796875,38.45941176470589,198.7500497997102
-0.51853564453125,0.53040087890625,-0.6979887695312501,1.018524731847838,-0.3271484375,-0.87890625,-0.771484375,38.03588235294118,198.7500497997102
-0.53123095703125,0.51770556640625,-0.6804106445312501,1.0065704289257584,-0.2138671875,-1.15673828125,-0.73388671875,38.45941176470589,198.7500497997102
-0.54636767578125,0.50989306640625,-0.6442778320312501,0.98671297810187,-0.1337890625,-0.92138671875,-0.59375,38.31823529411765,198.7500497997102
-0.55418017578125,0.50549853515625,-0.6227934570312501,0.9749441657833474,-0.05908203125,-0.6044921875,-0.4833984375,38.31823529411765,198.7500497997102
-0.55515673828125,0.50745166015625,-0.6071684570312501,0.9666228461339612,-0.0556640625,-0.36767578125,-0.53369140625,38.36529411764706,198.9562359614171
-0.56736376953125,0.50452197265625,-0.6071684570312501,0.9721613050740974,-0.05322265625,0.07373046875,-0.64990234375,38.506470588235295,198.9562359614171
-0.59910205078125,0.49963916015625,-0.6188872070312501,0.9957830750916002,-0.03857421875,0.3134765625,-0.63037109375,38.64764705882353,198.9562359614171
-0.62205126953125,0.48840869140625,-0.6218168945312501,1.0060552082719385,-0.08935546875,0.52099609375,-0.53564453125,38.69470588235294,198.9562359614171
-0.62839892578125,0.47815478515625,-0.6433012695312501,1.0185056366419218,-0.150390625,0.748046875,-0.462890625,38.64764705882353,198.8259362702245
-0.62351611328125,0.46448291015625,-0.6496489257812501,1.0131931919023676,-0.23193359375,0.8544921875,-0.32470703125,38.36529411764706,198.8259362702245
-0.58054736328125,0.45129931640625,-0.6647856445312501,0.9912851593645442,-0.291015625,0.802734375,-0.072265625,38.64764705882353,198.8259362702245
-0.56101611328125,0.44446337890625,-0.6608793945312501,0.974191125327034,-0.31103515625,0.7548828125,0.00244140625,38.506470588235295,198.8259362702245
-0.56736376953125,0.44397509765625,-0.6701567382812501,0.9839337315995168,-0.2841796875,0.9326171875,-0.11328125,38.03588235294118,198.8259362702245
-0.56150439453125,0.45129931640625,-0.6818754882812501,0.9919236057204444,-0.236328125,1.1240234375,-0.10546875,38.36529411764706,198.85839025380577
-0.54490283203125,0.45276416015625,-0.6979887695312501,0.9945364766912372,-0.23193359375,1.16748046875,-0.02880859375,38.506470588235295,198.85839025380577
-0.52732470703125,0.45569384765625,-0.7150786132812501,0.9985317484234474,-0.22802734375,0.9580078125,0.083984375,38.03588235294118,198.85839025380577
-0.50877001953125,0.45813525390625,-0.7219145507812501,0.9949349035365412,-0.2021484375,0.64599609375,0.14208984375,38.64764705882353,198.85839025380577
-0.50144580078125,0.46643603515625,-0.7160551757812501,0.9908307023788416,-0.1787109375,0.38720703125,0.08544921875,38.36529411764706,199.0750763511023
-0.52439501953125,0.47180712890625,-0.6989653320312501,0.9930481553164956,-0.17724609375,0.4560546875,-0.025390625,38.64764705882353,199.0750763511023
-0.55222705078125,0.47913134765625,-0.6970122070312501,1.0101225572533392,-0.08447265625,0.6591796875,-0.03662109375,38.60058823529412,199.0750763511023
-0.57078173828125,0.48743212890625,-0.7058012695312501,1.0303093249686566,-0.0263671875,0.83837890625,0.17578125,38.08294117647059,199.0750763511023
-0.50925830078125,0.49133837890625,-0.7243559570312501,1.012644543750415,-0.02734375,0.73828125,0.2978515625,38.45941176470589,199.0750763511023
-0.52683642578125,0.49670947265625,-0.7321684570312501,1.029731794802867,-0.03759765625,0.76171875,0.24365234375,38.03588235294118,198.7276081248285
-0.50877001953125,0.50696337890625,-0.7101958007812501,1.0100677580109123,-0.04736328125,0.7021484375,0.06689453125,38.36529411764706,198.7276081248285
-0.53074267578125,0.51428759765625,-0.7155668945312501,1.0286960199920945,-0.05126953125,0.63330078125,-0.0126953125,38.08294117647059,198.7276081248285
-0.51560595703125,0.51770556640625,-0.7131254882812501,1.0209880109239768,-0.080078125,0.53125,0.0986328125,38.69470588235294,198.7276081248285
-0.50144580078125,0.51428759765625,-0.7204497070312501,1.017343307141498,-0.12353515625,0.32275390625,0.18310546875,38.64764705882353,198.8144741149256
-0.49705126953125,0.51379931640625,-0.7062895507812501,1.0049351380188365,-0.1513671875,0.12548828125,0.099609375,38.69470588235294,198.8144741149256
-0.49900439453125,0.52747119140625,-0.7077543945312501,1.0139760975996055,-0.1279296875,0.32666015625,-0.0361328125,38.31823529411765,198.8144741149256
-0.52146533203125,0.53967822265625,-0.7165434570312501,1.0375997312712475,-0.09765625,0.361328125,-0.10498046875,38.36529411764706,198.8144741149256
-0.52097705078125,0.53626025390625,-0.7336333007812501,1.047477907822173,-0.10205078125,0.28515625,-0.10205078125,39.25941176470588,198.8144741149256
-0.50193408203125,0.51135791015625,-0.7424223632812501,1.03180216150386,-0.13427734375,0.06982421875,-0.04443359375,38.506470588235295,198.6731963772565
-0.49656298828125,0.49475634765625,-0.7302153320312501,1.0122119718766744,-0.1318359375,-0.1748046875,0.03271484375,38.64764705882353,198.6731963772565
-0.49998095703125,0.48596728515625,-0.6926176757812501,0.9827840070130576,-0.06396484375,-0.2685546875,0.03759765625,38.64764705882353,198.6731963772565
-0.52683642578125,0.46985400390625,-0.6623442382812501,0.96799756947064,0.08154296875,-0.11279296875,0.09619140625,38.60058823529412,198.6731963772565
-0.54099658203125,0.45960009765625,-0.6628325195312501,0.971213931367994,0.20947265625,0.1650390625,0.2099609375,39.44764705882353,198.782020051364
-0.54343798828125,0.47717822265625,-0.6911528320312501,1.0003580061704744,0.2822265625,0.29345703125,0.1767578125,38.64764705882353,198.782020051364
-0.52976611328125,0.49133837890625,-0.7189848632812501,1.01931583476119,0.3134765625,0.1015625,0.0751953125,38.03588235294118,198.782020051364
-0.54343798828125,0.50354541015625,-0.7170317382812501,1.0310273230614353,0.3134765625,-0.14404296875,0.0966796875,38.64764705882353,198.782020051364
-0.53953173828125,0.51965869140625,-0.6970122070312501,1.0232134034097764,0.26220703125,-0.05419921875,0.19921875,38.506470588235295,198.782020051364
-0.50877001953125,0.54260791015625,-0.7116606445312501,1.0294324406742756,0.18212890625,0.02294921875,0.1376953125,38.03588235294118,198.77104103100532
-0.48826220703125,0.54456103515625,-0.7253325195312501,1.0300747388976323,0.10107421875,-0.01025390625,0.03857421875,39.118235294117646,198.77104103100532
-0.48191455078125,0.53772509765625,-0.7155668945312501,1.0165755729178303,0.03369140625,0.00341796875,-0.044921875,38.60058823529412,198.77104103100532
-0.47849658203125,0.52210009765625,-0.7141020507812501,1.0057282087712571,0.02099609375,-0.11181640625,-0.14697265625,38.64764705882353,198.77104103100532
-0.49607470703125,0.51135791015625,-0.6989653320312501,0.998062905140284,0.0087890625,-0.2626953125,-0.23486328125,38.03588235294118,198.9328319733576
-0.52146533203125,0.50110400390625,-0.7111723632812501,1.0142965274200515,0.02001953125,-0.44140625,-0.2216796875,38.64764705882353,198.9328319733576
-0.54294970703125,0.48645556640625,-0.7004301757812501,1.0109578792402276,0.021484375,-0.5029296875,-0.2353515625,38.69470588235294,198.9328319733576
-0.54490283203125,0.48108447265625,-0.6891997070312501,1.0016773943533814,0.04931640625,-0.5185546875,-0.33349609375,38.506470588235295,198.9328319733576
-0.55369189453125,0.48254931640625,-0.6852934570312501,1.0045176350286669,0.05810546875,-0.41845703125,-0.25927734375,38.36529411764706,198.9328319733576
-0.55027392578125,0.48206103515625,-0.6779692382812501,0.997409907242896,0.04638671875,-0.34130859375,-0.17333984375,38.03588235294118,199.0421395037583
-0.53757861328125,0.47717822265625,-0.6774809570312501,0.9877602283827528,0.0146484375,-0.1845703125,-0.17626953125,38.13,199.0421395037583
-0.53757861328125,0.47473681640625,-0.6950590820312501,0.9987356696459064,0.0166015625,-0.13916015625,-0.1962890625,38.64764705882353,199.0421395037583
-0.54539111328125,0.47327197265625,-0.7018950195312501,1.0070225642908273,-0.02734375,-0.12841796875,-0.22509765625,38.64764705882353,199.0421395037583
-0.56199267578125,0.47766650390625,-0.7121489257812501,1.025259552053614,-0.08251953125,-0.15087890625,-0.197265625,38.08294117647059,198.9333134886405
-0.57419970703125,0.48206103515625,-0.7160551757812501,1.0367367843063184,-0.12158203125,-0.15966796875,-0.0986328125,38.03588235294118,198.9333134886405
-0.56638720703125,0.49426806640625,-0.7136137695312501,1.0365037394154608,-0.134765625,-0.23681640625,-0.05322265625,38.64764705882353,198.9333134886405
-0.55466845703125,0.50354541015625,-0.7004301757812501,1.0255815464700049,-0.14453125,-0.26708984375,-0.04345703125,38.64764705882353,198.9333134886405
-0.54587939453125,0.50549853515625,-0.6872465820312501,1.0128281922086066,-0.1337890625,-0.28125,-0.03076171875,38.64764705882353,198.9333134886405
-0.53416064453125,0.50452197265625,-0.6789458007812501,1.0004186201073466,-0.10400390625,-0.3310546875,-0.00439453125,38.69470588235294,198.88843585113352
-0.52927783203125,0.50793994140625,-0.6784575195312501,0.9992210032640332,-0.0927734375,-0.32373046875,-0.0283203125,38.69470588235294,198.88843585113352
-0.54587939453125,0.50256884765625,-0.6784575195312501,1.0054175082108088,-0.09912109375,-0.2607421875,-0.10009765625,38.60058823529412,198.88843585113352
-0.55662158203125,0.50745166015625,-0.6716215820312501,1.0091631792869105,-0.05908203125,-0.2265625,-0.11083984375,38.64764705882353,198.88843585113352
-0.55027392578125,0.51135791015625,-0.6686918945312501,1.005702319518986,-0.07373046875,-0.25439453125,-0.0224609375,38.506470588235295,198.95430851537412
-0.53611376953125,0.50989306640625,-0.6662504882812501,0.9956398074530662,-0.0634765625,-0.31103515625,0.0244140625,38.506470588235295,198.95430851537412
-0.52488330078125,0.51379931640625,-0.6550200195312501,0.98414604757895,-0.0380859375,-0.3212890625,0.00048828125,38.03588235294118,198.95430851537412
-0.52341845703125,0.51379931640625,-0.6579497070312501,0.985319458695002,0.0205078125,-0.24365234375,-0.09619140625,38.60058823529412,198.95430851537412
-0.55125048828125,0.50354541015625,-0.6603911132812501,0.9967705369946442,0.0537109375,-0.09228515625,-0.12353515625,38.36529411764706,198.95430851537412
-0.56638720703125,0.50793994140625,-0.6647856445312501,1.0103154980199376,0.09375,0.1240234375,-0.0634765625,38.36529411764706,198.80204874384012
-0.54587939453125,0.50305712890625,-0.6721098632812501,1.0013902619044903,0.13427734375,0.15673828125,-0.0361328125,38.45941176470589,198.80204874384012
-0.53464892578125,0.50549853515625,-0.6921293945312501,1.0101590675029126,0.16162109375,0.0791015625,0.0966796875,38.36529411764706,198.80204874384012
-0.50437548828125,0.50061572265625,-0.6960356445312501,0.9947242599874708,0.1513671875,-0.14013671875,0.24462890625,39.25941176470588,198.80204874384012
-0.51267626953125,0.49329150390625,-0.6872465820312501,0.9891821519215784,0.22900390625,-0.166015625,0.01708984375,39.25941176470588,198.91039335092705
-0.50388720703125,0.48352587890625,-0.6891997070312501,0.9811706422196784,0.26416015625,-0.08154296875,-0.21240234375,38.03588235294118,198.91039335092705
-0.55808642578125,0.47376025390625,-0.6989653320312501,1.0121569899003615,0.30126953125,0.08740234375,-0.2158203125,38.03588235294118,198.91039335092705
-0.58494189453125,0.47424853515625,-0.7219145507812501,1.0431823003221206,0.26904296875,0.1884765625,-0.03955078125,38.506470588235295,198.91039335092705
-0.54929736328125,0.47717822265625,-0.7370512695312501,1.0356984229990591,0.20654296875,0.0048828125,0.1962890625,38.13,198.91039335092705
-0.51462939453125,0.47424853515625,-0.7365629882812501,1.0160118712491772,0.171875,-0.3271484375,0.23193359375,38.08294117647059,198.71469989081177
-0.50144580078125,0.48499072265625,-0.7180083007812501,1.0010993018549952,0.1669921875,-0.5419921875,0.08935546875,38.64764705882353,198.71469989081177
-0.52146533203125,0.49475634765625,-0.6882231445312501,0.9951688463397032,0.20556640625,-0.525390625,-0.0341796875,38.31823529411765,198.71469989081177
-0.54343798828125,0.49915087890625,-0.6706450195312501,0.997116437153718,0.25830078125,-0.322265625,-0.10400390625,38.60058823529412,198.71469989081177
-0.55369189453125,0.49573291015625,-0.6696684570312501,1.0003907609650364,0.23828125,-0.140625,-0.1064453125,38.31823529411765,198.7356952708038
-0.55613330078125,0.49573291015625,-0.6696684570312501,1.0017440834826268,0.224609375,-0.05322265625,-0.0576171875,38.03588235294118,198.7356952708038
-0.55418017578125,0.49377978515625,-0.6701567382812501,1.0000220984166568,0.2294921875,-0.0439453125,-0.02783203125,38.64764705882353,198.7356952708038
-0.54246142578125,0.48645556640625,-0.6730864257812501,0.9919419101536292,0.23046875,0.0068359375,0.0068359375,38.69470588235294,198.7356952708038
-0.54294970703125,0.48059619140625,-0.6813872070312501,0.9950153815219948,0.251953125,0.04736328125,0.03173828125,38.60058823529412,198.7356952708038
-0.54246142578125,0.47424853515625,-0.6975004882812501,1.0028374757212943,0.2470703125,0.09912109375,0.05712890625,38.45941176470589,198.72519741134823
-0.53709033203125,0.46497119140625,-0.7009184570312501,0.997973404959398,0.23583984375,0.04345703125,0.09423828125,38.69470588235294,198.72519741134823
-0.53806689453125,0.46594775390625,-0.7072661132812501,1.0034184806733175,0.21923828125,0.021484375,0.11572265625,38.64764705882353,198.72519741134823
-0.54148486328125,0.46545947265625,-0.7155668945312501,1.010887905950628,0.22314453125,-0.01123046875,0.16650390625,38.64764705882353,198.72519741134823
-0.53904345703125,0.46741259765625,-0.7067778320312501,1.00427948742706,0.232421875,-0.0205078125,0.14208984375,38.64764705882353,198.7352148572908
-0.54002001953125,0.46985400390625,-0.7023833007812501,1.0028592661473643,0.22607421875,-0.0126953125,0.1298828125,38.36529411764706,198.7352148572908
-0.53806689453125,0.47571337890625,-0.6945708007812501,0.9991235154668374,0.208984375,0.01318359375,0.10791015625,39.118235294117646,198.7352148572908
-0.53709033203125,0.47620166015625,-0.6970122070312501,1.000529890931591,0.18798828125,0.076171875,0.1328125,38.03588235294118,198.7352148572908
-0.53757861328125,0.47571337890625,-0.6989653320312501,1.001921413938912,0.15966796875,0.11474609375,0.1376953125,38.506470588235295,198.7352148572908
-0.54148486328125,0.47473681640625,-0.7067778320312501,1.0090172475557837,0.14111328125,0.08544921875,0.18115234375,38.03588235294118,198.703240011433
-0.53123095703125,0.47376025390625,-0.7121489257812501,1.0068819197805872,0.11767578125,0.0595703125,0.16357421875,38.31823529411765,198.703240011433
-0.51462939453125,0.47766650390625,-0.7141020507812501,1.0014741342638898,0.10302734375,-0.04638671875,0.09228515625,38.31823529411765,198.703240011433
-0.53220751953125,0.48450244140625,-0.7145903320312501,1.014212404877181,0.068359375,-0.078125,0.03759765625,38.36529411764706,198.703240011433
-0.52390673828125,0.47571337890625,-0.7111723632812501,1.003268468348297,0.02099609375,-0.1337890625,0.0771484375,38.69470588235294,198.89941459416067
-0.50828173828125,0.47815478515625,-0.7053129882812501,0.9921939001406204,-0.0126953125,-0.18115234375,0.0322265625,38.69470588235294,198.89941459416067
-0.51169970703125,0.47815478515625,-0.7018950195312501,0.99152670523111,-0.03564453125,-0.27783203125,-0.0068359375,38.03588235294118,198.89941459416067
-0.52878955078125,0.47961962890625,-0.7033598632812501,1.0021818571110852,-0.0380859375,-0.3720703125,0.0078125,38.60058823529412,198.89941459416067
-0.53318408203125,0.48108447265625,-0.7077543945312501,1.008287567185446,-0.02587890625,-0.14208984375,-0.03466796875,39.21235294117647,198.89941459416067
-0.53513720703125,0.48059619140625,-0.7072661132812501,1.0087466899769069,0.01123046875,-0.1142578125,-0.068359375,38.36529411764706,198.7352148572908
-0.53904345703125,0.47668994140625,-0.7067778320312501,1.0086307811369275,0.04931640625,-0.21142578125,-0.0537109375,38.224117647058826,198.7352148572908
-0.54880908203125,0.47717822265625,-0.6921293945312501,1.0039589451125757,0.08984375,-0.32373046875,-0.009765625,39.40058823529412,198.7352148572908
-0.55173876953125,0.48450244140625,-0.6901762695312501,1.0077209775312546,0.10986328125,-0.32275390625,0.00390625,38.45941176470589,198.7352148572908
-0.55662158203125,0.48743212890625,-0.6721098632812501,0.9995745766039628,0.1181640625,-0.263671875,0.0205078125,38.64764705882353,198.9958234390388
-0.55369189453125,0.48645556640625,-0.6696684570312501,0.9958260764309428,0.095703125,-0.18115234375,0.05419921875,38.64764705882353,198.9958234390388
-0.55857470703125,0.48596728515625,-0.6750395507812501,1.0019223027241857,0.0712890625,-0.08349609375,0.03076171875,38.36529411764706,198.9958234390388
-0.56443408203125,0.48596728515625,-0.6784575195312501,1.0074992014930295,0.056640625,-0.03466796875,-0.02099609375,38.506470588235295,198.9958234390388
-0.55173876953125,0.48450244140625,-0.6823637695312501,1.0023864521736972,0.0302734375,-0.009765625,0.021484375,38.506470588235295,198.9958234390388
-0.53855517578125,0.47717822265625,-0.6862700195312501,0.9943376052657232,0.02001953125,-0.0439453125,0.08251953125,38.36529411764706,198.6593253764627
-0.53367236328125,0.47717822265625,-0.6804106445312501,0.9876557561716548,0.0068359375,-0.056640625,0.1357421875,38.506470588235295,198.6593253764627
-0.53513720703125,0.48401416015625,-0.6935942382812501,1.0008568853527036,0.009765625,-0.052734375,0.078125,38.506470588235295,198.6593253764627
-0.52488330078125,0.48547900390625,-0.7038481445312501,1.0032918584504251,0.0068359375,-0.0927734375,0.01708984375,38.69470588235294,198.6593253764627
-0.53513720703125,0.48596728515625,-0.7097075195312501,1.0130255652600988,-0.0029296875,-0.12890625,-0.06298828125,39.40058823529412,199.0392588248178
-0.54539111328125,0.48547900390625,-0.7033598632812501,1.0138325438429094,0.00341796875,-0.150390625,-0.0654296875,39.40058823529412,199.0392588248178
-0.53025439453125,0.48938525390625,-0.6994536132812501,1.0049393050293056,0.005859375,-0.21484375,-0.13232421875,38.64764705882353,199.0392588248178
-0.54197314453125,0.48889697265625,-0.6979887695312501,1.0099225027977572,0.00439453125,-0.2138671875,-0.05029296875,38.69470588235294,199.0392588248178
-0.51511767578125,0.48547900390625,-0.6877348632812501,0.9869221475418218,-0.052734375,-0.330078125,0.05712890625,38.03588235294118,199.0392588248178
-0.52781298828125,0.48450244140625,-0.6808989257812501,0.98840908203894,-0.00732421875,-0.30859375,-0.10302734375,39.40058823529412,198.8979746276205
-0.54392626953125,0.47522509765625,-0.6701567382812501,0.9852942372673952,-0.01416015625,-0.18798828125,-0.24560546875,38.45941176470589,198.8979746276205
-0.59666064453125,0.47668994140625,-0.6838286132812501,1.0251140411254245,0.03564453125,0.0966796875,-0.2900390625,38.64764705882353,198.8979746276205
-0.57908251953125,0.47864306640625,-0.6975004882812501,1.0251549544327534,0.0302734375,0.119140625,-0.14990234375,38.506470588235295,198.8979746276205
-0.54343798828125,0.47083056640625,-0.7101958007812501,1.010635614263085,-0.037109375,-0.2294921875,0.07861328125,38.64764705882353,198.8984541688613
-0.52146533203125,0.46790087890625,-0.6935942382812501,0.985865250614226,-0.07958984375,-0.4892578125,0.064453125,38.03588235294118,198.8984541688613
-0.51609423828125,0.47620166015625,-0.6677153320312501,0.9690020890340096,-0.07763671875,-0.42626953125,-0.12158203125,38.69470588235294,198.8984541688613
-0.54246142578125,0.48645556640625,-0.6701567382812501,0.9899562972232744,-0.03662109375,-0.20751953125,-0.23095703125,38.64764705882353,198.8984541688613
-0.55710986328125,0.48157275390625,-0.6760161132812501,0.999640686689968,-0.02001953125,-0.0390625,-0.208984375,39.25941176470588,198.8984541688613
-0.55857470703125,0.48938525390625,-0.6843168945312501,1.0098481282929754,-0.00830078125,-0.00341796875,-0.14013671875,38.64764705882353,198.75669200647224
-0.55759814453125,0.49085009765625,-0.6896879882812501,1.0136661335633546,0.00634765625,-0.1015625,-0.10888671875,38.64764705882353,198.75669200647224
-0.55125048828125,0.49670947265625,-0.6843168945312501,1.0093993328696331,0.0126953125,-0.171875,-0.11181640625,39.118235294117646,198.75669200647224
-0.54832080078125,0.48840869140625,-0.6706450195312501,0.9944664361518832,0.02099609375,-0.181640625,-0.125,38.64764705882353,198.75669200647224
-0.56052783203125,0.48059619140625,-0.6750395507812501,1.0004211836995447,0.04638671875,-0.15771484375,-0.10107421875,39.44764705882353,198.9519092789478
-0.56785205078125,0.47424853515625,-0.6779692382812501,1.0034988354402703,0.03955078125,-0.0810546875,-0.07373046875,39.25941176470588,198.9519092789478
-0.56394580078125,0.47668994140625,-0.6960356445312501,1.0147579932746191,0.0068359375,-0.1171875,-0.02880859375,38.69470588235294,198.9519092789478
-0.56003955078125,0.47815478515625,-0.7028715820312501,1.0179905489906065,-0.0107421875,-0.18896484375,-0.033203125,38.506470588235295,198.9519092789478
-0.55515673828125,0.48059619140625,-0.7004301757812501,1.0147778744130274,-0.021484375,-0.375,-0.05712890625,38.69470588235294,198.9519092789478
-0.55515673828125,0.48010791015625,-0.6965239257812501,1.0118538375869326,-0.00439453125,-0.30419921875,-0.05908203125,38.45941176470589,199.06025908452088
-0.55222705078125,0.48596728515625,-0.6950590820312501,1.0120405354385849,-0.00439453125,-0.3232421875,-0.00927734375,39.40058823529412,199.06025908452088
-0.54783251953125,0.48645556640625,-0.6867583007812501,1.004189449872649,-0.00439453125,-0.31103515625,-0.01806640625,38.64764705882353,199.06025908452088
-0.54978564453125,0.49182666015625,-0.6823637695312501,1.0048771231060991,-0.00146484375,-0.2607421875,-0.013671875,38.506470588235295,199.06025908452088
-0.55320361328125,0.48840869140625,-0.6755278320312501,1.000457465081568,0.013671875,-0.2099609375,0.00390625,38.506470588235295,199.00584484000169
-0.55222705078125,0.48010791015625,-0.6813872070312501,0.9998734154456786,0.01123046875,-0.18408203125,0.0078125,38.60058823529412,199.00584484000169
-0.54343798828125,0.47571337890625,-0.6804106445312501,0.9922634283137742,-0.01171875,-0.13916015625,0.01904296875,38.03588235294118,199.00584484000169
-0.53904345703125,0.46985400390625,-0.6745512695312501,0.9830310517888826,0.0224609375,-0.09423828125,-0.0703125,38.03588235294118,199.00584484000169
-0.57029345703125,0.47229541015625,-0.6769926757812501,1.0033028778234274,0.029296875,-0.01904296875,-0.0810546875,38.45941176470589,199.00584484000169
-0.55662158203125,0.47131884765625,-0.6891997070312501,1.0034765955970013,-0.005859375,-0.0205078125,0.00244140625,39.40058823529412,198.79916808764577
-0.53855517578125,0.47034228515625,-0.6877348632812501,0.9920901091832616,-0.12353515625,-0.1181640625,-0.05126953125,38.69470588235294,198.79916808764577
-0.55466845703125,0.46594775390625,-0.6887114257812501,0.9995438132454972,-0.01806640625,-0.16552734375,-0.06396484375,38.69470588235294,198.79916808764577
-0.56296923828125,0.46057666015625,-0.6852934570312501,0.9993459588058072,-0.0107421875,-0.12646484375,-0.05810546875,38.60058823529412,198.79916808764577
-0.56443408203125,0.46399462890625,-0.6887114257812501,1.0040917670282683,-0.01025390625,-0.0498046875,-0.03369140625,38.08294117647059,198.98388794983265
-0.57273486328125,0.47229541015625,-0.6857817382812501,1.0106358249302791,-0.0263671875,0.0380859375,-0.03076171875,38.08294117647059,198.98388794983265
-0.55955126953125,0.46985400390625,-0.6901762695312501,1.00508889718514,-0.0263671875,0.02783203125,-0.04150390625,38.64764705882353,198.98388794983265
-0.55759814453125,0.47278369140625,-0.6852934570312501,1.002031552344663,-0.0380859375,-0.04052734375,-0.02978515625,39.353529411764704,198.98388794983265
-0.56199267578125,0.47571337890625,-0.6818754882812501,1.0035403170879402,-0.05712890625,-0.03955078125,0.0166015625,38.506470588235295,198.98388794983265
-0.54880908203125,0.47522509765625,-0.6779692382812501,0.9933139433321342,-0.07470703125,-0.0849609375,0.12158203125,38.506470588235295,198.98341015696835
-0.54734423828125,0.47717822265625,-0.6735747070312501,0.9904482103115204,-0.087890625,-0.048828125,0.107421875,38.03588235294118,198.98341015696835
-0.55906298828125,0.48157275390625,-0.6765043945312501,1.0010604067641993,-0.0341796875,0.07666015625,0.021484375,38.36529411764706,198.98341015696835
-0.56736376953125,0.48157275390625,-0.6848051757812501,1.0113219532168516,-0.03466796875,0.146484375,-0.00732421875,38.03588235294118,198.98341015696835
-0.55857470703125,0.47815478515625,-0.6911528320312501,1.0091233517899008,-0.05078125,0.11328125,0.07958984375,39.25941176470588,198.82064633518337
-0.55320361328125,0.47961962890625,-0.6887114257812501,1.0051828958857398,-0.0556640625,0.013671875,0.14990234375,38.45941176470589,198.82064633518337
-0.53660205078125,0.48303759765625,-0.6843168945312501,0.994764642411992,-0.0322265625,-0.046875,0.0986328125,38.64764705882353,198.82064633518337
-0.53416064453125,0.48547900390625,-0.6813872070312501,0.9926258022566676,-0.01318359375,-0.0654296875,0.0205078125,38.64764705882353,198.82064633518337
-0.54099658203125,0.47620166015625,-0.6784575195312501,0.9898231805295128,0.0087890625,-0.05224609375,0.009765625,38.69470588235294,198.82064633518337
-0.55613330078125,0.47473681640625,-0.6760161132812501,0.9958198022259236,0.013671875,0.01416015625,-0.009765625,38.60058823529412,198.9184954822988
-0.57029345703125,0.47913134765625,-0.6843168945312501,1.0114796525785592,0.01953125,0.130859375,-0.01220703125,38.64764705882353,198.9184954822988
-0.56541064453125,0.48547900390625,-0.6926176757812501,1.01739781058722,0.03369140625,0.158203125,0.013671875,38.60058823529412,198.9184954822988
-0.56199267578125,0.48499072265625,-0.7023833007812501,1.021956001944685,0.0234375,0.05322265625,0.09228515625,38.03588235294118,198.9184954822988
-0.51121142578125,0.47864306640625,-0.6931059570312501,0.9853081622214857,-0.02001953125,-0.24462890625,0.14892578125,38.506470588235295,199.04880291256728
-0.53562548828125,0.48645556640625,-0.6769926757812501,0.99088483934593,-0.02197265625,-0.16650390625,-0.052734375,39.21235294117647,199.04880291256728
-0.57078173828125,0.47961962890625,-0.6599028320312501,0.9956397586026778,0.013671875,0.09423828125,-0.158203125,38.64764705882353,199.04880291256728
-0.59128955078125,0.47766650390625,-0.6725981445312501,1.014976298168579,0.0654296875,0.31201171875,-0.2099609375,39.21235294117647,199.04880291256728
-0.69773486328125,0.46887744140625,-0.6911528320312501,1.0882886711358313,0.03125,0.283203125,0.02099609375,38.13,199.04880291256728
-0.53123095703125,0.46204150390625,-0.7014067382812501,0.993810894258374,-0.015625,-0.08935546875,0.21142578125,38.788823529411765,199.1356754215912
-0.52585986328125,0.46936572265625,-0.6901762695312501,0.9864968628631676,-0.03662109375,-0.27587890625,0.0859375,39.40058823529412,199.1356754215912
-0.53709033203125,0.48059619140625,-0.6789458007812501,0.9901545961889608,-0.0400390625,-0.197265625,-0.10498046875,38.60058823529412,199.1356754215912
-0.56736376953125,0.48694384765625,-0.6789458007812501,1.009942254856918,-0.0234375,-0.123046875,-0.1494140625,38.64764705882353,199.1356754215912
-0.57029345703125,0.48547900390625,-0.6935942382812501,1.0207827671661618,-0.017578125,0.12255859375,-0.087890625,38.506470588235295,198.82064633518337
-0.55466845703125,0.48694384765625,-0.6857817382812501,1.0075058315244405,0.00146484375,0.02490234375,0.00341796875,38.506470588235295,198.82064633518337
-0.55564501953125,0.48792041015625,-0.6813872070312501,1.0055328141253144,0.0166015625,-0.07080078125,0.048828125,38.60058823529412,198.82064633518337
-0.55222705078125,0.48938525390625,-0.6701567382812501,0.99677615151006,0.06396484375,-0.04541015625,0.0263671875,38.69470588235294,198.82064633518337
-0.54978564453125,0.48499072265625,-0.6569731445312501,0.9844257049826322,0.0595703125,0.06298828125,-0.00341796875,39.21235294117647,198.82064633518337
-0.55710986328125,0.48352587890625,-0.6638090820312501,0.9923765276972676,0.0439453125,0.15234375,-0.00439453125,39.40058823529412,198.7872331364069
-0.55759814453125,0.47766650390625,-0.6808989257812501,1.0013512504954356,0.03125,0.18310546875,0.0078125,38.45941176470589,198.7872331364069
-0.54734423828125,0.47668994140625,-0.6891997070312501,1.0009072142758972,0.0166015625,0.162109375,-0.00927734375,39.40058823529412,198.7872331364069
-0.55076220703125,0.48303759765625,-0.6891997070312501,1.0058133850846367,0.02783203125,0.1162109375,-0.02099609375,38.69470588235294,198.7872331364069
-0.55466845703125,0.47376025390625,-0.7018950195312501,1.0123055338431752,0.02197265625,0.03271484375,0.00830078125,38.506470588235295,198.99295765740763
-0.54490283203125,0.47815478515625,-0.7018950195312501,1.0090627896054192,0.123046875,-0.0517578125,0.015625,39.44764705882353,198.99295765740763
-0.54832080078125,0.47717822265625,-0.6945708007812501,1.005377219776078,-0.00537109375,-0.1123046875,0.02783203125,39.44764705882353,198.99295765740763
-0.54099658203125,0.48059619140625,-0.6882231445312501,0.9986496370760718,-0.02197265625,-0.10546875,0.0185546875,38.13,198.99295765740763
-0.52097705078125,0.48254931640625,-0.6808989257812501,0.9838161806633028,-0.01904296875,-0.0634765625,-0.07421875,38.506470588235295,198.99295765740763
-0.54832080078125,0.47376025390625,-0.6891997070312501,1.0000503561934602,-0.00634765625,0.0673828125,-0.12744140625,38.13,199.0803071457581
-0.55662158203125,0.47717822265625,-0.6994536132812501,1.013292652145739,-0.021484375,0.0908203125,-0.0625,38.64764705882353,199.0803071457581
-0.55027392578125,0.48108447265625,-0.7043364257812501,1.0150534290902904,-0.033203125,-0.00244140625,-0.0654296875,39.21235294117647,199.0803071457581
-0.54050830078125,0.48450244140625,-0.6984770507812501,1.0073539742365265,-0.02392578125,-0.0869140625,-0.15771484375,39.118235294117646,199.0803071457581
-0.55613330078125,0.48401416015625,-0.6911528320312501,1.0105672628254023,-0.0048828125,-0.115234375,-0.1748046875,38.60058823529412,198.6344929940285
-0.55027392578125,0.48010791015625,-0.6799223632812501,0.9977972834595564,0.015625,-0.1279296875,-0.068359375,38.60058823529412,198.6344929940285
-0.54929736328125,0.47620166015625,-0.6818754882812501,0.9967195171973384,0.01220703125,-0.11181640625,-0.0556640625,39.40058823529412,198.6344929940285
-0.55173876953125,0.46643603515625,-0.6725981445312501,0.9871000500065942,0.00732421875,-0.08837890625,-0.04541015625,38.60058823529412,198.6344929940285
-0.55955126953125,0.46643603515625,-0.6828520507812501,0.9984723939010408,-0.00390625,-0.0458984375,-0.04541015625,39.21235294117647,198.6344929940285
-0.55564501953125,0.47083056640625,-0.6867583007812501,1.0010293570541593,0.00341796875,0.01806640625,-0.0703125,38.69470588235294,198.6344929940285
-0.56150439453125,0.47620166015625,-0.6891997070312501,1.0084896838269766,-0.0048828125,0.07568359375,-0.0732421875,38.506470588235295,198.6344929940285
-0.55906298828125,0.47766650390625,-0.6901762695312501,1.008493925040728,0.01171875,0.08447265625,-0.08984375,38.506470588235295,198.6344929940285
-0.55613330078125,0.47668994140625,-0.6935942382812501,1.0087569161362364,-0.0107421875,0.0537109375,-0.06494140625,38.03588235294118,198.6344929940285
-0.56296923828125,0.48254931640625,-0.6906645507812501,1.013314229506808,-0.00439453125,0.0341796875,-0.05615234375,38.64764705882353,198.80775799335885
-0.56150439453125,0.48547900390625,-0.6911528320312501,1.014233348661208,-0.01611328125,0.0029296875,0.04345703125,38.69470588235294,198.80775799335885
-0.54539111328125,0.47424853515625,-0.6916411132812501,1.0003652178704223,-0.0576171875,-0.03125,0.09130859375,38.64764705882353,198.80775799335885
-0.55808642578125,0.47229541015625,-0.6867583007812501,1.003075459169399,-0.05517578125,0.01220703125,0.068359375,38.36529411764706,198.80775799335885
-0.56589892578125,0.47083056640625,-0.6765043945312501,0.9997905842139624,-0.03759765625,0.09521484375,0.03515625,38.64764705882353,198.80775799335885
-0.55857470703125,0.47327197265625,-0.6931059570312501,1.00816066730913,-0.02490234375,0.115234375,0.0322265625,39.353529411764704,198.78580172020773
-0.55027392578125,0.47278369140625,-0.6911528320312501,1.002007010693661,-0.05029296875,0.0673828125,0.06005859375,38.64764705882353,198.78580172020773
-0.53855517578125,0.47424853515625,-0.6960356445312501,0.9997094422464232,-0.03076171875,-0.0126953125,0.0751953125,39.21235294117647,198.78580172020773
-0.53709033203125,0.48303759765625,-0.6843168945312501,0.9950281190257156,-0.01025390625,-0.05517578125,0.00732421875,38.506470588235295,198.78580172020773
-0.53074267578125,0.48206103515625,-0.6887114257812501,0.9941800930983272,-0.00390625,-0.08984375,-0.0322265625,38.60058823529412,198.69893002768285
-0.54392626953125,0.47766650390625,-0.6843168945312501,0.9961479246482902,-0.00634765625,-0.0625,-0.0556640625,38.506470588235295,198.69893002768285
-0.55466845703125,0.48596728515625,-0.6950590820312501,1.0133747712380092,0.009765625,-0.013671875,-0.0791015625,38.69470588235294,198.69893002768285
-0.55857470703125,0.49231494140625,-0.6891997070312501,1.0145816581423337,0.0390625,0.052734375,-0.076171875,38.788823529411765,198.69893002768285
-0.56492236328125,0.49182666015625,-0.7004301757812501,1.0254916729650598,0.03271484375,0.1240234375,0.046875,38.506470588235295,198.69893002768285
-0.50388720703125,0.48694384765625,-0.6891997070312501,0.9828595343954232,0.02294921875,-0.240234375,0.07861328125,38.506470588235295,198.948569147508
-0.53513720703125,0.48743212890625,-0.6711333007812501,0.9871078046783046,0.01953125,-0.1826171875,-0.1240234375,38.64764705882353,198.948569147508
-0.55173876953125,0.47717822265625,-0.6638090820312501,0.9862845549679904,0.0537109375,-0.029296875,-0.19384765625,38.788823529411765,198.948569147508
-0.57810595703125,0.47668994140625,-0.6760161132812501,1.0091766858230522,0.0849609375,0.16845703125,-0.2353515625,39.40058823529412,198.948569147508
-0.57468798828125,0.47620166015625,-0.6921293945312501,1.0178788748100207,0.05322265625,0.14208984375,-0.12353515625,38.64764705882353,198.78532547668647
-0.54197314453125,0.46594775390625,-0.7101958007812501,1.0075813983052146,0.00244140625,-0.17919921875,0.15185546875,38.64764705882353,198.78532547668647
-0.53220751953125,0.46936572265625,-0.6984770507812501,0.9957003645265492,-0.01171875,-0.35986328125,0.07080078125,38.13,198.78532547668647
-0.54002001953125,0.47229541015625,-0.6921293945312501,0.99685890412003,0.0029296875,-0.2841796875,-0.11865234375,38.03588235294118,198.78532547668647
-0.56345751953125,0.47376025390625,-0.6843168945312501,1.0050983865465697,0.03125,-0.1181640625,-0.16162109375,38.506470588235295,198.78532547668647
-0.57127001953125,0.47766650390625,-0.6848051757812501,1.0116683512624298,0.04248046875,-0.07470703125,-0.08056640625,39.25941176470588,198.8841285877727
-0.56296923828125,0.47376025390625,-0.6906645507812501,1.0091583934834765,0.0419921875,-0.10546875,-0.125,38.45941176470589,198.8841285877727
-0.55466845703125,0.48401416015625,-0.6799223632812501,1.0021083896201786,0.03759765625,-0.14794921875,0.01806640625,38.64764705882353,198.8841285877727
-0.55222705078125,0.48352587890625,-0.6725981445312501,0.9955602720144568,0.0361328125,-0.16552734375,-0.01318359375,38.788823529411765,198.8841285877727
-0.56248095703125,0.48108447265625,-0.6721098632812501,0.999779358245445,0.05029296875,-0.06640625,-0.05419921875,38.64764705882353,199.024940273086
-0.56834033203125,0.47376025390625,-0.6677153320312501,0.9966460132987582,0.0546875,0.0185546875,-0.052734375,38.69470588235294,199.024940273086
-0.56931689453125,0.47131884765625,-0.6813872070312501,1.0052620098564202,0.041015625,0.07373046875,-0.01611328125,38.36529411764706,199.024940273086
-0.55515673828125,0.47424853515625,-0.6823637695312501,0.9993652941371448,0.048828125,0.06005859375,-0.0205078125,38.64764705882353,199.024940273086
-0.54392626953125,0.47522509765625,-0.6901762695312501,0.9990184999051054,0.03076171875,-0.0244140625,-0.06005859375,38.69470588235294,199.024940273086
-0.55125048828125,0.47083056640625,-0.6794340820312501,0.9935739504024822,0.02880859375,-0.046875,-0.1474609375,38.506470588235295,198.74141334007012
-0.54783251953125,0.46936572265625,-0.6838286132812501,0.9940051425434068,0.0302734375,-0.05224609375,-0.20849609375,38.03588235294118,198.74141334007012
-0.55271533203125,0.46887744140625,-0.6950590820312501,1.0042148280304422,0.01513671875,-0.029296875,-0.2255859375,38.03588235294118,198.74141334007012
-0.55710986328125,0.47229541015625,-0.6950590820312501,1.008236818279335,0.01416015625,-0.0185546875,-0.21630859375,38.64764705882353,198.74141334007012
-0.56296923828125,0.47034228515625,-0.7101958007812501,1.0210456913891244,0.03125,-0.00439453125,-0.16455078125,38.45941176470589,198.69893002768285
-0.56736376953125,0.47229541015625,-0.7087309570312501,1.0233592579762991,0.0029296875,-0.0546875,-0.09130859375,39.118235294117646,198.69893002768285
-0.55906298828125,0.47424853515625,-0.7106840820312501,1.0210460138585384,-0.01123046875,-0.130859375,-0.0029296875,38.36529411764706,198.69893002768285
-0.55466845703125,0.48010791015625,-0.7018950195312501,1.0152917418470433,-0.01123046875,-0.22021484375,0.02197265625,38.64764705882353,198.69893002768285
-0.53904345703125,0.48450244140625,-0.6877348632812501,0.9991444872836448,0.01806640625,-0.2587890625,-0.08203125,38.64764705882353,198.69893002768285
-0.56345751953125,0.48352587890625,-0.6852934570312501,1.0104003039084124,0.05419921875,-0.2109375,-0.0732421875,38.64764705882353,198.98055279959075
-0.55515673828125,0.47913134765625,-0.6765043945312501,0.9977094006703876,0.06689453125,-0.18115234375,-0.01904296875,38.03588235294118,198.98055279959075
-0.55759814453125,0.47473681640625,-0.6852934570312501,1.0029545642181783,0.0830078125,-0.14599609375,-0.04931640625,38.64764705882353,198.98055279959075
-0.55515673828125,0.47180712890625,-0.6852934570312501,1.0002140236947674,0.095703125,-0.16943359375,-0.01513671875,38.506470588235295,198.98055279959075
-0.55466845703125,0.47522509765625,-0.6833403320312501,1.000224974717388,0.0869140625,-0.1220703125,-0.0244140625,38.64764705882353,198.6655192180308
-0.55613330078125,0.47522509765625,-0.6877348632812501,1.0040430189253449,0.10546875,-0.09375,-0.05419921875,38.45941176470589,198.6655192180308
-0.56443408203125,0.47668994140625,-0.6848051757812501,1.0073615348886134,0.095703125,-0.04638671875,-0.033203125,39.44764705882353,198.6655192180308
-0.56443408203125,0.46692431640625,-0.6823637695312501,1.001111614246284,0.12060546875,-0.02880859375,-0.00439453125,38.60058823529412,198.6655192180308
-0.56199267578125,0.46643603515625,-0.6760161132812501,0.9951864789776536,0.1298828125,-0.01806640625,-0.02978515625,38.69470588235294,198.6655192180308
-0.57029345703125,0.46008837890625,-0.6706450195312501,0.9933180184408748,0.0009765625,0.04443359375,-0.02880859375,38.60058823529412,198.90465692105823
-0.56589892578125,0.45569384765625,-0.6701567382812501,0.9884374187857794,0.154296875,0.078125,0.0419921875,38.64764705882353,198.90465692105823
-0.57957080078125,0.44299853515625,-0.6642973632812501,0.9866311378277212,0.1474609375,0.16015625,0.041015625,39.25941176470588,198.90465692105823
-0.59959033203125,0.43030322265625,-0.6769926757812501,1.0014931416415969,0.15380859375,0.2939453125,0.00830078125,38.69470588235294,198.90465692105823
-0.61472705078125,0.40930712890625,-0.6833403320312501,1.0061688139255114,0.14453125,0.3369140625,0.02587890625,38.64764705882353,198.8827008902684
-0.64500048828125,0.38489306640625,-0.6862700195312501,1.0174157666156345,0.0888671875,0.29296875,0.21875,38.64764705882353,198.8827008902684
-0.65134814453125,0.37024462890625,-0.6779692382812501,1.0104344504587557,0.01416015625,0.25439453125,0.47021484375,38.45941176470589,198.8827008902684
-0.64304736328125,0.36389697265625,-0.6618559570312501,0.991959790510232,-0.0576171875,0.19287109375,0.666015625,38.506470588235295,198.8827008902684
-0.64109423828125,0.36585009765625,-0.6374418945312501,0.9752847200772158,-0.1513671875,0.22314453125,0.849609375,38.506470588235295,198.8827008902684
-0.62742236328125,0.38147509765625,-0.6257231445312501,0.96473391444447,-0.2470703125,0.43896484375,0.87255859375,38.506470588235295,198.94714437678056
-0.61033251953125,0.41418994140625,-0.6218168945312501,0.9647358925032096,-0.3115234375,0.76513671875,0.82568359375,38.64764705882353,198.94714437678056
-0.58347705078125,0.45032275390625,-0.6296293945312501,0.9693653727732816,-0.251953125,1.099609375,0.78369140625,38.45941176470589,198.94714437678056
-0.53806689453125,0.49573291015625,-0.6540434570312501,0.9813459863309558,-0.46044921875,1.25439453125,0.724609375,38.08294117647059,198.94714437678056
-0.51267626953125,0.53137744140625,-0.6808989257812501,1.004401458434819,-0.5146484375,1.234375,0.6689453125,38.64764705882353,198.65454119197847
-0.45701220703125,0.55335009765625,-0.7077543945312501,1.0079547464693304,-0.6611328125,1.0166015625,0.61865234375,38.64764705882353,198.65454119197847
-0.45750048828125,0.57483447265625,-0.7263090820312501,1.0330857904223871,-0.716796875,0.880859375,0.32421875,38.45941176470589,198.65454119197847
-0.45554736328125,0.57385791015625,-0.7287504882812501,1.0333990397767738,-0.73388671875,0.78125,0.0771484375,38.788823529411765,198.65454119197847
-0.46824267578125,0.56506884765625,-0.7399809570312501,1.042173604915818,-0.720703125,0.5927734375,-0.04833984375,38.45941176470589,198.65454119197847
-0.52927783203125,0.55286181640625,-0.7429106445312501,1.0666336940475656,-0.62548828125,0.59375,0.01318359375,38.60058823529412,198.9146850295381
-0.50339892578125,0.54309619140625,-0.7570708007812501,1.0590184837826269,-0.7451171875,0.40283203125,0.1669921875,38.36529411764706,198.9146850295381
-0.47752001953125,0.52942431640625,-0.7419340820312501,1.0289711647732915,-0.7626953125,0.11962890625,0.13671875,38.03588235294118,198.9146850295381
-0.47556689453125,0.53235400390625,-0.7189848632812501,1.0131652828026978,-0.7119140625,-0.04541015625,-0.03125,38.69470588235294,198.9146850295381
-0.48923876953125,0.53137744140625,-0.6882231445312501,0.9976811392004892,-0.59423828125,0.08544921875,-0.21484375,38.08294117647059,198.9466703484281
-0.50193408203125,0.53528369140625,-0.6877348632812501,1.0057065651384278,-0.49560546875,0.3037109375,-0.35302734375,38.64764705882353,198.9466703484281
-0.51755908203125,0.54749072265625,-0.6843168945312501,1.0177932535287249,-0.38671875,0.5859375,-0.4169921875,38.45941176470589,198.9466703484281
-0.50681689453125,0.54407275390625,-0.7097075195312501,1.02789264488303,-0.26318359375,0.818359375,-0.45703125,38.69470588235294,198.9466703484281
-0.49656298828125,0.53528369140625,-0.7175200195312501,1.0236886294398468,-0.19970703125,0.74072265625,-0.48681640625,38.03588235294118,198.9466703484281
-0.49168017578125,0.52454150390625,-0.7243559570312501,1.0205805882257264,-0.14111328125,0.61083984375,-0.49365234375,39.44764705882353,198.89178132385243
-0.49460986328125,0.51135791015625,-0.7228911132812501,1.014247203987011,-0.1240234375,0.45361328125,-0.45361328125,39.40058823529412,198.89178132385243
-0.48289111328125,0.50940478515625,-0.7194731445312501,1.0051460929276776,-0.11669921875,0.3310546875,-0.43115234375,38.64764705882353,198.89178132385243
-0.49753955078125,0.51721728515625,-0.7253325195312501,1.020375709503887,-0.1630859375,0.2607421875,-0.47265625,38.506470588235295,198.89178132385243
-0.49998095703125,0.51184619140625,-0.7282622070312501,1.0209472676103284,-0.21630859375,0.3349609375,-0.48486328125,38.45941176470589,198.69655125837355
-0.49900439453125,0.51575244140625,-0.7214262695312501,1.0175764486994492,-0.32568359375,0.2880859375,-0.5068359375,38.08294117647059,198.69655125837355
-0.51023486328125,0.52454150390625,-0.7145903320312501,1.022801421420795,-0.3212890625,0.3251953125,-0.5810546875,38.64764705882353,198.69655125837355
-0.51609423828125,0.52014697265625,-0.7097075195312501,1.0200935737616257,-0.2783203125,0.34423828125,-0.62060546875,39.25941176470588,198.69655125837355
-0.52293017578125,0.51331103515625,-0.7126372070312501,1.022152618937647,-0.2177734375,0.34765625,-0.5927734375,38.64764705882353,198.69655125837355
-0.52146533203125,0.50940478515625,-0.7106840820312501,1.0180821146170616,-0.23486328125,0.1943359375,-0.59716796875,38.60058823529412,199.01206368332493
-0.54099658203125,0.50354541015625,-0.7145903320312501,1.0280440771151076,-0.23388671875,0.10498046875,-0.6630859375,38.69470588235294,199.01206368332493
-0.54343798828125,0.49768603515625,-0.7097075195312501,1.023084063005538,-0.2265625,0.0283203125,-0.68896484375,38.69470588235294,199.01206368332493
-0.54002001953125,0.48547900390625,-0.6906645507812501,1.0021621657367643,-0.24658203125,-0.0751953125,-0.70751953125,38.36529411764706,199.01206368332493
-0.54099658203125,0.47815478515625,-0.6784575195312501,0.9907643040329074,-0.21875,-0.134765625,-0.779296875,39.25941176470588,199.0435776175378
-0.55271533203125,0.47180712890625,-0.6579497070312501,0.9803030256669014,-0.2822265625,-0.02197265625,-0.884765625,38.13,199.0435776175378
-0.55710986328125,0.46204150390625,-0.6506254882812501,0.9732251934153868,-0.33251953125,0.23095703125,-0.8623046875,38.83588235294118,199.0435776175378
-0.56443408203125,0.45569384765625,-0.6599028320312501,0.9806704153144836,-0.40771484375,0.52587890625,-0.94140625,38.08294117647059,199.0435776175378
-0.55613330078125,0.45081103515625,-0.6808989257812501,0.9879970570738348,-0.5205078125,0.650390625,-0.96435546875,38.45941176470589,199.0435776175378
-0.54636767578125,0.43811572265625,-0.7165434570312501,1.00194687952581,-0.72216796875,0.60546875,-0.88720703125,38.64764705882353,198.8597955989757
-0.53269580078125,0.44055712890625,-0.7097075195312501,0.990727088192957,-0.8583984375,0.623046875,-0.75927734375,38.03588235294118,198.8597955989757
-0.53660205078125,0.44983447265625,-0.7194731445312501,1.0039593713862405,-0.9833984375,0.216796875,-0.67822265625,38.788823529411765,198.8597955989757
-0.53464892578125,0.45862353515625,-0.7043364257812501,0.9961299220084532,-1.08837890625,0.11181640625,-0.69677734375,38.64764705882353,198.8597955989757
-0.54880908203125,0.47473681640625,-0.6769926757812501,0.9924139944765902,-1.09716796875,0.154296875,-0.7490234375,38.64764705882353,198.76194370323023
-0.54294970703125,0.49036181640625,-0.6730864257812501,0.9941299874390348,-1.134765625,0.27392578125,-0.71142578125,39.25941176470588,198.76194370323023
-0.54050830078125,0.50110400390625,-0.6628325195312501,0.9912625257178111,-1.1943359375,0.33642578125,-0.671875,39.40058823529412,198.76194370323023
-0.52878955078125,0.50159228515625,-0.6657622070312501,0.987143619669816,-1.2255859375,0.37939453125,-0.69482421875,38.64764705882353,198.76194370323023
-0.53757861328125,0.50940478515625,-0.6677153320312501,0.997159849385784,-1.21533203125,0.46337890625,-0.755859375,38.60058823529412,198.76194370323023
-0.54832080078125,0.51575244140625,-0.6691801757812501,1.007203251108992,-1.2060546875,0.56982421875,-0.787109375,38.64764705882353,198.71755832515703
-0.54539111328125,0.38489306640625,-0.6799223632812501,0.9528318629767412,-1.19775390625,0.640625,-0.76025390625,39.25941176470588,198.71755832515703
-0.53025439453125,0.50501025390625,-0.6711333007812501,0.993289981268156,-1.18896484375,0.67919921875,-0.66943359375,38.64764705882353,198.71755832515703
-0.51804736328125,0.50012744140625,-0.6843168945312501,0.9933731123757636,-1.12255859375,0.6630859375,-0.56689453125,38.64764705882353,198.71755832515703
-0.50535205078125,0.49622119140625,-0.6911528320312501,0.9896001229053434,-1.03564453125,0.61474609375,-0.5390625,38.69470588235294,198.60872906354268
-0.50437548828125,0.50159228515625,-0.7038481445312501,1.00069559021078,-0.9658203125,0.4794921875,-0.57177734375,39.40058823529412,198.60872906354268
-0.52244189453125,0.49573291015625,-0.7062895507812501,1.0087326607759692,-0.919921875,0.40380859375,-0.6083984375,38.64764705882353,198.60872906354268
-0.53171923828125,0.48840869140625,-0.6999418945312501,1.0055779700846443,-0.8818359375,0.435546875,-0.57373046875,39.40058823529412,198.60872906354268
-0.53074267578125,0.49475634765625,-0.7028715820312501,1.0101980460626052,-0.859375,0.42578125,-0.50830078125,38.13,198.60872906354268
-0.51951220703125,0.49719775390625,-0.6994536132812501,1.0031619494758046,-0.779296875,0.4189453125,-0.46240234375,38.03588235294118,198.946196767698
-0.49998095703125,0.50891650390625,-0.6862700195312501,0.989920958990902,-0.681640625,0.4140625,-0.41162109375,38.64764705882353,198.946196767698
-0.49265673828125,0.50989306640625,-0.6755278320312501,0.9793055972432352,-0.6064453125,0.361328125,-0.41552734375,39.25941176470588,198.946196767698
-0.46775439453125,0.51331103515625,-0.6808989257812501,0.9725768553417964,-0.560546875,0.17333984375,-0.4453125,38.69470588235294,198.946196767698
-0.50144580078125,0.51233447265625,-0.6852934570312501,0.9917467545915886,-0.49560546875,0.1474609375,-0.7021484375,38.506470588235295,198.86935265789987
-0.55613330078125,0.50208056640625,-0.6955473632812501,1.0223283611287366,-0.4873046875,0.52685546875,-0.7353515625,38.03588235294118,198.86935265789987
-0.58201220703125,0.51868212890625,-0.7228911132812501,1.06317492523155,-0.44580078125,0.8203125,-0.74609375,38.08294117647059,198.86935265789987
-0.53123095703125,0.52063525390625,-0.7468168945312501,1.0540412094769651,-0.37646484375,0.685546875,-0.3896484375,38.08294117647059,198.86935265789987
-0.47996142578125,0.51917041015625,-0.7468168945312501,1.0284144879264778,-0.578125,0.12841796875,-0.2314453125,38.506470588235295,198.86935265789987
-0.45750048828125,0.52405322265625,-0.7058012695312501,0.9910065131097312,-0.56396484375,-0.2822265625,-0.4609375,39.21235294117647,198.8049065118777
-0.48435595703125,0.52502978515625,-0.6686918945312501,0.9784711637164728,-0.51416015625,-0.24365234375,-0.79443359375,38.03588235294118,198.8049065118777
-0.54099658203125,0.52747119140625,-0.6618559570312501,1.0044682510616132,-0.5537109375,-0.03125,-0.89697265625,38.64764705882353,198.8049065118777
-0.56687548828125,0.53528369140625,-0.6725981445312501,1.029691562326548,-0.564453125,0.2353515625,-0.83935546875,38.03588235294118,198.8049065118777
-0.56003955078125,0.52844775390625,-0.6862700195312501,1.0314397058263984,-0.599609375,0.37255859375,-0.73095703125,38.64764705882353,198.93380112361768
-0.55515673828125,0.53040087890625,-0.6725981445312501,1.0207410839338638,-0.57080078125,0.181640625,-0.6484375,38.83588235294118,198.93380112361768
-0.54783251953125,0.50940478515625,-0.6599028320312501,0.9975396996204748,-0.49365234375,0.11376953125,-0.611328125,38.64764705882353,198.93380112361768
-0.55027392578125,0.49133837890625,-0.6594145507812501,0.98946568700636,-0.3310546875,0.2177734375,-0.59423828125,38.64764705882353,198.93380112361768
-0.56394580078125,0.46106494140625,-0.6623442382812501,0.9845382858970612,-0.22509765625,0.3369140625,-0.462890625,38.64764705882353,198.93380112361768
-0.57517626953125,0.43909228515625,-0.6804106445312501,0.9932715747000184,-0.11865234375,0.3896484375,-0.2734375,38.45941176470589,199.0097006577275
-0.57175830078125,0.42542041015625,-0.6975004882812501,0.9971945703032868,-0.07275390625,0.30908203125,-0.06884765625,38.60058823529412,199.0097006577275
-0.56150439453125,0.43127978515625,-0.6887114257812501,0.9877311709994624,-0.0380859375,0.19970703125,0.06005859375,38.64764705882353,199.0097006577275
-0.55466845703125,0.43616259765625,-0.6877348632812501,0.985329463170647,0.03125,0.1806640625,0.111328125,38.64764705882353,199.0097006577275
-0.55076220703125,0.43860400390625,-0.6804106445312501,0.9791175241654896,0.08251953125,0.22509765625,0.1142578125,38.08294117647059,199.16244397584063
-0.55125048828125,0.44446337890625,-0.6896879882812501,0.9884808127619448,0.1484375,0.34228515625,0.181640625,38.45941176470589,199.16244397584063
-0.54978564453125,0.45520556640625,-0.7004301757812501,1.0000393961063885,0.14453125,0.41015625,0.2890625,38.69470588235294,199.16244397584063
-0.54099658203125,0.46301806640625,-0.7155668945312501,1.009504339830778,0.1181640625,0.390625,0.37158203125,39.40058823529412,199.16244397584063
-0.53562548828125,0.48401416015625,-0.7253325195312501,1.0233629047497466,0.07958984375,0.24267578125,0.43017578125,39.40058823529412,199.16244397584063
-0.53123095703125,0.49377978515625,-0.7175200195312501,1.020225359597288,0.00830078125,0.10888671875,0.47119140625,38.64764705882353,198.7495443939851
-0.52146533203125,0.49377978515625,-0.7033598632812501,1.0052162284874,0.009765625,0.0283203125,0.45166015625,39.40058823529412,198.7495443939851
-0.51218798828125,0.49475634765625,-0.6891997070312501,0.9910179690892124,0.021484375,0.06005859375,0.32275390625,38.64764705882353,198.7495443939851
-0.51707080078125,0.49817431640625,-0.6765043945312501,0.9865080123179388,0.111328125,0.119140625,0.2255859375,38.506470588235295,198.7495443939851
-0.51169970703125,0.49768603515625,-0.6701567382812501,0.9791006248742664,0.09326171875,0.0966796875,0.29736328125,39.40058823529412,199.1190050149073
-0.50046923828125,0.49280322265625,-0.6721098632812501,0.9721399811992822,0.09619140625,0.07275390625,0.23095703125,38.31823529411765,199.1190050149073
-0.49949267578125,0.49719775390625,-0.6706450195312501,0.9728634446162544,0.1357421875,0.09716796875,0.1513671875,39.44764705882353,199.1190050149073
-0.50925830078125,0.50110400390625,-0.6804106445312501,0.9866143546679788,0.13525390625,0.08544921875,0.0712890625,38.08294117647059,199.1190050149073
-0.52341845703125,0.49817431640625,-0.6935942382812501,1.0016074570732572,0.1513671875,0.2490234375,0.02294921875,38.506470588235295,199.1190050149073
-0.54050830078125,0.50647509765625,-0.7082426757812501,1.024828734744068,0.24853515625,0.10693359375,-0.02587890625,38.69470588235294,198.97818397783115
-0.54636767578125,0.51331103515625,-0.7243559570312501,1.0424477965051508,0.0625,0.02099609375,-0.0048828125,38.64764705882353,198.97818397783115
-0.54783251953125,0.52210009765625,-0.7199614257812501,1.0445350334199393,0.00732421875,-0.07958984375,-0.02734375,38.13,198.97818397783115
-0.54685595703125,0.52893603515625,-0.7189848632812501,1.0467874668025674,-0.05859375,-0.1787109375,-0.029296875,39.44764705882353,198.97818397783115
-0.53709033203125,0.53186572265625,-0.7101958007812501,1.0371717539276772,-0.1572265625,-0.34033203125,0.11474609375,38.64764705882353,198.88033034665145
-0.53464892578125,0.53137744140625,-0.6960356445312501,1.0260005251131843,-0.216796875,-0.3525390625,0.1630859375,38.13,198.88033034665145
-0.57566455078125,0.53577197265625,-0.7145903320312501,1.0625820553456944,-0.27294921875,-0.05517578125,0.16748046875,38.64764705882353,198.88033034665145
-0.55662158203125,0.55188525390625,-0.7106840820312501,1.058053298995253,-0.26904296875,0.0771484375,0.2900390625,38.03588235294118,198.88033034665145
-0.51853564453125,0.55774462890625,-0.7141020507812501,1.0439827702856004,-0.19482421875,-0.1171875,0.30126953125,38.506470588235295,198.88033034665145
-0.51853564453125,0.55530322265625,-0.7014067382812501,1.0340272221988152,-0.1328125,-0.4248046875,0.3310546875,38.36529411764706,199.0975215330131
-0.51609423828125,0.55139697265625,-0.6828520507812501,1.018174252030437,-0.09033203125,-0.5634765625,0.29638671875,38.506470588235295,199.0975215330131
-0.51658251953125,0.54651416015625,-0.6745512695312501,1.0102250452066444,-0.04736328125,-0.46826171875,0.20361328125,39.353529411764704,199.0975215330131
-0.52341845703125,0.54504931640625,-0.6642973632812501,1.0061494050777529,-0.04541015625,-0.2900390625,0.14990234375,38.36529411764706,199.0975215330131
-0.52341845703125,0.53870166015625,-0.6725981445312501,1.0082433356303204,-0.078125,-0.1376953125,0.21630859375,38.08294117647059,199.0097006577275
-0.52195361328125,0.53674853515625,-0.6730864257812501,1.0067670539805675,-0.0478515625,0.00537109375,0.1884765625,39.25941176470588,199.0097006577275
-0.52146533203125,0.53333056640625,-0.6828520507812501,1.011263817621214,-0.0107421875,0.08642578125,0.15087890625,38.64764705882353,199.0097006577275
-0.51023486328125,0.52063525390625,-0.6891997070312501,1.0031933609676762,-0.01806640625,0.0078125,0.197265625,39.40058823529412,199.0097006577275
-0.51658251953125,0.51233447265625,-0.6945708007812501,1.0058691309783392,-0.00927734375,-0.07275390625,0.251953125,39.40058823529412,199.0097006577275
-0.51658251953125,0.50598681640625,-0.6970122070312501,1.0043436536428956,-0.03955078125,-0.0283203125,0.283203125,38.36529411764706,198.74859898831448
-0.51169970703125,0.49377978515625,-0.7048247070312501,1.001215728025937,-0.07470703125,0.009765625,0.3291015625,38.45941176470589,198.74859898831448
-0.48972705078125,0.49329150390625,-0.6979887695312501,0.9850672131812832,-0.001953125,-0.03857421875,0.37060546875,38.60058823529412,198.74859898831448
-0.47703173828125,0.49036181640625,-0.7072661132812501,0.9839915372160648,-0.21875,-0.208984375,0.5146484375,38.03588235294118,198.74859898831448
-0.46824267578125,0.49963916015625,-0.6960356445312501,0.9763995658758048,-0.26708984375,-0.2177734375,0.36181640625,38.45941176470589,199.10708510778963
-0.47507861328125,0.63147509765625,-0.7028715820312501,1.0575863787815718,-0.26708984375,-0.1591796875,0.09326171875,38.64764705882353,199.10708510778963
-0.43552783203125,0.49817431640625,-0.6882231445312501,0.9547320245331448,-0.2880859375,-0.34619140625,0.041015625,38.69470588235294,199.10708510778963
-0.47068408203125,0.50403369140625,-0.6750395507812501,0.9650242806630116,-0.2744140625,-0.28173828125,-0.0810546875,38.506470588235295,199.10708510778963
-0.49119189453125,0.50549853515625,-0.6804106445312501,0.9796718284659124,-0.26416015625,-0.1103515625,-0.10498046875,38.03588235294118,199.10708510778963
-0.53562548828125,0.51379931640625,-0.7058012695312501,1.0242264560672028,-0.267578125,0.0087890625,-0.0458984375,38.03588235294118,199.08513014629352
-0.55613330078125,0.52942431640625,-0.7116606445312501,1.0469170110446708,-0.3037109375,0.03564453125,0.033203125,39.40058823529412,199.08513014629352
-0.55222705078125,0.55237353515625,-0.6862700195312501,1.0397296656645862,-0.27734375,-0.06787109375,0.07421875,38.64764705882353,199.08513014629352
-0.53123095703125,0.56848681640625,-0.6520903320312501,1.015187367565553,-0.20556640625,-0.18310546875,0.03076171875,38.64764705882353,199.08513014629352
-0.51658251953125,0.55530322265625,-0.6301176757812501,0.9860362335683388,-0.0927734375,-0.1826171875,-0.09130859375,38.64764705882353,199.0750946022685
-0.51853564453125,0.53284228515625,-0.6076567382812501,0.960232694235403,-0.00390625,-0.001953125,-0.2392578125,38.08294117647059,199.0750946022685
-0.52341845703125,0.50940478515625,-0.5969145507812501,0.9432746669106732,0.0947265625,0.2109375,-0.2724609375,38.36529411764706,199.0750946022685
-0.53562548828125,0.48499072265625,-0.6242583007812501,0.9548869518709808,0.1142578125,0.25048828125,-0.23046875,39.44764705882353,199.0750946022685
-0.56345751953125,0.47424853515625,-0.6559965820312501,0.986269519477734,0.08837890625,0.49609375,-0.1513671875,38.45941176470589,199.0750946022685
-0.59226611328125,0.46790087890625,-0.7014067382812501,1.0303794417246794,0.02685546875,0.5625,-0.02783203125,38.03588235294118,198.8889483898568
-0.59031298828125,0.47229541015625,-0.7346098632812501,1.054127141201808,-0.0537109375,0.455078125,0.19091796875,38.64764705882353,198.8889483898568
-0.55857470703125,0.47229541015625,-0.7404692382812501,1.0408474194763235,-0.11962890625,0.14892578125,0.32275390625,38.64764705882353,198.8889483898568
-0.53318408203125,0.47620166015625,-0.7224028320312501,1.0163262951404168,-0.12158203125,-0.08203125,0.3505859375,38.64764705882353,198.8889483898568
-0.51560595703125,0.47620166015625,-0.6989653320312501,0.990540286633126,-0.10107421875,-0.13623046875,0.35546875,39.44764705882353,199.1061446149309
-0.51169970703125,0.48987353515625,-0.6872465820312501,0.9869754480917874,-0.09228515625,-0.06298828125,0.3212890625,38.788823529411765,199.1061446149309
-0.51560595703125,0.50305712890625,-0.6794340820312501,0.9902255549596556,-0.06591796875,0.091796875,0.26904296875,38.64764705882353,199.1061446149309
-0.51560595703125,0.51331103515625,-0.6789458007812501,0.9951407549376042,-0.0712890625,0.17431640625,0.2841796875,38.64764705882353,199.1061446149309
-0.51658251953125,0.52356494140625,-0.6857817382812501,1.0056213700568606,-0.06494140625,0.21435546875,0.26708984375,38.69470588235294,199.1061446149309
-0.51853564453125,0.52649462890625,-0.6799223632812501,1.0041763933724637,-0.083984375,0.203125,0.25146484375,38.506470588235295,198.71472320984128
-0.51902392578125,0.52551806640625,-0.6813872070312501,1.0049097469716333,-0.08740234375,0.19140625,0.29345703125,38.60058823529412,198.71472320984128
-0.51462939453125,0.52405322265625,-0.6794340820312501,1.0005527800759186,-0.07763671875,0.17529296875,0.28369140625,39.40058823529412,198.71472320984128
-0.51365283203125,0.52356494140625,-0.6774809570312501,0.9984687911314164,-0.0791015625,0.181640625,0.2548828125,39.25941176470588,198.71472320984128
-0.51218798828125,0.52063525390625,-0.6896879882812501,1.0045233317992457,-0.08740234375,0.15087890625,0.28759765625,38.03588235294118,198.7576908411229
-0.51316455078125,0.52112353515625,-0.6896879882812501,1.0052746471744465,-0.24951171875,0.12353515625,0.33544921875,39.40058823529412,198.7576908411229
-0.51121142578125,0.52258837890625,-0.6848051757812501,1.0016954948455892,-0.1171875,0.07958984375,0.28515625,38.36529411764706,198.7576908411229
-0.51902392578125,0.52698291015625,-0.6926176757812501,1.0133193316693172,-0.103515625,-0.0068359375,0.2646484375,38.03588235294118,198.7576908411229
-0.51658251953125,0.53333056640625,-0.6843168945312501,1.0097468022674594,-0.10009765625,-0.01416015625,0.25634765625,38.64764705882353,198.7576908411229
