AccX,AccY,AccZ,Magnitude,GyroX,GyroY,GyroZ,Temperature,Altitude
-0.14109423828125,0.12268603515625,0.95630810546875,0.9744150244550608,-0.00634765625,0.50390625,0.02099609375,42.97705882352941,333.6526733986182
-0.15330126953125,0.12366259765625,0.95728466796875,0.9773370211073682,0.0185546875,0.42578125,0.00390625,42.64764705882353,333.6526733986182
-0.15183642578125,0.12073291015625,0.95826123046875,0.9776989933554728,0.04248046875,0.36669921875,-0.03955078125,43.21235294117647,333.6526733986182
-0.14695361328125,0.11926806640625,0.96070263671875,0.979167908133768,0.02587890625,0.31298828125,-0.0556640625,42.03588235294118,333.6526733986182
-0.15867236328125,0.11145556640625,0.96412060546875,0.9834265626073072,0.04345703125,0.30224609375,0.0185546875,41.84764705882353,333.6526733986182
-0.16648486328125,0.10754931640625,0.97046826171875,0.9905012428889932,0.04296875,0.38916015625,0.072265625,42.60058823529412,333.78486177790734
-0.15916064453125,0.11096728515625,0.96607373046875,0.9853650601905662,0.072265625,0.4970703125,0.04248046875,42.74176470588235,333.78486177790734
-0.16111376953125,0.10657275390625,0.96509716796875,0.984239778828834,0.10302734375,0.48388671875,0.02099609375,42.788823529411765,333.78486177790734
-0.16013720703125,0.10315478515625,0.95923779296875,0.9779682910176382,0.0615234375,0.35302734375,0.1044921875,42.64764705882353,333.78486177790734
-0.16746142578125,0.10266650390625,0.95630810546875,0.97627298064335,0.01611328125,0.27001953125,0.21875,42.788823529411765,333.8737366269686
-0.16990283203125,0.11096728515625,0.96558544921875,0.986679264224278,-0.0166015625,0.20751953125,0.27001953125,42.83588235294118,333.8737366269686
-0.17283251953125,0.11438525390625,0.97437451171875,0.9961730548483378,-0.0537109375,0.2138671875,0.26806640625,42.64764705882353,333.8737366269686
-0.16843798828125,0.11975634765625,0.98169873046875,1.0032174919249337,-0.0263671875,0.2470703125,0.14697265625,42.74176470588235,333.8737366269686
-0.18064501953125,0.12512744140625,0.98902294921875,1.01314159610376,0.12451171875,0.2705078125,0.09619140625,42.60058823529412,333.8737366269686
-0.17966845703125,0.13391650390625,0.98023388671875,1.005521186819159,-0.001953125,0.3232421875,0.224609375,42.03588235294118,333.79681343580484
-0.14255908203125,0.13879931640625,0.98267529296875,1.0026161147296873,0.01171875,0.36474609375,0.16162109375,42.64764705882353,333.79681343580484
-0.14011767578125,0.13684619140625,0.97290966796875,0.9924278639759158,0.02587890625,0.5068359375,-0.08544921875,42.788823529411765,333.79681343580484
-0.14060595703125,0.12854541015625,0.98218701171875,1.0004925205187292,0.06005859375,0.63671875,-0.2880859375,43.21235294117647,333.79681343580484
-0.17527392578125,0.11487353515625,0.96558544921875,0.9880648449778184,0.07861328125,0.74072265625,-0.2919921875,42.83588235294118,333.5313143927896
-0.18210986328125,0.11145556640625,0.95386669921875,0.9774702171758108,0.0556640625,0.7529296875,-0.14599609375,43.21235294117647,333.5313143927896
-0.18552783203125,0.11194384765625,0.94214794921875,0.9667444128120926,0.044921875,0.6884765625,-0.02978515625,42.74176470588235,333.5313143927896
-0.18210986328125,0.11292041015625,0.93872998046875,0.962875380080429,0.04443359375,0.4814453125,0.1748046875,42.83588235294118,333.5313143927896
-0.17429736328125,0.11243212890625,0.92896435546875,0.9518378686460512,-0.021484375,0.263671875,0.2265625,42.83588235294118,333.5313143927896
-0.17527392578125,0.11096728515625,0.94996044921875,0.9723474391973318,-0.060546875,0.01611328125,0.19580078125,42.64764705882353,333.6440913317315
-0.19627001953125,0.11731494140625,0.96119091796875,0.9880145225802894,-0.02880859375,-0.0654296875,0.2001953125,42.60058823529412,333.6440913317315
-0.20750048828125,0.12122119140625,0.98658154296875,1.01542807269127,0.005859375,0.05908203125,0.22802734375,41.89470588235295,333.6440913317315
-0.21140673828125,0.12805712890625,0.99781201171875,1.02796899174277,0.03173828125,0.4501953125,0.28662109375,42.788823529411765,333.6440913317315
-0.20652392578125,0.12805712890625,0.98853466796875,1.017964414878977,0.03515625,0.9521484375,0.30419921875,42.60058823529412,333.8554518871451
-0.19578173828125,0.13391650390625,0.96656201171875,0.9952418005493424,0.0458984375,1.37353515625,0.25537109375,42.60058823529412,333.8554518871451
-0.18601611328125,0.12659228515625,0.95581982421875,0.9819466062016337,0.03857421875,1.5791015625,0.1845703125,42.93,333.8554518871451
-0.16843798828125,0.12366259765625,0.93189404296875,0.9550341885377552,0.01953125,1.53125,0.17724609375,42.74176470588235,333.8554518871451
-0.15085986328125,0.11731494140625,0.91431591796875,0.9340744572449388,-0.04443359375,1.306640625,0.1357421875,42.93,333.8554518871451
-0.13181689453125,0.10706103515625,0.91724560546875,0.9328329216340534,-0.091796875,0.982421875,-0.044921875,42.64764705882353,333.70048121718264
-0.12888720703125,0.11194384765625,0.92408154296875,0.939718061558842,-0.0615234375,0.705078125,-0.21240234375,42.74176470588235,333.70048121718264
-0.14793017578125,0.11145556640625,0.93970654296875,0.957786023644054,-0.005859375,0.63330078125,-0.17138671875,42.60058823529412,333.70048121718264
-0.17283251953125,0.11389697265625,0.94800732421875,0.9703409127518908,0.03125,0.75146484375,-0.0400390625,42.64764705882353,333.70048121718264
-0.19041064453125,0.11633837890625,0.95581982421875,0.981520437039852,0.107421875,1.26953125,0.05078125,42.08294117647059,333.7546231585293
-0.21140673828125,0.12219775390625,0.96997998046875,1.0002431017310771,0.15283203125,1.68701171875,-0.0107421875,42.97705882352941,333.7546231585293
-0.21921923828125,0.12659228515625,0.95679638671875,0.989718145095738,0.21142578125,1.943359375,-0.11572265625,41.84764705882353,333.7546231585293
-0.22507861328125,0.12659228515625,0.94507763671875,0.9797232916714746,0.23193359375,1.95654296875,-0.23193359375,42.97705882352941,333.7546231585293
-0.22752001953125,0.11780322265625,0.93335888671875,0.9678852049559196,0.23974609375,1.87255859375,-0.4267578125,42.60058823529412,333.7546231585293
-0.25779345703125,0.12366259765625,0.94214794921875,0.9845774031351272,0.244140625,1.4775390625,-0.44970703125,43.21235294117647,333.59965410732883
-0.27683642578125,0.11585009765625,0.93775341796875,0.9846020133426364,0.18212890625,1.24267578125,-0.38525390625,42.60058823529412,333.59965410732883
-0.27976611328125,0.10950244140625,0.93775341796875,0.9847036791474374,0.09033203125,1.05712890625,-0.33203125,42.83588235294118,333.59965410732883
-0.27976611328125,0.10168994140625,0.95093701171875,0.9964392217191622,0.037109375,0.9853515625,-0.32861328125,42.64764705882353,333.59965410732883
-0.27048876953125,0.09680712890625,0.95533154296875,0.9975941818398169,0.04052734375,1.01318359375,-0.298828125,42.788823529411765,333.6560436005226
-0.26609423828125,0.09631884765625,0.95581982421875,0.9968324836349728,0.0478515625,1.1025390625,-0.208984375,42.788823529411765,333.6560436005226
-0.26414111328125,0.09290087890625,0.94556591796875,0.9861521212526476,0.083984375,1.09326171875,-0.07275390625,42.60058823529412,333.6560436005226
-0.25193408203125,0.10168994140625,0.94214794921875,0.98053780349828,0.0576171875,0.94677734375,0.06640625,42.64764705882353,333.6560436005226
-0.25437548828125,0.10608447265625,0.93091748046875,0.9708594954056762,0.02197265625,0.77197265625,0.16552734375,42.788823529411765,333.6560436005226
-0.24314501953125,0.11585009765625,0.93140576171875,0.9695655927335186,-0.01123046875,0.529296875,0.1875,42.788823529411765,334.03433229565525
-0.24851611328125,0.11780322265625,0.93042919921875,0.9702248979424622,-0.05859375,0.328125,0.09375,42.74176470588235,334.03433229565525
-0.26609423828125,0.13098681640625,0.93482373046875,0.9807441545919268,-0.078125,0.37353515625,-0.04248046875,41.84764705882353,334.03433229565525
-0.28171923828125,0.12512744140625,0.94214794921875,0.9912947916879916,-0.09912109375,0.2919921875,-0.17626953125,42.60058823529412,334.03433229565525
-0.28416064453125,0.12170947265625,0.94117138671875,0.990638201773368,-0.09765625,0.38330078125,-0.25,42.74176470588235,333.84349889080784
-0.28123095703125,0.11975634765625,0.93531201171875,0.9839923745954804,-0.123046875,0.4482421875,-0.28173828125,43.02411764705882,333.84349889080784
-0.29539111328125,0.11780322265625,0.93189404296875,0.9846623870110895,-0.10302734375,0.5966796875,-0.27392578125,42.93,333.84349889080784
-0.29490283203125,0.11585009765625,0.93091748046875,0.9833596905045984,-0.0576171875,0.69287109375,-0.2353515625,42.64764705882353,333.84349889080784
-0.28562548828125,0.11194384765625,0.92212841796875,0.9718200264501332,0.0078125,0.6787109375,-0.28466796875,42.74176470588235,333.84349889080784
-0.28025439453125,0.11731494140625,0.92408154296875,0.9727445806514344,0.04345703125,0.5205078125,-0.337890625,42.788823529411765,333.85770240816225
-0.26414111328125,0.11780322265625,0.92164013671875,0.965954796356751,0.07958984375,0.26806640625,-0.1572265625,42.64764705882353,333.85770240816225
-0.25437548828125,0.12122119140625,0.92017529296875,0.9623533841964708,0.10400390625,0.07470703125,-0.16162109375,42.788823529411765,333.85770240816225
-0.25779345703125,0.12415087890625,0.93824169921875,0.980901826572978,0.1591796875,0.09912109375,-0.2783203125,42.64764705882353,333.85770240816225
-0.27048876953125,0.11731494140625,0.93921826171875,0.9844073918178752,0.18994140625,0.20703125,-0.3994140625,42.788823529411765,333.634386906901
-0.27293017578125,0.10461962890625,0.94458935546875,0.9887796509179048,0.21240234375,0.255859375,-0.54931640625,42.83588235294118,333.634386906901
-0.28269580078125,0.09973681640625,0.92847607421875,0.9756701126522568,0.23974609375,0.333984375,-0.6142578125,42.64764705882353,333.634386906901
-0.28806689453125,0.09241259765625,0.91138623046875,0.960285106110936,0.19482421875,0.412109375,-0.50927734375,42.60058823529412,333.634386906901
-0.29392626953125,0.08801806640625,0.90503857421875,0.9556331161896596,0.11865234375,0.37841796875,-0.26513671875,43.25941176470588,333.634386906901
-0.27683642578125,0.08215869140625,0.90601513671875,0.9509215978073168,0.0283203125,0.20263671875,-0.0986328125,42.60058823529412,333.73634071781964
-0.27976611328125,0.08460009765625,0.92164013671875,0.9668747572849858,0.03271484375,-0.0771484375,-0.09521484375,42.788823529411765,333.73634071781964
-0.28611376953125,0.08704150390625,0.92749951171875,0.9745217579696014,0.01953125,-0.228515625,-0.1162109375,42.74176470588235,333.73634071781964
-0.29197314453125,0.09241259765625,0.93042919921875,0.9795340219164858,0.0146484375,-0.18994140625,-0.1552734375,42.64764705882353,333.73634071781964
-0.29343798828125,0.09241259765625,0.93335888671875,0.9827536581407302,-0.009765625,-0.06884765625,-0.1572265625,42.788823529411765,333.5694171526182
-0.29636767578125,0.08460009765625,0.93091748046875,0.9806112028799756,-0.04443359375,0.1025390625,-0.11083984375,42.93,333.5694171526182
-0.28904345703125,0.08313525390625,0.92896435546875,0.9764386126255468,-0.10791015625,0.24658203125,-0.0986328125,42.788823529411765,333.5694171526182
-0.28709033203125,0.08118212890625,0.92603466796875,0.9729088359551256,-0.14501953125,0.3310546875,-0.08154296875,42.83588235294118,333.5694171526182
-0.29050830078125,0.08655322265625,0.92798779296875,0.9762417103740256,-0.2060546875,0.359375,-0.08984375,42.64764705882353,333.5694171526182
-0.28904345703125,0.08508837890625,0.92603466796875,0.9738204960656056,-0.1708984375,0.2685546875,-0.056640625,43.25941176470588,333.780779137515
-0.28806689453125,0.09973681640625,0.92164013671875,0.9707473975667864,-0.16943359375,0.1328125,0.00439453125,42.788823529411765,333.780779137515
-0.28513720703125,0.10071337890625,0.92212841796875,0.970446923200772,-0.1572265625,-0.02880859375,0.03515625,42.788823529411765,333.780779137515
-0.27732470703125,0.10461962890625,0.92652294921875,0.9727790269693628,-0.17333984375,-0.203125,0.12451171875,42.93,333.780779137515
-0.27048876953125,0.09778369140625,0.93238232421875,0.975736964177908,-0.177734375,-0.3427734375,0.22119140625,41.84764705882353,333.95966144310245
-0.27976611328125,0.10120166015625,0.93824169921875,0.9842806207133032,-0.20361328125,-0.27783203125,0.34912109375,42.03588235294118,333.95966144310245
-0.27927783203125,0.10120166015625,0.93872998046875,0.9846074647865086,-0.21484375,-0.08837890625,0.337890625,42.64764705882353,333.95966144310245
-0.26951220703125,0.10266650390625,0.94556591796875,0.9885707592212468,-0.18408203125,0.083984375,0.1953125,42.60058823529412,333.95966144310245
-0.27097705078125,0.09485400390625,0.93482373046875,0.9779167915291468,-0.16259765625,0.21533203125,0.13720703125,41.89470588235295,333.95966144310245
-0.27293017578125,0.09143603515625,0.92994091796875,0.9734688183448098,-0.1396484375,0.21728515625,0.1240234375,42.97705882352941,333.93575192236455
-0.28171923828125,0.09143603515625,0.91529248046875,0.9620221424403388,-0.1416015625,0.20947265625,0.1171875,42.788823529411765,333.93575192236455
-0.28416064453125,0.09094775390625,0.92212841796875,0.969195328644622,-0.134765625,0.1162109375,0.0908203125,42.788823529411765,333.93575192236455
-0.27781298828125,0.08997119140625,0.91675732421875,0.9621428497107588,-0.14697265625,-0.05810546875,0.09130859375,42.64764705882353,333.93575192236455
-0.26462939453125,0.09583056640625,0.92261669921875,0.9645899582646608,-0.18017578125,-0.24755859375,0.08740234375,42.60058823529412,334.07989815192565
-0.26951220703125,0.10022509765625,0.93189404296875,0.9752478696514556,-0.16015625,-0.37451171875,0.04345703125,42.64764705882353,334.07989815192565
-0.27390673828125,0.10413134765625,0.93775341796875,0.982471226933722,-0.11474609375,-0.5,0.00244140625,43.25941176470588,334.07989815192565
-0.28171923828125,0.10217822265625,0.94117138671875,0.9877295670278644,-0.1005859375,-0.2626953125,-0.0302734375,42.60058823529412,334.07989815192565
-0.28025439453125,0.10364306640625,0.94019482421875,0.9865347020535536,-0.1005859375,-0.11376953125,-0.07861328125,42.64764705882353,334.07989815192565
-0.27146533203125,0.10413134765625,0.93531201171875,0.9794617518437964,-0.076171875,-0.00830078125,-0.0732421875,42.74176470588235,333.69077745039573
-0.26951220703125,0.10461962890625,0.93775341796875,0.9813070719216334,-0.0517578125,0.07373046875,-0.03564453125,42.788823529411765,333.69077745039573
-0.27488330078125,0.10657275390625,0.93824169921875,0.9834714368381242,0.005859375,0.10595703125,-0.02587890625,43.21235294117647,333.69077745039573
-0.27878955078125,0.10120166015625,0.93433544921875,0.980279613839845,-0.02197265625,0.08447265625,-0.1044921875,43.25941176470588,333.69077745039573
-0.27976611328125,0.09290087890625,0.92945263671875,0.9750804353208444,-0.02978515625,0.0615234375,-0.1611328125,42.788823529411765,333.85770240816225
-0.27488330078125,0.08460009765625,0.92945263671875,0.97293381556778,-0.06298828125,-0.0791015625,-0.177734375,42.64764705882353,333.85770240816225
-0.27781298828125,0.07678759765625,0.92798779296875,0.9717189591186268,-0.09619140625,-0.22998046875,-0.16064453125,42.08294117647059,333.85770240816225
-0.27585986328125,0.07776416015625,0.93482373046875,0.9777736628800484,-0.09765625,-0.36669921875,-0.13671875,42.74176470588235,333.85770240816225
-0.27976611328125,0.07727587890625,0.94165966796875,0.9853748372473528,-0.078125,-0.35986328125,-0.17138671875,42.74176470588235,333.85770240816225
-0.28709033203125,0.08508837890625,0.94312451171875,0.9895174256047428,-0.04345703125,-0.2529296875,-0.24462890625,41.89470588235295,333.86853065673284
-0.29685595703125,0.09290087890625,0.93677685546875,0.9870688473801674,-0.02392578125,-0.13037109375,-0.04833984375,42.64764705882353,333.86853065673284
-0.28660205078125,0.09192431640625,0.93531201171875,0.9825473905741898,-0.04541015625,-0.12646484375,0.29638671875,42.64764705882353,333.86853065673284
-0.27195361328125,0.09387744140625,0.93872998046875,0.981827743554118,-0.05615234375,-0.0537109375,0.30908203125,42.60058823529412,333.86853065673284
-0.26658251953125,0.09485400390625,0.93580029296875,0.9776429358907444,-0.0400390625,0.06396484375,0.11376953125,42.64764705882353,333.74942067087943
-0.27830126953125,0.10120166015625,0.92945263671875,0.9754873533493518,-0.041015625,0.04345703125,-0.02392578125,42.788823529411765,333.74942067087943
-0.29050830078125,0.08997119140625,0.92261669921875,0.9714481261411596,-0.0302734375,-0.08056640625,-0.01953125,42.64764705882353,333.74942067087943
-0.28611376953125,0.08752978515625,0.91382763671875,0.9615630515134492,-0.0732421875,-0.17626953125,0.0595703125,42.64764705882353,333.74942067087943
-0.27537158203125,0.09290087890625,0.91333935546875,0.958461715323058,-0.10546875,-0.2822265625,0.12646484375,42.74176470588235,333.74942067087943
-0.26462939453125,0.08899462890625,0.91773388671875,0.9592623453758832,-0.13720703125,-0.36279296875,0.15576171875,42.788823529411765,333.48054238124985
-0.26462939453125,0.09485400390625,0.93140576171875,0.9729042560652654,-0.13671875,-0.4697265625,0.12841796875,42.64764705882353,333.48054238124985
-0.27097705078125,0.09631884765625,0.94312451171875,0.9859968189952047,-0.10205078125,-0.54541015625,0.08447265625,42.83588235294118,333.48054238124985
-0.27195361328125,0.09534228515625,0.94556591796875,0.9885058544791872,-0.0712890625,-0.484375,0.09521484375,42.74176470588235,333.48054238124985
-0.26560595703125,0.09387744140625,0.95093701171875,0.9917866195266278,-0.03515625,-0.36572265625,0.10205078125,42.83588235294118,333.6149798234632
-0.26267626953125,0.08899462890625,0.95386669921875,0.9933682833810872,-0.0283203125,-0.294921875,0.0888671875,42.93,333.6149798234632
-0.26804736328125,0.08655322265625,0.94849560546875,0.9894365886239216,-0.03759765625,-0.23681640625,0.103515625,42.93,333.6149798234632
-0.26755908203125,0.08752978515625,0.94507763671875,0.986114123767022,-0.03125,-0.1796875,0.10693359375,41.89470588235295,333.6149798234632
-0.26316455078125,0.08313525390625,0.94898388671875,0.9883002926650274,-0.01904296875,-0.18115234375,0.1484375,42.64764705882353,333.6149798234632
-0.26707080078125,0.08508837890625,0.94849560546875,0.9890453773454292,-0.02294921875,-0.16748046875,0.15869140625,42.64764705882353,333.32669894494785
-0.26853564453125,0.08411181640625,0.94068310546875,0.981871119321321,-0.01953125,-0.1357421875,0.1416015625,42.788823529411765,333.32669894494785
-0.27244189453125,0.08606494140625,0.93872998046875,0.9812470312138006,-0.013671875,-0.07421875,0.16259765625,42.60058823529412,333.32669894494785
-0.26365283203125,0.08215869140625,0.93335888671875,0.9733558844680348,-0.01904296875,-0.01806640625,0.20654296875,42.64764705882353,333.32669894494785
-0.25437548828125,0.08362353515625,0.92652294921875,0.9644400241069236,-0.029296875,-0.05859375,0.25244140625,42.74176470588235,333.79385950752135
-0.25681689453125,0.08460009765625,0.92408154296875,0.962828537121552,-0.03173828125,-0.134765625,0.2783203125,42.93,333.79385950752135
-0.26023486328125,0.09290087890625,0.92896435546875,0.9691891100812238,-0.05224609375,-0.24072265625,0.2568359375,41.98882352941177,333.79385950752135
-0.25486376953125,0.09241259765625,0.94507763671875,0.9831924372426548,-0.0595703125,-0.3291015625,0.20947265625,42.64764705882353,333.79385950752135
-0.25974658203125,0.09534228515625,0.94507763671875,0.9847487891039166,-0.0546875,-0.421875,0.1640625,42.97705882352941,333.79385950752135
-0.26511767578125,0.09387744140625,0.94263623046875,0.983698845688542,-0.0390625,-0.4755859375,0.08642578125,43.25941176470588,333.6821998215203
-0.27781298828125,0.09534228515625,0.94751904296875,0.9919992664236146,-0.03271484375,-0.3359375,0.04931640625,42.64764705882353,333.6821998215203
-0.27781298828125,0.09680712890625,0.95044873046875,0.9949394282640966,0.0087890625,-0.12841796875,-0.01220703125,42.60058823529412,333.6821998215203
-0.26511767578125,0.09094775390625,0.95191357421875,0.9923196706375216,-0.00634765625,0.08056640625,-0.11865234375,42.03588235294118,333.6821998215203
-0.25779345703125,0.08606494140625,0.95826123046875,0.9960568389639552,0.04443359375,0.18798828125,-0.1904296875,42.64764705882353,333.64001359489816
-0.26169970703125,0.09143603515625,0.94898388671875,0.9886443761217488,0.046875,0.232421875,-0.21630859375,41.89470588235295,333.64001359489816
-0.26462939453125,0.09290087890625,0.95191357421875,0.9923702648373968,0.048828125,0.27978515625,-0.14404296875,42.60058823529412,333.64001359489816
-0.25779345703125,0.09729541015625,0.94849560546875,0.9877083460815376,0.04150390625,0.3271484375,-0.021484375,42.03588235294118,333.64001359489816
-0.24753955078125,0.10120166015625,0.94410107421875,0.9812463725081289,0.0400390625,0.30615234375,0.0634765625,42.506470588235295,333.64001359489816
-0.24314501953125,0.09680712890625,0.94800732421875,0.9834678477216818,0.017578125,0.26513671875,0.1025390625,42.83588235294118,333.638887349405
-0.24851611328125,0.09534228515625,0.94898388671875,0.9856068319320131,0.01708984375,0.1884765625,0.10302734375,42.93,333.638887349405
-0.26804736328125,0.09631884765625,0.94507763671875,0.987065574722245,0.0126953125,0.16845703125,0.0615234375,42.64764705882353,333.638887349405
-0.27830126953125,0.09290087890625,0.94507763671875,0.9895725892273676,-0.013671875,0.19189453125,0.0185546875,42.74176470588235,333.638887349405
-0.28220751953125,0.09241259765625,0.94898388671875,0.9943598893445884,0.0029296875,0.2333984375,0.03857421875,42.74176470588235,333.559713761762
-0.28123095703125,0.08997119140625,0.95923779296875,1.0036547264549354,0.0322265625,0.216796875,0.09326171875,42.60058823529412,333.559713761762
-0.28220751953125,0.09387744140625,0.94361279296875,0.989373115229664,0.05126953125,0.2333984375,0.11669921875,42.788823529411765,333.559713761762
-0.28562548828125,0.09924853515625,0.94263623046875,0.9899470967071412,0.05810546875,0.2578125,0.115234375,42.64764705882353,333.559713761762
-0.27927783203125,0.09778369140625,0.94605419921875,0.9912498704305276,0.07958984375,0.298828125,0.119140625,42.83588235294118,333.559713761762
-0.27390673828125,0.09631884765625,0.93775341796875,0.9816739247844846,0.0830078125,0.27587890625,-0.1162109375,42.64764705882353,333.7613752701833
-0.27195361328125,0.10120166015625,0.93384716796875,0.977891137559986,0.04931640625,0.13427734375,-0.064453125,42.788823529411765,333.7613752701833
-0.25681689453125,0.10266650390625,0.93482373046875,0.9748798568995656,0.005859375,-0.09716796875,0.00390625,42.64764705882353,333.7613752701833
-0.24998095703125,0.10461962890625,0.94703076171875,0.9850395978194668,-0.06982421875,-0.1357421875,0.16748046875,42.74176470588235,333.7613752701833
-0.25486376953125,0.10120166015625,0.95191357421875,0.990624434293832,-0.07275390625,0.01513671875,-0.01611328125,42.64764705882353,333.90552100397844
-0.27634814453125,0.09680712890625,0.94458935546875,0.9889332473214784,-0.0625,0.23046875,-0.1474609375,42.64764705882353,333.90552100397844
-0.27439501953125,0.08557666015625,0.93628857421875,0.9794142564408754,-0.05859375,0.32861328125,-0.11279296875,43.25941176470588,333.90552100397844
-0.26755908203125,0.08850634765625,0.91773388671875,0.960029542662494,-0.05810546875,0.29736328125,-0.0400390625,42.83588235294118,333.90552100397844
-0.26414111328125,0.10120166015625,0.91382763671875,0.956605066563425,-0.06884765625,0.13037109375,0.10986328125,42.60058823529412,333.90552100397844
-0.26169970703125,0.09827197265625,0.91529248046875,0.9570289661617508,-0.1220703125,-0.1513671875,0.15087890625,42.83588235294118,333.8405529260756
-0.27048876953125,0.09387744140625,0.92701123046875,0.97022006259544,-0.16845703125,-0.4208984375,0.1513671875,43.21235294117647,333.8405529260756
-0.29099658203125,0.10022509765625,0.94556591796875,0.9943937782278004,-0.14306640625,-0.55029296875,0.16259765625,42.60058823529412,333.8405529260756
-0.29587939453125,0.10559619140625,0.96705029296875,1.0167996070409495,-0.07958984375,-0.48095703125,0.16845703125,42.17705882352941,333.8405529260756
-0.29734423828125,0.10217822265625,0.97339794921875,1.022916200266432,-0.03125,-0.18505859375,0.10546875,42.64764705882353,333.4514326686163
-0.28806689453125,0.10217822265625,0.96558544921875,1.0128070816562469,-0.00048828125,0.1533203125,0.02392578125,42.64764705882353,333.4514326686163
-0.28269580078125,0.10461962890625,0.95923779296875,1.0054846224539649,0.0263671875,0.421875,0.0234375,42.64764705882353,333.4514326686163
-0.27830126953125,0.09876025390625,0.93433544921875,0.9798917879241236,0.0576171875,0.53662109375,0.005859375,43.25941176470588,333.4514326686163
-0.26951220703125,0.10266650390625,0.92164013671875,0.9657110242583664,0.04345703125,0.6201171875,0.0,42.64764705882353,333.4514326686163
-0.26218798828125,0.10071337890625,0.91138623046875,0.9536826447921344,0.03662109375,0.33447265625,-0.037109375,42.60058823529412,333.86220889761614
-0.26023486328125,0.09729541015625,0.90894482421875,0.95045740271647,0.0302734375,0.099609375,-0.07373046875,42.788823529411765,333.86220889761614
-0.26121142578125,0.09583056640625,0.90210888671875,0.944042027620253,0.00341796875,-0.18017578125,-0.13037109375,43.21235294117647,333.86220889761614
-0.27634814453125,0.09436572265625,0.92749951171875,0.9723829136902912,-0.0029296875,-0.55078125,-0.08740234375,42.93,333.518652715614
-0.28220751953125,0.10657275390625,0.92115185546875,0.969288180464749,-0.01611328125,-0.51953125,-0.0859375,42.64764705882353,333.518652715614
-0.27341845703125,0.09924853515625,0.92994091796875,0.9743705841662976,-0.02880859375,-0.4951171875,-0.08544921875,42.60058823529412,333.518652715614
-0.27439501953125,0.09680712890625,0.93384716796875,0.9781282022689464,-0.005859375,-0.4609375,-0.0859375,42.60058823529412,333.518652715614
-0.26462939453125,0.09827197265625,0.93189404296875,0.9737107395835628,-0.0029296875,-0.38720703125,-0.115234375,42.93,333.518652715614
-0.26365283203125,0.09290087890625,0.93775341796875,0.9785319933715632,0.00927734375,-0.33203125,-0.18115234375,42.60058823529412,333.518652715614
-0.27390673828125,0.09094775390625,0.93238232421875,0.9760292996278456,0.0234375,-0.3115234375,-0.236328125,42.83588235294118,333.66392329296133
-0.28855517578125,0.09192431640625,0.92701123046875,0.975225097519588,0.013671875,-0.27490234375,-0.2431640625,42.788823529411765,333.66392329296133
-0.28953173828125,0.09290087890625,0.92847607421875,0.9769989872924012,-0.03955078125,-0.26025390625,-0.244140625,42.03588235294118,333.66392329296133
-0.29294970703125,0.09729541015625,0.93042919921875,0.9802981293698424,-0.06982421875,-0.2880859375,-0.2109375,42.74176470588235,333.66392329296133
-0.29441455078125,0.10071337890625,0.93042919921875,0.9810818554846906,-0.05859375,-0.36083984375,-0.16748046875,42.74176470588235,333.64001359489816
-0.29294970703125,0.11145556640625,0.93482373046875,0.9859702232725608,-0.04345703125,-0.4306640625,-0.095703125,42.64764705882353,333.64001359489816
-0.28123095703125,0.10999072265625,0.95533154296875,1.0019217370903823,0.00244140625,-0.50244140625,-0.0498046875,42.83588235294118,333.64001359489816
-0.27000048828125,0.10510791015625,0.95533154296875,0.9983017046166855,0.0283203125,-0.51708984375,-0.00537109375,43.25941176470588,333.64001359489816
-0.27244189453125,0.10071337890625,0.97046826171875,1.0130036611927435,0.0517578125,-0.4111328125,0.03515625,42.64764705882353,333.64001359489816
-0.27341845703125,0.08997119140625,0.96119091796875,1.0033645642108444,0.03466796875,-0.21826171875,0.1123046875,42.788823529411765,333.7516742196438
-0.28074267578125,0.09241259765625,0.96216748046875,1.0065400134530045,0.0439453125,0.046875,0.20654296875,42.64764705882353,333.7516742196438
-0.27390673828125,0.09192431640625,0.94605419921875,0.9891883183105528,0.0556640625,0.26513671875,0.24072265625,42.788823529411765,333.7516742196438
-0.26951220703125,0.09241259765625,0.93384716796875,0.9763439204848288,0.05615234375,0.34375,0.1962890625,42.60058823529412,333.7516742196438
-0.26462939453125,0.08215869140625,0.91675732421875,0.957717473231164,0.0361328125,0.2724609375,0.1953125,43.25941176470588,333.7625022109432
-0.27048876953125,0.08167041015625,0.90601513671875,0.94905092503043,-0.02099609375,0.06982421875,0.21142578125,42.83588235294118,333.7625022109432
-0.27634814453125,0.08411181640625,0.8933198242187499,0.9388628243717192,-0.083984375,-0.1484375,0.2265625,43.21235294117647,333.7625022109432
-0.26609423828125,0.07971728515625,0.8884370117187499,0.9308497800348366,-0.171875,-0.34619140625,0.15234375,42.83588235294118,333.7625022109432
-0.27195361328125,0.07532275390625,0.8899018554687499,0.9335724917752628,-0.1962890625,-0.52734375,0.01953125,42.60058823529412,333.7625022109432
-0.28562548828125,0.07092822265625,0.8962495117187499,0.9433323484229588,-0.2705078125,-0.6376953125,-0.06396484375,42.64764705882353,333.8166423715552
-0.28220751953125,0.06506884765625,0.8947846679687499,0.9404863853598516,-0.2880859375,-0.873046875,0.05078125,42.93,333.8166423715552
-0.26462939453125,0.06946337890625,0.8781831054687499,0.9198148966992146,-0.2763671875,-1.06640625,0.10400390625,42.60058823529412,333.8166423715552
-0.29490283203125,0.07141650390625,0.8664643554687499,0.9180569027397588,-0.27197265625,-0.76416015625,-0.03466796875,42.83588235294118,333.8166423715552
-0.32810595703125,0.06848681640625,0.8405854492187499,0.9049463301760736,-0.24609375,-0.3701171875,-0.2353515625,42.64764705882353,333.727764486704
-0.35544970703125,0.06458056640625,0.7761323242187499,0.8560937615022972,-0.18505859375,0.298828125,-0.189453125,42.74176470588235,333.727764486704
-0.32712939453125,0.05872119140625,0.7194916992187499,0.7925466070403908,-0.09375,0.65087890625,-0.01806640625,42.64764705882353,333.727764486704
-0.28953173828125,0.05823291015625,0.6550385742187499,0.7185368696260206,0.0146484375,0.61328125,0.00634765625,42.64764705882353,333.727764486704
-0.29539111328125,0.06848681640625,0.5803315429687499,0.65477557498084,0.17236328125,0.3642578125,-0.27685546875,42.93,333.727764486704
-0.30076220703125,0.06995166015625,0.5139252929687499,0.5995584597768089,0.4345703125,0.09326171875,-1.1953125,42.788823529411765,333.70723514676496
-0.34714892578125,0.04309619140625,0.4123627929687499,0.5407520054607177,0.75927734375,0.9345703125,-2.048828125,42.64764705882353,333.70723514676496
-0.33250048828125,-0.03307568359375,0.3054291992187499,0.4527003106779035,1.61376953125,3.263671875,-2.0419921875,42.64764705882353,333.70723514676496
-0.39255908203125,-0.06920849609375,0.1608979492187499,0.4298611390665312,2.43701171875,7.23681640625,-0.78759765625,43.25941176470588,333.70723514676496
-0.37449267578125,-0.03112255859375,-0.0104887695312501,0.375930036248105,3.3876953125,12.7255859375,1.01171875,42.64764705882353,333.3961668694596
-0.24119189453125,0.03284228515625,-0.2800200195312501,0.3710301295314704,4.14794921875,15.99951171875,1.927734375,42.60058823529412,333.3961668694596
0.13673779296875,0.10461962890625,-0.5588286132812501,0.5847494418982297,3.41357421875,15.99951171875,0.1630859375,42.60058823529412,333.3961668694596
0.51076123046875,0.18713916015625,-0.7609770507812501,0.9354058860353978,2.1435546875,15.99951171875,-2.76806640625,42.64764705882353,333.3961668694596
0.74318310546875,0.0172172851562499,-0.96019580078125,1.2143284312739584,0.5810546875,15.99951171875,-4.06298828125,42.64764705882353,333.3961668694596
1.04201123046875,-0.28209912109375,-0.99242236328125,1.4663797140187145,-1.3466796875,11.89013671875,-3.51708984375,43.25941176470588,333.718063144238
1.35206982421875,-0.41686474609375,-0.8522856445312501,1.651744485679543,-1.3525390625,-2.51708984375,-2.095703125,42.93,333.718063144238
1.53126904296875,-0.36461865234375,-0.7722075195312501,1.7532929295505673,-1.037109375,16.0,-1.0634765625,42.788823529411765,333.718063144238
1.45363232421875,-0.19616162109375,-0.4670317382812501,1.5393651159376516,-1.2236328125,16.0,-0.04052734375,42.83588235294118,333.718063144238
1.17531201171875,-0.12243115234375,-0.1291411132812501,1.188707339547508,-1.9345703125,16.0,1.35205078125,42.60058823529412,333.64001359489816
0.87111279296875,-0.08434521484375,0.1828706054687499,0.8940879552288812,-3.234375,16.0,3.31982421875,42.60058823529412,333.64001359489816
0.76515576171875,0.00891650390625,0.5315034179687499,0.9316859594551022,-4.0712890625,16.0,4.921875,42.74176470588235,333.64001359489816
0.79640576171875,0.14856494140625,0.91333935546875,1.2208695496906852,-3.953125,16.0,5.7646484375,42.93,333.64001359489816
0.83790966796875,0.32043994140625,1.26050732421875,1.5471435234434636,-2.8330078125,16.0,5.37255859375,42.60058823529412,333.64001359489816
0.20949169921875,0.54553759765625,1.64234326171875,1.7432123886122124,-1.4521484375,16.0,3.0712890625,42.74176470588235,333.4850425857018
0.65480419921875,0.36243212890625,1.59839794921875,1.764936710322705,-0.8603515625,16.0,1.9873046875,42.97705882352941,333.4850425857018
0.6290880533854166,0.3446912434895833,1.5555919596354169,2.0710507446914046,-0.17529296875,-11.16748046875,0.54931640625,42.788823529411765,333.4850425857018
0.6033719075520834,0.3269503580729166,1.5127859700520834,1.858170451273524,2.53271484375,4.99951171875,-1.56201171875,42.788823529411765,333.4850425857018
0.57765576171875,0.30920947265625,1.46997998046875,1.609390511965984,4.06201171875,15.99951171875,-2.53564453125,41.98882352941177,333.56309104710914
0.61622998046875,0.20276416015625,1.12037060546875,1.2946362373542613,4.576171875,15.99951171875,-2.763671875,42.788823529411765,333.56309104710914
0.58400341796875,0.14758837890625,0.8781831054687499,1.064916845823229,4.4404296875,15.99951171875,-2.322265625,42.93,333.56309104710914
0.63234326171875,0.08362353515625,0.6833588867187499,0.9347888875733522,3.74755859375,15.99951171875,-1.36962890625,43.21235294117647,333.56309104710914
0.87257763671875,0.07825244140625,0.5402924804687499,1.029286714739286,2.49365234375,14.43994140625,-0.58203125,41.84764705882353,333.56309104710914
1.10060498046875,0.06799853515625,0.4611909179687499,1.1952623923778711,0.9501953125,2.92822265625,-0.27001953125,42.224117647058826,333.3506041942759
1.23634716796875,0.07288134765625,0.5022065429687499,1.3364420759543465,-0.330078125,-9.3349609375,-0.27978515625,42.74176470588235,333.3506041942759
1.20509716796875,0.08508837890625,0.6159760742187499,1.356069961499457,-1.42578125,16.0,0.05810546875,42.60058823529412,333.3506041942759
1.06447216796875,0.06213916015625,0.7707612304687499,1.315688088415608,-2.697265625,16.0,0.44970703125,42.64764705882353,333.3506041942759
0.87355419921875,-0.03209912109375,0.98414013671875,1.3163050942879857,-4.04931640625,16.0,-0.4814453125,42.788823529411765,333.28676129656185
0.28322216796875,0.04993212890625,1.23999951171875,1.2729127240265798,-4.75146484375,16.0,-1.85791015625,42.64764705882353,333.28676129656185
0.23292919921875,0.0015922851562499,1.57251904296875,1.589677542056898,-4.32763671875,16.0,0.6669921875,42.60058823529412,333.28676129656185
0.53322216796875,0.06067431640625,1.53931591796875,1.630184268233697,-3.068359375,-11.8642578125,2.3359375,42.60058823529412,333.28676129656185
0.88039013671875,0.17102587890625,1.50904248046875,1.7554332376785489,-1.99951171875,2.6328125,2.09912109375,42.74176470588235,333.28676129656185
1.08595654296875,0.21741259765625,1.50025341796875,1.864760083486129,-1.0712890625,15.32177734375,-0.0966796875,42.74176470588235,333.4514326686163
1.02345654296875,0.17053759765625,1.38990185546875,1.7344663546449623,-0.4765625,15.99951171875,-2.12744140625,42.64764705882353,333.4514326686163
0.90724560546875,0.01233447265625,1.25904248046875,1.551913237098959,-0.3544921875,15.99951171875,-3.16259765625,42.60058823529412,333.4514326686163
0.87892529296875,-0.07995068359375,1.16578076171875,1.4621718663757897,-0.388671875,15.99951171875,-2.73046875,43.02411764705882,333.4514326686163
0.81642529296875,-0.11901318359375,1.10376904296875,1.3780495263539625,-0.65478515625,13.33251953125,-0.62841796875,42.74176470588235,333.2748078234465
0.79347607421875,-0.09166943359375,1.14039013671875,1.3922992599791209,-0.9228515625,3.27392578125,1.49462890625,42.83588235294118,333.2748078234465
0.80568310546875,0.06213916015625,1.31665966796875,1.5448557288362796,-1.25927734375,-6.3388671875,3.3271484375,42.788823529411765,333.2748078234465
0.91212841796875,0.22668994140625,1.47388623046875,1.7480581228226724,-1.1591796875,-13.46142578125,4.330078125,42.74176470588235,333.2748078234465
1.27345654296875,0.33801806640625,1.57154248046875,2.050778766216584,-1.05712890625,16.0,3.9443359375,42.788823529411765,333.2748078234465
1.62941357421875,0.32288134765625,1.50708935546875,2.242890832358956,-1.23046875,-13.54296875,1.81640625,43.21235294117647,333.00818729116384
1.94240185546875,0.24426806640625,1.57398388671875,2.511974747493405,-1.56982421875,-6.9716796875,-1.13037109375,42.83588235294118,333.00818729116384
1.96290966796875,0.10901416015625,1.69751904296875,2.5973966491395384,-1.77392578125,0.7607421875,-2.900390625,42.64764705882353,333.00818729116384
1.76124951171875,-0.03307568359375,1.87037060546875,2.5693150926222086,-1.22705078125,9.48828125,-2.37548828125,41.98882352941177,333.00818729116384
1.67531201171875,-0.12731396484375,1.92359326171875,2.554034106816732,-0.1787109375,15.99951171875,-0.8154296875,42.97705882352941,333.2184176794944
1.75294873046875,-0.14440380859375,1.88501904296875,2.578173482127067,0.49609375,15.99951171875,0.17529296875,42.93,333.2184176794944
1.81300732421875,-0.06041943359375,1.79468701171875,2.5517734099364304,0.779296875,15.99951171875,0.5,42.83588235294118,333.2184176794944
1.89064404296875,-0.01403271484375,1.66236279296875,2.517574600631721,0.83544921875,15.99951171875,0.16259765625,42.93,333.2184176794944
1.84572216796875,0.04553759765625,1.52613232421875,2.39537969122995,0.50634765625,15.99951171875,-0.16064453125,42.60058823529412,333.2184176794944
1.57863232421875,0.14661181640625,1.43921826171875,2.1412436210396457,0.48974609375,15.99951171875,0.13623046875,42.788823529411765,332.9529231480907
1.19044873046875,0.25305712890625,1.36695263671875,1.8302364878335464,0.76416015625,15.99951171875,0.880859375,42.64764705882353,332.9529231480907
0.76222607421875,0.31506884765625,1.33179638671875,1.5665052130968105,0.9951171875,15.99951171875,2.0634765625,42.60058823529412,332.9529231480907
0.42335888671875,0.30627978515625,1.26539013671875,1.3690333275213555,1.16943359375,15.99951171875,2.5234375,42.74176470588235,332.9529231480907
0.24122998046875,0.27307666015625,1.10718701171875,1.1656010658530394,1.115234375,15.99951171875,2.36181640625,42.93,333.0959358329819
0.31349560546875,0.23645556640625,0.91480419921875,0.995518685129002,0.53369140625,15.99951171875,1.80517578125,41.89470588235295,333.0959358329819
0.51320263671875,0.19006884765625,0.7570893554687499,0.9341773950104656,-0.4306640625,15.99951171875,0.78125,42.64764705882353,333.0959358329819
0.65040966796875,0.10120166015625,0.7170502929687499,0.973363053979434,-1.14501953125,15.99951171875,-0.67822265625,42.74176470588235,333.0959358329819
0.55714794921875,0.06360400390625,0.7717377929687499,0.953959395219651,-1.4609375,15.99951171875,-1.357421875,42.74176470588235,333.0959358329819
0.30519482421875,0.05676806640625,0.8649995117187499,0.919016131178933,-1.43017578125,14.9736328125,-1.3017578125,42.788823529411765,333.0645760256241
0.00197216796875,0.04163134765625,1.02369091796875,1.0245389958834532,-1.1103515625,14.44873046875,-1.2392578125,42.64764705882353,333.0645760256241
-0.30076220703125,0.03918994140625,1.06177685546875,1.1042480914608097,-0.91064453125,15.99951171875,-1.17919921875,43.25941176470588,333.0645760256241
-0.41892626953125,0.03235400390625,1.01880810546875,1.1020507958533303,-0.83447265625,15.99951171875,-0.78515625,42.788823529411765,333.0645760256241
-0.40476611328125,0.0157524414062499,0.8454682617187499,0.9374968412985676,-0.84130859375,15.99951171875,-0.42431640625,42.74176470588235,333.1198406959064
-0.41746142578125,0.0211235351562499,0.6062104492187499,0.736350021725273,-0.94482421875,15.99951171875,-0.244140625,42.74176470588235,333.1198406959064
-0.40427783203125,-0.00329052734375,0.3967377929687499,0.5664382308882427,-1.1328125,15.99951171875,-0.01416015625,42.74176470588235,333.1198406959064
-0.41209033203125,-0.00426708984375,0.3435151367187499,0.5365065693579734,-1.04541015625,15.99951171875,-0.5224609375,42.60058823529412,333.1198406959064
-0.27927783203125,0.09680712890625,0.0725190429687498,0.3043464132600379,-0.3115234375,15.99951171875,-1.61083984375,42.74176470588235,333.1198406959064
-0.07517626953125,0.17297900390625,-0.1618559570312501,0.2485368345327016,0.4404296875,15.99951171875,-2.19287109375,42.60058823529412,333.1426216033266
0.23537060546875,0.08460009765625,-0.3967192382812501,0.468980439319838,0.22607421875,15.99951171875,-2.62451171875,42.64764705882353,333.1426216033266
0.49708935546875,-0.01354443359375,-0.5539458007812501,0.7444039422282054,-0.44677734375,15.99951171875,-3.0869140625,42.788823529411765,333.1426216033266
0.64455029296875,-0.09020458984375,-0.8112700195312501,1.040067782783995,-0.6279296875,15.99951171875,-3.09619140625,42.788823529411765,333.1426216033266
0.49855419921875,-0.17809521484375,-1.03539111328125,1.1628881943551912,-0.81982421875,15.99951171875,-2.25634765625,42.60058823529412,333.1317936468793
0.14943310546875,-0.20592724609375,-1.03783251953125,1.0685656845933118,-1.1953125,12.140625,-1.5078125,42.83588235294118,333.1317936468793
-0.33347705078125,-0.14342724609375,-0.8937895507812501,0.9646958481332584,-1.30517578125,6.5703125,-1.1337890625,42.74176470588235,333.1317936468793
-0.76414111328125,-0.11120068359375,-0.7385161132812501,1.0684958037420969,-1.5068359375,5.11181640625,-0.912109375,42.97705882352941,333.1317936468793
-1.05173876953125,-0.08873974609375,-0.5988676757812501,1.213536845327544,-1.49462890625,6.00634765625,-0.4296875,42.60058823529412,333.1317936468793
-1.12449267578125,-0.05700146484375,-0.5202543945312501,1.2403215631073603,-1.59912109375,8.8515625,0.19140625,42.74176470588235,333.1426216033266
-1.00339892578125,-0.05846630859375,-0.4343168945312501,1.0949241427490832,-1.55322265625,12.00732421875,0.208984375,42.64764705882353,333.1426216033266
-0.95164111328125,-0.05260693359375,-0.4157622070312501,1.0398300393548987,-1.3525390625,15.39404296875,-0.38818359375,42.03588235294118,333.1426216033266
-1.12937548828125,-0.03356396484375,-0.3967192382812501,1.1974980948999456,-1.2744140625,15.99951171875,-0.8544921875,42.788823529411765,333.1426216033266
-1.40818408203125,-0.09801708984375,-0.3850004882812501,1.4631524646339604,-1.38037109375,15.99951171875,-0.67724609375,42.60058823529412,332.6418756275022
-1.63718798828125,-0.19616162109375,-0.4304106445312501,1.7041470633394116,-1.63916015625,15.99951171875,-0.28369140625,42.64764705882353,332.6418756275022
-1.70310595703125,-0.21618115234375,-0.4684965820312501,1.7795486053713072,-2.3173828125,15.99951171875,0.72216796875,42.83588235294118,332.6418756275022
-1.62986376953125,-0.12633740234375,-0.4020903320312501,1.683476664992593,-2.09619140625,15.99951171875,1.42529296875,42.64764705882353,332.6418756275022
-1.69968798828125,-0.01989208984375,-0.4426176757812501,1.7564866522862934,-1.298828125,15.99951171875,1.09375,42.64764705882353,332.6418756275022
-2.04929736328125,0.20618212890625,-0.6608793945312501,2.163074739242218,-1.130859375,15.99951171875,0.5791015625,42.93,332.88795518354453
-2.03074267578125,0.30335009765625,-0.95043017578125,2.2625769856565827,-0.7578125,15.99951171875,-1.90234375,42.60058823529412,332.88795518354453
-1.70945361328125,0.29260791015625,-1.15453173828125,2.0834573621135264,0.4892578125,15.99951171875,-4.2998046875,42.64764705882353,332.88795518354453
-1.28123095703125,0.07874072265625,-1.32494189453125,1.8447828843914664,1.08203125,15.99951171875,-5.23583984375,42.788823529411765,332.88795518354453
-0.37791064453125,-0.29381787109375,-1.40209033203125,1.4815541487909207,0.095703125,15.99951171875,-6.10302734375,42.60058823529412,332.7210404588004
0.44386669921875,-0.50914990234375,-1.41625048828125,1.5690814877784,-1.109375,15.99951171875,-5.2353515625,42.93,332.7210404588004
1.30324169921875,-0.56432568359375,-1.41380908203125,2.003935758496308,-1.35205078125,15.99951171875,-3.41748046875,42.788823529411765,332.7210404588004
1.70167919921875,-0.39000927734375,-1.80882861328125,2.513897429429636,-0.8583984375,15.99951171875,-2.4580078125,43.25941176470588,332.7210404588004
1.43703076171875,-0.25280224609375,-2.46654345703125,2.8657988434605257,-0.2646484375,9.939453125,-1.6181640625,43.21235294117647,332.7210404588004
1.05910107421875,-0.23913037109375,-2.65794970703125,2.871162667787782,-0.251953125,-0.517578125,1.31005859375,42.97705882352941,332.7307454133979
1.17580029296875,-0.18346630859375,-2.28343798828125,2.5749282051467643,0.2666015625,-13.05859375,3.822265625,42.74176470588235,332.7307454133979
1.07619091796875,0.0289360351562499,-2.02025439453125,2.289203355901745,-0.89208984375,16.0,5.171875,42.03588235294118,332.7307454133979
0.75734326171875,0.26526416015625,-1.50707080078125,1.7073945909782056,-2.23046875,16.0,4.52685546875,42.64764705882353,332.7307454133979
0.18165966796875,0.30237353515625,-1.07494189453125,1.1313399428765156,-3.21142578125,16.0,3.34375,42.83588235294118,333.0212641776939
-0.35691455078125,0.30090869140625,-0.5461333007812501,0.7184675492640059,-4.18701171875,16.0,2.8134765625,42.74176470588235,333.0212641776939
-0.82029345703125,0.35266650390625,-0.0231840820312501,0.8931923198759425,-4.17626953125,16.0,2.77490234375,42.74176470588235,333.0212641776939
-1.32712939453125,0.29895556640625,-0.0539458007812501,1.3614540058099995,-3.21923828125,16.0,2.1416015625,42.74176470588235,333.0212641776939
-1.36228564453125,0.22083056640625,-0.0871489257812501,1.382817143233354,-2.6845703125,16.0,1.01171875,42.83588235294118,333.0212641776939
-0.90378955078125,-0.01305615234375,-0.0100004882812501,0.9039391710625556,-3.3779296875,-3.515625,-3.1103515625,41.89470588235295,332.7102124740581
-1.39793017578125,0.07434619140625,-0.1193754882812501,1.4049863485951732,-2.72705078125,15.99951171875,-5.400390625,42.74176470588235,332.7102124740581
-1.76316455078125,0.03430712890625,-0.3278715820312501,1.7937184802886743,0.47412109375,15.99951171875,-4.80419921875,42.93,332.7102124740581
-1.26365283203125,0.0289360351562499,-0.4147856445312501,1.3303018097185189,3.1865234375,15.99951171875,-3.951171875,42.93,332.7102124740581
-0.04587939453125,0.0167290039062499,-0.4518950195312501,0.4545260026570519,4.8818359375,15.99951171875,-1.90771484375,42.788823529411765,332.8099114274941
1.81251904296875,0.09729541015625,-0.5886137695312501,1.9081818172395453,4.3203125,15.99951171875,-2.51611328125,42.93,332.8099114274941
2.23195263671875,0.14612353515625,-1.45921923828125,2.670633903299449,3.8125,15.99951171875,-3.68017578125,42.74176470588235,332.8099114274941
1.80665966796875,-0.27184521484375,-2.35130908203125,2.977679192918713,1.42626953125,12.349609375,-1.15771484375,42.74176470588235,332.8099114274941
1.58839794921875,-0.41930615234375,-2.36498095703125,2.879576465662285,-0.21826171875,-12.228515625,1.23388671875,42.74176470588235,332.8099114274941
1.37990185546875,-0.30944287109375,-1.82933642578125,2.312218800175918,-1.25390625,16.0,2.7373046875,42.64764705882353,332.89878314361727
0.45949169921875,-0.19469677734375,-1.19994189453125,1.2995768569077482,-2.14306640625,16.0,3.119140625,42.74176470588235,332.89878314361727
-0.50779345703125,-0.16002880859375,-0.7453520507812501,0.9159765794972587,-3.134765625,16.0,2.13330078125,42.83588235294118,332.89878314361727
-1.08738330078125,-0.06969677734375,0.0647065429687498,1.0915342506275272,-4.583984375,16.0,1.44970703125,42.60058823529412,332.89878314361727
-1.49021533203125,-0.03893505859375,0.2956635742187499,1.5197613706528117,-3.33251953125,16.0,2.66015625,43.21235294117647,332.67885240213405
-1.49558642578125,-0.09655224609375,0.3098237304687499,1.5303894397075717,-2.16552734375,16.0,2.95166015625,42.788823529411765,332.67885240213405
-1.40134814453125,0.04602587890625,0.4519135742187499,1.4731330158113471,-1.34033203125,16.0,1.296875,42.60058823529412,332.67885240213405
-1.30271533203125,0.14807666015625,0.5979096679687499,1.4410030897409,0.31787109375,2.7529296875,-0.69189453125,42.60058823529412,332.67885240213405
-1.29392626953125,0.01184619140625,0.3274018554687499,1.3347574679312606,1.54931640625,15.99951171875,-1.20751953125,42.788823529411765,332.67885240213405
-1.35642626953125,0.01526416015625,0.1359956054687499,1.3633121520644311,2.17626953125,15.99951171875,-1.8994140625,42.64764705882353,332.7221640170642
-1.21335986328125,0.0181938476562499,-0.0998442382812501,1.217596832220089,2.806640625,15.99951171875,-2.57763671875,42.83588235294118,332.7221640170642
-0.85496142578125,-0.06237255859375,-0.3503325195312501,0.9260573685687904,3.1201171875,15.99951171875,-2.7373046875,42.74176470588235,332.7221640170642
-0.27146533203125,-0.15368115234375,-0.6257231445312501,0.6991714930420257,2.88037109375,15.99951171875,-2.05322265625,42.60058823529412,332.7221640170642
0.19289013671875,-0.25622021484375,-1.15062548828125,1.1944850010027002,1.65185546875,15.99951171875,-0.693359375,42.788823529411765,332.6777286014795
0.64357373046875,-0.12194287109375,-1.64183642578125,1.767677589206301,0.9208984375,15.99951171875,-0.87451171875,41.98882352941177,332.6777286014795
0.91994091796875,-0.14000927734375,-1.76927783203125,1.9990592630566768,0.08544921875,2.58740234375,-0.13134765625,42.74176470588235,332.6777286014795
0.77931591796875,-0.12487255859375,-1.62230517578125,1.8041065764682136,-0.66015625,-13.5908203125,0.67236328125,42.74176470588235,332.6777286014795
0.21876904296875,-0.06676708984375,-1.39330126953125,1.4119511911270373,-1.20703125,16.0,1.38134765625,42.83588235294118,332.6777286014795
-0.34128955078125,0.0006157226562499,-1.02806689453125,1.0832361128664356,-1.28662109375,16.0,1.90478515625,42.64764705882353,332.84351922588513
-0.68992236328125,0.05139697265625,-0.6999418945312501,0.984150990384,-1.5625,16.0,1.88427734375,42.788823529411765,332.84351922588513
-0.93748095703125,0.08606494140625,-0.5226958007812501,1.0767955326290326,-1.42333984375,16.0,2.51904296875,42.83588235294118,332.84351922588513
-0.94822314453125,0.0304008789062499,-0.4538481445312501,1.051679363474183,-1.1015625,16.0,2.2373046875,42.93,332.84351922588513
-0.89890673828125,0.0211235351562499,-0.3405668945312501,0.9614912051160908,-0.748046875,-10.7548828125,1.60546875,42.60058823529412,332.5899817084745
-0.89109423828125,0.01135791015625,-0.2839262695312501,0.9353031969105476,0.20751953125,-1.34765625,0.873046875,43.16529411764706,332.5899817084745
-0.92722705078125,-0.00280224609375,-0.3425200195312501,0.9884724680350752,0.630859375,7.53125,0.22802734375,42.64764705882353,332.5899817084745
-0.90281298828125,0.01282275390625,-0.4245512695312501,0.9977371874835862,0.953125,15.013671875,-0.00244140625,42.93,332.5899817084745
-0.77878955078125,0.00549853515625,-0.5700590820312501,0.965148048384929,1.08642578125,15.99951171875,-0.51123046875,42.60058823529412,332.5899817084745
-0.55955126953125,-0.00573193359375,-0.7180083007812501,0.91031115465402,0.9892578125,15.99951171875,-0.94775390625,42.64764705882353,332.7329919548187
-0.32322314453125,-0.03551708984375,-0.8581450195312501,0.9176859699145062,0.86767578125,15.99951171875,-1.25146484375,42.74176470588235,332.7329919548187
-0.20798876953125,-0.09899365234375,-0.91234423828125,0.940973474961156,0.4892578125,15.99951171875,-0.70166015625,43.25941176470588,332.7329919548187
-0.02195361328125,-0.12975537109375,-1.22728564453125,1.234321056587898,-0.34033203125,10.0029296875,-0.70556640625,42.83588235294118,332.7329919548187
0.06300732421875,-0.10338818359375,-1.25511767578125,1.2609438605546834,-0.56982421875,1.3193359375,-0.41162109375,42.60058823529412,332.74606814205816
-0.0058403320312499,-0.07799755859375,-1.15843798828125,1.1610754933758314,-0.91650390625,-7.19775390625,0.22412109375,42.83588235294118,332.74606814205816
-0.29441455078125,-0.02819287109375,-1.03246142578125,1.073988529463181,-1.0205078125,-13.048828125,0.88330078125,42.74176470588235,332.74606814205816
-0.58152392578125,0.0221000976562499,-0.8683989257812501,1.045358878505598,-1.2275390625,16.0,1.5751953125,42.97705882352941,332.74606814205816
-0.77683642578125,0.06165087890625,-0.6877348632812501,1.03935311875367,-1.14794921875,16.0,1.73193359375,42.83588235294118,332.74606814205816
-0.91843798828125,0.04993212890625,-0.5622465820312501,1.078027260704034,-0.73974609375,16.0,2.080078125,41.89470588235295,332.6777286014795
-0.88718798828125,0.0225883789062499,-0.4592192382812501,0.9992472517949476,-0.3330078125,-13.2236328125,1.99365234375,42.788823529411765,332.6777286014795
-0.86033251953125,0.03186572265625,-0.4094145507812501,0.9533140840430328,0.1455078125,-8.671875,1.05029296875,42.74176470588235,332.6777286014795
-0.90085986328125,0.03967822265625,-0.3986723632812501,0.9859323038974472,0.38916015625,-3.24755859375,0.45068359375,42.74176470588235,332.6777286014795
-1.01316455078125,0.05090869140625,-0.4435942382812501,1.1071901146852745,0.50537109375,2.43798828125,0.4365234375,42.93,332.59968628712164
-1.03025439453125,0.06213916015625,-0.4767973632812501,1.136934966613231,0.845703125,7.669921875,0.61865234375,42.60058823529412,332.59968628712164
-0.88669970703125,0.03674853515625,-0.5168364257812501,1.0269891510136668,1.16845703125,11.046875,0.4677734375,42.788823529411765,332.59968628712164
-0.72214892578125,0.00745166015625,-0.5754301757812501,0.923403749963004,1.478515625,12.0556640625,0.3173828125,42.83588235294118,332.59968628712164
-0.58884814453125,-0.00524365234375,-0.6511137695312501,0.8779059027486898,1.59375,11.0224609375,0.52490234375,42.64764705882353,332.59968628712164
-0.58640673828125,-0.02477490234375,-0.7653715820312501,0.9645104027789516,1.26123046875,7.82666015625,1.83154296875,42.788823529411765,332.8902045674133
-0.56003955078125,-0.04528271484375,-0.8640043945312501,1.0306301065232846,0.45166015625,3.8388671875,2.6552734375,41.98882352941177,332.8902045674133
-0.50388720703125,-0.00573193359375,-0.8708403320312501,1.0061302382717532,0.04248046875,-0.03515625,2.37255859375,42.93,332.8902045674133
-0.59324267578125,0.0162407226562499,-0.8464262695312501,1.0337495166591777,-0.07763671875,-3.06982421875,2.0517578125,42.93,332.8902045674133
-0.68894580078125,0.0172172851562499,-0.8058989257812501,1.060384755594705,-0.06103515625,-4.9384765625,2.10791015625,42.64764705882353,332.86517517197404
-0.73728564453125,0.03235400390625,-0.7468168945312501,1.0499392254592297,0.0048828125,-5.34912109375,2.068359375,42.788823529411765,332.86517517197404
-0.75535205078125,0.03479541015625,-0.7209379882812501,1.044757878235143,0.35205078125,-4.30712890625,1.8798828125,42.64764705882353,332.86517517197404
-0.72214892578125,0.03723681640625,-0.7067778320312501,1.0111481371954756,0.630859375,-2.09619140625,1.4296875,43.21235294117647,332.86517517197404
-0.65134814453125,0.0235649414062499,-0.7248442382812501,0.9747865826001648,0.9208984375,1.12744140625,0.6943359375,42.74176470588235,332.86517517197404
-0.58005908203125,0.0035454101562499,-0.7536528320312501,0.9510382220546324,1.16943359375,4.55419921875,0.00244140625,42.93,332.76659961950736
-0.53123095703125,-0.01452099609375,-0.8107817382812501,0.9694246830807736,1.27294921875,6.6806640625,-0.04296875,43.25941176470588,332.76659961950736
-0.44431689453125,-0.03258740234375,-0.8854887695312501,0.9912465901698602,1.17041015625,7.17919921875,0.1787109375,43.21235294117647,332.76659961950736
-0.32664111328125,-0.05407177734375,-0.95384814453125,1.0096754215174473,0.935546875,5.9130859375,0.1533203125,42.64764705882353,332.76659961950736
-0.23337939453125,-0.06676708984375,-1.01390673828125,1.042559667362065,0.650390625,3.33349609375,-0.33837890625,42.64764705882353,332.67885240213405
-0.22703173828125,-0.08141552734375,-1.03587939453125,1.063587334587102,0.42919921875,-0.44921875,-0.779296875,43.16529411764706,332.67885240213405
-0.33835986328125,-0.13756787109375,-1.03050830078125,1.0933250542341155,0.02783203125,-4.3515625,-0.6005859375,42.93,332.67885240213405
-0.47703173828125,-0.15123974609375,-0.93919970703125,1.06420337803153,-0.49951171875,-7.41015625,-0.2060546875,43.25941176470588,332.67885240213405
-0.59421923828125,-0.10485302734375,-0.7834379882812501,0.9888709430299134,-0.673828125,-10.15478515625,-0.0029296875,42.60058823529412,332.67885240213405
-0.75974658203125,-0.08629833984375,-0.6721098632812501,1.018034351428229,-0.71337890625,-11.52587890625,0.3740234375,42.788823529411765,332.6332933727436
-0.86765673828125,-0.08776318359375,-0.5549223632812501,1.0336679453040107,-0.6494140625,-11.74755859375,0.76220703125,42.74176470588235,332.6332933727436
-0.93064501953125,-0.09264599609375,-0.5031645507812501,1.062006590437847,-0.45947265625,-9.93798828125,1.09912109375,42.64764705882353,332.6332933727436
-0.97556689453125,-0.07360302734375,-0.4587309570312501,1.0805472050208258,-0.2646484375,-6.5185546875,1.171875,41.98882352941177,332.6332933727436
-0.99607470703125,-0.06090771484375,-0.4582426757812501,1.098116989041713,0.01904296875,-1.8857421875,1.1474609375,42.74176470588235,332.8229877088663
-1.01121142578125,-0.03893505859375,-0.5026762695312501,1.129932705238724,0.31298828125,3.482421875,1.09716796875,42.60058823529412,332.8229877088663
-0.94675830078125,-0.03258740234375,-0.5744536132812501,1.1078854510740708,0.5361328125,8.853515625,1.037109375,42.60058823529412,332.8229877088663
-0.80564501953125,-0.01549755859375,-0.6725981445312501,1.0496153275580322,0.7470703125,13.2919921875,0.79833984375,42.83588235294118,332.8229877088663
-0.60544970703125,0.0015922851562499,-0.7961333007812501,1.0002000378569749,0.84765625,15.99951171875,0.6259765625,42.60058823529412,332.8229877088663
-0.37986376953125,0.00696337890625,-0.90697314453125,0.983333746471251,0.90673828125,15.99951171875,0.44873046875,43.02411764705882,332.9335160045705
-0.12791064453125,-0.01012646484375,-1.04369189453125,1.0515495466143578,0.6279296875,14.693359375,0.43115234375,42.93,332.9335160045705
0.06056591796875,0.01135791015625,-1.18529345703125,1.1868941872903442,0.26025390625,10.07177734375,0.28076171875,42.64764705882353,332.9335160045705
0.15724560546875,0.0162407226562499,-1.27123095703125,1.2810222822520376,-0.19189453125,4.1005859375,0.48486328125,42.17705882352941,332.9335160045705
0.12941357421875,0.0211235351562499,-1.27806689453125,1.2847758807770029,-0.93359375,-2.81591796875,0.94921875,42.03588235294118,332.74606814205816
-0.02000048828125,0.06311572265625,-1.17113330078125,1.173003334256427,-1.45947265625,-8.7255859375,1.091796875,42.27117647058824,332.74606814205816
-0.25144580078125,0.09094775390625,-1.13988330078125,1.1708246769141286,-1.544921875,-12.5986328125,0.8857421875,42.60058823529412,332.74606814205816
-0.48191455078125,0.10510791015625,-0.8547270507812501,0.9868371893931248,-1.60400390625,-14.29541015625,0.51318359375,42.60058823529412,332.74606814205816
-0.68259814453125,0.11877978515625,-0.7336333007812501,1.009092009825894,-1.6328125,-14.00634765625,0.42138671875,42.93,332.74606814205816
-0.79636767578125,0.10217822265625,-0.6218168945312501,1.0155284902645068,-1.4853515625,-12.18359375,0.67333984375,42.74176470588235,332.75802072405105
-0.80857470703125,0.09241259765625,-0.5441801757812501,0.9790123639513242,-1.31787109375,-8.9150390625,0.73974609375,42.93,332.75802072405105
-0.81638720703125,0.12073291015625,-0.4870512695312501,0.9582710715403469,-0.98291015625,-5.00341796875,0.47802734375,42.83588235294118,332.75802072405105
-0.85691455078125,0.13733447265625,-0.4758208007812501,0.9897316500832496,-0.52001953125,-0.69775390625,0.029296875,42.788823529411765,332.75802072405105
-0.90085986328125,0.12903369140625,-0.5036528320312501,1.040127089351169,-0.07421875,4.07861328125,-0.48876953125,42.60058823529412,332.48057951673974
-0.88572314453125,0.10608447265625,-0.5715239257812501,1.0594333399688214,0.3642578125,8.1845703125,-0.91455078125,41.84764705882353,332.48057951673974
-0.81199267578125,0.07336962890625,-0.6638090820312501,1.051359931400948,0.63037109375,11.3955078125,-0.9736328125,42.93,332.48057951673974
-0.68357470703125,0.05090869140625,-0.7648833007812501,1.02708935286448,0.830078125,13.20703125,-0.8125,42.788823529411765,332.48057951673974
-0.53709033203125,0.0255180664062499,-0.8884184570312501,1.038462590211289,0.85791015625,13.02880859375,-0.58349609375,42.74176470588235,332.48057951673974
-0.41209033203125,0.01184619140625,-0.98851611328125,1.0710382253781274,0.73876953125,10.55810546875,0.18896484375,42.03588235294118,332.9693759330008
-0.25730517578125,0.0172172851562499,-1.09740283203125,1.1272955974996886,0.3037109375,6.6484375,0.42529296875,42.64764705882353,332.9693759330008
-0.16355517578125,0.04993212890625,-1.11595751953125,1.128983923012319,0.013671875,1.81201171875,0.5615234375,42.74176470588235,332.9693759330008
-0.16941455078125,0.06751025390625,-1.08666064453125,1.1018576499584558,-0.31298828125,-3.05322265625,0.70166015625,42.74176470588235,332.9693759330008
-0.25925830078125,0.08997119140625,-1.01634814453125,1.0527455688337786,-0.53857421875,-6.69140625,0.61767578125,42.64764705882353,332.5802777185405
-0.39304736328125,0.12659228515625,-0.90111376953125,0.9912203902675948,-0.65966796875,-8.89111328125,0.39501953125,42.83588235294118,332.5802777185405
-0.54929736328125,0.14758837890625,-0.8185942382812501,0.9967980988360524,-0.740234375,-9.38525390625,0.2041015625,42.60058823529412,332.5802777185405
-0.66941455078125,0.14710009765625,-0.7238676757812501,0.9968644298845706,-0.69970703125,-8.61962890625,0.2392578125,43.02411764705882,332.5802777185405
-0.71824267578125,0.13440478515625,-0.6833403320312501,1.000445499248653,-0.6015625,-6.5927734375,0.01123046875,42.83588235294118,332.5802777185405
-0.74412158203125,0.13733447265625,-0.6447661132812501,0.9941333044719256,-0.453125,-3.96533203125,-0.23486328125,42.788823529411765,332.56944991070054
-0.75242236328125,0.12073291015625,-0.6413481445312501,0.9960137001337962,-0.22314453125,-0.75830078125,-0.32080078125,41.84764705882353,332.56944991070054
-0.74656298828125,0.10120166015625,-0.6516020507812501,0.996083984447166,-0.02001953125,2.03515625,-0.3603515625,42.74176470588235,332.56944991070054
-0.71482470703125,0.10950244140625,-0.7111723632812501,1.0142639088281116,0.1845703125,4.07763671875,-0.4228515625,42.64764705882353,332.56944991070054
-0.66257861328125,0.09045947265625,-0.6506254882812501,0.933009571747346,0.24267578125,5.1025390625,-0.52978515625,42.74176470588235,332.32561969064403
-0.59910205078125,0.07043994140625,-0.8332426757812501,1.028677991083076,0.20654296875,5.10986328125,-0.466796875,42.83588235294118,332.32561969064403
-0.52293017578125,0.05920947265625,-0.8879301757812501,1.03217330301542,0.1259765625,3.9140625,-0.232421875,42.93,332.32561969064403
-0.44138720703125,0.04211962890625,-0.92552783203125,1.0262545968396506,-0.03369140625,1.76171875,-0.21435546875,42.788823529411765,332.32561969064403
-0.40964892578125,0.04846728515625,-0.92699267578125,1.0146313325914154,-0.07568359375,-0.64599609375,-0.3896484375,42.788823529411765,332.32561969064403
-0.43308642578125,0.04260791015625,-0.91869189453125,1.0165500889190255,-0.15771484375,-3.06494140625,-0.51171875,42.74176470588235,332.71358469238805
-0.50925830078125,0.03186572265625,-0.8928129882812501,1.0283357784491924,-0.38720703125,-4.373046875,-0.419921875,42.788823529411765,332.71358469238805
-0.58152392578125,0.03284228515625,-0.8381254882812501,1.0206385383949623,-0.54736328125,-4.64599609375,-0.240234375,43.25941176470588,332.71358469238805
-0.64500048828125,0.03723681640625,-0.7985747070312501,1.0271970468654836,-0.60498046875,-3.83251953125,-0.16162109375,42.93,332.71358469238805
-0.65867236328125,0.04456103515625,-0.7580473632812501,1.0052217531382612,-0.5068359375,-2.46728515625,-0.28369140625,42.64764705882353,332.6571966763096
-0.62986376953125,0.04749072265625,-0.7399809570312501,0.9729108662541566,-0.2607421875,-0.57763671875,-0.6201171875,42.60058823529412,332.6571966763096
-0.58103564453125,0.04895556640625,-0.7297270507812501,0.9340774252383488,-0.00244140625,0.85986328125,-0.91845703125,42.64764705882353,332.6571966763096
-0.56199267578125,0.03870166015625,-0.7712309570312501,0.955055378087552,0.181640625,1.7197265625,-0.935546875,42.788823529411765,332.6571966763096
-0.54587939453125,0.0025688476562499,-0.8083403320312501,0.9753999204123798,0.1767578125,1.9853515625,-1.05859375,42.74176470588235,332.6571966763096
-0.53367236328125,0.0006157226562499,-0.8430083007812501,0.9977322113827308,0.1591796875,1.6025390625,-1.328125,42.788823529411765,332.8024569425825
-0.52293017578125,-0.01354443359375,-0.8693754882812501,1.0146197120341427,0.22412109375,0.7666015625,-1.53857421875,42.64764705882353,332.8024569425825
-0.52976611328125,-0.03844677734375,-0.8820708007812501,1.0296500313505157,0.06640625,-0.25537109375,-1.55126953125,42.74176470588235,332.8024569425825
-0.54783251953125,-0.05065380859375,-0.8596098632812501,1.0205956078836609,0.0322265625,-1.6123046875,-1.36376953125,42.788823529411765,332.8024569425825
-0.56541064453125,-0.05456005859375,-0.8239653320312501,1.000792118939975,0.00341796875,-2.66064453125,-1.14794921875,42.788823529411765,332.74719294087566
-0.61082080078125,-0.05065380859375,-0.7731840820312501,0.9866516526609616,0.00830078125,-3.26904296875,-0.96337890625,42.93,332.74719294087566
-0.64304736328125,-0.03795849609375,-0.7282622070312501,0.9722739331272306,0.04443359375,-3.2158203125,-0.791015625,42.64764705882353,332.74719294087566
-0.68894580078125,-0.01549755859375,-0.6994536132812501,0.9818970658214032,0.1455078125,-2.59130859375,-0.53173828125,42.788823529411765,332.74719294087566
-0.72214892578125,0.00501025390625,-0.6911528320312501,0.9996081286564428,0.2412109375,-1.46240234375,-0.36376953125,43.21235294117647,332.74719294087566
-0.73093798828125,0.0181938476562499,-0.6989653320312501,1.0115106989976603,0.3720703125,0.00927734375,-0.44140625,42.64764705882353,332.68110136518
-0.71628955078125,0.0167290039062499,-0.7458403320312501,1.0342283988629328,0.326171875,1.84228515625,-0.6455078125,43.25941176470588,332.68110136518
-0.69919970703125,-0.01598583984375,-0.7946684570312501,1.0585998932498168,0.23291015625,3.0986328125,-0.79638671875,42.83588235294118,332.68110136518
-0.67283251953125,-0.05309521484375,-0.8508208007812501,1.086010467822535,-0.0126953125,3.46337890625,-0.7275390625,42.93,332.68110136518
-0.61033251953125,-0.09557568359375,-0.8864653320312501,1.0804912218917146,-0.220703125,2.87744140625,-0.66552734375,42.83588235294118,332.41448898816725
-0.52488330078125,-0.09313427734375,-0.8708403320312501,1.0210481658313972,-0.29248046875,1.412109375,-0.67041015625,43.21235294117647,332.41448898816725
-0.46775439453125,-0.06090771484375,-0.8454497070312501,0.968136937860554,-0.21533203125,-0.279296875,-0.50341796875,42.60058823529412,332.41448898816725
-0.47117236328125,-0.03795849609375,-0.8200590820312501,0.9465416743956252,-0.162109375,-1.93212890625,-0.369140625,42.74176470588235,332.41448898816725
-0.55662158203125,-0.02282177734375,-0.7912504882812501,0.96769093945816,-0.16650390625,-2.72998046875,0.0712890625,42.93,332.41448898816725
-0.65769580078125,-0.00768505859375,-0.7775786132812501,1.0184553629508124,-0.19580078125,-2.6767578125,0.2978515625,42.64764705882353,332.73636517131155
-0.73044970703125,0.01477587890625,-0.7546293945312501,1.0503526189761667,-0.21435546875,-2.1044921875,0.427734375,42.74176470588235,332.73636517131155
-0.70554736328125,0.03381884765625,-0.7355864257812501,1.019817721989354,-0.12548828125,-1.03369140625,0.3388671875,42.64764705882353,332.73636517131155
-0.66453173828125,0.03528369140625,-0.7346098632812501,0.9912108863871746,0.01806640625,0.0771484375,0.05908203125,42.60058823529412,332.73636517131155
-0.63181689453125,0.0201469726562499,-0.7424223632812501,0.9750843318515792,0.19970703125,0.94677734375,-0.26220703125,42.64764705882353,332.7927546298352
-0.61082080078125,0.0201469726562499,-0.7673247070312501,0.98096644040194,0.322265625,1.48193359375,-0.525390625,42.97705882352941,332.7927546298352
-0.59714892578125,0.0162407226562499,-0.7922270507812501,0.9922067831977645,0.380859375,1.53125,-0.580078125,42.60058823529412,332.7927546298352
-0.58738330078125,0.0196586914062499,-0.8200590820312501,1.0089115442923722,0.3095703125,1.16259765625,-0.43310546875,42.93,332.7927546298352
-0.57712939453125,0.0304008789062499,-0.8259184570312501,1.0080396069278037,0.1513671875,0.41943359375,-0.0869140625,42.64764705882353,332.7927546298352
-0.57029345703125,0.03674853515625,-0.8278715820312501,1.0059604556361592,-0.03466796875,-0.4130859375,0.19140625,41.84764705882353,332.5272634644042
-0.58005908203125,0.04797900390625,-0.8205473632812501,1.006016152380559,-0.203125,-0.90478515625,0.25439453125,42.788823529411765,332.5272634644042
-0.60837939453125,0.05090869140625,-0.8054106445312501,1.010645085514767,-0.3681640625,-1.072265625,0.220703125,42.64764705882353,332.5272634644042
-0.63084033203125,0.04797900390625,-0.7839262695312501,1.007373766481099,-0.3544921875,-1.01416015625,0.15869140625,42.83588235294118,332.5272634644042
-0.65281298828125,0.05139697265625,-0.7712309570312501,1.0117329862914723,-0.3154296875,-0.7080078125,0.1962890625,42.788823529411765,332.3723020633613
-0.64646533203125,0.04797900390625,-0.7639067382812501,1.001884681550531,-0.2412109375,-0.2939453125,0.248046875,42.93,332.3723020633613
-0.62693408203125,0.04651416015625,-0.7648833007812501,0.9900789736790836,-0.162109375,0.21533203125,0.21875,42.788823529411765,332.3723020633613
-0.61033251953125,0.04016650390625,-0.7697661132812501,0.9831881821856572,-0.00146484375,0.69384765625,0.15966796875,42.93,332.3723020633613
-0.58982470703125,0.03674853515625,-0.7868559570312501,0.9840660226713422,-0.02001953125,0.9365234375,0.02587890625,42.93,332.3723020633613
-0.58494189453125,0.03235400390625,-0.8019926757812501,0.993174734653144,0.07421875,0.888671875,-0.00537109375,42.64764705882353,332.6833521438865
-0.57712939453125,0.01526416015625,-0.8312895507812501,1.0121035766439004,0.1220703125,0.59765625,0.03955078125,43.21235294117647,332.6833521438865
-0.56638720703125,0.00403369140625,-0.8288481445312501,1.0038924173674773,0.1103515625,0.14453125,0.07177734375,42.788823529411765,332.6833521438865
-0.55515673828125,-0.00182568359375,-0.8395903320312501,1.006535773244054,0.07568359375,-0.326171875,0.06787109375,42.788823529411765,332.6833521438865
-0.56052783203125,-0.01305615234375,-0.8308012695312501,1.0022937009930837,0.06396484375,-0.76513671875,0.03466796875,42.83588235294118,332.6594458817463
-0.57859423828125,-0.00622021484375,-0.8190825195312501,1.0028490202650762,0.06103515625,-1.0146484375,0.052734375,42.74176470588235,332.6594458817463
-0.59861376953125,-0.00768505859375,-0.7995512695312501,0.9988391951695906,0.03173828125,-1.1015625,0.17724609375,42.788823529411765,332.6594458817463
-0.60691455078125,-0.00475537109375,-0.7868559570312501,0.9937354691364348,0.03515625,-0.9765625,0.2734375,42.74176470588235,332.6594458817463
-0.61033251953125,0.00549853515625,-0.7770903320312501,0.9881322798202004,0.0341796875,-0.74169921875,0.2421875,42.788823529411765,332.6594458817463
-0.61814501953125,0.01379931640625,-0.7736723632812501,0.990385082687418,0.060546875,-0.39990234375,0.1552734375,42.74176470588235,332.593354564768
-0.62107470703125,0.01086962890625,-0.7707426757812501,0.9898970718296696,0.06298828125,-0.07275390625,0.12841796875,42.788823529411765,332.593354564768
-0.62009814453125,0.00745166015625,-0.7814848632812501,0.9976451411338088,0.09619140625,0.15869140625,0.1318359375,42.60058823529412,332.593354564768
-0.60935595703125,0.01379931640625,-0.7844145507812501,0.9933837581620212,0.072265625,0.15869140625,0.15234375,42.74176470588235,332.593354564768
-0.59910205078125,0.01038134765625,-0.7936918945312501,0.9944736613274704,0.03076171875,0.037109375,0.10498046875,42.74176470588235,332.40478515649687
-0.59470751953125,0.0186821289062499,-0.7897856445312501,0.9888313405405008,-0.0009765625,-0.13037109375,0.0302734375,42.74176470588235,332.40478515649687
-0.59763720703125,0.01331103515625,-0.7951567382812501,0.9947972925772972,-0.00341796875,-0.337890625,-0.05810546875,43.02411764705882,332.40478515649687
-0.62107470703125,0.01282275390625,-0.7917387695312501,1.006354059916564,-0.05078125,-0.45751953125,-0.0419921875,42.64764705882353,332.40478515649687
-0.62742236328125,0.0206352539062499,-0.7819731445312501,1.0027794545249198,-0.08349609375,-0.47900390625,0.00439453125,43.16529411764706,332.40478515649687
-0.63425830078125,0.0279594726562499,-0.7717192382812501,0.9993077138472048,-0.08203125,-0.322265625,0.0166015625,42.45941176470589,332.4936556367935
-0.62888720703125,0.0255180664062499,-0.7722075195312501,0.9962202287151602,-0.064453125,-0.03759765625,0.00537109375,42.93,332.4936556367935
-0.63084033203125,0.0240532226562499,-0.7722075195312501,0.9974179340968634,-0.03369140625,0.23974609375,0.03125,42.93,332.4936556367935
-0.62107470703125,0.0235649414062499,-0.7726958007812501,0.9916389961686716,-0.0498046875,0.37255859375,0.0419921875,43.25941176470588,332.4936556367935
-0.60740283203125,0.0264946289062499,-0.7722075195312501,0.9828248159977792,-0.07177734375,0.3837890625,0.04443359375,42.788823529411765,332.8383173826528
-0.60496142578125,0.0211235351562499,-0.7829497070312501,0.9896639703258376,-0.0703125,0.3583984375,0.01220703125,42.64764705882353,332.8383173826528
-0.61082080078125,0.01184619140625,-0.7936918945312501,1.0015933338249043,-0.03173828125,0.314453125,-0.0126953125,42.64764705882353,332.8383173826528
-0.60398486328125,0.0167290039062499,-0.8015043945312501,1.003736454004472,-0.00341796875,0.23779296875,-0.0244140625,43.02411764705882,332.8383173826528
-0.60154345703125,0.01379931640625,-0.7941801757812501,0.9963769886114012,0.00927734375,0.15234375,0.009765625,43.25941176470588,332.8383173826528
-0.60935595703125,0.01184619140625,-0.8015043945312501,1.0069082922854544,0.02001953125,0.1015625,0.06201171875,42.60058823529412,332.7050074393696
-0.62302783203125,0.0172172851562499,-0.8024809570312501,1.0160884807887067,-0.05712890625,-0.05322265625,0.224609375,42.93,332.7050074393696
-0.58347705078125,0.01428759765625,-0.7839262695312501,0.977338222058441,-0.02001953125,-0.18212890625,0.1953125,42.788823529411765,332.7050074393696
-0.55906298828125,0.00745166015625,-0.7883208007812501,0.9664660558185356,0.0009765625,-0.19580078125,0.1181640625,42.93,332.7050074393696
-0.57957080078125,0.00598681640625,-0.7897856445312501,0.9796425467467936,0.03662109375,-0.0927734375,0.06005859375,42.93,332.6053074112928
-0.60691455078125,0.00647509765625,-0.7971098632812501,1.00188389196549,0.11083984375,-0.03955078125,-0.0146484375,42.83588235294118,332.6053074112928
-0.62156298828125,0.01428759765625,-0.8073637695312501,1.0190097841530343,0.12158203125,-0.0859375,-0.0625,42.97705882352941,332.6053074112928
-0.62058642578125,0.0216118164062499,-0.8112700195312501,1.021642612199863,0.06787109375,-0.22705078125,-0.0234375,42.93,332.6053074112928
-0.60154345703125,0.0201469726562499,-0.8107817382812501,1.0097660413851737,0.01123046875,-0.419921875,0.0771484375,42.74176470588235,332.6053074112928
-0.58982470703125,0.0201469726562499,-0.7975981445312501,0.9922005269558188,-0.03955078125,-0.607421875,0.12109375,42.74176470588235,332.1176459767996
-0.60300830078125,0.0269829101562499,-0.7888090820312501,0.9932607191198966,-0.064453125,-0.6923828125,0.11474609375,42.74176470588235,332.1176459767996
-0.62595751953125,0.0211235351562499,-0.7766020507812501,0.9976872081333188,-0.0849609375,-0.69873046875,0.12841796875,42.788823529411765,332.1176459767996
-0.64207080078125,0.0260063476562499,-0.7712309570312501,1.0038567788373156,-0.041015625,-0.6494140625,0.10693359375,42.93,332.1176459767996
-0.65085986328125,0.0264946289062499,-0.7692778320312501,1.0080222764632076,-0.01953125,-0.6240234375,0.1201171875,42.83588235294118,332.3831297474701
-0.64451220703125,0.0289360351562499,-0.7697661132812501,1.0043769951064088,-0.037109375,-0.28369140625,0.10302734375,42.74176470588235,332.3831297474701
-0.63572314453125,0.0269829101562499,-0.7648833007812501,0.994946459739026,-0.0537109375,-0.07666015625,0.0361328125,42.788823529411765,332.3831297474701
-0.62498095703125,0.03137744140625,-0.7600004882812501,0.9844726926982984,-0.06298828125,0.111328125,-0.02392578125,42.788823529411765,332.3831297474701
-0.61130908203125,0.0274711914062499,-0.7614653320312501,0.976874051255652,-0.05908203125,0.212890625,-0.06787109375,41.84764705882353,332.3831297474701
-0.60593798828125,0.0250297851562499,-0.7639067382812501,0.9753670286506484,-0.03759765625,0.251953125,-0.0810546875,41.98882352941177,332.7408691481459
-0.59226611328125,0.0235649414062499,-0.7658598632812501,0.9684398719538212,-0.04248046875,0.1875,-0.01318359375,41.84764705882353,332.7408691481459
-0.59666064453125,0.0221000976562499,-0.7736723632812501,0.9772723595569748,-0.0361328125,0.09130859375,-0.04345703125,42.74176470588235,332.7408691481459
-0.59763720703125,0.0196586914062499,-0.7766020507812501,0.9801364398151732,-0.02099609375,0.12451171875,-0.0380859375,42.83588235294118,332.7408691481459
-0.60398486328125,0.0196586914062499,-0.7849028320312501,0.9905839868236076,-0.0419921875,-0.07568359375,-0.02978515625,42.788823529411765,332.7277886171164
-0.60398486328125,0.01282275390625,-0.7814848632812501,0.9877655236078676,-0.064453125,-0.1318359375,-0.0224609375,42.74176470588235,332.7277886171164
-0.61423876953125,0.01282275390625,-0.8972075195312501,1.0873982812734362,-0.0283203125,-0.12060546875,0.087890625,42.74176470588235,332.7277886171164
-0.61179736328125,0.0030571289062499,-0.7746489257812501,0.9871100840175244,-0.0068359375,-0.05908203125,0.1484375,42.64764705882353,332.7277886171164
-0.61228564453125,0.01086962890625,-0.7712309570312501,0.9847888344284504,0.0654296875,0.00634765625,0.103515625,42.97705882352941,332.7277886171164
-0.61326220703125,0.01135791015625,-0.7795317382812501,0.9919119253662316,0.10595703125,0.07958984375,0.01708984375,42.74176470588235,332.4275649065264
-0.61082080078125,0.01184619140625,-0.7849028320312501,0.9946430709800164,0.15087890625,0.1689453125,-0.005859375,42.93,332.4275649065264
-0.61326220703125,0.00647509765625,-0.7956450195312501,1.0045812354246824,0.1572265625,0.255859375,0.06591796875,42.93,332.4275649065264
-0.61472705078125,0.01331103515625,-0.7975981445312501,1.007089534638722,0.1279296875,0.2978515625,0.15380859375,42.93,332.4275649065264
-0.59568408203125,0.0201469726562499,-0.7956450195312501,0.9941309889534216,0.107421875,0.30078125,0.1318359375,42.64764705882353,332.7169609959579
-0.58787158203125,0.0260063476562499,-0.7975981445312501,0.9911771422092196,0.08935546875,0.2294921875,0.0166015625,42.64764705882353,332.7169609959579
-0.59177783203125,0.0260063476562499,-0.8000395507812501,0.9954600019168468,0.0595703125,0.138671875,-0.08056640625,42.60058823529412,332.7169609959579
-0.60349658203125,0.0216118164062499,-0.7966215820312501,0.9996405054267012,0.03564453125,0.0205078125,-0.1298828125,43.21235294117647,332.7169609959579
-0.60691455078125,0.0245415039062499,-0.7966215820312501,1.001775175536886,-0.01318359375,-0.04150390625,-0.12158203125,42.17705882352941,332.7169609959579
-0.61326220703125,0.03284228515625,-0.7878325195312501,0.9989240356994528,-0.05859375,-0.0576171875,-0.13134765625,42.97705882352941,332.8035823462529
-0.61765673828125,0.03333056640625,-0.7775786132812501,0.993599150982722,-0.05712890625,0.0263671875,-0.158203125,42.74176470588235,332.8035823462529
-0.61130908203125,0.0274711914062499,-0.7819731445312501,0.9929428276085486,-0.03076171875,0.169921875,-0.2109375,42.64764705882353,332.8035823462529
-0.61960986328125,0.0225883789062499,-0.7756254882812501,0.992986160834354,0.01220703125,0.29736328125,-0.19140625,42.83588235294118,332.8035823462529
-0.62449267578125,0.01526416015625,-0.7800200195312501,0.999327437609532,0.01171875,0.39306640625,-0.11572265625,42.60058823529412,332.73749048463696
-0.62058642578125,0.0177055664062499,-0.7829497070312501,0.9992253212794568,0.01904296875,0.46728515625,-0.0537109375,42.60058823529412,332.73749048463696
-0.62107470703125,0.01038134765625,-0.7878325195312501,1.0032555222494768,-0.0107421875,0.4541015625,-0.0361328125,42.64764705882353,332.73749048463696
-0.60984423828125,0.00891650390625,-0.7971098632812501,1.0036800452071375,-0.01025390625,0.45947265625,-0.0126953125,42.64764705882353,332.73749048463696
-0.60935595703125,0.0035454101562499,-0.7956450195312501,1.002186733801406,-0.01220703125,0.36474609375,0.03076171875,42.74176470588235,332.73749048463696
-0.60642626953125,0.0035454101562499,-0.8049223632812501,1.0078022629568943,0.02099609375,0.193359375,-0.02197265625,42.74176470588235,332.5380911572248
-0.61472705078125,0.00696337890625,-0.8029692382812501,1.0112850405469156,-0.0205078125,-0.03955078125,0.041015625,42.83588235294118,332.5380911572248
-0.60837939453125,0.00403369140625,-0.8005278320312501,1.005478278339828,0.01513671875,-0.22412109375,0.1982421875,42.60058823529412,332.5380911572248
-0.58738330078125,-0.00133740234375,-0.7849028320312501,0.9803537047476192,-0.01318359375,-0.36767578125,0.2529296875,42.60058823529412,332.5380911572248
-0.57664111328125,0.01477587890625,-0.7785551757812501,0.9689589577786382,0.04638671875,-0.46728515625,0.111328125,42.97705882352941,332.6292141433292
-0.59324267578125,0.0191704101562499,-0.7800200195312501,0.980171213545464,0.123046875,-0.447265625,-0.09716796875,42.788823529411765,332.6292141433292
-0.62400439453125,0.0211235351562499,-0.7819731445312501,1.0006546291802685,0.1318359375,-0.27099609375,-0.15478515625,41.89470588235295,332.6292141433292
-0.64548876953125,0.01526416015625,-0.7868559570312501,1.0178561014661196,0.119140625,0.05810546875,-0.11474609375,42.83588235294118,332.6292141433292
-0.63767626953125,0.0167290039062499,-0.7917387695312501,1.0167404602325238,0.04248046875,0.26806640625,0.0517578125,42.93,332.6292141433292
-0.60642626953125,0.0225883789062499,-0.8005278320312501,1.0045436103504188,0.0029296875,0.34130859375,0.1650390625,42.788823529411765,332.6053074112928
-0.58152392578125,0.0284477539062499,-0.8058989257812501,0.9942094495294844,-0.068359375,0.21337890625,0.13525390625,42.93,332.6053074112928
-0.58103564453125,0.03479541015625,-0.8000395507812501,0.9893818391288832,-0.08544921875,-0.056640625,0.02001953125,43.25941176470588,332.6053074112928
-0.59519580078125,0.0274711914062499,-0.8044340820312501,1.0010628851168004,-0.0810546875,-0.375,-0.08203125,42.74176470588235,332.6053074112928
-0.61814501953125,0.0269829101562499,-0.7966215820312501,1.0086809642150294,-0.080078125,-0.5751953125,-0.0654296875,42.60058823529412,332.505608119587
-0.62595751953125,0.0230766601562499,-0.7834379882812501,1.0030605315651964,-0.05859375,-0.57470703125,0.00439453125,42.788823529411765,332.505608119587
-0.63669970703125,0.0230766601562499,-0.7717192382812501,1.0007345461764772,-0.0400390625,-0.38232421875,0.044921875,42.60058823529412,332.505608119587
-0.63621142578125,0.0245415039062499,-0.7634184570312501,0.9940699191930948,-0.02294921875,-0.0791015625,0.0380859375,42.74176470588235,332.505608119587
-0.63084033203125,0.0201469726562499,-0.7600004882812501,0.987909999550692,-0.009765625,0.12646484375,0.00732421875,42.93,332.505608119587
-0.62351611328125,0.0216118164062499,-0.7692778320312501,0.9904684734934446,0.00146484375,0.583984375,-0.01123046875,42.97705882352941,332.6389158575201
-0.60789111328125,0.0167290039062499,-0.7770903320312501,0.9867526788990498,0.025390625,0.80908203125,0.013671875,43.25941176470588,332.6389158575201
-0.59959033203125,0.01526416015625,-0.7868559570312501,0.9893855961990676,0.0341796875,0.8828125,-0.00439453125,42.64764705882353,332.6389158575201
-0.59324267578125,0.01282275390625,-0.8005278320312501,0.9964668109086678,0.05908203125,0.796875,-0.03564453125,42.93,332.6389158575201
-0.58494189453125,0.01184619140625,-0.8088286132812501,0.9982490059554838,0.04248046875,0.5830078125,-0.02880859375,42.93,332.47425061033465
-0.58250048828125,0.01184619140625,-0.8122465820312501,0.9995957488505924,0.017578125,0.33154296875,-0.037109375,42.60058823529412,332.47425061033465
-0.70017626953125,0.0162407226562499,-0.8083403320312501,1.0695441374134529,-0.00146484375,0.06103515625,-0.015625,42.83588235294118,332.47425061033465
-0.58152392578125,0.01331103515625,-0.8058989257812501,0.9938915124339984,-0.03564453125,-0.14208984375,0.05712890625,42.64764705882353,332.47425061033465
-0.59470751953125,0.01526416015625,-0.7995512695312501,0.996590317523365,-0.091796875,-0.28564453125,0.15771484375,42.64764705882353,332.47425061033465
-0.60398486328125,0.0245415039062499,-0.7971098632812501,1.0003919904852818,-0.0615234375,-0.26416015625,0.080078125,42.83588235294118,332.6953057944599
-0.61765673828125,0.0308891601562499,-0.7975981445312501,1.0092654689025498,-0.009765625,-0.25,-0.03662109375,42.788823529411765,332.6953057944599
-0.61619189453125,0.0191704101562499,-0.7941801757812501,1.0053765996458777,-0.00048828125,0.0849609375,-0.1044921875,42.60058823529412,332.6953057944599
-0.61082080078125,0.01282275390625,-0.7990629882812501,1.0058668564605104,0.01708984375,0.228515625,-0.02880859375,43.02411764705882,332.6953057944599
-0.60056689453125,0.00891650390625,-0.8005278320312501,1.000802132644347,0.00439453125,0.23681640625,0.06201171875,42.60058823529412,332.4286896469979
-0.59861376953125,0.01086962890625,-0.7980864257812501,0.9976966156709478,0.0,0.09375,0.056640625,42.64764705882353,332.4286896469979
-0.59421923828125,0.01135791015625,-0.7941801757812501,0.9919413575764464,-0.00439453125,-0.03564453125,0.03515625,43.25941176470588,332.4286896469979
-0.59617236328125,0.01038134765625,-0.8000395507812501,0.997793837390157,-0.009765625,-0.13671875,0.03369140625,42.97705882352941,332.4286896469979
-0.60691455078125,0.01184619140625,-0.8000395507812501,1.004265346915398,-0.0068359375,-0.2177734375,0.05712890625,43.21235294117647,332.4286896469979
-0.61570361328125,0.0167290039062499,-0.7912504882812501,1.00272036689428,-0.00390625,-0.1982421875,0.1015625,42.64764705882353,332.61838658403383
-0.61130908203125,0.0191704101562499,-0.7790434570312501,0.9904418238052398,-0.0146484375,-0.15380859375,0.10595703125,42.97705882352941,332.61838658403383
-0.61082080078125,0.0299125976562499,-0.7800200195312501,0.9911750829369772,-0.0322265625,-0.033203125,0.06689453125,42.60058823529412,332.61838658403383
-0.60593798828125,0.0191704101562499,-0.7819731445312501,0.989449518184722,-0.013671875,0.14208984375,0.02685546875,42.60058823529412,332.61838658403383
-0.61375048828125,0.0216118164062499,-0.7819731445312501,0.9943031385055272,-0.01904296875,0.26123046875,-0.02734375,42.60058823529412,332.5078590217345
-0.60740283203125,0.0221000976562499,-0.7912504882812501,0.9977494424359832,-0.01611328125,0.294921875,-0.0390625,42.74176470588235,332.5078590217345
-0.59714892578125,0.0186821289062499,-0.7966215820312501,0.995761922579962,-0.01611328125,0.251953125,-0.0498046875,42.64764705882353,332.5078590217345
-0.59080126953125,0.0177055664062499,-0.7917387695312501,0.988033352848152,-0.0166015625,0.1650390625,0.00732421875,42.60058823529412,332.5078590217345
-0.58933642578125,0.0216118164062499,-0.7941801757812501,0.9891949479071016,-0.02001953125,0.11328125,0.08447265625,42.93,332.5078590217345
-0.58787158203125,0.0221000976562499,-0.7956450195312501,0.9895111966932076,0.01025390625,0.0419921875,0.09619140625,42.74176470588235,332.41786202965665
-0.59128955078125,0.0289360351562499,-0.8010161132812501,0.9960358631745428,0.0615234375,-0.02734375,0.123046875,42.64764705882353,332.41786202965665
-0.61570361328125,0.0279594726562499,-0.8044340820312501,1.013403603630983,0.05615234375,-0.1123046875,-0.0146484375,42.64764705882353,332.41786202965665
-0.60837939453125,0.03577197265625,-0.7946684570312501,1.0014504872026164,0.02978515625,-0.1845703125,0.10986328125,43.02411764705882,332.41786202965665
-0.58396533203125,0.0299125976562499,-0.7873442382812501,0.9807248452382528,-0.123046875,-0.146484375,0.13134765625,42.93,332.48395282920507
-0.56199267578125,0.0289360351562499,-0.7805083007812501,0.9622194496843052,0.01806640625,-0.11669921875,-0.0302734375,42.93,332.48395282920507
-0.58054736328125,0.03577197265625,-0.7844145507812501,0.9765352336285064,0.09423828125,0.01220703125,-0.27783203125,42.74176470588235,332.48395282920507
-0.60789111328125,0.0299125976562499,-0.7980864257812501,1.003677394445622,0.18212890625,0.22265625,-0.3720703125,42.788823529411765,332.48395282920507
-0.62449267578125,0.0167290039062499,-0.8185942382812501,1.0297414668854417,0.13525390625,0.361328125,-0.3310546875,42.74176470588235,332.48395282920507
-0.62058642578125,0.00647509765625,-0.8220122070312501,1.0299871393672797,0.078125,0.41357421875,-0.1796875,42.83588235294118,332.7386162518911
-0.58738330078125,0.00403369140625,-0.8278715820312501,1.015089537448772,0.02392578125,0.37451171875,-0.03466796875,42.788823529411765,332.7386162518911
-0.57175830078125,0.01233447265625,-0.8259184570312501,1.0045899618216634,-0.0419921875,-0.048828125,0.01513671875,42.788823529411765,332.7386162518911
-0.56345751953125,0.01428759765625,-0.8146879882812501,0.9906588868085958,-0.07470703125,-0.4541015625,-0.00537109375,42.08294117647059,332.7386162518911
-0.57468798828125,0.01282275390625,-0.8029692382812501,0.9875172426436216,-0.0654296875,-0.81787109375,-0.04052734375,42.83588235294118,332.640041716226
-0.61277392578125,0.00989306640625,-0.7932036132812501,1.0023780369714383,-0.05908203125,-0.96533203125,-0.01513671875,43.21235294117647,332.640041716226
-0.64402392578125,0.0167290039062499,-0.7780668945312501,1.0101657135915334,-0.00732421875,-0.8251953125,0.05810546875,42.64764705882353,332.640041716226
-0.66746142578125,0.0177055664062499,-0.7756254882812501,1.023432039785365,0.0205078125,-0.4150390625,0.11767578125,42.93,332.640041716226
-0.64988330078125,0.0186821289062499,-0.7722075195312501,1.009456180225476,0.02587890625,0.1123046875,0.06396484375,42.64764705882353,332.640041716226
-0.62839892578125,0.0196586914062499,-0.7741606445312501,0.9972945290193242,0.0537109375,0.6142578125,-0.00390625,42.60058823529412,332.56312270881784
-0.61033251953125,0.01477587890625,-0.7897856445312501,0.9982411909465858,0.072265625,0.89111328125,-0.083984375,42.60058823529412,332.56312270881784
-0.59910205078125,0.01233447265625,-0.8058989257812501,1.0042651467821535,0.07080078125,0.88232421875,-0.08740234375,42.788823529411765,332.56312270881784
-0.57810595703125,0.00940478515625,-0.8137114257812501,0.9982090121742078,0.08203125,0.61181640625,-0.11865234375,42.788823529411765,332.56312270881784
-0.56589892578125,0.01428759765625,-0.8268950195312501,1.0020983499501164,0.083984375,0.16552734375,-0.24853515625,42.97705882352941,332.8753087033869
-0.56248095703125,0.01282275390625,-0.8283598632812501,1.0013637266926851,0.0517578125,-0.31884765625,-0.15087890625,42.93,332.8753087033869
-0.57078173828125,0.01526416015625,-0.8185942382812501,0.9980587729627456,0.03564453125,-0.73828125,-0.16455078125,43.21235294117647,332.8753087033869
-0.58689501953125,0.0196586914062499,-0.8015043945312501,0.9936002830873684,-0.005859375,-0.923828125,-0.1337890625,42.60058823529412,332.8753087033869
-0.60154345703125,0.0186821289062499,-0.7956450195312501,0.9976244532600734,-0.02001953125,-0.92822265625,-0.09765625,42.788823529411765,332.8753087033869
-0.61423876953125,0.0157524414062499,-0.7756254882812501,0.9895111436851276,-0.0302734375,-0.87451171875,0.05419921875,42.93,332.5522951705764
-0.61765673828125,0.0157524414062499,-0.7726958007812501,0.9893466461758827,-0.02197265625,-0.40869140625,0.01513671875,43.02411764705882,332.5522951705764
-0.62302783203125,0.0274711914062499,-0.7673247070312501,0.9887899432454964,0.06640625,-0.046875,-0.1044921875,41.89470588235295,332.5522951705764
-0.61912158203125,0.0181938476562499,-0.7770903320312501,0.9937363501280684,0.0751953125,0.294921875,-0.15185546875,42.97705882352941,332.5522951705764
-0.61960986328125,0.01477587890625,-0.7951567382812501,1.008171090493542,0.060546875,0.494140625,-0.03857421875,42.93,332.78643356569
-0.60252001953125,0.00696337890625,-0.8005278320312501,1.001959915584642,0.044921875,0.48583984375,0.0615234375,42.74176470588235,332.78643356569
-0.57908251953125,0.00989306640625,-0.8010161132812501,0.9884640868164,0.0283203125,0.27490234375,0.0595703125,42.64764705882353,332.78643356569
-0.56785205078125,0.0177055664062499,-0.8019926757812501,0.9828335009883448,0.02099609375,-0.01025390625,0.0048828125,42.83588235294118,332.78643356569
-0.58054736328125,0.01086962890625,-0.8005278320312501,0.9889379149886128,0.01123046875,-0.13427734375,-0.03955078125,41.84764705882353,332.78643356569
-0.60056689453125,0.00598681640625,-0.7980864257812501,0.9988285036951452,0.00830078125,-0.3349609375,-0.052734375,42.788823529411765,332.34094386403194
-0.61521533203125,0.0157524414062499,-0.7907622070312501,1.0020194171000445,-0.00439453125,-0.29736328125,-0.01806640625,42.97705882352941,332.34094386403194
-0.62351611328125,0.01526416015625,-0.7824614257812501,1.0006254148992315,0.009765625,-0.12646484375,0.0068359375,42.93,332.34094386403194
-0.62107470703125,0.01233447265625,-0.7878325195312501,1.0032776334398263,0.0244140625,0.14697265625,-0.02197265625,42.64764705882353,332.34094386403194
-0.61277392578125,0.0167290039062499,-0.7863676757812501,0.9970686361543348,0.046875,0.43505859375,-0.05712890625,42.788823529411765,332.60981248107703
-0.61033251953125,0.00940478515625,-0.7995512695312501,1.0059207061146682,0.03857421875,0.6005859375,-0.033203125,42.64764705882353,332.60981248107703
-0.59519580078125,0.00891650390625,-0.8010161132812501,0.997980139604864,0.03173828125,0.546875,0.0478515625,42.74176470588235,332.60981248107703
-0.58152392578125,0.01086962890625,-0.8063872070312501,0.994257789887641,0.0,0.35498046875,0.06396484375,42.93,332.60981248107703
-0.58347705078125,0.01135791015625,-0.8068754882812501,0.9958024525479984,-0.0244140625,0.18408203125,0.0634765625,42.97705882352941,332.60981248107703
-0.59568408203125,0.01135791015625,-0.8122465820312501,1.0073296569296362,-0.03466796875,0.0205078125,0.06640625,42.60058823529412,332.5642489916916
-0.58982470703125,0.01184619140625,-0.8019926757812501,0.9956032187985848,-0.03759765625,-0.0791015625,0.09814453125,42.64764705882353,332.5642489916916
-0.58933642578125,0.0191704101562499,-0.7985747070312501,0.9926764276884108,-0.0322265625,-0.08984375,0.12158203125,42.93,332.5642489916916
-0.59714892578125,0.0177055664062499,-0.7941801757812501,0.9937919693011232,-0.0263671875,-0.03564453125,0.0849609375,43.25941176470588,332.5642489916916
-0.61814501953125,0.0221000976562499,-0.7961333007812501,1.008176528243221,-0.00927734375,0.048828125,0.08251953125,42.788823529411765,332.5317665995683
-0.62107470703125,0.0201469726562499,-0.7971098632812501,1.0107046187494235,-0.0263671875,0.07470703125,0.19287109375,42.60058823529412,332.5317665995683
-0.58298876953125,0.0172172851562499,-0.8010161132812501,0.9908577869926204,0.03857421875,0.10595703125,0.0810546875,42.64764705882353,332.5317665995683
-0.55906298828125,0.00940478515625,-0.8039458007812501,0.9792694856083292,0.044921875,0.0947265625,0.1240234375,42.64764705882353,332.5317665995683
-0.57127001953125,0.01038134765625,-0.8107817382812501,0.9918791432048364,0.09375,-0.01953125,-0.06103515625,42.74176470588235,332.5317665995683
-0.58201220703125,0.01379931640625,-0.8181059570312501,1.0041045698515092,0.12890625,-0.287109375,-0.17724609375,42.74176470588235,332.4753764701473
-0.60154345703125,0.0181938476562499,-0.8234770507812501,1.0199509791911725,0.0732421875,-0.62109375,-0.1884765625,42.93,332.4753764701473
-0.61179736328125,0.01331103515625,-0.8200590820312501,1.0232155664359086,-0.02197265625,-0.8955078125,-0.044921875,42.64764705882353,332.4753764701473
-0.60007861328125,0.0172172851562499,-0.7907622070312501,0.992822061144208,-0.0986328125,-1.06005859375,0.087890625,42.93,332.4753764701473
-0.59177783203125,0.0260063476562499,-0.8972075195312501,1.0751086762301951,-0.1181640625,-1.03125,0.08154296875,42.788823529411765,332.5989850701922
-0.60984423828125,0.0250297851562499,-0.7609770507812501,0.975511433518611,-0.087890625,-0.8017578125,0.0556640625,42.788823529411765,332.5989850701922
-0.64451220703125,0.0230766601562499,-0.7575590820312501,0.9948991305777136,-0.0615234375,-0.43798828125,0.03369140625,41.89470588235295,332.5989850701922
-0.65867236328125,0.0167290039062499,-0.7634184570312501,1.0084328843597758,-0.00927734375,0.0478515625,0.04345703125,43.02411764705882,332.5989850701922
-0.65085986328125,0.0221000976562499,-0.7707426757812501,1.0090348102108988,0.0302734375,0.53515625,0.0009765625,42.74176470588235,332.5989850701922
-0.63132861328125,0.0201469726562499,-0.7770903320312501,1.001424536643314,0.0517578125,0.89501953125,-0.0673828125,42.788823529411765,332.4428940410272
-0.61228564453125,0.0167290039062499,-0.7932036132812501,1.0021704157443356,0.0458984375,1.04833984375,-0.09814453125,42.08294117647059,332.4428940410272
-0.58689501953125,0.01331103515625,-0.8107817382812501,1.0009944928609162,0.02392578125,0.9384765625,-0.07373046875,42.74176470588235,332.4428940410272
-0.56882861328125,0.00452197265625,-0.8185942382812501,0.9968364793041204,-0.125,0.6416015625,-0.03125,42.93,332.4428940410272
-0.56101611328125,0.00549853515625,-0.8288481445312501,1.0008788937443736,-0.0341796875,0.15966796875,0.02587890625,42.64764705882353,332.2976336693666
-0.56345751953125,0.00501025390625,-0.8298247070312501,1.0030545964004225,-0.0498046875,-0.25341796875,0.0341796875,43.07117647058824,332.2976336693666
-0.57566455078125,0.01184619140625,-0.8171293945312501,0.999615153288514,-0.0654296875,-0.7744140625,0.0498046875,42.788823529411765,332.2976336693666
-0.59861376953125,0.00940478515625,-0.8107817382812501,1.0078660239270958,-0.08349609375,-0.9736328125,0.04736328125,42.97705882352941,332.2976336693666
-0.61716845703125,0.00842822265625,-0.7951567382812501,1.0065993133941398,-0.0810546875,-0.92529296875,0.04541015625,42.93,332.2976336693666
-0.62400439453125,0.01282275390625,-0.7814848632812501,1.0001322407310775,-0.0966796875,-0.71484375,0.056640625,42.788823529411765,332.6086855327564
-0.62742236328125,0.01526416015625,-0.7707426757812501,0.9939497415871416,-0.09619140625,-0.41552734375,0.12939453125,41.84764705882353,332.6086855327564
-0.61912158203125,0.13245166015625,-0.7692778320312501,0.9963148892141104,-0.103515625,-0.04296875,0.17626953125,43.25941176470588,332.6086855327564
-0.60984423828125,0.0181938476562499,-0.7634184570312501,0.9772659574513743,-0.08935546875,0.2421875,0.09716796875,42.60058823529412,332.6086855327564
-0.60252001953125,0.0221000976562499,-0.7707426757812501,0.9785515114304382,-0.00634765625,0.3828125,-0.04248046875,42.64764705882353,332.5545483114258
-0.59617236328125,0.0196586914062499,-0.7853911132812501,0.9862287522219771,0.0263671875,0.453125,-0.08056640625,41.98882352941177,332.5545483114258
-0.59568408203125,0.01135791015625,-0.7912504882812501,0.9904775933426496,0.0234375,0.369140625,0.01708984375,42.93,332.5545483114258
-0.58250048828125,0.01526416015625,-0.8054106445312501,0.9940956290807308,-0.02783203125,0.17529296875,0.16015625,42.74176470588235,332.5545483114258
-0.56834033203125,0.0216118164062499,-0.8005278320312501,0.9819992940315296,-0.04052734375,-0.0732421875,0.185546875,42.60058823529412,332.5545483114258
-0.57078173828125,0.0279594726562499,-0.8024809570312501,0.9851645604996012,-0.0400390625,-0.2490234375,0.0908203125,42.74176470588235,332.3973322119656
-0.58835986328125,0.0274711914062499,-0.7990629882812501,0.9926850730813732,-0.0341796875,-0.35107421875,-0.017578125,43.25941176470588,332.3973322119656
-0.60740283203125,0.0211235351562499,-0.7995512695312501,1.004323969994799,-0.01025390625,-0.3642578125,0.00048828125,42.97705882352941,332.3973322119656
-0.61716845703125,0.0240532226562499,-0.7946684570312501,1.0064658059143952,-0.0048828125,-0.28271484375,0.0537109375,42.60058823529412,332.3973322119656
-0.62302783203125,0.0225883789062499,-0.7839262695312501,1.0016058658016904,0.00048828125,-0.130859375,0.02001953125,42.788823529411765,332.5989850701922
-0.61619189453125,0.0299125976562499,-0.7834379882812501,0.9971771637310634,-0.005859375,0.0439453125,-0.0068359375,42.64764705882353,332.5989850701922
-0.60935595703125,0.0269829101562499,-0.7892973632812501,0.9975134522865868,0.02490234375,0.23876953125,-0.05859375,42.60058823529412,332.5989850701922
-0.61179736328125,0.0201469726562499,-0.7902739257812501,0.9996173227764764,0.0283203125,0.3408203125,-0.01416015625,42.64764705882353,332.5989850701922
-0.60544970703125,0.0172172851562499,-0.7868559570312501,0.992979395439776,0.02685546875,0.3310546875,0.05810546875,43.02411764705882,332.5989850701922
-0.59910205078125,0.0177055664062499,-0.7951567382812501,0.9957464500394376,0.00244140625,0.2451171875,0.0390625,41.84764705882353,332.5653757284792
-0.59080126953125,0.0240532226562499,-0.7951567382812501,0.9909081370308572,-0.00341796875,0.11181640625,0.12451171875,42.93,332.5653757284792
-0.59275439453125,0.0235649414062499,-0.8015043945312501,0.9971571456658648,-0.0087890625,0.013671875,-0.01318359375,42.788823529411765,332.5653757284792
-0.60252001953125,0.0157524414062499,-0.8083403320312501,1.0083117601885772,-0.033203125,-0.03173828125,0.06591796875,42.788823529411765,332.5653757284792
-0.59812548828125,0.0196586914062499,-0.7990629882812501,0.9983196998559386,-0.029296875,-0.07177734375,0.0947265625,42.93,332.5414676459364
-0.59666064453125,0.0225883789062499,-0.7995512695312501,0.9978959826570568,0.0009765625,-0.0908203125,0.0546875,42.60058823529412,332.5414676459364
-0.60593798828125,0.0201469726562499,-0.8005278320312501,1.0041969707214782,0.02734375,-0.08935546875,-0.06787109375,43.21235294117647,332.5414676459364
-0.61277392578125,0.0201469726562499,-0.7980864257812501,1.0063993877387185,0.00341796875,-0.13330078125,0.021484375,42.74176470588235,332.5414676459364
-0.60105517578125,0.0172172851562499,-0.7888090820312501,0.9918586225549308,0.001953125,-0.1669921875,0.08056640625,42.60058823529412,332.5414676459364
-0.57957080078125,0.01086962890625,-0.7873442382812501,0.9777174497294506,-0.00244140625,-0.2392578125,0.03125,42.60058823529412,332.5989850701922
-0.57322314453125,0.00989306640625,-0.7800200195312501,0.9680464229874228,0.04296875,-0.31298828125,-0.099609375,42.93,332.5989850701922
-0.59226611328125,0.0177055664062499,-0.7834379882812501,0.9822768028947936,0.0986328125,-0.2958984375,-0.248046875,42.64764705882353,332.5989850701922
-0.62546923828125,0.01379931640625,-0.7912504882812501,1.0087019006499014,0.10400390625,-0.1552734375,-0.27197265625,42.788823529411765,332.5989850701922
-0.64207080078125,0.00452197265625,-0.7888090820312501,1.0171013368133792,0.0751953125,0.0361328125,-0.1484375,42.74176470588235,332.43319314797407
-0.62693408203125,0.00452197265625,-0.7985747070312501,1.0152774764364256,-0.12451171875,0.1865234375,0.06982421875,42.60058823529412,332.43319314797407
-0.59324267578125,0.0157524414062499,-0.8083403320312501,1.002795644269931,-0.02587890625,0.220703125,0.16943359375,42.788823529411765,332.43319314797407
-0.58152392578125,0.0225883789062499,-0.8063872070312501,0.994454945576374,-0.06591796875,0.11669921875,0.14306640625,42.83588235294118,332.43319314797407
-0.58640673828125,0.0240532226562499,-0.8088286132812501,0.9993273467109142,-0.06591796875,-0.0048828125,0.033203125,42.60058823529412,332.43319314797407
-0.60837939453125,0.0201469726562499,-0.8054106445312501,1.0095631206228095,-0.04248046875,-0.41357421875,-0.01904296875,42.60058823529412,332.63372235968257
-0.62205126953125,0.01428759765625,-0.7961333007812501,1.010435623869762,-0.03173828125,-0.56298828125,0.04150390625,42.93,332.63372235968257
-0.62400439453125,0.0191704101562499,-0.7839262695312501,1.0021423976067736,-0.0244140625,-0.5400390625,0.10546875,42.93,332.63372235968257
-0.62937548828125,0.0162407226562499,-0.7775786132812501,1.0005027566948783,-0.005859375,-0.38134765625,0.11376953125,42.788823529411765,332.63372235968257
-0.63035205078125,0.0230766601562499,-0.7687895507812501,0.9944413575261896,0.00732421875,-0.0830078125,0.07421875,42.60058823529412,332.6325946247123
-0.62644580078125,0.0235649414062499,-0.7736723632812501,0.9957703417380616,0.0146484375,0.3076171875,0.03515625,41.89470588235295,332.6325946247123
-0.62009814453125,0.0191704101562499,-0.7736723632812501,0.9916945795868064,0.0166015625,0.63330078125,0.017578125,42.74176470588235,332.6325946247123
-0.60398486328125,0.0211235351562499,-0.7858793945312501,0.9913880882677438,0.03955078125,0.7802734375,0.0185546875,43.25941176470588,332.6325946247123
-0.59031298828125,0.0245415039062499,-0.7936918945312501,0.9894536537868384,0.03515625,0.72119140625,-0.0078125,42.74176470588235,332.6325946247123
-0.57810595703125,0.0196586914062499,-0.8068754882812501,0.9927945483794366,0.03515625,0.51416015625,-0.02001953125,42.788823529411765,332.51981263748524
-0.57322314453125,0.0206352539062499,-0.8137114257812501,0.99555857265006,0.025390625,0.21240234375,-0.02099609375,42.60058823529412,332.51981263748524
-0.57078173828125,0.0225883789062499,-0.8156645507812501,0.9957965088401124,-0.00048828125,-0.0546875,-0.01318359375,42.74176470588235,332.51981263748524
-0.57322314453125,0.0211235351562499,-0.8132231445312501,0.995169764394541,-0.04736328125,-0.24609375,0.033203125,42.64764705882353,332.51981263748524
-0.58445361328125,0.0221000976562499,-0.7980864257812501,0.9894525675393516,-0.09423828125,-0.380859375,0.1083984375,42.83588235294118,332.2987591369957
-0.58835986328125,0.0177055664062499,-0.7951567382812501,0.9893205012715414,-0.2216796875,-0.4638671875,0.3515625,42.17705882352941,332.2987591369957
-0.58347705078125,0.0177055664062499,-0.7858793945312501,0.9789613774909386,-0.27490234375,-0.36865234375,0.333984375,42.60058823529412,332.2987591369957
-0.58982470703125,0.0269829101562499,-0.7775786132812501,0.976345104098644,-0.166015625,-0.20703125,0.13818359375,42.60058823529412,332.2987591369957
-0.59763720703125,0.0181938476562499,-0.7858793945312501,0.9874754022604596,-0.06298828125,-0.00439453125,0.01904296875,42.64764705882353,332.2987591369957
-0.60007861328125,0.0157524414062499,-0.7824614257812501,0.9861989476588544,0.0185546875,0.16650390625,0.021484375,42.64764705882353,332.4548479387138
-0.60447314453125,0.01477587890625,-0.7966215820312501,1.0001060213871933,0.08837890625,0.23583984375,0.0830078125,43.02411764705882,332.4548479387138
-0.60447314453125,0.0206352539062499,-0.8156645507812501,1.0154419016194138,0.09521484375,0.189453125,0.0859375,42.64764705882353,332.4548479387138
-0.60789111328125,0.0260063476562499,-0.8122465820312501,1.014865727939506,0.08251953125,0.0361328125,0.0185546875,42.93,332.4548479387138
-0.60252001953125,0.0240532226562499,-0.8156645507812501,1.0143557516262565,0.06591796875,-0.1630859375,-0.0185546875,43.16529411764706,332.39958432602754
-0.60056689453125,0.0235649414062499,-0.8141997070312501,1.0120064546237653,0.02734375,-0.40869140625,-0.02978515625,42.74176470588235,332.39958432602754
-0.60642626953125,0.0191704101562499,-0.8078520507812501,1.0103193856175474,0.00244140625,-0.57763671875,-0.01171875,42.788823529411765,332.39958432602754
-0.61033251953125,0.0206352539062499,-0.7961333007812501,1.0033742226676885,-0.044921875,-0.6513671875,-0.00732421875,42.74176470588235,332.39958432602754
-0.61619189453125,0.0186821289062499,-0.7878325195312501,1.0003607107725885,-0.05078125,-0.63818359375,-0.0576171875,43.25941176470588,332.39958432602754
-0.62595751953125,0.0221000976562499,-0.7741606445312501,0.9958091855948968,-0.0380859375,-0.4892578125,-0.06298828125,42.788823529411765,332.5892851963461
-0.63084033203125,0.0181938476562499,-0.7692778320312501,0.9950270968493958,-0.0341796875,-0.25048828125,-0.0654296875,42.83588235294118,332.5892851963461
-0.63572314453125,0.0221000976562499,-0.7726958007812501,1.0008452084883526,-0.01220703125,-0.0126953125,-0.02587890625,42.64764705882353,332.5892851963461
-0.62888720703125,0.0206352539062499,-0.7736723632812501,0.997243129119743,0.0,0.22509765625,-0.0087890625,42.93,332.5892851963461
-0.62400439453125,0.0245415039062499,-0.7809965820312501,0.9999697150178036,-0.0029296875,0.37451171875,0.00634765625,42.83588235294118,332.765906601338
-0.61765673828125,0.0235649414062499,-0.7961333007812501,1.0079104054530643,-0.0166015625,0.41015625,0.0595703125,42.83588235294118,332.765906601338
-0.60789111328125,0.0225883789062499,-0.7966215820312501,1.002321198731176,-0.00390625,0.3759765625,0.07568359375,42.93,332.765906601338
-0.59568408203125,0.0211235351562499,-0.8044340820312501,1.0011992417378124,0.00830078125,0.21826171875,0.068359375,42.97705882352941,332.765906601338
-0.59470751953125,0.0240532226562499,-0.8000395507812501,0.9971553911609904,0.01904296875,0.013671875,0.0166015625,42.93,332.765906601338
-0.59910205078125,0.0274711914062499,-0.8078520507812501,1.006132630202922,0.0693359375,-0.15380859375,-0.06689453125,41.89470588235295,332.36597571688804
-0.61814501953125,0.0264946289062499,-0.8058989257812501,1.0160109788321887,-0.00830078125,-0.34619140625,-0.03125,43.21235294117647,332.36597571688804
-0.61521533203125,0.0264946289062499,-0.7961333007812501,1.006488997823647,-0.01513671875,-0.43896484375,0.0556640625,42.93,332.36597571688804
-0.59128955078125,0.0279594726562499,-0.7868559570312501,0.9846559612828596,-0.05908203125,-0.47265625,0.05126953125,43.16529411764706,332.36597571688804
-0.57468798828125,0.0225883789062499,-0.7702543945312501,0.961284739830538,-0.00537109375,-0.4248046875,-0.1142578125,42.788823529411765,332.66733239914646
-0.59177783203125,0.0279594726562499,-0.7736723632812501,0.9744494139256366,0.08154296875,-0.330078125,-0.28369140625,42.93,332.66733239914646
-0.61960986328125,0.0157524414062499,-0.7761137695312501,0.9932356746219264,0.1083984375,-0.08740234375,-0.306640625,42.74176470588235,332.66733239914646
-0.63865283203125,0.0181938476562499,-0.7849028320312501,1.0120676418524366,0.10693359375,0.0908203125,-0.201171875,42.83588235294118,332.66733239914646
-0.62937548828125,0.0216118164062499,-0.7941801757812501,1.0135594345974863,0.0478515625,0.17626953125,-0.06396484375,42.74176470588235,332.66733239914646
-0.60252001953125,0.0269829101562499,-0.7966215820312501,0.9991818634935332,0.04443359375,0.146484375,-0.0234375,42.64764705882353,332.61206773947475
-0.58445361328125,0.0206352539062499,-0.7907622070312501,0.9835226015960274,0.00927734375,-0.00830078125,-0.02978515625,42.74176470588235,332.61206773947475
-0.58591845703125,0.0230766601562499,-0.8015043945312501,0.993097308921313,-0.01904296875,-0.193359375,-0.06689453125,42.64764705882353,332.61206773947475
-0.60642626953125,0.0225883789062499,-0.7946684570312501,0.9998804987795434,-0.00048828125,-0.3544921875,-0.0361328125,43.25941176470588,332.61206773947475
-0.63279345703125,0.0201469726562499,-0.7971098632812501,1.017947736334742,-0.0107421875,-0.4052734375,0.0029296875,42.788823529411765,332.6445496901935
-0.63669970703125,0.0191704101562499,-0.7795317382812501,1.006689501557966,-0.017578125,-0.29541015625,0.00146484375,42.93,332.6445496901935
-0.63962939453125,0.0186821289062499,-0.7795317382812501,1.0085358274630956,0.00341796875,-0.05322265625,-0.0048828125,43.25941176470588,332.6445496901935
-0.63230517578125,0.0162407226562499,-0.7770903320312501,1.001969550699318,0.01220703125,0.26171875,-0.01025390625,42.788823529411765,332.6445496901935
-0.62498095703125,0.0177055664062499,-0.7829497070312501,1.0019605418746709,0.00439453125,0.49609375,0.00244140625,42.64764705882353,332.6445496901935
-0.60691455078125,0.0162407226562499,-0.7936918945312501,0.9992776673512768,0.02734375,0.67431640625,-0.03564453125,42.74176470588235,332.39958432602754
-0.59666064453125,0.0191704101562499,-0.8010161132812501,0.9989986201663174,0.05859375,0.7470703125,-0.05908203125,42.97705882352941,332.39958432602754
-0.58005908203125,0.0206352539062499,-0.8093168945312501,0.995935835345038,0.05517578125,0.439453125,-0.10693359375,42.97705882352941,332.39958432602754
-0.57908251953125,0.0186821289062499,-0.8151762695312501,1.0000989634901216,0.04541015625,0.14794921875,-0.08544921875,42.03588235294118,332.39958432602754
-0.57566455078125,0.01428759765625,-0.8146879882812501,0.997652408769064,0.03466796875,-0.177734375,-0.1064453125,42.74176470588235,332.55567556272626
-0.58445361328125,0.0206352539062499,-0.8107817382812501,0.9996893852150528,0.02880859375,-0.46240234375,-0.1318359375,42.60058823529412,332.55567556272626
-0.59177783203125,0.0172172851562499,-0.7946684570312501,0.9909568073292528,-0.005859375,-0.638671875,-0.14990234375,43.16529411764706,332.55567556272626
-0.60544970703125,0.01477587890625,-0.7863676757812501,0.9925531702912866,-0.00341796875,-0.6513671875,-0.13134765625,42.93,332.55567556272626
-0.62693408203125,0.0181938476562499,-0.7824614257812501,1.0028076795380716,-0.0341796875,-0.5654296875,0.00927734375,42.74176470588235,332.55567556272626
-0.61912158203125,0.01379931640625,-0.8957426757812501,1.0889705669511511,-0.06005859375,-0.34814453125,0.04736328125,42.64764705882353,332.6781597098874
-0.62205126953125,0.0255180664062499,-0.7766020507812501,0.9953440103382332,0.01904296875,-0.08642578125,-0.12109375,42.93,332.6781597098874
-0.62644580078125,0.0191704101562499,-0.7800200195312501,1.000616348463062,0.044921875,0.0068359375,-0.18359375,41.84764705882353,332.6781597098874
-0.61912158203125,0.01282275390625,-0.7868559570312501,1.0013082709486538,0.046875,0.28662109375,-0.2490234375,42.83588235294118,332.6781597098874
-0.60740283203125,0.00891650390625,-0.7917387695312501,0.9979318531745296,0.04052734375,0.236328125,-0.01025390625,42.60058823529412,332.8559109794596
-0.59519580078125,0.01379931640625,-0.7941801757812501,0.9925576124360996,0.0234375,0.0283203125,0.05419921875,42.60058823529412,332.8559109794596
-0.59421923828125,0.01379931640625,-0.7975981445312501,0.9947108747955468,-0.0009765625,-0.2236328125,0.0107421875,42.64764705882353,332.8559109794596
-0.59128955078125,0.0181938476562499,-0.7932036132812501,0.9895081207741866,-0.0087890625,-0.40673828125,0.00146484375,42.03588235294118,332.8559109794596
-0.61423876953125,0.01526416015625,-0.7873442382812501,0.9987157804576944,-0.01318359375,-0.44091796875,-0.0380859375,42.788823529411765,332.8559109794596
-0.62888720703125,0.0211235351562499,-0.7814848632812501,1.0033264246708435,0.0048828125,-0.3466796875,-0.07958984375,42.788823529411765,332.41153841167454
-0.63572314453125,0.0162407226562499,-0.7800200195312501,1.006398980740059,0.0126953125,-0.2021484375,-0.03759765625,42.64764705882353,332.41153841167454
-0.62205126953125,0.0181938476562499,-0.7800200195312501,0.997852709014467,0.02001953125,-0.05810546875,-0.04931640625,42.83588235294118,332.41153841167454
-0.61326220703125,0.0172172851562499,-0.7849028320312501,0.9962225781479098,0.0439453125,0.05517578125,-0.12451171875,42.97705882352941,332.41153841167454
-0.61326220703125,0.01233447265625,-0.7839262695312501,0.9953808667287762,0.06494140625,0.1484375,-0.109375,42.788823529411765,332.5123662729717
-0.61863330078125,0.01526416015625,-0.7873442382812501,1.0014245378337112,0.06005859375,0.12255859375,-0.0556640625,42.788823529411765,332.5123662729717
-0.60398486328125,0.0196586914062499,-0.7922270507812501,0.996397450423391,0.021484375,0.03125,-0.02099609375,42.64764705882353,332.5123662729717
-0.60398486328125,0.0216118164062499,-0.7829497070312501,0.9890778682295788,-0.00341796875,-0.08837890625,-0.0234375,42.74176470588235,332.5123662729717
-0.60984423828125,0.01477587890625,-0.7990629882812501,1.0053009404169737,-0.0068359375,-0.16552734375,-0.03759765625,42.74176470588235,332.5123662729717
-0.61863330078125,0.0172172851562499,-0.7971098632812501,1.009151985522453,-0.005859375,-0.19287109375,0.00537109375,42.788823529411765,332.43319314797407
-0.61814501953125,0.01184619140625,-0.7927153320312501,1.0053065179633214,-0.0205078125,-0.2294921875,0.0341796875,42.64764705882353,332.43319314797407
-0.60447314453125,0.01526416015625,-0.7971098632812501,1.0005023294250874,-0.0166015625,-0.28125,0.04443359375,42.83588235294118,332.43319314797407
-0.60398486328125,0.0191704101562499,-0.7936918945312501,0.997553027734884,-0.00537109375,-0.31494140625,0.02392578125,42.788823529411765,332.43319314797407
-0.61716845703125,0.0221000976562499,-0.7907622070312501,1.003339517182336,-0.04150390625,-0.29931640625,0.0107421875,42.60058823529412,332.43432015800045
-0.62693408203125,0.0216118164062499,-0.7888090820312501,1.007835890269704,-0.06982421875,-0.30810546875,0.05126953125,42.788823529411765,332.43432015800045
-0.61521533203125,0.0191704101562499,-0.7746489257812501,0.9894131430327398,-0.01806640625,-0.3369140625,-0.01806640625,43.02411764705882,332.43432015800045
-0.60007861328125,0.0181938476562499,-0.7805083007812501,0.9846921172623052,0.02734375,-0.31396484375,-0.08544921875,42.64764705882353,332.43432015800045
-0.58787158203125,0.01184619140625,-0.7873442382812501,0.9826720097598384,0.04052734375,-0.189453125,-0.1259765625,42.93,332.43432015800045
-0.60105517578125,0.01135791015625,-0.7951567382812501,0.996830258815724,0.13330078125,-0.1357421875,-0.2412109375,43.21235294117647,332.30101143397104
-0.62693408203125,0.01282275390625,-0.8049223632812501,1.0203483606790276,0.1923828125,-0.1435546875,-0.322265625,42.788823529411765,332.30101143397104
-0.63181689453125,0.01526416015625,-0.8112700195312501,1.0283893364823573,0.1298828125,-0.26318359375,-0.298828125,42.60058823529412,332.30101143397104
-0.62693408203125,0.0030571289062499,-0.8112700195312501,1.025287634685872,0.021484375,-0.47119140625,-0.15380859375,42.74176470588235,332.30101143397104
-0.60398486328125,0.00501025390625,-0.8019926757812501,1.0039995367149552,-0.04150390625,-0.77880859375,-0.10009765625,42.788823529411765,332.6901153740627
-0.60447314453125,0.0162407226562499,-0.7912504882812501,0.9958558523888944,-0.1005859375,-1.03271484375,-0.03271484375,42.788823529411765,332.6901153740627
-0.62498095703125,0.01526416015625,-0.7761137695312501,0.9965875648897988,-0.11279296875,-1.23046875,0.01806640625,42.03588235294118,332.6901153740627
-0.65232470703125,0.0167290039062499,-0.7668364257812501,1.0068989457140494,-0.1279296875,-1.19677734375,0.02294921875,42.74176470588235,332.6901153740627
-0.67185595703125,0.01233447265625,-0.7575590820312501,1.0126392886818658,-0.0869140625,-1.1181640625,0.0400390625,42.97705882352941,332.6901153740627
-0.68308642578125,0.01331103515625,-0.7443754882812501,1.010385627519257,-0.0751953125,-0.74609375,0.06005859375,42.93,332.5698872147934
-0.67380908203125,0.01233447265625,-0.7424223632812501,1.0026773078830595,-0.0556640625,-0.17578125,0.07275390625,42.97705882352941,332.5698872147934
-0.65671923828125,0.01477587890625,-0.7477934570312501,0.9953358925030812,-0.0283203125,0.2685546875,0.04150390625,42.64764705882353,332.5698872147934
