AccX,AccY,AccZ,Magnitude,GyroX,GyroY,GyroZ,Temperature,Altitude
-0.02976611328125,0.32141650390625,0.8474213867187499,0.9068172898393136,0.50537109375,0.6806640625,0.24853515625,41.09470588235294,175.4335921528774
-0.0058403320312499,0.32288134765625,0.8337495117187499,0.894105543229548,0.64404296875,0.615234375,0.11865234375,41.37705882352941,175.4335921528774
0.01710888671875,0.32532275390625,0.97632763671875,1.029244024726265,0.66845703125,0.57373046875,-0.06884765625,41.7064705882353,175.4335921528774
0.01613232421875,0.32288134765625,0.8586518554687499,0.9174942100356502,0.70068359375,0.5361328125,-0.2880859375,41.65941176470589,175.4335921528774
-0.01511767578125,0.32922900390625,0.8576752929687499,0.9188183657846416,0.646484375,0.33984375,-0.45263671875,41.65941176470589,175.4335921528774
-0.05759814453125,0.33557666015625,0.8825776367187499,0.9459770218832588,0.6513671875,0.25341796875,-0.31689453125,40.53,175.4335921528774
-0.02585986328125,0.33948291015625,0.90259716796875,0.9646756068452697,0.64501953125,0.060546875,-0.1982421875,41.04764705882353,175.4335921528774
-0.03074267578125,0.33069384765625,0.91578076171875,0.9741447205246558,0.548828125,-0.08447265625,-0.0791015625,40.34176470588236,175.4335921528774
-0.03269580078125,0.32532275390625,0.92456982421875,0.9806800035963636,0.3583984375,-0.30712890625,-0.15478515625,41.65941176470589,175.4335921528774
-0.04343798828125,0.33215869140625,0.97242138671875,1.0285035772668225,0.26025390625,-0.4609375,-0.34033203125,40.95352941176471,175.4665374343673
-0.07908251953125,0.33362353515625,1.00318310546875,1.060158031240385,0.22607421875,-0.38232421875,-0.4873046875,41.28294117647059,175.4665374343673
-0.11912158203125,0.32874072265625,1.02271435546875,1.0808353560649475,0.16357421875,-0.01416015625,-0.44384765625,41.04764705882353,175.4665374343673
-0.10984423828125,0.32092822265625,1.01831982421875,1.073329374040324,0.126953125,0.25390625,-0.34619140625,41.09470588235294,175.4665374343673
-0.06931689453125,0.31995166015625,0.98853466796875,1.041333129445272,0.12158203125,0.61279296875,-0.302734375,40.95352941176471,175.25948425587293
-0.04490283203125,0.31262744140625,0.96314404296875,1.0136067427512674,0.10986328125,0.7705078125,-0.31640625,40.906470588235294,175.25948425587293
-0.03513720703125,0.32092822265625,0.93384716796875,0.9880789849695776,0.07177734375,0.80419921875,-0.34375,40.95352941176471,175.25948425587293
-0.02732470703125,0.31848681640625,0.90747998046875,0.96213325833301,0.04150390625,0.7392578125,-0.3681640625,40.34176470588236,175.25948425587293
-0.02146533203125,0.31506884765625,0.8918549804687499,0.9461154503703888,0.0224609375,0.58251953125,-0.35693359375,41.235882352941175,175.25948425587293
-0.02390673828125,0.30872119140625,0.8772065429687499,0.9302535273707528,-0.0205078125,0.34619140625,-0.27685546875,41.37705882352941,175.39017278059077
-0.01658251953125,0.30432666015625,0.8918549804687499,0.9424940329905416,-0.11865234375,-0.099609375,-0.1416015625,41.04764705882353,175.39017278059077
-0.05076220703125,0.31213916015625,0.90210888671875,0.9559331045960668,-0.08837890625,-0.26220703125,-0.1162109375,41.04764705882353,175.39017278059077
-0.05076220703125,0.32385791015625,0.91675732421875,0.973603995031953,-0.1416015625,-0.30810546875,-0.1455078125,41.235882352941175,175.39017278059077
-0.05466845703125,0.32434619140625,0.92945263671875,0.9859367606380004,-0.1328125,-0.1923828125,-0.24755859375,41.09470588235294,175.28113621995018
-0.04587939453125,0.31409228515625,0.93726513671875,0.9895578906489736,-0.18505859375,-0.1162109375,-0.11962890625,41.235882352941175,175.28113621995018
-0.04099658203125,0.29846728515625,0.92359326171875,0.9714874951017468,-0.2109375,-0.01318359375,-0.076171875,41.7064705882353,175.28113621995018
-0.04002001953125,0.28626025390625,0.90210888671875,0.9472840009346166,-0.3251953125,0.03173828125,0.04736328125,40.29470588235294,175.28113621995018
-0.01755908203125,0.27405322265625,0.8698823242187499,0.912199949681138,-0.5166015625,0.0703125,0.1904296875,40.76529411764706,175.28113621995018
-0.0048637695312499,0.25696337890625,0.8415620117187499,0.8799320734699237,-0.69482421875,0.04638671875,0.31005859375,41.04764705882353,175.54247006129754
0.01076123046875,0.23499072265625,0.8054291992187499,0.8390784461359169,-0.85302734375,-0.04833984375,0.46923828125,41.04764705882353,175.54247006129754
0.02638623046875,0.20911181640625,0.7741791992187499,0.8023574125176735,-1.00830078125,-0.19921875,0.53759765625,41.65941176470589,175.54247006129754
0.04152294921875,0.19397509765625,0.7497651367187499,0.7755631850864637,-1.18505859375,-0.43212890625,0.6171875,40.906470588235294,175.54247006129754
0.04298779296875,0.18030322265625,0.7263276367187499,0.7496059220056881,-1.37109375,-0.7275390625,0.7099609375,41.7064705882353,175.5207047029737
0.03566357421875,0.16760791015625,0.7170502929687499,0.7372417681599246,-1.55517578125,-1.05419921875,0.81298828125,41.37705882352941,175.5207047029737
0.02980419921875,0.15833056640625,0.7043549804687499,0.7225460518615598,-1.724609375,-1.26171875,0.8701171875,40.906470588235294,175.5207047029737
0.01271435546875,0.15100634765625,0.6911713867187499,0.7075891870896458,-1.88330078125,-1.4130859375,0.90234375,41.04764705882353,175.5207047029737
0.00148388671875,0.13391650390625,0.6662690429687499,0.6795956662286485,-2.02978515625,-1.4619140625,0.93310546875,41.09470588235294,175.5207047029737
0.00197216796875,0.11340869140625,0.6316010742187499,0.6417050238912376,-2.21142578125,-1.49169921875,1.0400390625,41.09470588235294,175.16108284516153
0.01173779296875,0.08411181640625,0.5832612304687499,0.5894117715238271,-2.44482421875,-1.6044921875,1.2255859375,41.7064705882353,175.16108284516153
0.00197216796875,0.03870166015625,0.5275971679687499,0.5290184113941518,-2.7841796875,-1.7060546875,1.49658203125,41.09470588235294,175.16108284516153
-0.0004692382812499,-0.00524365234375,0.4748627929687499,0.4748919753170699,-3.162109375,-1.86376953125,1.85791015625,41.04764705882353,175.16108284516153
0.04787060546875,-0.04577099609375,0.3816010742187499,0.38730602731724,-3.50146484375,-2.27783203125,2.14013671875,41.04764705882353,175.26995870496037
0.13869091796875,-0.08922802734375,0.3278901367187499,0.3670269109317626,-4.30859375,-2.94970703125,2.0576171875,41.18882352941176,175.26995870496037
0.16017529296875,-0.09752880859375,0.2609956054687499,0.3213824809434089,-5.08837890625,-3.7802734375,1.8271484375,40.43588235294118,175.26995870496037
0.08888623046875,-0.09362255859375,0.2492768554687499,0.2807220976641702,-5.92578125,-4.189453125,1.8310546875,40.43588235294118,175.26995870496037
0.10890576171875,-0.05602490234375,0.2273041992187499,0.2581984771462547,-6.6015625,-4.52001953125,1.4794921875,41.28294117647059,175.26995870496037
0.12062451171875,-0.02526318359375,0.2141206054687499,0.2470549229604268,-7.06298828125,-4.666015625,1.10888671875,41.65941176470589,175.21546738896842
0.14552685546875,-0.02965771484375,0.2043549804687499,0.2526234426072901,-7.37646484375,-4.75,0.6318359375,40.906470588235294,175.21546738896842
0.17433544921875,-0.03600537109375,0.2053315429687499,0.271754076583645,-7.75830078125,-5.1240234375,0.22802734375,41.18882352941176,175.21546738896842
0.19679638671875,-0.05407177734375,0.2058198242187499,0.28985233304582,-8.1083984375,-5.677734375,-0.04931640625,41.28294117647059,175.21546738896842
0.12404248046875,0.00501025390625,0.1765229492187499,0.2158054475816833,-8.33154296875,-5.71875,-0.11376953125,40.95352941176471,175.2590499179789
0.08742138671875,-0.13024365234375,0.1613862304687499,0.2250587105992152,-8.36328125,-5.6416015625,0.2978515625,41.7064705882353,175.2590499179789
0.11818310546875,-0.09801708984375,0.1237885742187498,0.197226284827318,-8.267578125,-6.0341796875,0.83349609375,41.28294117647059,175.2590499179789
0.17335888671875,-0.04039990234375,0.1408784179687499,0.2270070139073388,-8.0615234375,-7.091796875,1.04443359375,40.29470588235294,175.2590499179789
0.16261669921875,-0.00377880859375,0.2082612304687499,0.2642559561779968,-7.61669921875,-8.08642578125,1.01123046875,41.235882352941175,175.2590499179789
0.09328076171875,-0.01354443359375,0.3039643554687499,0.3182437455532131,-7.06640625,-8.193359375,1.0283203125,40.43588235294118,175.4007595226025
0.04738232421875,-0.06041943359375,0.3474213867187499,0.3558050204167157,-6.74365234375,-7.30322265625,1.27734375,41.61235294117647,175.4007595226025
-0.07419970703125,-0.12145458984375,0.3537690429687499,0.3813257789353639,-6.41162109375,-6.2275390625,1.94677734375,41.518235294117645,175.4007595226025
0.13917919921875,-0.18834912109375,0.3342377929687499,0.4081190306278078,-6.32666015625,-5.2255859375,2.6708984375,40.34176470588236,175.4007595226025
0.20753857421875,-0.25036083984375,0.3073823242187499,0.4474781594202561,-6.29931640625,-4.64599609375,3.15771484375,41.7064705882353,175.00846625148353
0.27003857421875,-0.31041943359375,0.2805268554687499,0.4979722612334394,-6.24560546875,-4.21630859375,3.34521484375,41.18882352941176,175.00846625148353
0.32374951171875,-0.35875927734375,0.2541596679687499,0.5460028408720269,-6.31298828125,-4.125,3.4189453125,41.65941176470589,175.00846625148353
0.35988232421875,-0.42809521484375,0.2463471679687499,0.6111200597455704,-6.41552734375,-3.94287109375,3.2373046875,40.906470588235294,175.00846625148353
0.39064404296875,-0.47301708984375,0.2937104492187499,0.6801571609352509,-6.42578125,-3.86083984375,3.31494140625,41.7064705882353,175.00846625148353
0.49513623046875,-0.50329052734375,0.3601166992187499,0.7925561675319678,-6.23046875,-3.80126953125,3.580078125,40.43588235294118,175.2372849890077
0.59181591796875,-0.46813427734375,0.4807221679687499,0.894700835565679,-5.79150390625,-4.248046875,3.5224609375,40.43588235294118,175.2372849890077
0.60548779296875,-0.41491162109375,0.6047456054687499,0.9510438307915028,-5.375,-4.79150390625,2.76318359375,41.235882352941175,175.2372849890077
0.54738232421875,-0.29967724609375,0.7736909179687499,0.9939977350279936,-4.5078125,-5.27685546875,1.70654296875,41.18882352941176,175.2372849890077
0.49220654296875,-0.20592724609375,0.93140576171875,1.0734011387118465,-3.62939453125,-5.830078125,0.9697265625,41.65941176470589,175.2482469219906
0.47706982421875,-0.15954052734375,1.16529248046875,1.2692341636129416,-2.6162109375,-6.50830078125,0.6181640625,41.09470588235294,175.2482469219906
0.41115185546875,-0.19664990234375,1.33374951171875,1.4094696847953867,-1.72802734375,-6.36669921875,0.85498046875,41.65941176470589,175.2482469219906
0.42091748046875,-0.27086865234375,1.51099560546875,1.5917440346778606,-1.2626953125,-4.93505859375,1.53076171875,41.37705882352941,175.2482469219906
0.45900341796875,-0.45543896484375,1.54175732421875,1.6718625646826062,-1.08056640625,-3.0,2.0947265625,41.18882352941176,175.2482469219906
0.50392529296875,-0.60045849609375,1.51685498046875,1.707436715722624,-1.1865234375,-0.68505859375,2.60693359375,41.235882352941175,174.95397597168937
0.42238232421875,-0.67174755859375,1.44556591796875,1.6490337878533392,-0.85546875,1.49609375,3.31494140625,40.906470588235294,174.95397597168937
0.37208935546875,-0.59264599609375,1.31226513671875,1.4871851109349443,-0.890625,2.955078125,3.74267578125,41.18882352941176,174.95397597168937
0.44777294921875,-0.43639599609375,1.16431591796875,1.3215799772598429,-0.44384765625,4.48486328125,2.57958984375,41.235882352941175,174.95397597168937
0.61085888671875,-0.38073193359375,1.03540966796875,1.2610228250370663,0.2080078125,5.091796875,1.07666015625,41.18882352941176,175.07386555680804
0.86769482421875,-0.34508740234375,0.99781201171875,1.3666047102079604,0.998046875,4.2158203125,-0.06787109375,40.48294117647059,175.07386555680804
1.20119091796875,-0.28161083984375,1.02076123046875,1.601286288006048,1.48876953125,-0.39013671875,-1.02685546875,41.7064705882353,175.07386555680804
1.10878369140625,-0.57164990234375,1.15320751953125,3.265206985696574,4.08447265625,-1.123046875,-1.42626953125,41.18882352941176,175.07386555680804
1.01637646484375,-0.86168896484375,1.28565380859375,12.490948561323082,15.99951171875,15.99951171875,16.0,40.29470588235294,175.07386555680804
0.92396923828125,-1.15172802734375,1.41810009765625,1.223158908368423,-13.0146484375,15.99951171875,5.69873046875,40.95352941176471,174.9430671550455
0.74928662109375,-1.0527696940104168,0.99561474609375,2.274726756790104,-6.8427734375,11.29248046875,13.84765625,40.906470588235294,174.9430671550455
0.57460400390625,-0.9538113606770834,0.57312939453125,1.2818113906793611,3.17578125,-7.48876953125,15.99951171875,41.65941176470589,174.9430671550455
0.39992138671875,-0.85485302734375,0.1506440429687499,0.955721947846649,7.07080078125,-0.19384765625,15.99951171875,40.43588235294118,174.9430671550455
0.20314404296875,-0.54088818359375,-0.0178129882812501,0.5780526203526315,6.482421875,15.10986328125,15.99951171875,41.09470588235294,174.99745087422696
-0.07712939453125,-0.26647412109375,0.1750581054687499,0.3280285673592343,7.19677734375,15.99951171875,15.99951171875,40.29470588235294,174.99745087422696
-0.13377001953125,0.12463916015625,0.5476166992187499,0.577332995448108,6.8447265625,15.99951171875,15.99951171875,40.53,174.99745087422696
0.32130810546875,0.13733447265625,0.94703076171875,1.0094389132886068,6.82177734375,15.99951171875,15.99951171875,41.65941176470589,174.99745087422696
0.54787060546875,0.17395556640625,1.38843701171875,1.5027242178559932,6.37939453125,15.99951171875,15.99951171875,40.95352941176471,174.99745087422696
0.64455029296875,0.31848681640625,1.72437451171875,1.868246875831984,8.8095703125,15.99951171875,15.99951171875,41.7064705882353,174.5725490584689
1.48732373046875,1.08606494140625,2.46607373046875,3.0778545417669267,15.65625,15.99951171875,13.5009765625,41.7064705882353,174.5725490584689
4.39210888671875,3.05188525390625,3.56958935546875,6.430131588270962,15.99951171875,5.3154296875,-13.9765625,41.18882352941176,174.5725490584689
10.19826123046875,3.37659228515625,1.02417919921875,10.791424865010692,15.99951171875,16.0,16.0,40.29470588235294,174.5725490584689
0.82326123046875,-3.71227490234375,0.7380463867187499,3.8734295492641686,15.99951171875,16.0,16.0,41.235882352941175,175.4115643397067
-2.26023486328125,-4.18200146484375,2.85669873046875,5.546036920703743,5.8955078125,16.0,16.0,41.7064705882353,175.4115643397067
-2.04490283203125,-3.25231396484375,3.26148388671875,5.039489146897049,15.99951171875,16.0,9.69091796875,41.65941176470589,175.4115643397067
2.34083935546875,-4.24645458984375,2.60376904296875,5.503773133118661,15.99951171875,16.0,15.99951171875,41.18882352941176,175.4115643397067
2.26857373046875,-2.51989208984375,2.27857373046875,4.085117031397298,15.99951171875,-15.96826171875,15.99951171875,40.85941176470588,175.4115643397067
0.59230419921875,-0.60485302734375,3.05787060546875,3.1728920701607364,15.99951171875,-9.6787109375,9.1279296875,41.65941176470589,174.81226958883383
-1.19627001953125,0.41223681640625,4.55152294921875,4.724125560322778,8.93408203125,-8.0576171875,-2.7119140625,41.7064705882353,174.81226958883383
-0.19578173828125,1.51135791015625,6.33228466796875,6.5130916113492825,8.55078125,-12.8525390625,-3.08203125,41.09470588235294,174.81226958883383
0.29152294921875,2.06458056640625,4.92603466796875,5.349139752813862,9.2333984375,3.7890625,2.384765625,41.28294117647059,174.81226958883383
0.87306591796875,2.57825244140625,3.59790966796875,4.511605449016892,9.98291015625,15.99951171875,6.20263671875,41.7064705882353,174.8885232772299
2.90236279296875,2.24524462890625,3.57496044921875,5.123004532412601,12.8505859375,15.99951171875,-0.84228515625,40.48294117647059,174.8885232772299
3.46925732421875,1.46887744140625,2.67310498046875,4.619397964683758,15.99951171875,15.99951171875,-11.76806640625,41.04764705882353,174.8885232772299
1.74464794921875,0.01477587890625,0.2268159179687499,1.759392012586919,15.99951171875,15.99951171875,-6.27197265625,40.95352941176471,174.8885232772299
3.04787060546875,-2.59899365234375,-7.13988330078125,8.186709765307336,-7.34326171875,15.99951171875,10.94091796875,40.95352941176471,174.8885232772299
4.25294873046875,-0.37438427734375,-8.19701220703125,9.24222622604193,-11.92578125,16.0,15.99951171875,41.28294117647059,175.13905416494762
2.76271435546875,1.15442431640625,-4.18675830078125,5.147254722799703,15.99951171875,16.0,15.99951171875,40.85941176470588,175.13905416494762
2.12208935546875,0.58460009765625,-2.12230517578125,3.057646115220228,15.99951171875,16.0,-2.20654296875,40.34176470588236,175.13905416494762
0.67531201171875,1.30969775390625,-0.3801176757812501,1.521789725027752,15.99951171875,16.0,16.0,40.95352941176471,175.13905416494762
-0.98093798828125,0.93713916015625,0.8986909179687499,1.627302832416616,2.94775390625,16.0,-12.06982421875,41.7064705882353,175.06285032182294
-1.40867236328125,0.18811572265625,2.11255810546875,2.5461042989564624,-1.7958984375,13.25048828125,-7.294921875,41.235882352941175,175.06285032182294
-1.24363330078125,0.74524462890625,3.82789013671875,4.093257412198062,4.29931640625,15.99951171875,-14.734375,40.906470588235294,175.06285032182294
-0.66306689453125,0.80139697265625,3.02417919921875,3.198054821824241,13.31201171875,15.99951171875,16.0,40.43588235294118,175.06285032182294
-0.45261767578125,0.56018603515625,1.65113232421875,1.801363124551436,15.99951171875,15.99951171875,-8.73583984375,40.95352941176471,175.06285032182294
-0.12058642578125,0.20520556640625,1.09205029296875,1.1176870102761058,15.99951171875,15.99951171875,2.41943359375,41.235882352941175,174.80141502130425
0.43263623046875,0.12756884765625,0.3723237304687499,0.5848699676652233,15.99951171875,8.453125,5.73095703125,41.65941176470589,174.80141502130425
0.59328076171875,0.31604541015625,-0.1291411132812501,0.6845028784789244,15.99951171875,3.5869140625,3.490234375,41.04764705882353,174.80141502130425
0.08058544921875,0.51965869140625,-0.4006254882812501,0.6610899727271878,15.99951171875,0.77197265625,3.49560546875,40.95352941176471,174.80141502130425
-0.28025439453125,0.61487353515625,-0.5344145507812501,0.8615166289610126,15.99951171875,1.02490234375,5.39990234375,41.235882352941175,174.6052754330589
-0.21384814453125,0.75501025390625,-0.6057036132812501,0.9912862248437636,15.99951171875,1.81298828125,4.951171875,41.18882352941176,174.6052754330589
-0.15134814453125,0.86438525390625,-0.6916411132812501,1.117334129794911,15.99951171875,2.31689453125,2.20849609375,41.37705882352941,174.6052754330589
-0.20994189453125,0.86975634765625,-0.6769926757812501,1.1219941115839989,15.99951171875,3.9384765625,-0.40380859375,41.09470588235294,174.6052754330589
-0.29636767578125,0.87561572265625,-0.5036528320312501,1.0527121487965765,15.6640625,6.2841796875,-1.97802734375,41.04764705882353,174.6052754330589
-0.33640673828125,0.92835009765625,-0.3063872070312501,1.0338648451378007,14.865234375,7.806640625,-2.33642578125,40.48294117647059,174.7686346287406
-0.32810595703125,0.94690478515625,-0.1608793945312501,1.0149701329477328,14.0107421875,8.20458984375,-2.22509765625,41.235882352941175,174.7686346287406
-0.27293017578125,0.99866259765625,-0.0002348632812501,1.0352863951440074,13.78515625,8.13232421875,-2.083984375,41.235882352941175,174.7686346287406
-0.18748095703125,1.01624072265625,0.0300385742187498,1.033826209561039,14.17529296875,7.90283203125,-2.4716796875,41.09470588235294,174.7686346287406
-0.13328173828125,0.95129931640625,0.0319916992187498,0.9611232387020788,14.55419921875,7.55419921875,-3.14453125,41.09470588235294,174.87756126553575
-0.96970751953125,2.16370166015625,-0.0900786132812501,2.372772998870527,14.7392578125,8.20166015625,-1.173828125,41.65941176470589,174.87756126553575
-1.64695361328125,3.04651416015625,0.2883393554687499,3.4751754367578105,12.44287109375,11.04736328125,-2.6484375,41.09470588235294,174.87756126553575
-1.93943408203125,3.92688525390625,0.8713471679687499,4.46554344319008,15.99951171875,15.99951171875,-4.6220703125,40.906470588235294,174.87756126553575
-0.52537158203125,4.51965869140625,0.6286713867187499,4.593316633815804,15.99951171875,15.99951171875,-4.35009765625,41.235882352941175,174.87756126553575
1.63185498046875,3.03040087890625,-0.4323637695312501,3.468892992491944,15.99951171875,15.99951171875,-14.9267578125,41.09470588235294,175.0519416121163
0.95460888671875,0.52747119140625,-2.01146533203125,2.2881207936491306,15.99951171875,2.53076171875,16.0,41.7064705882353,175.0519416121163
-0.31101611328125,-0.07067333984375,-2.18627001953125,2.2094122164020047,15.99951171875,11.0458984375,16.0,41.235882352941175,175.0519416121163
-1.23484423828125,-0.87291943359375,-3.67064501953125,3.969945023520049,6.97802734375,13.9013671875,5.333984375,41.18882352941176,175.0519416121163
0.34230419921875,-0.95836865234375,-4.37718798828125,4.493931165844847,-5.8837890625,2.404296875,12.06103515625,41.04764705882353,174.6705641399759
1.51857373046875,-0.40807568359375,-3.15306689453125,3.5234106743039795,-3.78125,-13.4228515625,-0.9501953125,41.18882352941176,174.6705641399759
0.76857373046875,-0.54137646484375,-1.67015673828125,1.916564005265577,-2.16552734375,16.0,-4.01513671875,41.09470588235294,174.6705641399759
-0.23728564453125,-0.44518505859375,-0.1442778320312501,0.5247002061285749,-1.78369140625,16.0,3.18603515625,40.48294117647059,174.6705641399759
-1.12693408203125,-0.10143505859375,0.7834565429687499,1.3762534835836304,-0.8291015625,16.0,9.32373046875,41.235882352941175,174.6705641399759
-0.96934130859375,0.1740776367187499,0.5433442382812499,2.319993282516133,-0.85693359375,-0.30859375,7.13427734375,40.48294117647059,174.12579092373886
-0.8117485351562499,0.44959033203125,0.3032319335937499,2.457340657558692,1.5927734375,13.677734375,-0.6708984375,41.7064705882353,174.12579092373886
-0.65415576171875,0.72510302734375,0.0631196289062498,1.7549428072331217,4.03955078125,15.99951171875,-5.50439453125,41.235882352941175,174.12579092373886
-0.49656298828125,1.00061572265625,-0.1769926757812501,1.1309876361118636,5.21630859375,15.99951171875,-4.5107421875,41.04764705882353,174.12579092373886
-0.22214892578125,0.63098681640625,-0.95384814453125,1.165041111090062,5.22021484375,13.7470703125,-0.80029296875,40.906470588235294,174.7032362437336
0.17433544921875,0.30042041015625,-1.46898486328125,1.50949057640059,4.76953125,7.599609375,1.189453125,41.09470588235294,174.7032362437336
0.18312451171875,0.29749072265625,-1.73070361328125,1.7656076330497508,4.21484375,2.1875,1.5625,41.7064705882353,174.7032362437336
-0.09470751953125,0.45715869140625,-1.63158251953125,1.6970636704095634,2.88037109375,-0.6337890625,2.39599609375,41.28294117647059,174.7032362437336
-0.22996142578125,0.64026416015625,-1.29515673828125,1.4629598179182024,1.41162109375,-0.9560546875,2.62353515625,41.7064705882353,174.7032362437336
-0.18064501953125,0.75208056640625,-0.93578173828125,1.2140614742046918,0.50048828125,0.29833984375,0.5810546875,41.09470588235294,174.64869295768594
-0.28123095703125,0.78870166015625,-0.7023833007812501,1.0929242705431614,0.02099609375,1.99169921875,-1.73828125,41.28294117647059,174.64869295768594
-0.39500048828125,0.80188525390625,-0.6208403320312501,1.0883418874836113,-0.2783203125,3.22265625,-2.25341796875,40.95352941176471,174.64869295768594
-0.41257861328125,0.82776416015625,-0.5690825195312501,1.085941771464887,-0.2333984375,3.65576171875,-1.658203125,41.18882352941176,174.64869295768594
-0.39109423828125,0.85608447265625,-0.5842192382812501,1.1077668734521018,-0.07763671875,3.5263671875,-0.92138671875,41.61235294117647,174.43084535571975
-0.29002001953125,0.88098681640625,-0.6266997070312501,1.1193756765284748,0.01953125,3.22802734375,-0.67724609375,41.28294117647059,174.43084535571975
-0.20066455078125,0.88147509765625,-0.6750395507812501,1.1282477586271944,0.1201171875,2.44677734375,-0.81396484375,41.65941176470589,174.43084535571975
-0.12009814453125,0.83557666015625,-0.7038481445312501,1.0990969610902424,0.11669921875,1.2626953125,-1.24072265625,41.7064705882353,174.43084535571975
-0.12400439453125,0.78040087890625,-0.6965239257812501,1.0533509390732196,0.04736328125,0.0888671875,-1.86279296875,41.18882352941176,174.43084535571975
-0.20505908203125,0.73206103515625,-0.6501372070312501,1.0003204358024151,-0.22705078125,-0.80712890625,-2.3310546875,40.76529411764706,174.50709667900173
-0.32957080078125,0.69153369140625,-0.5768950195312501,0.958980512126034,-0.31982421875,-0.90576171875,-2.28564453125,41.04764705882353,174.50709667900173
-0.42429736328125,0.67200244140625,-0.5148833007812501,0.946953191645066,-0.37646484375,-0.6328125,-2.00390625,40.34176470588236,174.50709667900173
-0.48435595703125,0.65051806640625,-0.4797270507812501,0.942291086174469,-0.36767578125,-0.0283203125,-1.67529296875,40.34176470588236,174.50709667900173
-0.50437548828125,0.62903369140625,-0.4831450195312501,0.9399505987023864,-0.466796875,0.70458984375,-1.32861328125,41.61235294117647,174.60511211847972
-0.53074267578125,0.63293994140625,-0.5334379882812501,0.983288790063395,-0.54638671875,1.5859375,-0.8251953125,41.235882352941175,174.60511211847972
-0.46433642578125,0.61682666015625,-0.6017973632812501,0.9788991324130822,-0.63720703125,2.13671875,-0.369140625,41.37705882352941,174.60511211847972
-0.43015673828125,0.65393603515625,-0.6667387695312501,1.028206080686496,-0.7109375,2.2490234375,0.2978515625,41.65941176470589,174.60511211847972
-0.36277392578125,0.69055712890625,-0.7350981445312501,1.071841103710466,-0.74658203125,1.693359375,0.59375,41.28294117647059,174.60511211847972
-0.29343798828125,0.70862353515625,-0.7521879882812501,1.074262508541782,-0.8203125,0.7900390625,0.55712890625,40.95352941176471,174.52885962511073
-0.28953173828125,0.74768603515625,-0.7180083007812501,1.0762894381301962,-0.75927734375,-0.2275390625,0.30810546875,41.04764705882353,174.52885962511073
-0.32908251953125,0.78186572265625,-0.6867583007812501,1.0914422919319948,-0.58935546875,-0.8310546875,0.12841796875,41.518235294117645,174.52885962511073
-0.32664111328125,0.81946337890625,-0.6350004882812501,1.0869407832865086,-0.53857421875,-1.1494140625,0.14111328125,41.65941176470589,174.52885962511073
-0.28123095703125,0.83655322265625,-0.6008208007812501,1.0676599553138129,-0.5673828125,-1.55078125,0.0048828125,41.65941176470589,174.55062282963706
-0.27195361328125,0.84241259765625,-0.5910551757812501,1.0644078040321214,-0.7685546875,-1.7568359375,-0.43017578125,41.09470588235294,174.55062282963706
-0.26511767578125,0.81946337890625,-0.5656645507812501,1.0304290346213336,-0.9150390625,-1.8037109375,-0.9921875,40.906470588235294,174.55062282963706
-0.31345751953125,0.80139697265625,-0.5158598632812501,1.003296627562276,-0.798828125,-1.61376953125,-1.14306640625,41.04764705882353,174.55062282963706
-0.33689501953125,0.78626025390625,-0.5212309570312501,1.0016911458255957,-0.6904296875,-1.7470703125,-0.92138671875,41.7064705882353,174.55062282963706
-0.39646533203125,0.79944384765625,-0.5124418945312501,1.0290247423307448,-0.3994140625,-1.81103515625,-0.5107421875,40.29470588235294,174.50704234199708
-0.40281298828125,0.76086962890625,-0.5759184570312501,1.0357909851264688,-0.31396484375,-2.2900390625,-0.2392578125,41.18882352941176,174.50704234199708
-0.36521533203125,0.73889697265625,-0.6022856445312501,1.0208324899608607,-0.44189453125,-2.8427734375,-0.3759765625,40.29470588235294,174.50704234199708
-0.34080126953125,0.68860400390625,-0.5778715820312501,0.9613826214515896,-0.5419921875,-2.70947265625,-0.85400390625,41.7064705882353,174.50704234199708
-0.36619189453125,0.67737353515625,-0.5119536132812501,0.9246771933503006,-0.623046875,-1.76171875,-0.658203125,40.53,174.71409123672967
-0.36521533203125,0.67688525390625,-0.4626372070312501,0.8975461386670328,-0.41650390625,-0.95166015625,-0.07421875,40.53,174.71409123672967
-0.39548876953125,0.72327197265625,-0.4553129882812501,0.941723754905337,-0.33349609375,-0.33056640625,0.45703125,40.95352941176471,174.71409123672967
-0.39939501953125,0.77649462890625,-0.4709379882812501,0.9920901567665176,-0.22119140625,-0.2353515625,0.67236328125,40.34176470588236,174.71409123672967
-0.37009814453125,0.79163134765625,-0.5158598632812501,1.0147729922115951,-0.5458984375,-0.666015625,0.31005859375,41.09470588235294,174.71409123672967
-0.38132861328125,0.80335009765625,-0.4641020507812501,1.0030820526012163,-0.53369140625,-0.708984375,-0.17138671875,41.18882352941176,174.59420349615675
-0.39109423828125,0.77014697265625,-0.4675200195312501,0.9821690441929424,-0.50341796875,-0.46826171875,-0.25390625,41.18882352941176,174.59420349615675
-0.37351611328125,0.75793994140625,-0.4689848632812501,0.9664026301943586,-0.40771484375,-0.2421875,-0.09130859375,41.518235294117645,174.59420349615675
-0.35398486328125,0.76233447265625,-0.4841215820312501,0.9699653797021668,-0.35302734375,0.2763671875,0.08544921875,41.04764705882353,174.59420349615675
-0.32859423828125,0.77356494140625,-0.5158598632812501,0.9861482092206222,-0.298828125,0.46826171875,0.046875,40.95352941176471,174.48517134609835
-0.33835986328125,0.78040087890625,-0.5392973632812501,1.007151713953495,-0.43896484375,0.546875,-0.00244140625,41.235882352941175,174.48517134609835
-0.34959033203125,0.82141650390625,-0.5290434570312501,1.0377020056677455,-0.7314453125,0.86181640625,0.1376953125,40.34176470588236,174.48517134609835
-0.33689501953125,0.89172900390625,-0.5241606445312501,1.0878525873793792,-0.74560546875,0.8994140625,0.064453125,41.18882352941176,174.48517134609835
-0.33689501953125,0.90393603515625,-0.5500395507812501,1.1104693229723197,-0.4404296875,0.6787109375,-0.45458984375,41.09470588235294,174.48517134609835
-0.39109423828125,0.83508837890625,-0.5881254882812501,1.093717922394581,-0.13037109375,0.49560546875,-0.8388671875,41.09470588235294,174.5614244120605
-0.38474658203125,0.75549853515625,-0.5993559570312501,1.0382848993589449,0.06640625,0.251953125,-1.0830078125,40.29470588235294,174.5614244120605
-0.36472705078125,0.71838916015625,-0.6198637695312501,1.0165332752935743,0.0361328125,-0.2890625,-1.0498046875,40.29470588235294,174.5614244120605
-0.37449267578125,0.71252978515625,-0.5725004882812501,0.9877754137610848,-0.20556640625,-0.875,-0.7392578125,41.65941176470589,174.5614244120605
-0.40916064453125,0.71790087890625,-0.6418364257812501,1.0463021085839617,-0.37890625,-1.09326171875,-0.4091796875,40.95352941176471,174.64869295768594
-0.46140673828125,0.72961962890625,-0.4841215820312501,0.9897548621780426,-0.47021484375,-0.7900390625,-0.2255859375,40.95352941176471,174.64869295768594
-0.48044970703125,0.72376025390625,-0.4728911132812501,0.9890838342330914,-0.4375,-0.34716796875,-0.166015625,40.906470588235294,174.64869295768594
-0.50535205078125,0.70618212890625,-0.4870512695312501,0.9956368984561496,-0.416015625,0.04150390625,0.05908203125,41.18882352941176,174.64869295768594
-0.49998095703125,0.73010791015625,-0.4973051757812501,1.015062045259023,-0.36962890625,0.4609375,0.63525390625,40.48294117647059,174.64869295768594
-0.42478564453125,0.76917041015625,-0.5334379882812501,1.027921228013757,-0.02880859375,0.607421875,0.861328125,41.18882352941176,174.63773106302315
-0.36082080078125,0.80090869140625,-0.5627348632812501,1.0432242848969062,0.17822265625,0.60986328125,0.64404296875,41.18882352941176,174.63773106302315
-0.29587939453125,0.80920947265625,-0.5734770507812501,1.0350074949088754,0.19580078125,0.6220703125,0.18798828125,41.09470588235294,174.63773106302315
-0.27048876953125,0.81116259765625,-0.5598051757812501,1.022022880913359,0.130859375,0.6689453125,-0.197265625,40.34176470588236,174.63773106302315
-0.27439501953125,0.80188525390625,-0.5461333007812501,1.0082530284596567,0.0,0.75439453125,-0.4013671875,40.43588235294118,174.65960158750568
-0.29148486328125,0.79846728515625,-0.5392973632812501,1.00665539139717,-0.0576171875,0.7119140625,-0.52685546875,41.235882352941175,174.65960158750568
-0.31980517578125,0.80188525390625,-0.5529692382812501,1.0252171913180703,-0.130859375,0.4951171875,-0.5361328125,41.37705882352941,174.65960158750568
-0.32615283203125,0.81604541015625,-0.5739653320312501,1.0496389777694186,-0.119140625,0.36962890625,-0.59814453125,41.09470588235294,174.65960158750568
-0.32810595703125,0.81506884765625,-0.5895903320312501,1.058115071759116,-0.0947265625,0.033203125,-0.7841796875,41.61235294117647,174.65960158750568
-0.33982470703125,0.80090869140625,-0.5861723632812501,1.0490632025543898,-0.01904296875,-0.15478515625,-0.9111328125,41.65941176470589,174.41988190335135
-0.34861376953125,0.78918994140625,-0.5783598632812501,1.0386782251391882,0.04833984375,-0.2705078125,-0.80029296875,40.95352941176471,174.41988190335135
-0.35252001953125,0.78284228515625,-0.5524809570312501,1.0209542670860132,0.15625,-0.27734375,-0.64794921875,41.04764705882353,174.41988190335135
-0.37400439453125,0.77405322265625,-0.5344145507812501,1.0122433456041775,0.2451171875,-0.1923828125,-0.546875,41.04764705882353,174.41988190335135
-0.38230517578125,0.77747119140625,-0.5114653320312501,1.0060892041790446,0.2900390625,-0.07080078125,-0.5,41.7064705882353,174.56147771134735
-0.38132861328125,0.76477587890625,-0.5060942382812501,0.9931893244922172,0.3271484375,0.0029296875,-0.5673828125,41.18882352941176,174.56147771134735
-0.39304736328125,0.74817431640625,-0.5222075195312501,0.9934544433275656,0.33544921875,0.388671875,-0.61181640625,41.09470588235294,174.56147771134735
-0.39304736328125,0.73840869140625,-0.5549223632812501,1.0038288970717475,0.2138671875,0.42431640625,-0.62255859375,40.48294117647059,174.56147771134735
-0.41453173828125,0.74475634765625,-0.5729887695312501,1.0270417272076573,0.158203125,0.38427734375,-0.50244140625,40.906470588235294,174.56147771134735
-0.41209033203125,0.75940478515625,-0.5808012695312501,1.0410783756091315,0.0732421875,0.2431640625,-0.3544921875,41.7064705882353,174.648586726218
-0.38865283203125,0.77356494140625,-0.5744536132812501,1.0389661670288644,0.0498046875,0.1005859375,-0.2861328125,41.04764705882353,174.648586726218
-0.40183642578125,0.78186572265625,-0.5632231445312501,1.0440339227654911,0.05712890625,0.0615234375,-0.35205078125,41.235882352941175,174.648586726218
-0.37400439453125,0.78333056640625,-0.5471098632812501,1.026067866125166,0.01904296875,-0.044921875,-0.44677734375,41.09470588235294,174.648586726218
-0.37400439453125,0.76672900390625,-0.5251372070312501,1.001759321777611,0.0537109375,-0.15869140625,-0.5380859375,41.61235294117647,174.79029237036588
-0.39841845703125,0.75452197265625,-0.5153715820312501,0.9968192121391092,0.0517578125,-0.2314453125,-0.5283203125,40.34176470588236,174.79029237036588
-0.40916064453125,0.74866259765625,-0.5046293945312501,0.9912411129425616,0.080078125,-0.23193359375,-0.54150390625,40.29470588235294,174.79029237036588
-0.41843798828125,0.75598681640625,-0.4894926757812501,0.9930808105388024,0.14111328125,-0.271484375,-0.46923828125,40.43588235294118,174.79029237036588
-0.44041064453125,0.75549853515625,-0.5026762695312501,1.0086738840623983,0.1513671875,-0.2060546875,-0.2900390625,41.235882352941175,174.79029237036588
-0.44675830078125,0.76184619140625,-0.5056059570312501,1.017663983082159,0.2236328125,-0.07763671875,-0.22265625,41.518235294117645,174.61580902315634
-0.37107470703125,0.73938525390625,-0.5114653320312501,0.9726169738196916,0.22509765625,-0.13232421875,-0.37158203125,41.04764705882353,174.61580902315634
-0.45212939453125,0.74866259765625,-0.5241606445312501,1.01963770811206,0.30322265625,-0.04931640625,-0.19384765625,41.65941176470589,174.61580902315634
-0.45017626953125,0.75012744140625,-0.5490629882812501,1.0328697967798728,0.265625,-0.03076171875,-0.0517578125,41.04764705882353,174.61580902315634
-0.40818408203125,0.73499072265625,-0.5617583007812501,1.011136981675128,0.2724609375,-0.14306640625,-0.12939453125,41.518235294117645,174.4306822824393
-0.42039111328125,0.72327197265625,-0.5725004882812501,1.013709940583687,0.2626953125,-0.2880859375,-0.0947265625,40.34176470588236,174.4306822824393
-0.43796923828125,0.71545947265625,-0.5729887695312501,1.0158816076212591,0.25048828125,-0.38671875,0.09228515625,41.65941176470589,174.4306822824393
-0.42820361328125,0.71448291015625,-0.5705473632812501,1.0096377850891125,0.25732421875,-0.39404296875,0.2314453125,41.18882352941176,174.4306822824393
-0.42722705078125,0.72864306640625,-0.5759184570312501,1.0223139147494782,0.27294921875,-0.35888671875,0.30322265625,41.18882352941176,174.4306822824393
-0.41453173828125,0.73059619140625,-0.5812895507812501,1.0215208753555949,0.2353515625,-0.3837890625,0.2919921875,40.906470588235294,174.59409697930477
-0.41502001953125,0.72766650390625,-0.5754301757812501,1.0162972226265818,0.2177734375,-0.453125,0.27197265625,41.235882352941175,174.59409697930477
-0.43210986328125,0.72668994140625,-0.5822661132812501,1.0265627265596649,0.20703125,-0.52099609375,0.2763671875,41.04764705882353,174.59409697930477
-0.42722705078125,0.73059619140625,-0.5788481445312501,1.0253579483496646,0.15673828125,-0.48095703125,0.34765625,41.18882352941176,174.59409697930477
-0.44382861328125,0.73108447265625,-0.5881254882812501,1.0379595050348946,0.08984375,-0.39501953125,0.41015625,40.34176470588236,174.7466061533303
-0.46482470703125,0.72376025390625,-0.6198637695312501,1.0602462007376483,-0.142578125,-0.33447265625,0.64013671875,41.7064705882353,174.7466061533303
-0.42918017578125,0.73059619140625,-0.6174223632812501,1.0484163261132222,-0.40673828125,-0.0615234375,0.9658203125,41.235882352941175,174.7466061533303
-0.38914111328125,0.72913134765625,-0.6140043945312501,1.0295944467043696,-0.51904296875,0.19873046875,1.0458984375,40.43588235294118,174.7466061533303
-0.35642626953125,0.72034228515625,-0.6306059570312501,1.0215657425929034,-0.61962890625,0.2392578125,0.70703125,41.65941176470589,174.7466061533303
-0.34910205078125,0.72522509765625,-0.6296293945312501,1.0218888680223406,-0.6484375,0.09619140625,0.38916015625,41.09470588235294,174.44148422143172
-0.36082080078125,0.71887744140625,-0.6359770507812501,1.0253990614193265,-0.63671875,-0.123046875,0.28857421875,41.235882352941175,174.44148422143172
-0.36863330078125,0.70764697265625,-0.6374418945312501,1.0212673094043616,-0.6455078125,-0.427734375,0.35986328125,41.7064705882353,174.44148422143172
-0.39597705078125,0.71057666015625,-0.6257231445312501,1.026277968343033,-0.78955078125,-0.60205078125,0.68017578125,41.518235294117645,174.44148422143172
-0.37400439453125,0.74085009765625,-0.5910551757812501,1.0188642574669928,-0.84033203125,-0.66796875,0.88037109375,40.29470588235294,174.62676975151984
-0.32615283203125,0.77502978515625,-0.5588286132812501,1.0096218384836932,-0.79248046875,-0.8564453125,0.6669921875,41.18882352941176,174.62676975151984
-0.31980517578125,0.77551806640625,-0.5368559570312501,0.9959507720660216,-0.68310546875,-1.2109375,0.255859375,41.65941176470589,174.62676975151984
-0.35252001953125,0.76282275390625,-0.5056059570312501,0.9807172384703524,-0.56982421875,-1.46337890625,-0.0166015625,41.04764705882353,174.62676975151984
-0.40378955078125,0.75354541015625,-0.4611723632812501,0.9713684342936454,-0.46337890625,-1.3154296875,-0.0048828125,41.09470588235294,174.62676975151984
-0.41892626953125,0.77307666015625,-0.4391997070312501,0.9828749281765444,-0.36279296875,-0.77490234375,0.0986328125,40.76529411764706,174.278070737194
-0.40769580078125,0.80383837890625,-0.4348051757812501,1.000713518577348,-0.2158203125,-0.20751953125,0.12548828125,41.7064705882353,174.278070737194
-0.36863330078125,0.81213916015625,-0.4426176757812501,0.9956761184331852,-0.02978515625,0.005859375,-0.1103515625,40.29470588235294,174.278070737194
-0.35593798828125,0.77454150390625,-0.4601958007812501,0.96870355002537,0.05615234375,-0.08544921875,-0.4169921875,41.235882352941175,174.278070737194
-0.38474658203125,0.73938525390625,-0.4807036132812501,0.9621831685809042,0.068359375,-0.23388671875,-0.38818359375,40.43588235294118,174.59404439216712
-0.41160205078125,0.73840869140625,-0.4899809570312501,0.9771105270156908,0.025390625,-0.19091796875,-0.18017578125,41.7064705882353,174.59404439216712
-0.40427783203125,0.76526416015625,-0.4992583007812501,0.9991639761273018,-0.00146484375,-0.09033203125,-0.03857421875,41.235882352941175,174.59404439216712
-0.40525439453125,0.79553759765625,-0.5031645507812501,1.0248345030952386,-0.052734375,0.1142578125,-0.0078125,41.18882352941176,174.59404439216712
-0.37351611328125,0.80188525390625,-0.5158598632812501,1.024034006201734,-0.00927734375,0.21875,-0.13720703125,41.235882352941175,174.59404439216712
-0.34568408203125,0.79749072265625,-0.5290434570312501,1.0175342336846225,0.0263671875,0.1025390625,-0.30908203125,41.09470588235294,174.65944272869598
-0.34812548828125,0.77795947265625,-0.5173247070312501,0.9970141168467064,0.04052734375,-0.05517578125,-0.3681640625,41.18882352941176,174.65944272869598
-0.37400439453125,0.77210009765625,-0.5392973632812501,1.0133407590596493,0.0576171875,-0.23779296875,-0.2802734375,41.18882352941176,174.65944272869598
-0.42673876953125,0.78967822265625,-0.5295317382812501,1.0421619521963663,0.0966796875,-0.30029296875,-0.31982421875,40.906470588235294,174.65944272869598
-0.33591845703125,0.77454150390625,-0.5148833007812501,0.9888683251429417,0.10107421875,-0.4697265625,-0.44873046875,40.906470588235294,174.44148422143172
-0.42332080078125,0.77942431640625,-0.4904692382812501,1.013539757029599,0.14501953125,-0.328125,-0.26416015625,41.7064705882353,174.44148422143172
-0.41257861328125,0.78040087890625,-0.4855864257812501,1.0074923428184137,0.13134765625,0.005859375,-0.2431640625,41.518235294117645,174.44148422143172
-0.37595751953125,0.76233447265625,-0.5051176757812501,0.9887576907811262,0.162109375,0.005859375,-0.5263671875,40.34176470588236,174.44148422143172
-0.39890673828125,0.75696337890625,-0.5143950195312501,0.9983598444298066,0.1015625,-0.19580078125,-0.5380859375,41.7064705882353,174.44148422143172
-0.43259814453125,0.74280322265625,-0.5065825195312501,0.997759305311166,0.087890625,-0.18115234375,-0.3447265625,40.43588235294118,174.65944272869598
-0.45505908203125,0.74915087890625,-0.5065825195312501,1.0123890836036114,0.1337890625,-0.068359375,-0.18505859375,40.34176470588236,174.65944272869598
-0.45652392578125,0.74231494140625,-0.5109770507812501,1.0102193392876582,0.091796875,0.06640625,-0.02197265625,41.18882352941176,174.65944272869598
-0.44627001953125,0.73889697265625,-0.5085356445312501,1.001865344391055,0.09716796875,0.15771484375,0.05712890625,40.95352941176471,174.65944272869598
-0.43113330078125,0.73254931640625,-0.5041411132812501,0.9882624581103232,0.11474609375,0.2255859375,0.0986328125,40.95352941176471,174.56137156029757
-0.42918017578125,0.72131884765625,-0.5139067382812501,0.9841730736606434,0.12939453125,0.3310546875,0.07958984375,41.235882352941175,174.56137156029757
-0.42039111328125,0.70911181640625,-0.5300200195312501,0.9800456506697668,0.158203125,0.4306640625,0.16162109375,41.65941176470589,174.56137156029757
-0.41355517578125,0.70276416015625,-0.5432036132812501,0.9797834014196128,0.1279296875,0.39599609375,0.25439453125,40.48294117647059,174.56137156029757
-0.40525439453125,0.70667041015625,-0.5534575195312501,0.9848499473538984,0.095703125,0.34423828125,0.322265625,41.18882352941176,174.56137156029757
-0.40720751953125,0.72522509765625,-0.5544340820312501,0.9995831919110814,0.0654296875,0.310546875,0.27099609375,41.18882352941176,174.57222755439824
-0.40720751953125,0.74182666015625,-0.5495512695312501,1.0090249528751896,0.07666015625,0.251953125,0.25146484375,40.906470588235294,174.57222755439824
-0.40671923828125,0.75208056640625,-0.5461333007812501,1.0145478300091373,0.06396484375,0.2041015625,0.22607421875,40.48294117647059,174.57222755439824
-0.39744189453125,0.76575244140625,-0.5329497070312501,1.0140869051875767,0.0830078125,0.1533203125,0.24609375,41.28294117647059,174.57222755439824
-0.39353564453125,0.77600634765625,-0.5192778320312501,1.0132648330809149,0.10107421875,0.16455078125,0.25341796875,41.65941176470589,174.72478929795088
-0.38718798828125,0.78235400390625,-0.5231840820312501,1.0177003043078563,0.14892578125,0.2333984375,0.17041015625,41.04764705882353,174.72478929795088
-0.37449267578125,0.77014697265625,-0.5305083007812501,1.0073778739396635,0.197265625,0.373046875,0.12841796875,41.65941176470589,174.72478929795088
-0.36472705078125,0.76282275390625,-0.5373442382812501,1.0018299286120178,0.2119140625,0.15185546875,0.09765625,40.48294117647059,174.72478929795088
-0.36472705078125,0.75989306640625,-0.5412504882812501,1.001706236882138,0.25634765625,0.06640625,0.10107421875,41.09470588235294,174.72478929795088
-0.35935595703125,0.76379931640625,-0.5383208007812501,1.0011570227243412,0.2783203125,-0.02392578125,0.0263671875,40.43588235294118,174.69206411757625
-0.36716845703125,0.76428759765625,-0.5261137695312501,0.9978696840070111,0.29541015625,-0.01611328125,-0.10693359375,41.65941176470589,174.69206411757625
-0.37937548828125,0.75842822265625,-0.5178129882812501,0.9936143219896306,0.36474609375,0.123046875,-0.1943359375,41.47117647058823,174.69206411757625
-0.38816455078125,0.75012744140625,-0.5226958007812501,0.9932642130814182,0.39208984375,0.21875,-0.2265625,41.235882352941175,174.69206411757625
-0.40916064453125,0.75305712890625,-0.5280668945312501,1.0066588883676688,0.42431640625,0.23193359375,-0.13134765625,40.34176470588236,174.47415674280498
-0.43259814453125,0.75891650390625,-0.5392973632812501,1.0266143680054718,0.380859375,0.1533203125,-0.01806640625,40.34176470588236,174.47415674280498
-0.42087939453125,0.76428759765625,-0.5407622070312501,1.0264983006442154,0.32470703125,0.04052734375,0.06787109375,40.95352941176471,174.47415674280498
-0.39402392578125,0.76477587890625,-0.5246489257812501,1.007667353032892,0.265625,-0.02197265625,0.1484375,41.7064705882353,174.47415674280498
-0.37644580078125,0.75842822265625,-0.5036528320312501,0.9851857617020524,0.2421875,0.05419921875,0.04736328125,40.95352941176471,174.47415674280498
-0.37888720703125,0.74915087890625,-0.4914458007812501,0.972780309280298,0.2314453125,0.3408203125,-0.0625,41.65941176470589,174.56126719933866
-0.38132861328125,0.74377978515625,-0.5002348632812501,0.9740917813820676,0.24853515625,0.68896484375,-0.21630859375,40.906470588235294,174.56126719933866
-0.38279345703125,0.74573291015625,-0.5266020507812501,0.9899283428223798,0.26220703125,0.92138671875,-0.3623046875,41.7064705882353,174.56126719933866
-0.38035205078125,0.74280322265625,-0.5485747070312501,0.998678386326867,0.244140625,1.0078125,-0.41259765625,41.7064705882353,174.56126719933866
-0.38474658203125,0.74377978515625,-0.5720122070312501,1.0141184675295922,0.2646484375,0.947265625,-0.3818359375,40.43588235294118,174.5176856996096
-0.40623095703125,0.74817431640625,-0.6017973632812501,1.0425682062257364,0.22509765625,0.7841796875,-0.22607421875,41.235882352941175,174.5176856996096
-0.39939501953125,0.74866259765625,-0.6149809570312501,1.0479568904620284,0.2041015625,0.5390625,-0.25927734375,40.95352941176471,174.5176856996096
-0.35398486328125,0.74426806640625,-0.5969145507812501,1.0176184054146844,0.1806640625,0.158203125,-0.3203125,40.906470588235294,174.5176856996096
-0.37644580078125,0.74622119140625,-0.5803129882812501,1.0175070868537055,0.208984375,0.04443359375,-0.2548828125,40.62411764705882,174.5176856996096
-0.41062548828125,0.73743212890625,-0.5749418945312501,1.0212627568146222,0.19287109375,0.19140625,-0.1953125,41.04764705882353,174.79003513589055
-0.40281298828125,0.72766650390625,-0.5925200195312501,1.0211938199874342,0.1669921875,0.15380859375,-0.30712890625,41.65941176470589,174.79003513589055
-0.39793017578125,0.72131884765625,-0.5978911132812501,1.0179013155125252,0.0810546875,-0.021484375,-0.2607421875,41.61235294117647,174.79003513589055
-0.41306689453125,0.73157275390625,-0.6047270507812501,1.0351414200785582,0.00146484375,-0.1630859375,-0.0712890625,40.906470588235294,174.79003513589055
-0.41599658203125,0.74231494140625,-0.6120512695312501,1.0481848048085136,-0.05419921875,-0.34375,0.1875,41.18882352941176,174.69201277184828
-0.40574267578125,0.74622119140625,-0.6032622070312501,1.0418245897876026,-0.16162109375,-0.50537109375,0.3076171875,40.95352941176471,174.69201277184828
-0.39695361328125,0.74329150390625,-0.5886137695312501,1.0278718794470656,-0.21875,-0.8564453125,0.4033203125,41.28294117647059,174.69201277184828
-0.38572314453125,0.74768603515625,-0.5617583007812501,1.0116269766526524,-0.232421875,-0.95263671875,0.40087890625,41.7064705882353,174.69201277184828
-0.38669970703125,0.74915087890625,-0.5402739257812501,1.0013289258096687,-0.22509765625,-0.9736328125,0.3154296875,40.62411764705882,174.69201277184828
-0.37986376953125,0.75793994140625,-0.5178129882812501,0.9934282706940438,-0.2099609375,-0.859375,0.1748046875,41.18882352941176,174.89901736310273
-0.39695361328125,0.77014697265625,-0.5100004882812501,1.005385015123928,-0.173828125,-0.56982421875,0.02587890625,41.235882352941175,174.89901736310273
-0.40916064453125,0.77210009765625,-0.5109770507812501,1.012249248090174,-0.13232421875,-0.1787109375,-0.0537109375,40.29470588235294,174.89901736310273
-0.39744189453125,0.77258837890625,-0.5178129882812501,1.0114262966634469,-0.07275390625,0.0869140625,-0.0703125,41.65941176470589,174.89901736310273
-0.38425830078125,0.76086962890625,-0.5256254882812501,1.0014285735099286,-0.00537109375,0.11328125,-0.07421875,41.18882352941176,174.49586905354957
-0.38132861328125,0.76038134765625,-0.5314848632812501,1.0030291446750812,0.07421875,0.0087890625,-0.15380859375,41.04764705882353,174.49586905354957
-0.38767626953125,0.74719775390625,-0.5290434570312501,0.9942255040119355,0.12890625,-0.0947265625,-0.17822265625,40.34176470588236,174.49586905354957
-0.39890673828125,0.74524462890625,-0.5290434570312501,0.997197634467399,0.1474609375,-0.10400390625,-0.19775390625,41.09470588235294,174.49586905354957
-0.40867236328125,0.74475634765625,-0.5270903320312501,0.9997496366615856,0.169921875,0.052734375,-0.19970703125,41.04764705882353,174.49586905354957
-0.41111376953125,0.74231494140625,-0.5295317382812501,1.0002249074984688,0.16943359375,0.126953125,-0.15869140625,41.7064705882353,174.2126202102515
-0.41355517578125,0.74475634765625,-0.5529692382812501,1.0156105943101832,0.13720703125,0.4140625,-0.134765625,41.235882352941175,174.2126202102515
-0.40134814453125,0.73938525390625,-0.5705473632812501,1.0165112791109965,0.10986328125,0.41259765625,-0.15185546875,41.65941176470589,174.2126202102515
-0.40232470703125,0.74182666015625,-0.5778715820312501,1.0227939816628064,0.0888671875,0.302734375,-0.15185546875,40.29470588235294,174.2126202102515
-0.40281298828125,0.73450244140625,-0.5734770507812501,1.015198536116248,0.08203125,0.20458984375,-0.1044921875,40.95352941176471,174.34325688210723
-0.40720751953125,0.73938525390625,-0.5646879882812501,1.015569319035352,0.09326171875,0.1474609375,-0.0771484375,40.76529411764706,174.34325688210723
-0.41550830078125,0.74426806640625,-0.5705473632812501,1.0257223778573843,0.1123046875,0.1357421875,-0.05029296875,41.18882352941176,174.34325688210723
-0.41160205078125,0.74426806640625,-0.5656645507812501,1.0214340834777262,0.10205078125,0.0986328125,-0.125,41.61235294117647,174.34325688210723
-0.41746142578125,0.73645556640625,-0.5676176757812501,1.0192304298662658,0.07177734375,0.06640625,0.06396484375,41.04764705882353,174.34325688210723
-0.41306689453125,0.73645556640625,-0.5646879882812501,1.0158068639055196,0.03662109375,0.0576171875,0.14404296875,41.7064705882353,174.83366825461084
-0.38523486328125,0.74719775390625,-0.5690825195312501,1.0151676203297186,0.015625,-0.041015625,0.13232421875,40.29470588235294,174.83366825461084
-0.37839892578125,0.75159228515625,-0.5466215820312501,1.0034300494210566,0.068359375,-0.08154296875,0.07421875,40.95352941176471,174.83366825461084
-0.40476611328125,0.75159228515625,-0.5344145507812501,1.0071372705117851,0.099609375,0.01025390625,0.06494140625,41.18882352941176,174.83366825461084
-0.40427783203125,0.75696337890625,-0.5270903320312501,1.0071039373360964,0.14794921875,0.1455078125,0.0263671875,41.09470588235294,174.3433089620714
-0.40183642578125,0.75354541015625,-0.5378325195312501,1.0092408123523016,0.17919921875,0.17578125,-0.00439453125,40.43588235294118,174.3433089620714
-0.40671923828125,0.74573291015625,-0.5397856445312501,1.0064326376465575,0.15380859375,0.20849609375,0.037109375,40.95352941176471,174.3433089620714
-0.40574267578125,0.75403369140625,-0.5412504882812501,1.0129886562990509,0.14111328125,0.263671875,0.1171875,41.09470588235294,174.3433089620714
-0.38669970703125,0.76038134765625,-0.5646879882812501,1.0230293159976964,0.12744140625,0.271484375,0.13623046875,41.37705882352941,174.3433089620714
-0.36423876953125,0.75208056640625,-0.5773833007812501,1.0157098678346277,0.12744140625,0.24951171875,-0.09765625,41.04764705882353,174.59394056045878
-0.36082080078125,0.73401416015625,-0.5783598632812501,1.0017327832516083,0.04638671875,-0.01806640625,-0.142578125,40.906470588235294,174.59394056045878
-0.42283251953125,0.74915087890625,-0.5554106445312501,1.0239606257067555,0.13720703125,0.06884765625,0.0908203125,41.65941176470589,174.59394056045878
-0.41013720703125,0.76575244140625,-0.5646879882812501,1.0360800423809695,0.1103515625,0.1962890625,0.138671875,41.09470588235294,174.59394056045878
-0.37253955078125,0.74768603515625,-0.5783598632812501,1.016031621318291,0.09130859375,0.1015625,-0.05224609375,40.29470588235294,174.68105362950496
-0.39451220703125,0.73840869140625,-0.5759184570312501,1.0161541941015717,0.0634765625,-0.02783203125,-0.04443359375,40.34176470588236,174.68105362950496
-0.40916064453125,0.74036181640625,-0.5661528320312501,1.01787871646999,0.0595703125,-0.03271484375,0.05908203125,40.95352941176471,174.68105362950496
-0.38572314453125,0.74915087890625,-0.5661528320312501,1.0151543788065376,0.08984375,-0.00341796875,0.041015625,40.43588235294118,174.68105362950496
-0.37449267578125,0.74670947265625,-0.5622465820312501,1.0069463837634052,0.11474609375,-0.0888671875,0.005859375,41.18882352941176,174.68105362950496
-0.38572314453125,0.74719775390625,-0.5515043945312501,1.005606247423365,0.13232421875,-0.16845703125,0.0009765625,41.04764705882353,174.92083392507493
-0.39646533203125,0.74866259765625,-0.5324614257812501,1.000597628708491,0.1572265625,-0.09765625,0.03662109375,41.04764705882353,174.92083392507493
-0.39793017578125,0.75647509765625,-0.5392973632812501,1.010665446235023,0.2021484375,0.0205078125,0.013671875,40.43588235294118,174.92083392507493
-0.39695361328125,0.75208056640625,-0.5432036132812501,1.009092421408858,0.2060546875,0.05078125,-0.04052734375,40.48294117647059,174.92083392507493
-0.40525439453125,0.74426806640625,-0.5573637695312501,1.0143078677330035,0.193359375,0.05322265625,-0.025390625,40.48294117647059,174.56121569013771
-0.41355517578125,0.73694384765625,-0.5641997070312501,1.016088297062813,0.1357421875,0.046875,0.11572265625,41.7064705882353,174.56121569013771
-0.40818408203125,0.73840869140625,-0.5715239257812501,1.0190688093099487,0.08544921875,0.07763671875,0.22314453125,41.28294117647059,174.56121569013771
-0.40476611328125,0.72668994140625,-0.5729887695312501,1.0100643580538642,0.04248046875,0.05224609375,0.29248046875,40.29470588235294,174.56121569013771
-0.40085986328125,0.73108447265625,-0.5788481445312501,1.01500655691291,0.0224609375,0.029296875,0.33203125,40.906470588235294,174.56121569013771
-0.40037158203125,0.74182666015625,-0.5734770507812501,1.0195489812606076,0.1240234375,0.0087890625,0.35205078125,41.09470588235294,174.59388931589297
-0.40427783203125,0.74182666015625,-0.5715239257812501,1.019993606318626,0.0,-0.001953125,0.3583984375,41.04764705882353,174.59388931589297
-0.40134814453125,0.75208056640625,-0.5632231445312501,1.0217268823028454,-0.00390625,-0.0439453125,0.3408203125,41.09470588235294,174.59388931589297
-0.40720751953125,0.75305712890625,-0.5598051757812501,1.0228855450101904,0.02001953125,-0.00537109375,0.3525390625,41.235882352941175,174.59388931589297
-0.39890673828125,0.75891650390625,-0.5475981445312501,1.0173222565350364,0.029296875,0.037109375,0.36962890625,41.235882352941175,174.6157058426343
-0.39744189453125,0.76184619140625,-0.5539458007812501,1.0223627678529663,0.0517578125,0.115234375,0.41748046875,41.28294117647059,174.6157058426343
-0.37839892578125,0.76526416015625,-0.5549223632812501,1.018211083774726,0.083984375,0.1318359375,0.349609375,41.09470588235294,174.6157058426343
-0.36521533203125,0.76086962890625,-0.5495512695312501,1.0071302938478417,0.08154296875,0.14208984375,0.27001953125,40.34176470588236,174.6157058426343
-0.35642626953125,0.74866259765625,-0.5510161132812501,0.9955672392344692,0.0341796875,0.15966796875,0.2470703125,40.48294117647059,174.6157058426343
-0.35252001953125,0.73889697265625,-0.5451567382812501,0.9835827213124148,-0.0322265625,0.2333984375,0.2275390625,41.7064705882353,174.60474671440895
-0.36082080078125,0.74524462890625,-0.5563872070312501,0.9975710156866388,-0.060546875,0.349609375,0.2392578125,40.29470588235294,174.60474671440895
-0.36033251953125,0.76233447265625,-0.5661528320312501,1.0156389132210455,-0.08740234375,0.39599609375,0.125,41.09470588235294,174.60474671440895
-0.36082080078125,0.77063525390625,-0.5695708007812501,1.023953730371723,-0.12255859375,0.412109375,0.21728515625,40.43588235294118,174.60474671440895
-0.35496142578125,0.77991259765625,-0.5739653320312501,1.0313571040863203,-0.16748046875,0.45263671875,0.1728515625,40.48294117647059,174.50672571784904
-0.34470751953125,0.77893603515625,-0.5793364257812501,1.030143346881064,-0.17138671875,0.416015625,0.07080078125,41.18882352941176,174.50672571784904
-0.32029345703125,0.75842822265625,-0.5783598632812501,1.0061318994014918,-0.1796875,0.27392578125,-0.12158203125,41.04764705882353,174.50672571784904
-0.34812548828125,0.74329150390625,-0.5754301757812501,1.00239388594001,-0.173828125,0.17724609375,-0.1953125,40.48294117647059,174.50672571784904
-0.36277392578125,0.72620166015625,-0.5842192382812501,1.000142935193944,-0.16845703125,0.17431640625,-0.1767578125,41.7064705882353,174.50672571784904
-0.36375048828125,0.71252978515625,-0.6027739257812501,1.001673358965586,-0.13916015625,0.193359375,-0.1533203125,40.29470588235294,174.56116462847058
-0.35496142578125,0.71301806640625,-0.6096098632812501,1.0030037697955825,-0.12255859375,0.201171875,-0.1533203125,41.7064705882353,174.56116462847058
-0.35789111328125,0.71594775390625,-0.6164458007812501,1.0102834555657805,-0.11474609375,0.17333984375,-0.138671875,41.09470588235294,174.56116462847058
-0.36619189453125,0.73645556640625,-0.6208403320312501,1.030488244856684,-0.09228515625,0.1357421875,-0.0888671875,41.7064705882353,174.56116462847058
-0.35691455078125,0.73010791015625,-0.6252348632812501,1.0253605177177596,-0.0615234375,0.04541015625,-0.2236328125,40.29470588235294,174.4630418186201
-0.32810595703125,0.71204150390625,-0.6179106445312501,0.998233533272396,-0.080078125,-0.24462890625,-0.32421875,41.28294117647059,174.4630418186201
-0.38084033203125,0.72766650390625,-0.5832426757812501,1.0073281085432342,-0.06689453125,-0.4931640625,-0.189453125,40.95352941176471,174.4630418186201
-0.42673876953125,0.73596728515625,-0.5822661132812501,1.030915927181727,-0.1328125,-0.28076171875,0.00146484375,41.7064705882353,174.4630418186201
-0.36082080078125,0.73938525390625,-0.5949614257812501,1.015313400944797,-0.1767578125,-0.1953125,-0.1875,40.34176470588236,174.4630418186201
-0.35447314453125,0.72815478515625,-0.6022856445312501,1.0092614125925157,-0.2412109375,-0.4326171875,-0.2890625,41.7064705882353,174.22337034151988
-0.38181689453125,0.73694384765625,-0.5900786132812501,1.0183629733055934,-0.23876953125,-0.54248046875,-0.15673828125,40.34176470588236,174.22337034151988
-0.38230517578125,0.75549853515625,-0.5817778320312501,1.0273269829491258,-0.15966796875,-0.47998046875,-0.08251953125,41.7064705882353,174.22337034151988
-0.36668017578125,0.76477587890625,-0.5764067382812501,1.0254663447445873,-0.076171875,-0.54931640625,-0.18603515625,41.09470588235294,174.22337034151988
-0.36228564453125,0.75696337890625,-0.5656645507812501,1.012037958403312,-0.0625,-0.673828125,-0.22802734375,41.09470588235294,174.59373826734415
-0.36814501953125,0.75989306640625,-0.5485747070312501,1.0069272252612795,-0.0341796875,-0.69921875,-0.2275390625,41.18882352941176,174.59373826734415
-0.37107470703125,0.75891650390625,-0.5251372070312501,0.9946958250179776,-0.03466796875,-0.56103515625,-0.2568359375,40.906470588235294,174.59373826734415
-0.37058642578125,0.75940478515625,-0.5153715820312501,0.9897665352278412,-0.017578125,-0.35107421875,-0.3544921875,41.18882352941176,174.59373826734415
-0.37253955078125,0.75940478515625,-0.5168364257812501,0.9912624453840886,-0.04296875,-0.1748046875,-0.42919921875,41.04764705882353,174.59373826734415
-0.37839892578125,0.76135791015625,-0.5100004882812501,0.9914394144056458,-0.05908203125,-0.00146484375,-0.4912109375,41.235882352941175,174.8117516629309
-0.38132861328125,0.74963916015625,-0.5085356445312501,0.982842247517669,-0.0615234375,0.126953125,-0.57373046875,41.235882352941175,174.8117516629309
-0.39988330078125,0.74133837890625,-0.5104887695312501,0.9849304696782328,-0.10400390625,0.1953125,-0.56201171875,40.48294117647059,174.8117516629309
-0.42087939453125,0.73303759765625,-0.5222075195312501,0.993571475925924,-0.14990234375,0.2177734375,-0.4921875,40.95352941176471,174.8117516629309
-0.43113330078125,0.73401416015625,-0.5495512695312501,1.013241979092768,-0.21533203125,0.22216796875,-0.36669921875,40.43588235294118,174.76811914148308
-0.42869189453125,0.73694384765625,-0.5466215820312501,1.0127478111442836,-0.302734375,0.1630859375,-0.30126953125,41.18882352941176,174.76811914148308
-0.43162158203125,0.74182666015625,-0.5495512695312501,1.0191224566445116,-0.35498046875,0.07568359375,-0.37109375,41.518235294117645,174.76811914148308
-0.43943408203125,0.74085009765625,-0.5432036132812501,1.0183473597597867,-0.3701171875,0.09375,-0.15625,41.04764705882353,174.76811914148308
-0.43796923828125,0.73499072265625,-0.5515043945312501,1.0179319786993115,-0.3818359375,0.150390625,-0.03564453125,41.65941176470589,174.76811914148308
-0.42380908203125,0.72815478515625,-0.5495512695312501,1.0058976722318846,-0.38623046875,0.1455078125,0.068359375,41.09470588235294,174.6373706440265
-0.40525439453125,0.72668994140625,-0.5651762695312501,1.005849695963154,-0.341796875,0.10107421875,0.05810546875,41.47117647058823,174.6373706440265
-0.39695361328125,0.72522509765625,-0.5681059570312501,1.0031291002567666,-0.30859375,0.025390625,0.0859375,40.43588235294118,174.6373706440265
-0.38621142578125,0.73596728515625,-0.5661528320312501,1.0056520966225109,-0.27490234375,-0.11474609375,0.11572265625,40.43588235294118,174.6373706440265
-0.38572314453125,0.74036181640625,-0.5641997070312501,1.0075908260963802,-0.22607421875,-0.2216796875,0.17333984375,41.235882352941175,174.58283020740708
-0.38767626953125,0.74426806640625,-0.5539458007812501,1.0055266256210946,-0.171875,-0.3271484375,0.16552734375,41.04764705882353,174.58283020740708
-0.38230517578125,0.74573291015625,-0.5358793945312501,0.9947067639271492,-0.09912109375,-0.35009765625,0.1494140625,41.04764705882353,174.58283020740708
-0.38718798828125,0.75256884765625,-0.5261137695312501,0.996529029794074,-0.02001953125,-0.23388671875,0.1962890625,40.34176470588236,174.58283020740708
-0.39109423828125,0.77551806640625,-0.5139067382812501,1.009199242067766,0.0498046875,-0.001953125,0.1787109375,41.18882352941176,174.58283020740708
-0.37351611328125,0.78333056640625,-0.5261137695312501,1.014848147082828,0.13330078125,0.14697265625,0.0068359375,41.7064705882353,174.4411252187645
-0.38767626953125,0.78088916015625,-0.5461333007812501,1.028757674396368,0.2197265625,0.13427734375,-0.0498046875,41.7064705882353,174.4411252187645
-0.40525439453125,0.75501025390625,-0.5788481445312501,1.034087415172306,0.16845703125,-0.0546875,0.13671875,41.235882352941175,174.4411252187645
-0.43992236328125,0.74182666015625,-0.6081450195312501,1.0553098332784552,-0.0498046875,-0.3115234375,0.66748046875,41.18882352941176,174.4411252187645
-0.42625048828125,0.76575244140625,-0.6008208007812501,1.0625685459917675,-0.22265625,-0.1357421875,1.40771484375,40.43588235294118,174.53929774644118
-0.33835986328125,0.80725634765625,-0.5900786132812501,1.0556244492066948,-0.107421875,0.263671875,1.4013671875,40.43588235294118,174.53929774644118
-0.29050830078125,0.83118212890625,-0.5905668945312501,1.0602018964104052,0.0927734375,0.40185546875,0.4736328125,40.34176470588236,174.53929774644118
-0.30759814453125,0.82336962890625,-0.6154692382812501,1.073012836640264,0.25,0.18896484375,-0.42431640625,41.18882352941176,174.53929774644118
-0.32761767578125,0.76770556640625,-0.6354887695312501,1.0490715678045,0.2919921875,-0.4091796875,-0.8515625,41.18882352941176,174.53929774644118
-0.34714892578125,0.71643603515625,-0.6193754882812501,1.0086718815477709,0.21630859375,-1.138671875,-0.8291015625,41.7064705882353,174.22331848466345
-0.40525439453125,0.70422900390625,-0.5695708007812501,0.9922603042207592,0.0087890625,-1.69287109375,-0.447265625,41.28294117647059,174.22331848466345
-0.43845751953125,0.72034228515625,-0.5109770507812501,0.9860200559028852,-0.076171875,-1.7431640625,-0.15380859375,41.28294117647059,174.22331848466345
-0.44822314453125,0.72424853515625,-0.4792387695312501,0.9772971534754832,-0.0400390625,-1.380859375,-0.0830078125,41.09470588235294,174.22331848466345
-0.43992236328125,0.71936572265625,-0.4528715820312501,0.9571370844655408,0.03173828125,-0.9638671875,-0.1455078125,41.61235294117647,174.74625399753936
-0.44675830078125,0.72815478515625,-0.4260161132812501,0.9546162052040376,0.07568359375,-0.74462890625,-0.02880859375,40.95352941176471,174.74625399753936
-0.44334033203125,0.74182666015625,-0.4250395507812501,0.9630763539057962,0.14453125,-0.205078125,0.06005859375,40.43588235294118,174.74625399753936
-0.42380908203125,0.75647509765625,-0.4377348632812501,0.9713292551540176,0.240234375,0.24755859375,0.01708984375,40.53,174.74625399753936
-0.41160205078125,0.76672900390625,-0.4597075195312501,0.984185255504255,0.2744140625,0.509765625,-0.07275390625,40.48294117647059,174.74625399753936
-0.40525439453125,0.76233447265625,-0.4909575195312501,0.9931889339250868,0.23583984375,0.57568359375,-0.14794921875,41.235882352941175,174.48465828414552
-0.40037158203125,0.75891650390625,-0.5173247070312501,1.0019363832621608,0.212890625,0.61474609375,-0.1181640625,41.65941176470589,174.48465828414552
-0.40232470703125,0.75452197265625,-0.5388090820312501,1.0106848193122415,0.1875,0.673828125,-0.08447265625,41.7064705882353,174.48465828414552
-0.39304736328125,0.75354541015625,-0.5632231445312501,1.019576983599357,0.1982421875,0.6455078125,-0.05517578125,41.04764705882353,174.48465828414552
-0.38425830078125,0.74524462890625,-0.5812895507812501,1.0202654264848805,0.1875,0.47119140625,-0.02880859375,41.235882352941175,174.75711344020513
-0.37546923828125,0.74377978515625,-0.5871489257812501,1.0192788523013,0.1552734375,0.21826171875,0.02490234375,41.65941176470589,174.75711344020513
-0.39353564453125,0.73987353515625,-0.5822661132812501,1.020449400125693,0.08447265625,0.0205078125,0.08447265625,41.235882352941175,174.75711344020513
-0.39890673828125,0.75305712890625,-0.5544340820312501,1.0166704365528414,0.048828125,0.0,0.076171875,41.7064705882353,174.75711344020513
-0.41550830078125,0.75696337890625,-0.5436918945312501,1.0204124564127337,0.0751953125,0.10693359375,-0.04541015625,40.34176470588236,174.75711344020513
-0.42185595703125,0.75549853515625,-0.5471098632812501,1.0237527473006456,0.119140625,0.26171875,-0.09130859375,41.18882352941176,174.6045968255431
-0.40964892578125,0.73889697265625,-0.5558989257812501,1.011338021770689,0.12548828125,0.322265625,-0.03662109375,41.04764705882353,174.6045968255431
-0.40964892578125,0.73450244140625,-0.5754301757812501,1.019031876844446,0.1630859375,0.31298828125,0.048828125,40.95352941176471,174.6045968255431
-0.37986376953125,0.73938525390625,-0.5803129882812501,1.0137801544045013,0.21630859375,0.15869140625,0.04443359375,41.7064705882353,174.6045968255431
-0.37302783203125,0.74963916015625,-0.5676176757812501,1.0115821567075067,0.1982421875,-0.02783203125,-0.05029296875,41.04764705882353,174.57182394362516
-0.39500048828125,0.74426806640625,-0.5681059570312501,1.0162208022024135,0.20166015625,-0.10302734375,-0.08154296875,41.235882352941175,174.57182394362516
-0.40281298828125,0.73694384765625,-0.5534575195312501,1.005812986619358,0.19482421875,-0.09375,-0.048828125,40.29470588235294,174.57182394362516
-0.41941455078125,0.73206103515625,-0.5505278320312501,1.0074238524286123,0.16796875,-0.0166015625,0.0498046875,41.7064705882353,174.57182394362516
-0.41111376953125,0.73499072265625,-0.5417387695312501,1.0013524795506243,0.15576171875,0.033203125,0.134765625,40.29470588235294,174.57182394362516
-0.40378955078125,0.74329150390625,-0.5373442382812501,1.0021312745910067,0.1591796875,0.07568359375,0.15771484375,41.09470588235294,174.48465828414552
-0.39548876953125,0.75842822265625,-0.5388090820312501,1.0109104622201806,0.12841796875,0.17919921875,0.11767578125,41.235882352941175,174.48465828414552
-0.39207080078125,0.75598681640625,-0.5397856445312501,1.0082678817890238,0.162109375,0.2890625,0.0390625,40.48294117647059,174.48465828414552
-0.39988330078125,0.74622119140625,-0.5510161132812501,1.0101343860314065,0.18505859375,0.35888671875,0.033203125,41.09470588235294,174.48465828414552
-0.41013720703125,0.74133837890625,-0.5632231445312501,1.01735708144506,0.1826171875,0.34765625,0.103515625,40.48294117647059,174.6045968255431
-0.39841845703125,0.73303759765625,-0.5676176757812501,1.0090942534471776,0.20947265625,0.2470703125,0.16650390625,41.09470588235294,174.6045968255431
-0.39451220703125,0.73547900390625,-0.5773833007812501,1.0148599522617143,0.23388671875,0.1220703125,0.23583984375,41.235882352941175,174.6045968255431
-0.39646533203125,0.74377978515625,-0.5729887695312501,1.019170868068089,0.22119140625,0.04833984375,0.296875,41.09470588235294,174.6045968255431
-0.38572314453125,0.75940478515625,-0.5695708007812501,1.0246408488089278,0.1943359375,0.08447265625,0.37109375,40.34176470588236,174.6045968255431
-0.37986376953125,0.76428759765625,-0.5637114257812501,1.0228404503586972,0.205078125,0.154296875,0.13916015625,41.7064705882353,174.73524952353836
-0.37498095703125,0.76721728515625,-0.5529692382812501,1.017353458373217,0.2255859375,0.15380859375,0.06201171875,41.04764705882353,174.73524952353836
-0.37986376953125,0.88342822265625,-0.5617583007812501,1.1136939869123426,0.267578125,0.1455078125,0.0244140625,41.235882352941175,174.73524952353836
-0.37742236328125,0.75403369140625,-0.5583403320312501,1.011315170682862,0.27880859375,0.07373046875,0.01953125,41.09470588235294,174.73524952353836
-0.37888720703125,0.74768603515625,-0.5573637695312501,1.0066003647951351,0.306640625,0.001953125,0.08935546875,41.28294117647059,174.6153588079072
-0.38328173828125,0.74475634765625,-0.5412504882812501,0.9972557341719652,0.35546875,0.00634765625,0.07861328125,40.906470588235294,174.6153588079072
-0.36472705078125,0.73303759765625,-0.5480864257812501,0.985275936616185,0.3095703125,0.1220703125,0.0458984375,41.09470588235294,174.6153588079072
-0.41502001953125,0.74036181640625,-0.5349028320312501,1.003243876392541,0.3388671875,0.31298828125,0.154296875,41.18882352941176,174.6153588079072
-0.42283251953125,0.75452197265625,-0.5598051757812501,1.0302779147519858,0.32275390625,0.51318359375,0.23486328125,41.65941176470589,174.6153588079072
-0.38523486328125,0.74573291015625,-0.5773833007812501,1.018771293862604,0.25537109375,0.52734375,0.1708984375,41.7064705882353,174.29942116415404
-0.37546923828125,0.73401416015625,-0.5944731445312501,1.016440975056722,0.19140625,0.36083984375,0.14697265625,41.7064705882353,174.29942116415404
-0.39158251953125,0.73157275390625,-0.6047270507812501,1.0267572107402043,0.15478515625,0.2451171875,0.25927734375,41.7064705882353,174.29942116415404
-0.38621142578125,0.73792041015625,-0.6013090820312501,1.0272577131676446,0.16357421875,0.30419921875,0.33642578125,41.7064705882353,174.29942116415404
-0.36033251953125,0.74670947265625,-0.6091215820312501,1.028806912341945,0.20947265625,0.30517578125,0.35009765625,41.65941176470589,174.3865854048594
-0.33884814453125,0.74573291015625,-0.6042387695312501,1.017860564589777,0.197265625,0.162109375,0.2529296875,41.28294117647059,174.3865854048594
-0.34275439453125,0.74280322265625,-0.5988676757812501,1.013844019390868,0.21435546875,0.0234375,0.197265625,41.235882352941175,174.3865854048594
-0.34861376953125,0.75012744140625,-0.5895903320312501,1.0157950080022025,0.19580078125,-0.01025390625,0.14892578125,41.18882352941176,174.3865854048594
-0.34617236328125,0.74426806640625,-0.5944731445312501,1.0134932556957132,0.22412109375,0.0302734375,0.041015625,41.09470588235294,174.3865854048594
-0.35154345703125,0.75256884765625,-0.6066801757812501,1.0285929750538387,0.2197265625,-0.0185546875,0.00244140625,41.09470588235294,174.45193455619702
-0.35496142578125,0.74866259765625,-0.6042387695312501,1.0254744216833012,0.1611328125,-0.048828125,-0.04736328125,40.43588235294118,174.45193455619702
-0.36228564453125,0.74670947265625,-0.6042387695312501,1.0266111315355184,0.1181640625,-0.02294921875,-0.021484375,41.65941176470589,174.45193455619702
-0.36423876953125,0.73938525390625,-0.5983793945312501,1.018537350676564,0.1201171875,0.01171875,-0.01025390625,41.235882352941175,174.45193455619702
-0.35691455078125,0.73694384765625,-0.6105864257812501,1.0214156913353651,0.10986328125,-0.0595703125,-0.03466796875,41.09470588235294,174.506376685276
-0.35007861328125,0.73010791015625,-0.6130278320312501,1.0155863915958034,0.06787109375,-0.236328125,-0.103515625,41.18882352941176,174.506376685276
-0.37498095703125,0.72717822265625,-0.6013090820312501,1.0153676663036102,-0.00146484375,-0.31884765625,-0.0556640625,41.235882352941175,174.506376685276
-0.38621142578125,0.72424853515625,-0.5934965820312501,1.0128837045597765,-0.04541015625,-0.2919921875,-0.02587890625,40.34176470588236,174.506376685276
-0.39451220703125,0.72766650390625,-0.5808012695312501,1.0111718632818678,-0.05517578125,-0.17529296875,0.0009765625,40.43588235294118,174.506376685276
-0.40232470703125,0.72620166015625,-0.5739653320312501,1.0092919416478157,-0.07421875,-0.0556640625,0.00732421875,41.235882352941175,174.5608197275053
-0.38425830078125,0.72620166015625,-0.5700590820312501,0.9999953249587212,-0.10009765625,0.029296875,0.03564453125,41.09470588235294,174.5608197275053
-0.37351611328125,0.72815478515625,-0.5768950195312501,1.0012649707178602,-0.1630859375,0.0009765625,0.0029296875,41.09470588235294,174.5608197275053
-0.35544970703125,0.72961962890625,-0.5812895507812501,0.998291960781696,-0.19091796875,0.00048828125,-0.14697265625,41.65941176470589,174.5608197275053
-0.37107470703125,0.71741259765625,-0.5925200195312501,1.001727132017262,-0.2822265625,0.10693359375,-0.18896484375,41.18882352941176,174.6044991372785
-0.41746142578125,0.72473681640625,-0.6008208007812501,1.0298073265040424,-0.404296875,0.13525390625,0.05029296875,41.7064705882353,174.6044991372785
-0.41209033203125,0.74768603515625,-0.6169340820312501,1.05330931377874,-0.4619140625,0.2099609375,0.31982421875,40.85941176470588,174.6044991372785
-0.35496142578125,0.75061572265625,-0.6154692382812501,1.033549205486572,-0.43310546875,0.00390625,0.2470703125,41.7064705882353,174.6044991372785
-0.35349658203125,0.75208056640625,-0.6149809570312501,1.033821352741756,-0.37060546875,-0.3642578125,0.1435546875,41.235882352941175,174.6044991372785
-0.36912158203125,0.74915087890625,-0.6022856445312501,1.0296726563795326,-0.27392578125,-0.556640625,0.228515625,41.235882352941175,174.43011880603095
-0.38962939453125,0.74573291015625,-0.6100981445312501,1.0393018735350052,-0.19140625,-0.64501953125,0.32470703125,40.29470588235294,174.43011880603095
-0.38425830078125,0.74817431640625,-0.6037504882812501,1.0353424078772688,-0.1142578125,-0.78271484375,0.29931640625,41.65941176470589,174.43011880603095
-0.38035205078125,0.75598681640625,-0.5974028320312501,1.0358927998748315,-0.0439453125,-0.9208984375,0.3125,41.04764705882353,174.43011880603095
-0.38523486328125,0.75354541015625,-0.5754301757812501,1.0234043542288234,-0.037109375,-0.95556640625,0.37109375,41.04764705882353,174.58273186793653
-0.38328173828125,0.75989306640625,-0.5612700195312501,1.0194932064986015,-0.02734375,-0.83984375,0.3759765625,40.34176470588236,174.58273186793653
-0.36179736328125,0.75842822265625,-0.5178129882812501,0.9870364693523442,0.03125,-0.66015625,0.22607421875,40.53,174.58273186793653
-0.33738330078125,0.75452197265625,-0.4977934570312501,0.964846736394052,0.06689453125,-0.4482421875,0.0556640625,41.18882352941176,174.58273186793653
-0.33201220703125,0.76379931640625,-0.4850981445312501,0.9638162227250991,0.0712890625,-0.13720703125,-0.11962890625,41.65941176470589,174.58273186793653
-0.30027392578125,0.77454150390625,-0.4684965820312501,0.953712755053849,0.05078125,0.177734375,-0.42529296875,41.7064705882353,174.52829011311084
-0.31785205078125,0.76184619140625,-0.4748442382812501,0.9523216873383464,0.06884765625,0.3037109375,-0.65771484375,41.235882352941175,174.52829011311084
-0.35691455078125,0.74768603515625,-0.4792387695312501,0.95712705632475,0.0732421875,0.56689453125,-0.595703125,40.95352941176471,174.52829011311084
-0.40916064453125,0.74963916015625,-0.4909575195312501,0.9850942033416265,0.09716796875,0.85009765625,-0.5390625,41.28294117647059,174.52829011311084
-0.34324267578125,0.73303759765625,-0.4987700195312501,0.9507529576279644,0.12060546875,0.88232421875,-0.701171875,40.29470588235294,174.49542084608302
-0.42429736328125,0.73596728515625,-0.5158598632812501,0.9938749900526888,0.13232421875,1.041015625,-0.54931640625,40.53,174.49542084608302
-0.40623095703125,0.72180712890625,-0.5334379882812501,0.9851828303071244,0.12744140625,1.38720703125,-0.513671875,41.7064705882353,174.49542084608302
-0.37253955078125,0.69641650390625,-0.5783598632812501,0.9789186867477838,0.0947265625,1.4716796875,-0.625,41.09470588235294,174.49542084608302
-0.38377001953125,0.67932666015625,-0.6022856445312501,0.9856531523302122,0.01953125,1.3955078125,-0.4677734375,41.7064705882353,174.49542084608302
-0.37205126953125,0.69299853515625,-0.6169340820312501,0.9996383238253044,0.0546875,1.42822265625,-0.271484375,41.235882352941175,174.38648747001292
-0.36668017578125,0.71985400390625,-0.6359770507812501,1.0281590087973964,0.19384765625,1.46142578125,-0.267578125,40.53,174.38648747001292
-0.34568408203125,0.74866259765625,-0.6574614257812501,1.0546320192794767,0.328125,1.3701171875,-0.4765625,41.18882352941176,174.38648747001292
-0.31589892578125,0.76282275390625,-0.6765043945312501,1.067402867246925,0.38525390625,0.5673828125,-0.64453125,41.09470588235294,174.38648747001292
-0.35593798828125,0.75891650390625,-0.6818754882812501,1.08055554828143,0.35107421875,-0.29541015625,-0.62451171875,41.235882352941175,174.48456104204226
-0.39011767578125,0.74573291015625,-0.6589262695312501,1.0688747367794993,0.279296875,-0.833984375,-0.4267578125,40.34176470588236,174.48456104204226
-0.43992236328125,0.74280322265625,-0.6403715820312501,1.0748786333240965,0.26806640625,-1.03662109375,-0.11572265625,41.28294117647059,174.48456104204226
-0.46189501953125,0.75061572265625,-0.6262114257812501,1.0811622088962989,0.2705078125,-1.12646484375,0.1689453125,41.7064705882353,174.48456104204226
-0.44919970703125,0.74670947265625,-0.6022856445312501,1.0592938265467042,0.24658203125,-1.1787109375,0.33984375,41.235882352941175,174.48456104204226
-0.42234423828125,0.73792041015625,-0.5725004882812501,1.0250160956867005,0.23193359375,-1.20361328125,0.3798828125,40.43588235294118,174.53905199824806
-0.40671923828125,0.72327197265625,-0.5524809570312501,0.9968841924217224,0.1767578125,-1.08447265625,0.4072265625,41.04764705882353,174.53905199824806
-0.39255908203125,0.71838916015625,-0.5300200195312501,0.9752470658346668,0.1650390625,-0.85205078125,0.38720703125,40.48294117647059,174.53905199824806
-0.39988330078125,0.72571337890625,-0.5192778320312501,0.977862991122125,0.1474609375,-0.56884765625,0.3271484375,41.7064705882353,174.53905199824806
-0.39060595703125,0.73792041015625,-0.5153715820312501,0.9811765452551648,0.10986328125,-0.21533203125,0.28369140625,41.09470588235294,174.58268336949698
-0.37156298828125,0.75208056640625,-0.5187895507812501,0.986319841951002,0.09716796875,0.02197265625,0.24462890625,41.04764705882353,174.58268336949698
-0.36082080078125,0.76282275390625,-0.5070708007812501,0.9844851452198128,0.1337890625,0.15869140625,0.1865234375,41.235882352941175,174.58268336949698
-0.35447314453125,0.76575244140625,-0.5119536132812501,0.9869774637068632,0.19287109375,0.3212890625,0.025390625,41.18882352941176,174.58268336949698
-0.34861376953125,0.75891650390625,-0.5104887695312501,0.9788179626598617,0.263671875,0.4052734375,-0.091796875,41.18882352941176,174.58268336949698
-0.35056689453125,0.73499072265625,-0.5309965820312501,0.9721449892176122,0.33056640625,0.4169921875,-0.26318359375,41.7064705882353,174.54991195250471
-0.37156298828125,0.72424853515625,-0.5563872070312501,0.9859826160153644,0.34765625,0.3974609375,-0.35498046875,41.04764705882353,174.54991195250471
-0.38865283203125,0.72034228515625,-0.5768950195312501,1.0013750022793662,0.32177734375,0.462890625,-0.27197265625,40.95352941176471,174.54991195250471
-0.39500048828125,0.73254931640625,-0.6013090820312501,1.0267553256949558,0.2783203125,0.5703125,-0.20947265625,41.04764705882353,174.54991195250471
-0.37986376953125,0.73645556640625,-0.6154692382812501,1.0322139642359731,0.2919921875,0.6318359375,-0.23828125,41.18882352941176,174.2447834907834
-0.36033251953125,0.72620166015625,-0.6247465820312501,1.0234826171485092,0.28271484375,0.56005859375,-0.36083984375,41.518235294117645,174.2447834907834
-0.36326220703125,0.71399462890625,-0.6237700195312501,1.015301333806966,0.3076171875,0.43212890625,-0.4140625,41.235882352941175,174.2447834907834
-0.37693408203125,0.69983447265625,-0.6218168945312501,1.0092095132524666,0.30712890625,0.3828125,-0.41748046875,40.53,174.2447834907834
-0.38181689453125,0.69397509765625,-0.6315825195312501,1.0130558010760964,0.263671875,0.33984375,-0.36083984375,41.7064705882353,174.2447834907834
-0.39988330078125,0.70276416015625,-0.6491606445312501,1.03691545530581,0.19580078125,0.25927734375,-0.30029296875,41.18882352941176,174.5498645320117
-0.39988330078125,0.70911181640625,-0.6608793945312501,1.048574173116366,0.099609375,0.146484375,-0.2392578125,41.7064705882353,174.5498645320117
-0.39890673828125,0.71008837890625,-0.6525786132812501,1.0436526904176366,0.00537109375,-0.02197265625,-0.212890625,41.18882352941176,174.5498645320117
-0.38914111328125,0.70667041015625,-0.6442778320312501,1.032428108626969,-0.0361328125,-0.22216796875,-0.181640625,40.67117647058824,174.5498645320117
-0.39451220703125,0.70276416015625,-0.6159575195312501,1.0143574380680005,-0.068359375,-0.3505859375,-0.0673828125,40.53,174.6588947059717
-0.40623095703125,0.70471728515625,-0.6042387695312501,1.0132889681888182,-0.08740234375,-0.34765625,0.03955078125,41.65941176470589,174.6588947059717
-0.39695361328125,0.70569384765625,-0.6017973632812501,1.0088290460574516,-0.078125,-0.349609375,0.01318359375,41.7064705882353,174.6588947059717
-0.36668017578125,0.70618212890625,-0.5895903320312501,0.9903354533299572,-0.06005859375,-0.46337890625,-0.0693359375,41.18882352941176,174.6588947059717
-0.38767626953125,0.69836962890625,-0.5641997070312501,0.9779234826664448,-0.0478515625,-0.54638671875,-0.06884765625,40.95352941176471,174.6588947059717
-0.41746142578125,0.70569384765625,-0.5646879882812501,0.995565353326602,-0.05615234375,-0.5,0.0849609375,41.09470588235294,174.3537641117675
-0.42527392578125,0.71936572265625,-0.5641997070312501,1.0082986979542783,-0.03466796875,-0.03759765625,0.248046875,41.09470588235294,174.3537641117675
-0.39060595703125,0.73547900390625,-0.5764067382812501,1.0127917391010148,-0.05126953125,0.13232421875,0.23681640625,40.43588235294118,174.3537641117675
-0.33347705078125,0.73401416015625,-0.6017973632812501,1.006053575690634,-0.08154296875,-0.013671875,0.00732421875,41.65941176470589,174.3537641117675
-0.39695361328125,0.73938525390625,-0.5925200195312501,1.0272987386035102,-0.091796875,-0.087890625,0.1171875,40.95352941176471,174.54991195250471
-0.36814501953125,0.73840869140625,-0.5837309570312501,1.0107027165030151,-0.06396484375,-0.03662109375,0.1630859375,41.518235294117645,174.54991195250471
-0.33640673828125,0.73401416015625,-0.5837309570312501,0.9963373480240182,-0.0390625,-0.04443359375,-0.0439453125,41.04764705882353,174.54991195250471
-0.34519580078125,0.69934619140625,-0.5895903320312501,0.9776819502968004,-0.017578125,-0.205078125,-0.26318359375,41.235882352941175,174.54991195250471
-0.37498095703125,0.69543994140625,-0.5871489257812501,0.9843735527152668,-0.0458984375,-0.36572265625,-0.2666015625,41.09470588235294,174.54991195250471
-0.41843798828125,0.70715869140625,-0.5988676757812501,1.0167626359991282,-0.1044921875,-0.31982421875,-0.03076171875,41.09470588235294,174.4191624724592
-0.46189501953125,0.72327197265625,-0.6252348632812501,1.0617852842077633,-0.2080078125,-0.2041015625,0.2900390625,40.53,174.4191624724592
-0.43162158203125,0.75208056640625,-0.6384184570312501,1.0768010469530882,-0.3408203125,-0.212890625,0.4912109375,40.95352941176471,174.4191624724592
-0.39695361328125,0.77502978515625,-0.6227934570312501,1.070567620048971,-0.34130859375,-0.38330078125,0.583984375,41.04764705882353,174.4191624724592
-0.33982470703125,0.76428759765625,-0.5969145507812501,1.0275813079140834,-0.25048828125,-0.71630859375,0.50537109375,41.04764705882353,174.637126627716
-0.33884814453125,0.75452197265625,-0.5480864257812501,0.9922299140819206,-0.08203125,-0.9228515625,0.41455078125,41.7064705882353,174.637126627716
-0.37937548828125,0.74573291015625,-0.5305083007812501,0.9906979315596434,0.08447265625,-0.908203125,0.302734375,40.48294117647059,174.637126627716
-0.38279345703125,0.74866259765625,-0.5226958007812501,0.9900693996027208,0.2314453125,-0.74365234375,0.11376953125,41.235882352941175,174.637126627716
-0.37937548828125,0.74231494140625,-0.5290434570312501,0.987341993825431,0.33154296875,-0.509765625,0.02587890625,40.34176470588236,174.637126627716
-0.40769580078125,0.73694384765625,-0.5397856445312501,1.0003352651061943,0.31982421875,-0.228515625,0.0283203125,41.235882352941175,174.49542084608302
-0.40574267578125,0.74182666015625,-0.5436918945312501,1.005253594297322,0.26318359375,0.044921875,0.0966796875,41.09470588235294,174.49542084608302
-0.39500048828125,0.74036181640625,-0.5505278320312501,1.0036144173814046,0.2080078125,0.2626953125,0.09228515625,41.18882352941176,174.49542084608302
-0.38914111328125,0.74182666015625,-0.5700590820312501,1.013264504840991,0.1640625,0.46533203125,0.04443359375,40.34176470588236,174.49542084608302
-0.38181689453125,0.74719775390625,-0.5900786132812501,1.025807678974941,0.13330078125,0.533203125,-0.01220703125,41.37705882352941,174.3864391738682
-0.36912158203125,0.75256884765625,-0.5959379882812501,1.0284710490143183,0.10498046875,0.453125,-0.1220703125,40.43588235294118,174.3864391738682
-0.35056689453125,0.75598681640625,-0.5925200195312501,1.0224936125309805,0.1083984375,0.2958984375,-0.0361328125,41.09470588235294,174.3864391738682
-0.36033251953125,0.74329150390625,-0.5905668945312501,1.0154265317231168,0.08349609375,0.15625,-0.06494140625,41.42411764705882,174.3864391738682
-0.38328173828125,0.74133837890625,-0.5910551757812501,1.022660111550777,0.07421875,0.1904296875,-0.064453125,40.53,174.3864391738682
-0.38523486328125,0.74719775390625,-0.5812895507812501,1.0220606269577823,0.05615234375,0.32373046875,-0.06201171875,40.43588235294118,174.5389099196677
-0.37498095703125,0.74915087890625,-0.5832426757812501,1.020788801052672,0.07568359375,0.37109375,-0.08251953125,40.29470588235294,174.5389099196677
-0.36521533203125,0.74524462890625,-0.5866606445312501,1.0163377920288768,0.091796875,0.35693359375,-0.2099609375,41.7064705882353,174.5389099196677
-0.37742236328125,0.72766650390625,-0.5944731445312501,1.0125929590812,0.12255859375,0.37109375,-0.27294921875,41.18882352941176,174.5389099196677
-0.36423876953125,0.71594775390625,-0.5934965820312501,0.998743841250508,0.20166015625,0.4384765625,-0.31787109375,41.235882352941175,174.3645759832571
-0.35544970703125,0.72278369140625,-0.5856840820312501,0.9958848340728133,0.30712890625,0.38623046875,-0.373046875,40.43588235294118,174.3645759832571
-0.36277392578125,0.69690478515625,-0.6037504882812501,0.99085612119029,0.36181640625,0.33154296875,-0.4287109375,41.47117647058823,174.3645759832571
-0.38621142578125,0.68567431640625,-0.6164458007812501,0.9996569205902598,0.30859375,0.30859375,-0.44970703125,41.235882352941175,174.3645759832571
-0.39646533203125,0.69836962890625,-0.6306059570312501,1.0210625696423317,0.26123046875,0.17724609375,-0.28173828125,41.04764705882353,174.3645759832571
-0.38425830078125,0.70715869140625,-0.6310942382812501,1.0227452244535218,0.18212890625,-0.0146484375,-0.1611328125,41.18882352941176,174.3972990167899
-0.38621142578125,0.72424853515625,-0.6154692382812501,1.0259130515547903,0.1337890625,-0.16552734375,-0.1103515625,41.18882352941176,174.3972990167899
-0.40330126953125,0.72083056640625,-0.6037504882812501,1.023114495826797,0.07958984375,-0.1572265625,-0.1025390625,40.34176470588236,174.3972990167899
-0.41404345703125,0.72668994140625,-0.5930083007812501,1.0252653803025211,0.09423828125,-0.03955078125,-0.0771484375,40.29470588235294,174.3972990167899
-0.41453173828125,0.72913134765625,-0.5949614257812501,1.028322995145568,0.0986328125,0.12939453125,-0.04931640625,41.18882352941176,174.54981755905249
-0.40525439453125,0.74524462890625,-0.6057036132812501,1.0423519311357687,0.07373046875,0.16455078125,-0.01025390625,41.7064705882353,174.54981755905249
-0.36960986328125,0.75061572265625,-0.5915434570312501,1.0246751073828384,0.09716796875,0.1455078125,-0.05517578125,41.65941176470589,174.54981755905249
-0.35837939453125,0.74036181640625,-0.5783598632812501,1.0055205323968543,0.16015625,0.111328125,-0.16845703125,41.09470588235294,174.54981755905249
-0.36765673828125,0.71692431640625,-0.5773833007812501,0.991223198214826,0.1689453125,0.00048828125,-0.22607421875,41.28294117647059,174.54981755905249
-0.39353564453125,0.69934619140625,-0.5759184570312501,0.9877436246821892,0.1845703125,0.23974609375,-0.17529296875,41.09470588235294,174.7350619615054
-0.40330126953125,0.70178759765625,-0.5978911132812501,1.0062959453214253,0.17138671875,0.3984375,-0.037109375,41.18882352941176,174.7350619615054
-0.39402392578125,0.72180712890625,-0.6081450195312501,1.022790667834145,0.12451171875,0.4853515625,0.00146484375,41.04764705882353,174.7350619615054
-0.33787158203125,0.73303759765625,-0.6125395507812501,1.0132650328483863,0.125,0.3330078125,-0.05029296875,40.95352941176471,174.7350619615054
-0.32224658203125,0.71643603515625,-0.6144926757812501,0.9973588625414782,0.080078125,0.14599609375,-0.26611328125,41.37705882352941,174.58254055935154
-0.40769580078125,0.71448291015625,-0.6027739257812501,1.0198225828455405,0.01904296875,0.2919921875,-0.09716796875,40.29470588235294,174.58254055935154
-0.38572314453125,0.71985400390625,-0.6159575195312501,1.02292511799937,0.03515625,0.501953125,-0.0615234375,41.18882352941176,174.58254055935154
-0.35837939453125,0.71936572265625,-0.6364653320312501,1.025188252095674,0.07275390625,0.51220703125,-0.1865234375,41.235882352941175,174.58254055935154
-0.35886767578125,0.71106494140625,-0.6398833007812501,1.021689775928299,0.02880859375,0.1787109375,-0.2919921875,41.09470588235294,174.58254055935154
-0.38474658203125,0.71008837890625,-0.6330473632812501,1.0261600276758875,-0.0068359375,-0.16455078125,-0.13818359375,40.906470588235294,174.7132467185915
-0.40916064453125,0.71155322265625,-0.6291411132812501,1.0341851682007888,-0.02197265625,-0.3232421875,0.14892578125,41.235882352941175,174.7132467185915
-0.39255908203125,0.71692431640625,-0.6208403320312501,1.0264140617784128,-0.01123046875,-0.4326171875,0.2470703125,41.518235294117645,174.7132467185915
-0.37937548828125,0.71936572265625,-0.6193754882812501,1.0222713923049116,-0.01904296875,-0.61962890625,0.228515625,41.65941176470589,174.7132467185915
-0.39841845703125,0.72229541015625,-0.6032622070312501,1.021945799378892,-0.041015625,-0.8740234375,0.244140625,40.95352941176471,174.63689379970086
-0.41062548828125,0.72131884765625,-0.5939848632812501,1.0206528251161608,-0.05712890625,-0.6357421875,0.26611328125,40.48294117647059,174.63689379970086
-0.40134814453125,0.72913134765625,-0.5925200195312501,1.021661797660561,-0.052734375,-0.48095703125,0.2587890625,41.18882352941176,174.63689379970086
-0.38816455078125,0.73645556640625,-0.5832426757812501,1.016469644714702,-0.015625,-0.3896484375,0.1552734375,41.09470588235294,174.63689379970086
-0.38132861328125,0.73694384765625,-0.5734770507812501,1.0086494305149634,0.02734375,-0.30908203125,0.025390625,41.09470588235294,174.63689379970086
-0.39304736328125,0.72327197265625,-0.5666411132812501,0.9993451493218052,0.08154296875,-0.19482421875,-0.01318359375,40.906470588235294,174.49527949906283
-0.40085986328125,0.71057666015625,-0.5739653320312501,0.9975189333152612,0.0966796875,-0.0400390625,0.00830078125,41.18882352941176,174.49527949906283
-0.39841845703125,0.70813525390625,-0.5773833007812501,0.9967769463370844,0.08935546875,0.01025390625,0.0439453125,41.37705882352941,174.49527949906283
-0.39353564453125,0.70667041015625,-0.5783598632812501,0.9943608517845698,0.0927734375,0.0263671875,0.04541015625,41.28294117647059,174.49527949906283
-0.40867236328125,0.71790087890625,-0.5881254882812501,1.0140445564225995,0.0703125,0.0576171875,0.14794921875,40.48294117647059,174.35362111459133
-0.40525439453125,0.72522509765625,-0.5895903320312501,1.0187243622207762,0.05419921875,0.1533203125,0.19482421875,41.235882352941175,174.35362111459133
-0.38621142578125,0.73108447265625,-0.5856840820312501,1.013247065383286,0.09326171875,0.20263671875,0.1591796875,41.37705882352941,174.35362111459133
-0.38181689453125,0.73108447265625,-0.5969145507812501,1.018123581910829,0.12353515625,0.19091796875,0.0908203125,41.04764705882353,174.35362111459133
-0.38328173828125,0.72327197265625,-0.6061918945312501,1.0185754023759588,0.095703125,0.1728515625,0.08349609375,41.04764705882353,174.35362111459133
-0.38474658203125,0.71643603515625,-0.6140043945312501,1.0189759179484197,0.06396484375,0.15478515625,0.12841796875,40.48294117647059,174.27736240195
-0.37986376953125,0.71399462890625,-0.6223051757812501,1.0204648672607974,0.033203125,0.05908203125,0.13818359375,41.235882352941175,174.27736240195
-0.39841845703125,0.71106494140625,-0.6408598632812501,1.0368471353893487,-0.00927734375,-0.02685546875,0.24072265625,41.18882352941176,174.27736240195
-0.39255908203125,0.72376025390625,-0.6369536132812501,1.0409810005430922,-0.0703125,-0.162109375,0.34716796875,41.235882352941175,174.27736240195
-0.37009814453125,0.73108447265625,-0.6276762695312501,1.0321989353207102,-0.1025390625,-0.27880859375,0.33056640625,40.43588235294118,174.56063248686948
-0.36472705078125,0.72668994140625,-0.6169340820312501,1.0206428141540749,-0.09326171875,-0.359375,0.22802734375,41.09470588235294,174.56063248686948
-0.36668017578125,0.72571337890625,-0.5988676757812501,1.0098300613123632,-0.06494140625,-0.38037109375,0.13720703125,41.04764705882353,174.56063248686948
-0.38865283203125,0.72180712890625,-0.6008208007812501,1.0163868308066657,-0.02685546875,-0.32958984375,0.1396484375,40.48294117647059,174.56063248686948
-0.41013720703125,0.72668994140625,-0.6091215820312501,1.033111756408118,-0.03955078125,-0.271484375,0.20166015625,41.18882352941176,174.56063248686948
-0.42869189453125,0.72864306640625,-0.6232817382812501,1.0503226094555862,-0.115234375,-0.27099609375,0.369140625,41.37705882352941,174.51700244442864
-0.42869189453125,0.74182666015625,-0.6428129882812501,1.0711172074327064,-0.21240234375,-0.431640625,0.48486328125,41.18882352941176,174.51700244442864
-0.42771533203125,0.74329150390625,-0.5256254882812501,1.005835383631298,-0.31884765625,-0.650390625,0.6328125,41.7064705882353,174.51700244442864
-0.41990283203125,0.74524462890625,-0.6379301757812501,1.0670814656968677,-0.43701171875,-0.7841796875,0.83349609375,41.18882352941176,174.51700244442864
-0.37351611328125,0.75647509765625,-0.6198637695312501,1.0469001638323758,-0.43408203125,-0.83251953125,0.841796875,41.09470588235294,174.66957099117553
-0.37009814453125,0.74085009765625,-0.5944731445312501,1.0194262226133002,-0.32861328125,-0.7841796875,0.71875,41.65941176470589,174.66957099117553
-0.35935595703125,0.72180712890625,-0.5793364257812501,0.99286098192583,-0.23974609375,-0.64111328125,0.6396484375,41.04764705882353,174.66957099117553
-0.33250048828125,0.69641650390625,-0.5661528320312501,0.9571214922031992,-0.12548828125,-0.603515625,0.63427734375,41.09470588235294,174.66957099117553
-0.33298876953125,0.68762744140625,-0.5612700195312501,0.9480174331906832,-0.25537109375,-0.541015625,0.66064453125,41.18882352941176,174.66957099117553
-0.36814501953125,0.70813525390625,-0.5627348632812501,0.9765535415852532,-0.24072265625,-0.26806640625,0.65478515625,41.18882352941176,174.58240177699042
-0.37009814453125,0.74524462890625,-0.5588286132812501,1.0023231078454358,-0.18701171875,0.02392578125,0.63232421875,40.43588235294118,174.58240177699042
-0.36668017578125,0.76917041015625,-0.5822661132812501,1.0320422946016097,-0.15625,0.19921875,0.5703125,41.7064705882353,174.58240177699042
-0.35398486328125,0.78284228515625,-0.5939848632812501,1.0444928648239538,-0.10888671875,0.1845703125,0.49365234375,40.29470588235294,174.58240177699042
-0.36716845703125,0.78284228515625,-0.5827543945312501,1.042716358178413,-0.0556640625,-0.01953125,0.4033203125,40.48294117647059,174.58235641126768
-0.32957080078125,0.75598681640625,-0.5944731445312501,1.0166274139902602,-0.0107421875,-0.205078125,0.32470703125,41.235882352941175,174.58235641126768
-0.34128955078125,0.74280322265625,-0.5554106445312501,0.9882895168520188,0.0615234375,-0.52783203125,0.248046875,41.18882352941176,174.58235641126768
-0.37253955078125,0.71204150390625,-0.5441801757812501,0.9705260861484776,0.04052734375,-0.48681640625,0.310546875,40.53,174.58235641126768
-0.36472705078125,0.70276416015625,-0.5436918945312501,0.960470802549816,0.021484375,-0.28564453125,0.27099609375,41.7064705882353,174.58235641126768
-0.38230517578125,0.70129931640625,-0.5475981445312501,0.9684222769613852,-0.021484375,-0.16357421875,0.28857421875,41.7064705882353,174.54963414251404
-0.38669970703125,0.71155322265625,-0.5466215820312501,0.9770567056383658,-0.01806640625,0.1103515625,0.3515625,41.28294117647059,174.54963414251404
-0.38230517578125,0.74524462890625,-0.5632231445312501,1.0093399401977592,0.0322265625,0.40966796875,0.48583984375,41.235882352941175,174.54963414251404
-0.36570361328125,0.76819384765625,-0.5822661132812501,1.0309678690529251,0.09130859375,0.60986328125,0.443359375,40.53,174.54963414251404
-0.31248095703125,0.77014697265625,-0.5817778320312501,1.0145127667219047,0.1376953125,0.5263671875,0.23095703125,41.09470588235294,174.45151270984155
-0.31394580078125,0.75501025390625,-0.5827543945312501,1.0040941856605108,0.19677734375,0.3125,0.09814453125,41.09470588235294,174.45151270984155
-0.32908251953125,0.73401416015625,-0.5690825195312501,0.9853562837912772,0.2041015625,0.240234375,0.1689453125,40.906470588235294,174.45151270984155
-0.33640673828125,0.72034228515625,-0.5871489257812501,0.9883351467954752,0.2021484375,0.21240234375,0.29345703125,41.09470588235294,174.45151270984155
-0.35398486328125,0.72131884765625,-0.5969145507812501,1.0009561150973438,0.19873046875,0.23046875,0.44970703125,41.37705882352941,174.45151270984155
-0.33396533203125,0.72376025390625,-0.6047270507812501,1.0005281375752364,0.19873046875,0.1953125,0.482421875,40.95352941176471,174.53868207264873
-0.31638720703125,0.72376025390625,-0.6076567382812501,0.9965824007507268,0.220703125,0.07177734375,0.36376953125,41.04764705882353,174.53868207264873
-0.31003955078125,0.71741259765625,-0.6008208007812501,0.985794599790418,0.22705078125,-0.12451171875,0.12060546875,41.09470588235294,174.53868207264873
-0.32615283203125,0.70667041015625,-0.5905668945312501,0.9769994858487347,0.25732421875,0.05126953125,-0.11669921875,41.04764705882353,174.53868207264873
-0.35593798828125,0.70911181640625,-0.5886137695312501,0.987925902763189,0.28515625,0.181640625,-0.17333984375,41.37705882352941,174.6804334707381
-0.36765673828125,0.71790087890625,-0.5876372070312501,0.9979331822449148,0.25390625,0.2841796875,-0.07568359375,41.09470588235294,174.6804334707381
-0.38718798828125,0.73450244140625,-0.5856840820312501,1.0160877022412047,0.2470703125,0.4267578125,0.18359375,41.18882352941176,174.6804334707381
-0.36960986328125,0.75208056640625,-0.5705473632812501,1.0137854423633814,0.30712890625,0.5419921875,0.38232421875,41.7064705882353,174.6804334707381
-0.34617236328125,0.76282275390625,-0.5617583007812501,1.00861600595741,0.41162109375,0.60107421875,0.46044921875,41.09470588235294,174.6804334707381
-0.31199267578125,0.77014697265625,-0.5471098632812501,0.994884411242009,0.54833984375,0.68212890625,0.3203125,41.7064705882353,174.62594113258766
-0.30271533203125,0.75989306640625,-0.5373442382812501,0.9786791481548692,0.71826171875,0.79248046875,0.1494140625,41.235882352941175,174.62594113258766
-0.31150439453125,0.74280322265625,-0.5505278320312501,0.9756395385806274,0.8720703125,0.89599609375,-0.0771484375,40.95352941176471,174.62594113258766
-0.29880908203125,0.72229541015625,-0.5685942382812501,0.9665903655860526,0.9541015625,0.90673828125,-0.41357421875,41.04764705882353,174.62594113258766
-0.35398486328125,0.70520556640625,-0.6140043945312501,0.999810767508678,0.9033203125,0.96337890625,-0.5595703125,41.7064705882353,174.49514217980732
-0.35154345703125,0.69104541015625,-0.6423247070312501,1.0068304675278172,0.8232421875,0.8525390625,-0.451171875,41.7064705882353,174.49514217980732
-0.35105517578125,0.70813525390625,-0.6408598632812501,1.0175444160490177,0.7236328125,0.48046875,-0.2451171875,41.04764705882353,174.49514217980732
-0.37156298828125,0.73010791015625,-0.6398833007812501,1.039503368610187,0.630859375,0.240234375,-0.12353515625,41.235882352941175,174.49514217980732
-0.37644580078125,0.76331103515625,-0.6369536132812501,1.0630451932016731,0.5703125,0.259765625,0.09619140625,40.43588235294118,174.49514217980732
-0.36082080078125,0.77161181640625,-0.6296293945312501,1.0592495550869794,0.59326171875,0.31005859375,-0.0693359375,40.34176470588236,174.3970661817748
-0.35007861328125,0.75452197265625,-0.6169340820312501,1.0355993937183157,0.677734375,0.1943359375,-0.30029296875,41.7064705882353,174.3970661817748
-0.36375048828125,0.73206103515625,-0.6115629882812501,1.020900125161311,0.755859375,0.06298828125,-0.396484375,41.18882352941176,174.3970661817748
-0.37156298828125,0.70813525390625,-0.5983793945312501,0.998785508447608,0.7353515625,-0.06787109375,-0.35693359375,41.28294117647059,174.3970661817748
-0.38767626953125,0.70276416015625,-0.5895903320312501,0.9958850909530204,0.71240234375,-0.07568359375,-0.22705078125,41.04764705882353,174.30989828740064
-0.41599658203125,0.71008837890625,-0.6140043945312501,1.026781407419844,0.68505859375,0.1455078125,-0.06005859375,41.09470588235294,174.30989828740064
-0.41404345703125,0.71399462890625,-0.6359770507812501,1.0419631104495874,0.638671875,0.35693359375,0.0078125,40.29470588235294,174.30989828740064
-0.39158251953125,0.70374072265625,-0.6657622070312501,1.0449053500859795,0.60302734375,0.29541015625,0.06005859375,41.42411764705882,174.30989828740064
-0.35984423828125,0.67981494140625,-0.6774809570312501,1.0249959402472648,0.58740234375,0.0654296875,0.09326171875,41.18882352941176,174.30989828740064
-0.34128955078125,0.67639697265625,-0.6682036132812501,1.0101918089616078,0.541015625,-0.2041015625,0.1748046875,41.18882352941176,174.36434406268114
-0.34617236328125,0.67151416015625,-0.6462309570312501,0.9941735372738528,0.486328125,-0.26220703125,0.20166015625,41.7064705882353,174.36434406268114
-0.35252001953125,0.67737353515625,-0.6140043945312501,0.9798503287768368,0.4921875,0.0087890625,0.189453125,40.29470588235294,174.36434406268114
-0.36814501953125,0.69836962890625,-0.5998442382812501,0.991495841737892,0.48681640625,0.447265625,0.2451171875,41.09470588235294,174.36434406268114
-0.35935595703125,0.71985400390625,-0.5891020507812501,0.9971798819813704,0.4609375,0.75341796875,0.22607421875,41.235882352941175,174.20087038216408
-0.31541064453125,0.74475634765625,-0.5944731445312501,1.0037650181326148,0.4580078125,1.2822265625,0.130859375,40.29470588235294,174.20087038216408
-0.33054736328125,0.76770556640625,-0.5964262695312501,1.0268192104992442,0.51708984375,1.4423828125,0.06982421875,41.235882352941175,174.20087038216408
-0.30466845703125,0.74963916015625,-0.6320708007812501,1.026788798317269,0.5908203125,1.548828125,-0.10205078125,41.04764705882353,174.20087038216408
-0.28074267578125,0.71545947265625,-0.6784575195312501,1.0251845262326544,0.576171875,1.466796875,-0.322265625,41.04764705882353,174.20087038216408
-0.30613330078125,0.68713916015625,-0.7350981445312501,1.0517828223358408,0.41064453125,1.07373046875,-0.3701171875,41.04764705882353,174.3098074713754
-0.28757861328125,0.68225634765625,-0.7419340820312501,1.0481609441367132,0.3056640625,0.55859375,-0.12158203125,41.65941176470589,174.3098074713754
-0.32517626953125,0.68860400390625,-0.7463286132812501,1.0662652012816949,0.26171875,-0.01708984375,0.07421875,40.34176470588236,174.3098074713754
-0.35056689453125,0.71204150390625,-0.7175200195312501,1.0699230015540764,0.259765625,-0.3076171875,0.298828125,41.65941176470589,174.3098074713754
-0.35398486328125,0.72717822265625,-0.6891997070312501,1.0625863198393384,0.2421875,-0.41259765625,0.38818359375,41.18882352941176,174.69125210440123
-0.33396533203125,0.73987353515625,-0.6516020507812501,1.0409279147019166,0.24169921875,-0.3173828125,0.26806640625,40.48294117647059,174.69125210440123
-0.30808642578125,0.74524462890625,-0.6120512695312501,1.0123801455970454,0.30029296875,-0.15185546875,-0.01123046875,41.7064705882353,174.69125210440123
-0.29246142578125,0.72961962890625,-0.5822661132812501,0.9782189505069656,0.42236328125,-0.013671875,-0.234375,41.18882352941176,174.69125210440123
-0.32566455078125,0.71448291015625,-0.5720122070312501,0.9714634288194584,0.53369140625,0.26953125,-0.27587890625,41.235882352941175,174.69125210440123
-0.35544970703125,0.70862353515625,-0.5812895507812501,0.983051041733546,0.62353515625,0.7138671875,-0.22900390625,41.65941176470589,174.66943745872538
-0.38377001953125,0.71594775390625,-0.6032622070312501,1.0118230599500266,0.64892578125,1.00732421875,-0.0517578125,40.43588235294118,174.66943745872538
-0.36960986328125,0.71838916015625,-0.6442778320312501,1.0333384543854325,0.60693359375,1.3232421875,0.05859375,41.09470588235294,174.66943745872538
-0.35056689453125,0.72815478515625,-0.6584379882812501,1.0424236773496125,0.6123046875,1.3740234375,0.20556640625,40.906470588235294,174.66943745872538
-0.31248095703125,0.73694384765625,-0.6555083007812501,1.034611867078029,0.64453125,1.03857421875,0.20166015625,41.18882352941176,174.51682333970092
-0.28757861328125,0.72424853515625,-0.6462309570312501,1.012349667515264,0.7490234375,0.88720703125,0.03173828125,41.18882352941176,174.51682333970092
-0.27537158203125,0.69690478515625,-0.6408598632812501,0.9860056552215788,0.8779296875,0.86767578125,-0.15380859375,40.85941176470588,174.51682333970092
-0.28171923828125,0.66272509765625,-0.6594145507812501,0.9764209307789812,0.85986328125,1.12255859375,-0.318359375,41.09470588235294,174.51682333970092
-0.26560595703125,0.63391650390625,-0.6769926757812501,0.9647360993539452,0.78173828125,1.25146484375,-0.5419921875,40.34176470588236,174.51682333970092
-0.24509814453125,0.60413134765625,-0.7282622070312501,0.9774526217999752,0.53857421875,1.60888671875,-0.83447265625,41.61235294117647,174.5277305859232
-0.24753955078125,0.58215869140625,-0.7678129882812501,0.994847403451506,0.23681640625,1.6865234375,-1.00048828125,41.09470588235294,174.5277305859232
-0.26023486328125,0.58069384765625,-0.8234770507812501,1.0406930296375665,-0.03662109375,1.6240234375,-1.26171875,41.18882352941176,174.5277305859232
-0.25974658203125,0.58362353515625,-0.8542387695312501,1.0666811112209027,-0.29248046875,1.0791015625,-1.2841796875,41.235882352941175,174.5277305859232
-0.26853564453125,0.59583056640625,-0.8522856445312501,1.074018750358603,-0.51806640625,0.453125,-1.22509765625,41.28294117647059,174.46237536166268
-0.28416064453125,0.61145556640625,-0.8395903320312501,1.076818047410958,-0.64208984375,-0.29345703125,-1.0556640625,41.09470588235294,174.46237536166268
-0.30759814453125,0.63440478515625,-0.7888090820312501,1.0579725033493068,-0.673828125,-0.8896484375,-0.83349609375,41.65941176470589,174.46237536166268
-0.33152392578125,0.66809619140625,-0.7116606445312501,1.030883847633468,-0.64892578125,-1.376953125,-0.59765625,41.18882352941176,174.46237536166268
-0.36277392578125,0.70471728515625,-0.6525786132812501,1.0266889595865023,-0.56005859375,-1.6435546875,-0.46923828125,41.18882352941176,174.46237536166268
-0.39109423828125,0.73840869140625,-0.6071684570312501,1.032887038341943,-0.474609375,-1.3046875,-0.4208984375,41.28294117647059,174.40788345894984
-0.38474658203125,0.75208056640625,-0.5793364257812501,1.024346525833748,-0.3916015625,-0.720703125,-0.41064453125,41.09470588235294,174.40788345894984
-0.36570361328125,0.75842822265625,-0.5837309570312501,1.024545914971652,-0.2939453125,-0.2265625,-0.41259765625,41.04764705882353,174.40788345894984
-0.36179736328125,0.74573291015625,-0.5993559570312501,1.022859945738526,-0.2197265625,0.244140625,-0.416015625,41.28294117647059,174.40788345894984
-0.33982470703125,0.73596728515625,-0.6213286132812501,1.0213608187174292,-0.16796875,0.52099609375,-0.421875,41.7064705882353,174.33157720816928
-0.32175830078125,0.72034228515625,-0.6428129882812501,1.017659053813622,-0.05322265625,0.5712890625,-0.41552734375,41.18882352941176,174.33157720816928
-0.30759814453125,0.70618212890625,-0.6638090820312501,1.0168344580573587,0.0048828125,0.4208984375,-0.37451171875,41.235882352941175,174.33157720816928
-0.31003955078125,0.70276416015625,-0.6682036132812501,1.0180854859248694,0.07666015625,0.1826171875,-0.3515625,41.04764705882353,174.33157720816928
-0.31248095703125,0.70374072265625,-0.6599028320312501,1.0140843657974277,0.119140625,-0.0283203125,-0.3583984375,40.43588235294118,174.33157720816928
-0.31687548828125,0.70227587890625,-0.6535551757812501,1.0103147296548176,0.10498046875,-0.1376953125,-0.4287109375,41.09470588235294,174.72393025505465
-0.34080126953125,0.70276416015625,-0.6423247070312501,1.0112388438825974,0.08740234375,-0.06201171875,-0.515625,41.7064705882353,174.72393025505465
-0.36179736328125,0.69934619140625,-0.6340239257812501,1.0109247083609938,0.10546875,0.19189453125,-0.51318359375,41.18882352941176,174.72393025505465
-0.37839892578125,0.70764697265625,-0.6374418945312501,1.0248327443273604,0.08349609375,0.49169921875,-0.5,41.61235294117647,174.72393025505465
-0.34275439453125,0.70569384765625,-0.6569731445312501,1.0232781118667813,0.099609375,0.5615234375,-0.34814453125,41.37705882352941,174.78924422766838
-0.29294970703125,0.70227587890625,-0.6603911132812501,1.0075352914137004,0.21044921875,0.37060546875,-0.60107421875,41.04764705882353,174.78924422766838
-0.35496142578125,0.70813525390625,-0.6613676757812501,1.0319207111914266,0.24267578125,0.36572265625,-0.56396484375,41.7064705882353,174.78924422766838
-0.35837939453125,0.69739306640625,-0.6691801757812501,1.0308224809125586,0.31005859375,0.333984375,-0.4609375,41.7064705882353,174.78924422766838
-0.31248095703125,0.67590869140625,-0.6799223632812501,1.0083607130960803,0.24853515625,0.10595703125,-0.4931640625,41.7064705882353,174.78924422766838
-0.31736376953125,0.66565478515625,-0.6808989257812501,1.0037128086970686,0.23046875,-0.2001953125,-0.46826171875,40.48294117647059,174.40783906861932
-0.33933642578125,0.64905322265625,-0.6711333007812501,0.9933978070843488,0.20703125,-0.3603515625,-0.51025390625,41.7064705882353,174.40783906861932
-0.36326220703125,0.66272509765625,-0.6701567382812501,1.0100861547335775,0.21533203125,-0.21875,-0.46923828125,40.48294117647059,174.40783906861932
-0.36912158203125,0.67688525390625,-0.6804106445312501,1.0282913178999482,0.21533203125,-0.04150390625,-0.359375,40.43588235294118,174.40783906861932
-0.37058642578125,0.67932666015625,-0.6838286132812501,1.032686100668797,0.18115234375,-0.017578125,-0.2275390625,40.48294117647059,174.47328266134127
-0.36570361328125,0.68811572265625,-0.6794340820312501,1.0338631690699416,0.2412109375,-0.119140625,-0.16259765625,41.04764705882353,174.47328266134127
-0.36130908203125,0.69104541015625,-0.6730864257812501,1.0301132696103197,0.31591796875,-0.27294921875,-0.16455078125,41.09470588235294,174.47328266134127
-0.36033251953125,0.70081103515625,-0.6686918945312501,1.0335010795544948,0.36572265625,-0.3818359375,-0.1533203125,41.18882352941176,174.47328266134127
-0.34568408203125,0.70276416015625,-0.6491606445312501,1.0172435754420548,0.42138671875,-0.36669921875,-0.19677734375,41.09470588235294,174.47328266134127
-0.34275439453125,0.69934619140625,-0.6491606445312501,1.0138911247333904,0.4951171875,-0.3720703125,-0.33203125,41.235882352941175,174.7783370185955
-0.34324267578125,0.69299853515625,-0.6555083007812501,1.013781848623905,0.54638671875,-0.01953125,-0.451171875,41.235882352941175,174.7783370185955
-0.35447314453125,0.67151416015625,-0.6691801757812501,1.0121188591973034,0.57080078125,0.2431640625,-0.50634765625,40.67117647058824,174.7783370185955
-0.34861376953125,0.64905322265625,-0.6970122070312501,1.0142128291920909,0.49267578125,0.3740234375,-0.45751953125,40.34176470588236,174.7783370185955
-0.34324267578125,0.63977587890625,-0.7224028320312501,1.0242043553092848,0.37744140625,0.3603515625,-0.328125,41.7064705882353,174.41879075113656
-0.34373095703125,0.62268603515625,-0.7375395507812501,1.0246235690080714,0.21337890625,0.19677734375,-0.150390625,41.04764705882353,174.41879075113656
-0.34763720703125,0.62219775390625,-0.7516997070312501,1.0358736034040723,0.07177734375,0.0029296875,0.044921875,41.04764705882353,174.41879075113656
-0.34861376953125,0.63635791015625,-0.7497465820312501,1.043361340760122,-0.07666015625,-0.1865234375,0.1572265625,41.37705882352941,174.41879075113656
-0.33396533203125,0.64563525390625,-0.7307036132812501,1.0306820530831056,-0.10888671875,-0.35791015625,0.01123046875,41.04764705882353,174.41879075113656
-0.34031298828125,0.65881884765625,-0.7170317382812501,1.0314987725260047,-0.13671875,-0.490234375,-0.06884765625,41.04764705882353,174.50587251078778
-0.34763720703125,0.66418994140625,-0.6965239257812501,1.0233012680356897,-0.1943359375,-0.47412109375,-0.04833984375,41.65941176470589,174.50587251078778
-0.34959033203125,0.66272509765625,-0.6901762695312501,1.0187056681580202,-0.18408203125,-0.36376953125,-0.07275390625,40.53,174.50587251078778
-0.35154345703125,0.66663134765625,-0.6867583007812501,1.0196161628531693,-0.14306640625,-0.29931640625,-0.12060546875,41.09470588235294,174.50587251078778
-0.36570361328125,0.66711962890625,-0.6838286132812501,1.0229414960696102,-0.1005859375,-0.30810546875,-0.08056640625,40.95352941176471,174.6693938429828
-0.36619189453125,0.67346728515625,-0.6808989257812501,1.025318504137215,-0.1318359375,-0.3515625,0.00244140625,41.18882352941176,174.6693938429828
-0.37107470703125,0.68323291015625,-0.6779692382812501,1.0315744935653288,-0.1123046875,-0.32763671875,0.0595703125,41.65941176470589,174.6693938429828
-0.35154345703125,0.67932666015625,-0.6623442382812501,1.0118139173607452,-0.09521484375,-0.31982421875,0.0380859375,40.85941176470588,174.6693938429828
-0.35789111328125,0.67444384765625,-0.6623442382812501,1.010772201137046,-0.03857421875,-0.35009765625,0.02392578125,41.04764705882353,174.6693938429828
-0.36082080078125,0.67297900390625,-0.6574614257812501,1.0076447371794213,0.0400390625,-0.33740234375,0.04150390625,41.7064705882353,174.7020293945132
-0.36814501953125,0.66907275390625,-0.6564848632812501,1.0070558480753486,0.0322265625,-0.30029296875,0.07421875,41.61235294117647,174.7020293945132
-0.36814501953125,0.67395556640625,-0.6579497070312501,1.011258956884013,0.033203125,-0.189453125,0.16162109375,41.18882352941176,174.7020293945132
-0.36814501953125,0.67297900390625,-0.6618559570312501,1.0131558631138966,0.0185546875,-0.05810546875,0.20068359375,41.61235294117647,174.7020293945132
-0.36179736328125,0.67688525390625,-0.6691801757812501,1.0182696532312143,0.03857421875,0.04833984375,0.22265625,41.09470588235294,174.7564803282627
-0.35203173828125,0.67151416015625,-0.6838286132812501,1.0210186993340669,-0.001953125,0.0400390625,0.19775390625,41.235882352941175,174.7564803282627
-0.33298876953125,0.67737353515625,-0.6765043945312501,1.013594900630476,0.12353515625,-0.05908203125,0.146484375,41.09470588235294,174.7564803282627
-0.32664111328125,0.67542041015625,-0.6804106445312501,1.012840457590771,-0.0126953125,-0.17236328125,0.09423828125,41.235882352941175,174.7564803282627
-0.33640673828125,0.67493212890625,-0.6818754882812501,1.016689261136236,-0.013671875,-0.1845703125,-0.005859375,41.09470588235294,174.7564803282627
-0.34910205078125,0.66809619140625,-0.6760161132812501,1.0125327393457948,-0.0234375,-0.14794921875,-0.07666015625,40.48294117647059,174.68030109802018
-0.35300830078125,0.65979541015625,-0.6833403320312501,1.0133601793362017,-0.052734375,-0.0927734375,-0.02734375,41.18882352941176,174.68030109802018
-0.36277392578125,0.65637744140625,-0.6882231445312501,1.0178837671768997,-0.041015625,-0.02099609375,0.1005859375,40.43588235294118,174.68030109802018
-0.37253955078125,0.66174853515625,-0.6975004882812501,1.0311177293744496,-0.08447265625,0.00390625,0.26416015625,40.43588235294118,174.68030109802018
-0.34910205078125,0.67346728515625,-0.7067778320312501,1.0368053481180537,-0.07470703125,-0.06005859375,0.16259765625,41.09470588235294,174.7564803282627
-0.30466845703125,0.65686572265625,-0.6940825195312501,1.0030184396257968,-0.076171875,-0.24609375,-0.076171875,41.7064705882353,174.7564803282627
-0.37742236328125,0.65637744140625,-0.6882231445312501,1.0231960137531326,-0.06201171875,-0.28076171875,-0.00927734375,41.28294117647059,174.7564803282627
-0.39011767578125,0.64954150390625,-0.7092192382812501,1.037828451239411,-0.16064453125,-0.11474609375,0.259765625,41.65941176470589,174.7564803282627
-0.32664111328125,0.65198291015625,-0.7287504882812501,1.030947819334998,-0.30224609375,-0.33251953125,0.3408203125,41.7064705882353,174.7564803282627
-0.33054736328125,0.65881884765625,-0.7131254882812501,1.0255982622039037,-0.40673828125,-0.748046875,0.2509765625,41.04764705882353,174.2879483158978
-0.35398486328125,0.66174853515625,-0.6843168945312501,1.0156308479731118,-0.37255859375,-0.9140625,0.18701171875,41.09470588235294,174.2879483158978
-0.36130908203125,0.68079150390625,-0.6628325195312501,1.01654723131655,-0.29638671875,-0.7734375,0.19580078125,41.28294117647059,174.2879483158978
-0.35886767578125,0.70081103515625,-0.6398833007812501,1.014580087689542,-0.2197265625,-0.58251953125,0.22021484375,41.235882352941175,174.2879483158978
-0.33933642578125,0.71252978515625,-0.6242583007812501,1.0062536115170466,-0.1435546875,-0.43408203125,0.06884765625,41.18882352941176,174.3641665817084
-0.33494189453125,0.70422900390625,-0.6320708007812501,1.003811765150829,-0.0390625,-0.31982421875,-0.19091796875,40.48294117647059,174.3641665817084
-0.35056689453125,0.69299853515625,-0.6345122070312501,1.0028708083006808,0.0126953125,-0.16552734375,-0.24609375,41.18882352941176,174.3641665817084
