AccX,AccY,AccZ,Magnitude,GyroX,GyroY,GyroZ,Temperature,Altitude
-0.05803369140625,0.1288623046875,1.0137255859375005,1.0235296607778095,0.97265625,0.30810546875,0.0078125,28.53,172.0555990513906
-0.03752587890625,0.1083544921875,0.9951708984375,1.0017554615083455,0.80517578125,0.67529296875,0.11962890625,28.48294117647059,172.0555990513906
-0.05998681640625,0.1230029296875,1.0000537109375005,1.0093738473004592,0.751953125,1.162109375,-0.21044921875,28.48294117647059,172.0555990513906
-0.04924462890625,0.1132373046875,0.9868701171875,0.9945654070229236,0.73876953125,1.4736328125,-0.25634765625,28.624117647058824,172.0555990513906
-0.04240869140625,0.1151904296875,0.9766162109375,0.9843000333558366,0.83642578125,1.39453125,-0.248046875,28.67117647058824,171.91571017140518
-0.05803369140625,0.1181201171875,0.9678271484375,0.9767341811748412,0.93017578125,0.8896484375,0.1923828125,28.48294117647059,171.91571017140518
-0.08049462890625,0.1273974609375,0.9609912109375,0.9727351159669314,0.935546875,0.203125,0.388671875,28.624117647058824,171.91571017140518
-0.05852197265625,0.1308154296875,0.9512255859375,0.9619602971381118,0.93896484375,-0.61767578125,0.56103515625,28.53,171.91571017140518
-0.03752587890625,0.1337451171875,0.9683154296875,0.9782283574554934,0.93505859375,-1.16748046875,0.30419921875,28.53,171.91571017140518
-0.02629541015625,0.1322802734375,0.9922412109375,1.0013651382081872,0.9248046875,-1.498046875,0.08935546875,28.48294117647059,171.91571017140518
-0.04631494140625,0.1259326171875,1.0010302734375005,1.0099830227323203,0.9365234375,-1.61962890625,0.025390625,28.53,171.91571017140518
-0.05754541015625,0.1200732421875,1.0264208984375005,1.0350212164340953,0.90576171875,-1.390625,0.0419921875,28.577058823529413,171.91571017140518
-0.05852197265625,0.1176318359375,1.0293505859375005,1.0377016425155552,0.87158203125,-0.90380859375,0.06689453125,28.53,171.91530692634086
-0.05119775390625,0.1205615234375,1.0259326171875005,1.034260134563742,0.806640625,-0.31591796875,0.08740234375,28.53,171.91530692634086
-0.05705712890625,0.1205615234375,1.0259326171875005,1.0345667363209534,0.76513671875,0.37060546875,0.0615234375,28.577058823529413,171.91530692634086
-0.05217431640625,0.1171435546875,1.0171435546875005,1.0251954850366864,0.73583984375,0.9091796875,0.0263671875,28.577058823529413,171.91530692634086
-0.05608056640625,0.1171435546875,1.0044482421875005,1.012809909887748,0.70751953125,1.47509765625,0.00830078125,28.388823529411766,171.91530692634086
-0.06291650390625,0.1107958984375,0.9800341796875,0.9882819491066854,0.68994140625,1.6279296875,-0.01708984375,28.53,171.91530692634086
-0.06535791015625,0.1098193359375,0.9648974609375,0.9733237144390248,0.70751953125,1.7919921875,-0.01220703125,28.624117647058824,171.91530692634086
-0.06731103515625,0.1064013671875,0.9522021484375,0.9604899572000564,0.71044921875,1.580078125,0.0361328125,28.577058823529413,171.91530692634086
-0.05949853515625,0.1083544921875,0.9282763671875,0.9364709208201678,0.7021484375,1.2353515625,0.099609375,28.577058823529413,171.91530692634086
-0.05656884765625,0.1093310546875,0.9307177734375,0.9388231398067982,0.71142578125,0.546875,0.15625,28.624117647058824,171.70130976992917
-0.05510400390625,0.1107958984375,0.8022998046875001,0.8117863998359874,0.74267578125,-0.04931640625,0.20849609375,28.53,171.70130976992917
-0.06584619140625,0.1147021484375,0.9282763671875,0.937650957263794,0.7685546875,-0.52294921875,0.2431640625,28.43588235294117,171.70130976992917
-0.05803369140625,0.1156787109375,0.8081591796875001,0.8184563111220846,0.72998046875,-1.10546875,0.2119140625,28.53,171.70130976992917
-0.05656884765625,0.1054248046875,0.9507373046875,0.9582357990040896,0.7421875,-1.4033203125,0.11328125,28.53,171.70130976992917
-0.07219384765625,0.1073779296875,0.9629443359375,0.9715985619264268,0.6259765625,-1.43115234375,0.07080078125,28.53,171.70130976992917
-0.09465478515625,0.1088427734375,0.9639208984375,0.9746536698371888,0.7548828125,-1.14892578125,0.10498046875,28.53,171.70130976992917
-0.10735009765625,0.1049365234375,0.9605029296875,0.97216335836948,0.72998046875,-0.68896484375,0.14501953125,28.48294117647059,171.70130976992917
-0.11272119140625,0.1044482421875,0.9487841796875,0.96114875118963,0.642578125,-0.1201171875,0.1396484375,28.53,171.70130976992917
-0.12492822265625,0.1103076171875,0.9214404296875,0.9363905684533128,0.57275390625,0.734375,0.24853515625,28.577058823529413,171.95472075619747
-0.12248681640625,0.1127490234375,0.8838427734375001,0.8993850180190575,0.61474609375,1.59130859375,0.0126953125,28.577058823529413,171.95472075619747
-0.14299462890625,0.1166552734375,0.8213427734375001,0.84181937979285,0.494140625,2.6259765625,-0.1669921875,28.53,171.95472075619747
-0.21428369140625,0.1186083984375,0.7466357421875001,0.7857801117962179,0.32373046875,3.9306640625,-0.40625,28.53,171.95472075619747
-0.25285791015625,0.1151904296875,0.7959521484375001,0.8430574004315775,0.42138671875,5.125,-0.48974609375,28.48294117647059,171.95472075619747
-0.27190087890625,0.1498583984375,0.6577685546875001,0.7273562394507429,0.6767578125,6.3369140625,-0.35400390625,28.53,171.95472075619747
-0.19035791015625,0.1908740234375,0.4365771484375,0.5130970993097634,1.0244140625,7.0400390625,0.1640625,28.48294117647059,171.95472075619747
-0.16643212890625,0.2509326171875,0.3999560546875,0.5006312790687629,1.5654296875,5.2783203125,1.2490234375,28.577058823529413,171.95472075619747
0.18171240234375,0.2787646484375,0.4087451171875,0.5270689681708106,1.56396484375,0.58154296875,1.7998046875,28.48294117647059,172.00214260382853
0.2700913085937499,0.2924365234375,0.3809130859375,0.5509657105996026,1.119140625,-6.21826171875,0.9091796875,28.577058823529413,172.00214260382853
0.23591162109375,0.2480029296875,0.3564990234375,0.4942178667476069,0.0673828125,-12.64013671875,-2.0400390625,28.48294117647059,172.00214260382853
0.0332749023437499,0.1610888671875,0.3760302734375,0.4104334401571333,-0.42333984375,16.0,-4.56005859375,28.53,172.00214260382853
-0.19182275390625,0.0346240234375,0.3989794921875,0.4440489017004475,-0.9853515625,16.0,-5.24658203125,28.53,172.00214260382853
-0.28459619140625,0.0058154296875,0.4390185546875,0.5232266265637622,-1.4306640625,16.0,-4.28076171875,28.53,172.00214260382853
-0.24406884765625,-0.2163525390625,0.4614794921875,0.5651029510316445,-1.90966796875,16.0,-2.8515625,28.43588235294117,172.00214260382853
-0.15373681640625,-0.2349072265625,0.5044482421875001,0.57730792724167,-2.06005859375,16.0,-1.0458984375,28.43588235294117,172.00214260382853
-0.04289697265625,-0.1367626953125,0.6001513671875001,0.6170298604032355,-1.52197265625,16.0,0.18017578125,28.577058823529413,171.81554675907134
-0.03459619140625,-0.0137158203125,0.6421435546875001,0.6432210856411356,-0.8671875,16.0,0.42578125,28.577058823529413,171.81554675907134
0.16315771484375,0.0194873046875,0.6152880859375001,0.6368513355985448,-0.1328125,16.0,0.28076171875,28.577058823529413,171.81554675907134
0.23395849609375,0.3559130859375,0.6689990234375001,0.793076538548665,0.6845703125,16.0,0.26513671875,28.48294117647059,171.81554675907134
0.2617905273437499,0.3910693359375,0.6245654296875001,0.7820175712081203,1.1279296875,16.0,0.083984375,28.577058823529413,171.81554675907134
0.3731186523437499,0.6073779296875,0.6094287109375001,0.9378319849062692,1.51806640625,16.0,-0.90576171875,28.577058823529413,171.81554675907134
0.52643896484375,0.5155810546875,0.5161669921875001,0.899661142587766,0.8837890625,16.0,-3.96875,28.53,171.81554675907134
0.58796240234375,0.3573779296875,0.5083544921875001,0.8554782644373663,0.326171875,16.0,-7.361328125,28.577058823529413,171.81554675907134
0.51472021484375,0.2597216796875,0.4800341796875,0.7502166781248892,0.4638671875,16.0,-9.107421875,28.577058823529413,171.78416888697296
0.3843491210937499,-0.0708447265625,0.5518115234375001,0.676194631423282,0.90966796875,-15.90234375,-8.57275390625,28.53,171.78416888697296
0.3697006835937499,-0.3447705078125,0.5522998046875001,0.7487191548002667,2.3642578125,-13.515625,-4.81201171875,28.48294117647059,171.78416888697296
0.11335302734375,-0.5527783203125,0.1939013671875,0.5966661716677789,2.55078125,-10.798828125,0.6630859375,28.48294117647059,171.78416888697296
0.63825537109375,-0.4697705078125,0.1919482421875,0.8154130097191887,2.43896484375,-9.3291015625,3.94873046875,28.53,171.78416888697296
0.91901708984375,-0.4082470703125,0.3564990234375,1.0669346913262807,3.109375,-8.94921875,5.73388671875,28.53,171.78416888697296
1.02643896484375,-0.3442822265625,0.4102099609375,1.1577475597593314,4.18359375,-9.9013671875,6.66845703125,28.577058823529413,171.78416888697296
1.05524755859375,-0.1890087890625,0.4224169921875,1.1522620568037798,5.28466796875,-11.560546875,7.34619140625,28.577058823529413,171.78416888697296
0.91169287109375,-0.1367626953125,0.4404833984375,1.02172087691862,6.22314453125,-13.3525390625,7.98681640625,28.48294117647059,171.4466840264067
0.78229833984375,-0.1030712890625,0.4302294921875,0.8987278782252206,6.3759765625,-14.45947265625,8.25830078125,28.577058823529413,171.4466840264067
0.75446630859375,-0.0893994140625,0.4746630859375,0.8958329705863189,6.39794921875,16.0,7.998046875,28.624117647058824,171.4466840264067
0.75934912109375,0.0028857421875,0.5439990234375001,0.934106178501554,5.83203125,16.0,7.34033203125,28.624117647058824,171.4466840264067
0.73298193359375,-0.0942822265625,0.5747607421875001,0.9362166223584908,5.03955078125,16.0,7.0283203125,28.48294117647059,171.4466840264067
0.81403662109375,-0.0571728515625,0.5835498046875001,1.0032221737921947,3.8388671875,16.0,6.81689453125,28.53,171.4466840264067
0.85212255859375,0.0785693359375,0.6426318359375001,1.070168992250486,3.13623046875,16.0,6.6357421875,28.577058823529413,171.4466840264067
1.02741552734375,0.1898974609375,0.5640185546875001,1.1873334163280849,2.5615234375,16.0,6.70751953125,28.48294117647059,171.4466840264067
0.96442724609375,0.3656787109375,0.7983935546875001,1.3043286015446525,1.931640625,16.0,6.6025390625,28.53,171.4466840264067
1.18317724609375,0.5351123046875,0.6641162109375001,1.4585279962797904,1.248046875,16.0,6.4931640625,28.577058823529413,171.4466840264067
1.00544287109375,0.7011279296875,0.5972216796875001,1.3635136506503638,0.7734375,16.0,6.78173828125,28.48294117647059,171.4466840264067
0.86091162109375,0.7069873046875,0.6069873046875001,1.268634484938574,0.84814453125,16.0,6.689453125,28.48294117647059,171.4466840264067
0.67194677734375,0.6732958984375,0.5601123046875001,1.1038866030067376,1.02197265625,-11.6904296875,5.66064453125,28.577058823529413,171.4466840264067
0.70514990234375,0.6483935546875,0.4692919921875,1.0667171886057734,0.947265625,-4.84619140625,3.47509765625,28.577058823529413,171.4466840264067
0.4932358398437499,0.6444873046875,0.3857958984375,0.898601109982024,0.7744140625,2.4658203125,1.1201171875,28.48294117647059,171.4466840264067
0.4937241210937499,0.5028857421875,0.1978076171875,0.7319736544867343,-0.23828125,7.68310546875,-0.537109375,28.577058823529413,171.4466840264067
0.68317724609375,0.3866748046875,0.1182177734375,0.7938664850696725,-1.6435546875,12.02880859375,-2.32861328125,28.577058823529413,171.4466840264067
0.82136083984375,0.2499560546875,0.2202685546875,0.8863576561907112,-1.8505859375,15.99951171875,-3.4609375,28.48294117647059,171.4466840264067
0.92145849609375,0.0600146484375,0.1157763671875,0.9306404704554638,-1.400390625,15.99951171875,-3.49462890625,28.53,171.47973963037464
1.20270849609375,0.0639208984375,0.1553271484375,1.2143805543876565,-0.953125,15.99951171875,-3.43310546875,28.624117647058824,171.47973963037464
1.36677099609375,0.1752490234375,0.0566943359375,1.3791263262320437,-0.65185546875,15.99951171875,-3.99267578125,28.624117647058824,171.47973963037464
1.64753271484375,0.1532763671875,0.3057177734375,1.6826529791416285,-0.32763671875,15.99951171875,-4.36767578125,28.48294117647059,171.47973963037464
1.80085302734375,0.1283740234375,0.3306201171875,1.8354457708893923,0.3935546875,15.1357421875,-3.87646484375,28.53,171.47973963037464
1.72614599609375,-0.0518017578125,0.1323779296875,1.7319894163104168,0.837890625,6.93896484375,-3.7890625,28.53,171.47973963037464
1.52399755859375,-0.0469189453125,0.0933154296875,1.5275724910611317,1.48681640625,0.42529296875,-3.974609375,28.48294117647059,171.47973963037464
1.39069677734375,-0.0898876953125,0.1440966796875,1.4010286140474957,1.96044921875,-8.2626953125,-3.20849609375,28.53,171.47973963037464
1.53815771484375,-0.1006298828125,0.3755419921875,1.5865331124638908,2.08251953125,16.0,-1.3662109375,28.577058823529413,171.2474121376695
1.65876318359375,-0.1255322265625,0.5689013671875001,1.7580962444472767,1.828125,16.0,0.46142578125,28.624117647058824,171.2474121376695
1.63972021484375,-0.1709423828125,0.4829638671875,1.7178934129385193,1.28515625,16.0,2.61181640625,28.48294117647059,171.2474121376695
1.52741552734375,-0.2134228515625,0.3110888671875,1.573316176115868,-0.63916015625,16.0,4.34912109375,28.577058823529413,171.2474121376695
1.52595068359375,-0.1255322265625,0.5234912109375001,1.618124493540216,-1.52685546875,16.0,6.00244140625,28.48294117647059,171.2474121376695
1.51423193359375,-0.1221142578125,0.4448779296875,1.582948708265432,-2.0390625,16.0,6.5634765625,28.53,171.2474121376695
1.39313818359375,-0.0561962890625,0.6699755859375001,1.5468869730020955,-1.744140625,16.0,5.3994140625,28.624117647058824,171.2474121376695
1.07331396484375,0.1230029296875,0.6079638671875001,1.2396582801909155,-1.58447265625,-10.63720703125,4.18798828125,28.53,171.2474121376695
0.50495458984375,0.3520068359375,0.6157763671875001,0.8706712839744025,-1.18798828125,1.18505859375,4.48291015625,28.577058823529413,171.13293246499467
0.24714208984375,0.4682177734375,0.5068896484375001,0.7329694479500484,-1.56494140625,11.31884765625,5.54638671875,28.577058823529413,171.13293246499467
0.3823959960937499,0.3793505859375,0.2485888671875,0.5932368749236854,-2.84716796875,15.99951171875,4.927734375,28.53,171.13293246499467
1.04255224609375,0.3720263671875,0.4653857421875,1.2007925269376312,-2.05908203125,15.99951171875,3.37353515625,28.53,171.13293246499467
2.05475927734375,-0.0654736328125,0.4282763671875,2.099938839851104,-0.576171875,15.99951171875,-1.58837890625,28.48294117647059,171.13293246499467
3.22712255859375,-0.1411572265625,0.7100146484375001,3.307320089104064,1.591796875,15.99951171875,-7.6005859375,28.624117647058824,171.13293246499467
4.71686865234375,0.0038623046875,1.0273974609375005,4.827464173207448,2.828125,15.99951171875,-10.53759765625,28.53,171.13293246499467
5.70514990234375,-0.1768017578125,1.3687060546875005,5.869697652683374,2.59814453125,15.99951171875,-10.47021484375,28.48294117647059,171.13293246499467
5.31403662109375,-0.2930126953125,1.0850146484375005,5.431583418973121,2.24462890625,6.4453125,-7.00537109375,28.53,171.13293246499467
3.88239599609375,-0.1113720703125,0.5918505859375001,3.92882800903845,2.19873046875,1.52001953125,-0.20361328125,28.48294117647059,171.18802618396953
2.78571630859375,-0.0195751953125,0.3203662109375,2.8041456897506523,0.28759765625,1.3203125,6.03076171875,28.577058823529413,171.18802618396953
1.95466162109375,0.0004443359375,0.4478076171875,2.00530145175792,-0.42041015625,3.41259765625,9.31591796875,28.577058823529413,171.18802618396953
1.06013037109375,-0.0420361328125,0.4585498046875,1.1558163191252089,2.2392578125,8.65185546875,3.7451171875,28.48294117647059,171.18802618396953
-0.03801416015625,0.0482958984375,-0.1078564453124999,0.1241393691530556,5.7841796875,11.71826171875,-6.5283203125,28.624117647058824,171.18802618396953
-1.22844384765625,-0.2314892578125,-0.8285595703124999,1.4997241495966878,7.7548828125,15.99951171875,-12.87841796875,28.53,171.18802618396953
-0.72258447265625,-0.5703564453125,-0.8681103515624999,1.2653261940398566,6.29345703125,15.99951171875,-10.3271484375,28.53,171.18802618396953
0.3203842773437499,-0.6377392578125,-0.4574658203124999,0.84772190185137,2.64013671875,15.99951171875,-2.91455078125,28.48294117647059,171.18802618396953
1.28425146484375,-0.6572705078125,-0.0214306640624999,1.442832498509643,0.52978515625,15.99951171875,2.71533203125,28.53,171.18802618396953
1.30121923828125,-0.5222607421875,0.0088427734375,2.246110149704958,0.28271484375,9.2001953125,4.4462890625,28.48294117647059,171.28214932251984
1.31818701171875,-0.3872509765624999,0.0391162109375,2.3252034687825027,0.4853515625,-0.70947265625,4.1083984375,28.53,171.28214932251984
1.33515478515625,-0.2522412109374999,0.0693896484375,1.9118550004445547,0.287109375,-12.12255859375,3.271484375,28.53,171.28214932251984
1.35212255859375,-0.1172314453125,0.0996630859375,1.3608494978970864,0.060546875,16.0,3.720703125,28.48294117647059,171.28214932251984
1.00788427734375,0.0087451171875,0.2246630859375,1.0326571046452528,0.46630859375,16.0,4.96484375,28.53,171.28214932251984
0.86481787109375,0.1356982421875,0.4136279296875,0.9682004065860904,1.15869140625,16.0,6.4326171875,28.48294117647059,171.28214932251984
0.91559912109375,0.2143115234375,0.5488818359375001,1.0888169953889728,1.94189453125,16.0,7.125,28.48294117647059,171.28214932251984
1.10554052734375,0.2694873046875,0.7051318359375001,1.338676275669297,2.2275390625,16.0,6.201171875,28.53,171.28214932251984
1.32380224609375,0.2709521484375,0.8814013671875001,1.613299669492853,1.93115234375,16.0,2.99072265625,28.53,170.93030611024352
1.45905615234375,0.1981982421875,0.9356005859375,1.7445560625285037,1.33447265625,16.0,-0.5029296875,28.577058823529413,170.93030611024352
1.42634130859375,0.0814990234375,0.8984912109375001,1.6877138606867377,0.49560546875,16.0,-2.50634765625,28.577058823529413,170.93030611024352
1.18317724609375,-0.0034619140625,0.8252490234375001,1.4425520202777833,0.0869140625,-4.1044921875,-2.1669921875,28.53,170.93030611024352
0.56598974609375,-0.1196728515625,0.7988818359375001,0.9863458682811208,0.30810546875,10.16357421875,1.4482421875,28.48294117647059,170.93030611024352
0.58698583984375,-0.0654736328125,0.6519091796875001,0.8796730934452683,-0.35498046875,15.99951171875,2.61083984375,28.48294117647059,170.93030611024352
0.72028662109375,0.1303271484375,0.5855029296875001,0.9373428736695804,-0.7021484375,15.99951171875,1.2109375,28.43588235294117,170.93030611024352
0.80720068359375,0.1151904296875,0.5098193359375001,0.9616431427414026,-0.1630859375,15.99951171875,-1.28955078125,28.577058823529413,170.93030611024352
0.87604833984375,0.1015185546875,0.2236865234375,0.9098364531367076,-0.07666015625,15.99951171875,-4.4931640625,28.53,170.91163442708032
1.03962255859375,0.0912646484375,0.0161669921875,1.0437459806043932,-0.27685546875,15.99951171875,-7.08740234375,28.577058823529413,170.91163442708032
1.23591162109375,0.0824755859375,-0.0990673828124999,1.242615831127076,-0.1962890625,15.99951171875,-8.376953125,28.53,170.91163442708032
1.39509130859375,0.0058154296875,-0.2338330078124999,1.4145640508930348,-0.064453125,15.99951171875,-8.08349609375,28.624117647058824,170.91163442708032
1.52839208984375,-0.0898876953125,-0.2387158203124999,1.5495313552597147,-0.099609375,12.048828125,-5.75341796875,28.624117647058824,170.91163442708032
1.52888037109375,-0.2051220703125,-0.1561962890624999,1.550466875996371,-0.33349609375,-0.7138671875,-2.66015625,28.577058823529413,170.91163442708032
1.46149755859375,-0.2720166015625,0.0024951171875,1.4865982547113672,0.015625,-11.14013671875,-0.25732421875,28.577058823529413,170.91163442708032
1.33845068359375,-0.3203564453125,0.0986865234375,1.379788938343114,0.62646484375,16.0,1.17333984375,28.48294117647059,170.91163442708032
1.18220068359375,-0.3867626953125,-0.0893017578124999,1.247059999648502,-0.279296875,16.0,1.154296875,28.624117647058824,170.91163442708032
1.17682958984375,-0.2109814453125,0.2617724609375,1.22391416165646,-1.70458984375,16.0,1.447265625,28.48294117647059,171.15665219248953
1.04792333984375,-0.1191845703125,0.1821826171875,1.070298460241414,-1.48876953125,16.0,2.00341796875,28.53,171.15665219248953
0.93317724609375,-0.1338330078125,0.3174365234375,0.9947346344726028,-1.0732421875,16.0,3.2021484375,28.53,171.15665219248953
0.89850927734375,-0.0566845703125,0.4585498046875,1.0103464679817735,-0.150390625,-15.67626953125,3.275390625,28.53,171.15665219248953
1.07966162109375,-0.0532666015625,0.3574755859375,1.1385496657793024,0.40771484375,-8.697265625,3.32861328125,28.53,171.15665219248953
0.95905615234375,0.0766162109375,0.3560107421875,1.025866655896229,0.59521484375,-2.04736328125,3.64697265625,28.577058823529413,171.15665219248953
0.97077490234375,0.1845263671875,0.3862841796875,1.060975663568575,0.77099609375,3.90380859375,4.01513671875,28.577058823529413,171.15665219248953
1.00202490234375,0.2411669921875,0.3926318359375,1.102894002898474,1.42138671875,8.42431640625,3.615234375,28.53,171.15665219248953
1.04108740234375,0.3070849609375,0.3203662109375,1.1317237567813507,1.90576171875,12.349609375,2.61572265625,28.624117647058824,171.20838161708167
1.00690771484375,0.3383349609375,0.2505419921875,1.0913775615494958,2.04638671875,14.47119140625,1.677734375,28.624117647058824,171.20838161708167
1.00153662109375,0.3329638671875,0.1846240234375,1.071460018047613,2.0234375,15.25537109375,0.41357421875,28.53,171.20838161708167
1.04499365234375,0.2704638671875,0.1357958984375,1.0879351832371245,1.99267578125,14.3564453125,-1.24365234375,28.624117647058824,171.20838161708167
1.15046240234375,0.1815966796875,0.1177294921875,1.1706414167501522,1.84130859375,11.19580078125,-2.7236328125,28.577058823529413,171.20838161708167
1.20173193359375,0.0971240234375,0.1074755859375,1.2104312114780709,1.740234375,6.6953125,-3.1904296875,28.577058823529413,171.20838161708167
1.10651708984375,-0.0508251953125,0.1167529296875,1.1138197866735218,1.2021484375,1.05517578125,-1.79248046875,28.577058823529413,171.20838161708167
1.23591162109375,-0.0093212890625,0.1870654296875,1.2500231584128898,1.2236328125,-4.81298828125,-0.6533203125,28.53,171.20838161708167
1.35114599609375,-0.0649853515625,0.1904833984375,1.3660536313623168,1.166015625,-8.89892578125,-0.6318359375,28.48294117647059,171.20838161708167
1.29401708984375,-0.1294384765625,0.2461474609375,1.3235645509564264,0.59326171875,-12.111328125,-1.0751953125,28.48294117647059,171.28214932251984
1.23151708984375,-0.1470166015625,0.3569873046875,1.290615418868166,0.2734375,-13.32373046875,-1.416015625,28.53,171.28214932251984
1.20075537109375,-0.2241650390625,0.3003466796875,1.257883760109688,0.36083984375,-12.7490234375,-1.41015625,28.577058823529413,171.28214932251984
1.02350927734375,-0.2422314453125,0.4409716796875,1.1404838167169769,0.2919921875,-11.01171875,-0.7626953125,28.577058823529413,171.28214932251984
1.01960302734375,-0.2353955078125,0.4478076171875,1.1382148481187508,0.07275390625,-8.75634765625,-0.08349609375,28.53,171.28214932251984
1.08747412109375,-0.1562939453125,0.5059130859375001,1.209535370261149,0.30810546875,-6.43798828125,0.51220703125,28.53,171.28214932251984
1.05134130859375,-0.0889111328125,0.5034716796875001,1.1690626454305062,0.7216796875,-4.08984375,1.33154296875,28.53,171.28214932251984
0.97077490234375,-0.0771923828125,0.4609912109375,1.0774393122335992,1.08056640625,-1.34619140625,1.81103515625,28.48294117647059,171.28214932251984
0.86872412109375,-0.0801220703125,0.3814013671875,0.9521387228832592,1.00830078125,1.28759765625,2.068359375,28.53,170.98539972766267
0.78718115234375,-0.0561962890625,0.3355029296875,0.8575397398013259,0.77587890625,3.70654296875,2.3251953125,28.577058823529413,170.98539972766267
0.76911474609375,-0.0386181640625,0.2690966796875,0.8157462094752562,0.3759765625,5.57470703125,2.29345703125,28.624117647058824,170.98539972766267
0.80622412109375,-0.0268994140625,0.2285693359375,0.8384299930472461,-0.0693359375,6.5810546875,1.90283203125,28.48294117647059,170.98539972766267
0.88923193359375,-0.0185986328125,0.2075732421875,0.9133268810987686,-0.25830078125,6.505859375,1.2265625,28.624117647058824,170.98539972766267
0.98542333984375,-0.0078564453125,0.2007373046875,1.005691974679604,-0.55419921875,5.56640625,0.18310546875,28.48294117647059,170.98539972766267
1.03571630859375,0.0077685546875,0.2026904296875,1.0553918858016202,-0.4716796875,3.95947265625,-0.3759765625,28.48294117647059,170.98539972766267
1.04597021484375,0.0341357421875,0.1982958984375,1.0651479721485213,-0.34228515625,2.22412109375,-0.7119140625,28.624117647058824,170.98539972766267
1.07233740234375,0.0546435546875,0.1943896484375,1.0911831917482426,-0.01123046875,0.4921875,-0.6494140625,28.48294117647059,171.03544625978628
1.13923193359375,0.0961474609375,0.1953662109375,1.1598541671867884,0.17333984375,-0.89111328125,-0.67333984375,28.48294117647059,171.03544625978628
1.17634130859375,0.1381396484375,0.2446826171875,1.209434173458075,0.396484375,-2.34326171875,-0.73974609375,28.624117647058824,171.03544625978628
1.16852880859375,0.1449755859375,0.2979052734375,1.2145884278113808,0.9375,-3.49169921875,-0.6875,28.53,171.03544625978628
1.11432958984375,0.1288623046875,0.3335498046875,1.1702954330329516,1.32470703125,-3.94189453125,-0.4736328125,28.577058823529413,171.03544625978628
1.08503271484375,0.1205615234375,0.3486865234375,1.1460424795101185,1.7021484375,-3.537109375,-0.236328125,28.53,171.03544625978628
1.08063818359375,0.0966357421875,0.3667529296875,1.1452620058062226,1.97021484375,-2.42431640625,-0.05224609375,28.577058823529413,171.03544625978628
1.06989599609375,0.0907763671875,0.3662646484375,1.1344900105299485,2.03955078125,-1.09716796875,0.3203125,28.53,171.03544625978628
1.09138037109375,0.0229052734375,0.3428271484375,1.1441880176202537,1.8212890625,0.72314453125,0.494140625,28.577058823529413,171.03544625978628
1.07575537109375,-0.0522900390625,0.3252490234375,1.12506479540925,1.47216796875,2.52587890625,0.34033203125,28.53,171.02442762293347
1.05720068359375,-0.0679150390625,0.2896044921875,1.0982515649053877,1.0859375,3.8046875,0.421875,28.624117647058824,171.02442762293347
1.08698583984375,-0.0913525390625,0.2422412109375,1.1173917427162483,0.546875,4.74267578125,0.294921875,28.43588235294117,171.02442762293347
1.11237646484375,-0.1030712890625,0.2036669921875,1.13555507742865,0.01904296875,4.66015625,0.0712890625,28.577058823529413,171.02442762293347
1.12751318359375,-0.0967236328125,0.1885302734375,1.14725110778965,-0.30322265625,3.86572265625,-0.0712890625,28.53,171.02442762293347
1.13727880859375,-0.0947705078125,0.1807177734375,1.1554408038768866,-0.4384765625,2.22021484375,-0.1552734375,28.48294117647059,171.02442762293347
1.14997412109375,-0.0908642578125,0.1992724609375,1.170643543620878,-0.28515625,0.04541015625,-0.20263671875,28.53,171.02442762293347
1.12458349609375,-0.0796337890625,0.1982958984375,1.144705570609328,-0.08544921875,-2.2470703125,-0.23681640625,28.624117647058824,171.02442762293347
1.11139990234375,-0.0630322265625,0.2183154296875,1.1343916569486752,-0.1611328125,-4.10986328125,-0.158203125,28.577058823529413,170.84383929699112
1.07917333984375,-0.0352001953125,0.2529833984375,1.1089881654303346,-0.12841796875,-5.123046875,0.041015625,28.577058823529413,170.84383929699112
1.06110693359375,-0.0264111328125,0.2803271484375,1.097829122681791,-0.17724609375,-5.47119140625,0.2939453125,28.577058823529413,170.84383929699112
1.05573583984375,-0.0327587890625,0.3125537109375,1.1015176458015694,-0.267578125,-5.18505859375,0.423828125,28.67117647058824,170.84383929699112
1.03425146484375,-0.0454541015625,0.3379443359375,1.089012645506256,-0.3642578125,-4.60791015625,0.52392578125,28.48294117647059,170.84383929699112
1.01813818359375,-0.0420361328125,0.3564990234375,1.0795665570335633,-0.41357421875,-3.60205078125,0.51318359375,28.577058823529413,170.84383929699112
1.03034521484375,-0.0195751953125,0.3716357421875,1.0954942149067652,-0.3857421875,-2.25830078125,0.82177734375,28.48294117647059,170.84383929699112
1.04938818359375,0.0160693359375,0.3872607421875,1.118679876400427,-0.25830078125,-1.01708984375,1.0556640625,28.624117647058824,170.84383929699112
1.07868505859375,0.0478076171875,0.3799365234375,1.1446391508839466,-0.12451171875,0.11376953125,1.173828125,28.53,170.81246594391746
1.10456396484375,0.0439013671875,0.3765185546875,1.1677992569342732,0.1982421875,0.7861328125,1.13134765625,28.53,170.81246594391746
1.11432958984375,0.0336474609375,0.3481982421875,1.1679488868487975,0.31103515625,1.38525390625,1.02685546875,28.53,170.81246594391746
1.10358740234375,0.0150927734375,0.3403857421875,1.154987186035584,0.4853515625,1.9013671875,0.85107421875,28.624117647058824,170.81246594391746
1.20173193359375,0.0082568359375,0.3135302734375,1.241985929034812,0.62939453125,2.42138671875,0.66943359375,28.53,170.81246594391746
1.06843115234375,-0.0010205078125,0.2813037109375,1.104842951066801,1.03125,2.58447265625,0.4189453125,28.624117647058824,170.81246594391746
1.07770849609375,-0.0093212890625,0.2451708984375,1.1052833385259593,1.3017578125,2.3876953125,0.142578125,28.53,170.81246594391746
1.07477880859375,-0.0312939453125,0.2295458984375,1.0994635591527813,1.4912109375,1.958984375,-0.0654296875,28.577058823529413,170.81246594391746
1.07575537109375,-0.0518017578125,0.2012255859375,1.095638981136308,1.56591796875,1.37939453125,-0.13623046875,28.48294117647059,170.81246594391746
1.07624365234375,-0.0791455078125,0.1968310546875,1.096953451476637,1.525390625,0.7021484375,-0.09375,28.577058823529413,171.36357509985658
1.07282568359375,-0.0889111328125,0.1807177734375,1.0915672450896494,1.3955078125,0.13134765625,0.04931640625,28.577058823529413,171.36357509985658
1.06598974609375,-0.0923291015625,0.1650927734375,1.0826423350366647,1.20263671875,-0.25634765625,0.2138671875,28.577058823529413,171.36357509985658
1.09040380859375,-0.0801220703125,0.1758349609375,1.1073924080626565,1.06396484375,-0.92529296875,0.251953125,28.53,171.36357509985658
1.10749365234375,-0.0557080078125,0.1909716796875,1.1252180919976364,0.96484375,-1.35400390625,0.1962890625,28.53,171.36357509985658
1.10309912109375,-0.0503369140625,0.2100146484375,1.1240407592402804,0.87890625,-1.658203125,0.232421875,28.48294117647059,171.36357509985658
1.10847021484375,-0.0376416015625,0.2275927734375,1.1322197568868475,0.7685546875,-1.75048828125,0.30224609375,28.53,171.36357509985658
1.10554052734375,-0.0151806640625,0.2402880859375,1.1314542299202308,0.64111328125,-1.9775390625,0.25146484375,28.53,171.36357509985658
1.11091162109375,-0.0063916015625,0.2627490234375,1.1415789643161078,0.5771484375,-1.90283203125,0.3828125,28.577058823529413,171.36357509985658
1.11872412109375,-0.0102978515625,0.2632373046875,1.1493230979332687,0.62158203125,-1.66064453125,0.26708984375,28.577058823529413,171.32118107355254
1.09821630859375,0.0004443359375,0.2661669921875,1.1300106750052623,0.3876953125,-1.365234375,0.18994140625,28.53,171.32118107355254
1.06647802734375,0.0116748046875,0.2588427734375,1.0975022848415052,0.2724609375,-0.65087890625,0.15869140625,28.577058823529413,171.32118107355254
1.04743505859375,0.0155810546875,0.2397998046875,1.0746473456742127,0.12939453125,-0.00732421875,0.14111328125,28.53,171.32118107355254
1.05182958984375,0.0097216796875,0.2373583984375,1.0783223110163456,0.115234375,0.466796875,0.01025390625,28.53,171.32118107355254
1.07526708984375,-0.0107861328125,0.2402880859375,1.1018411951844982,-0.0859375,0.6533203125,-0.1826171875,28.624117647058824,171.32118107355254
0.96052099609375,-0.0225048828125,0.2246630859375,0.9867018576400344,-0.17919921875,0.65087890625,-0.22119140625,28.624117647058824,171.32118107355254
1.10016943359375,-0.0576611328125,0.2148974609375,1.122443097697428,-0.41748046875,0.5546875,-0.255859375,28.53,171.32118107355254
1.09479833984375,-0.0718212890625,0.2163623046875,1.1182818738479654,-0.6533203125,0.47265625,-0.189453125,28.48294117647059,171.10921347785052
1.10749365234375,-0.0815869140625,0.2129443359375,1.1307271575122813,-0.70166015625,0.59423828125,-0.2587890625,28.53,171.10921347785052
1.06501318359375,-0.0796337890625,0.2100146484375,1.0884396051905094,-0.67822265625,0.91162109375,-0.482421875,28.53,171.10921347785052
1.01032568359375,-0.0493603515625,0.2114794921875,1.0334011838833137,-0.400390625,1.5908203125,-0.37646484375,28.53,171.10921347785052
0.97419287109375,-0.0688916015625,0.1572802734375,0.9892092232022024,-0.3818359375,2.2548828125,-0.60302734375,28.53,171.10921347785052
0.97370458984375,-0.0581494140625,0.1768115234375,0.9913346041871468,-0.5,2.681640625,-0.646484375,28.53,171.10921347785052
0.99909521484375,-0.0332470703125,0.3018115234375,1.0442158836599391,-0.11328125,2.4716796875,-0.517578125,28.48294117647059,171.10921347785052
1.02888037109375,-0.0127392578125,0.2432177734375,1.057313573178516,0.56103515625,1.42431640625,-0.21923828125,28.43588235294117,171.10921347785052
0.95954443359375,-0.0107861328125,0.2002490234375,0.980276252945807,0.99658203125,-0.306640625,0.021484375,28.53,171.18466256246654
1.11872412109375,-0.0185986328125,0.2305224609375,1.142379172278696,1.22705078125,-2.072265625,0.5654296875,28.53,171.18466256246654
1.14118505859375,-0.0024853515625,0.2441943359375,1.167022017201889,1.53564453125,-3.28515625,0.8291015625,28.48294117647059,171.18466256246654
1.13288427734375,-0.0088330078125,0.2607958984375,1.1625486263040825,1.6884765625,-3.9296875,0.9013671875,28.48294117647059,171.18466256246654
1.11481787109375,-0.0195751953125,0.2305224609375,1.1385704541126145,1.50146484375,-3.8203125,0.81640625,28.48294117647059,171.18466256246654
1.09919287109375,-0.0283642578125,0.2314990234375,1.1236642277998758,1.10009765625,-3.31005859375,0.6787109375,28.48294117647059,171.18466256246654
1.09528662109375,-0.0102978515625,0.2720263671875,1.1286085116367834,1.0361328125,-2.73876953125,0.4033203125,28.624117647058824,171.18466256246654
1.06354833984375,-0.0391064453125,0.2227099609375,1.087319691696126,0.79150390625,-1.26123046875,0.1416015625,28.48294117647059,171.18466256246654
1.02839208984375,-0.0571728515625,0.2129443359375,1.051762480609023,0.392578125,0.2490234375,0.00830078125,28.577058823529413,171.18466256246654
1.03083349609375,-0.0747509765625,0.1982958984375,1.0523909295043576,-0.09716796875,1.33740234375,-0.07958984375,28.53,171.03544625978628
1.04352880859375,-0.0908642578125,0.1934130859375,1.065184166951788,-0.40234375,1.93359375,-0.17431640625,28.48294117647059,171.03544625978628
1.05622412109375,-0.0893994140625,0.1924365234375,1.0773269999251365,-0.5078125,1.96923828125,-0.3173828125,28.577058823529413,171.03544625978628
1.08063818359375,-0.0801220703125,0.1792529296875,1.098330570818054,-0.494140625,1.5537109375,-0.33935546875,28.388823529411766,171.03544625978628
1.06696630859375,-0.0767041015625,0.1807177734375,1.0848776596957332,-0.5439453125,0.7978515625,-0.15576171875,28.48294117647059,171.03544625978628
0.95856787109375,-0.0903759765625,0.1733935546875,0.9783074697864658,-0.57177734375,-0.25,0.1103515625,28.48294117647059,171.03544625978628
1.10798193359375,-0.0830517578125,0.2017138671875,1.1292519842185922,-0.45947265625,-1.18310546875,0.2509765625,28.577058823529413,171.03544625978628
1.11042333984375,-0.0752392578125,0.2222216796875,1.1349376258231365,-0.1650390625,-2.0068359375,0.28857421875,28.53,171.03544625978628
1.08942724609375,-0.0581494140625,0.2363818359375,1.1162927265051974,0.14208984375,-2.50439453125,0.32421875,28.53,171.20501862398936
1.06989599609375,-0.0503369140625,0.2256396484375,1.0945887347866192,0.36474609375,-2.52587890625,0.33642578125,28.624117647058824,171.20501862398936
1.05427099609375,-0.0513134765625,0.2334521484375,1.0810274333667589,0.5205078125,-2.07861328125,0.3076171875,28.577058823529413,171.20501862398936
1.02790380859375,-0.0308056640625,0.2383349609375,1.0556224619933718,0.64892578125,-1.2119140625,0.234375,28.624117647058824,171.20501862398936
1.03913427734375,-0.0264111328125,0.2285693359375,1.0643033099723342,0.68408203125,-0.19482421875,0.1005859375,28.577058823529413,171.20501862398936
1.03425146484375,-0.0264111328125,0.2275927734375,1.059326253327489,0.66943359375,0.59423828125,0.0205078125,28.48294117647059,171.20501862398936
1.04352880859375,-0.0371533203125,0.2090380859375,1.0649082894539548,0.5615234375,1.00390625,-0.03076171875,28.53,171.20501862398936
1.06696630859375,-0.0454541015625,0.2163623046875,1.089631050361871,0.59765625,1.451171875,-0.0390625,28.577058823529413,171.20501862398936
1.08893896484375,-0.0581494140625,0.2041552734375,1.1094362528704074,0.71240234375,1.5498046875,-0.05810546875,28.577058823529413,171.20501862398936
1.10798193359375,-0.0581494140625,0.1865771484375,1.125085042050167,0.85693359375,1.4091796875,-0.04833984375,28.624117647058824,170.97101632077556
1.12507177734375,-0.0596142578125,0.1831591796875,1.1414410405333066,0.99169921875,1.0869140625,-0.0966796875,28.53,170.97101632077556
1.14020849609375,-0.0557080078125,0.1616748046875,1.1529603372057298,1.06787109375,0.60498046875,-0.14990234375,28.577058823529413,170.97101632077556
1.14802099609375,-0.0513134765625,0.1753466796875,1.1624679515696108,1.0673828125,-0.16796875,-0.13623046875,28.48294117647059,170.97101632077556
1.15729833984375,-0.0566845703125,0.1743701171875,1.1717327023193451,1.0302734375,-1.17333984375,-0.21044921875,28.624117647058824,170.97101632077556
1.15925146484375,-0.0591259765625,0.2036669921875,1.178490595445527,0.96630859375,-1.85791015625,-0.2880859375,28.48294117647059,170.97101632077556
1.14802099609375,-0.0625439453125,0.2158740234375,1.1698143214042276,0.9384765625,-2.306640625,-0.19189453125,28.53,170.97101632077556
1.13434912109375,-0.0610791015625,0.2388232421875,1.160825191914267,0.85498046875,-2.49072265625,0.11376953125,28.577058823529413,170.97101632077556
1.12751318359375,-0.0684033203125,0.2588427734375,1.1588634840947851,0.8486328125,-2.35498046875,0.263671875,28.53,171.19568122509563
1.13483740234375,-0.0820751953125,0.2612841796875,1.167416673685478,0.8056640625,-2.0419921875,0.0986328125,28.624117647058824,171.19568122509563
1.10602880859375,-0.0718212890625,0.2671435546875,1.140098110608461,0.78076171875,-1.572265625,0.046875,28.53,171.19568122509563
1.04792333984375,-0.0762158203125,0.2573779296875,1.0817557839667005,0.66650390625,-1.0185546875,0.1259765625,28.53,171.19568122509563
1.03571630859375,-0.0820751953125,0.2456591796875,1.0676109039052497,0.5205078125,-0.51123046875,0.046875,28.53,171.19568122509563
1.04401708984375,-0.0947705078125,0.2324755859375,1.0737774588311284,0.390625,-0.123046875,0.00634765625,28.43588235294117,171.19568122509563
1.04157568359375,-0.1064892578125,0.2446826171875,1.0752160014792236,0.34716796875,0.32275390625,0.09228515625,28.53,171.19568122509563
1.04694677734375,-0.0962353515625,0.2290576171875,1.0760233219928077,0.33056640625,0.513671875,0.21826171875,28.53,171.19568122509563
1.06403662109375,-0.0898876953125,0.2319873046875,1.092735941723053,0.357421875,0.4169921875,0.34765625,28.624117647058824,171.19568122509563
1.09138037109375,-0.0576611328125,0.2290576171875,1.1166482492878265,0.46337890625,0.236328125,0.337890625,28.577058823529413,171.1940000089726
1.10602880859375,-0.0391064453125,0.2329638671875,1.130973564199997,0.66845703125,-0.16357421875,0.369140625,28.53,171.1940000089726
1.10309912109375,-0.0200634765625,0.2139208984375,1.123829330831815,0.84716796875,-0.2158203125,0.20068359375,28.624117647058824,171.1940000089726
1.07184912109375,-0.0151806640625,0.2026904296875,1.0909511452112446,0.9287109375,-0.001953125,0.2724609375,28.48294117647059,171.1940000089726
1.06354833984375,-0.0288525390625,0.1963427734375,1.0819048132233626,0.95263671875,0.30078125,0.328125,28.624117647058824,171.1940000089726
1.06306005859375,-0.0347119140625,0.1807177734375,1.078870019414497,0.931640625,0.560546875,0.318359375,28.53,171.1940000089726
1.06696630859375,-0.0371533203125,0.1777880859375,1.0823151465195968,0.93310546875,0.63037109375,0.267578125,28.53,171.1940000089726
1.07526708984375,-0.0391064453125,0.2983935546875,1.1165873642689446,0.98095703125,0.966796875,0.2099609375,28.48294117647059,171.1940000089726
1.08112646484375,-0.0449658203125,0.1787646484375,1.096728388213282,1.0751953125,1.0927734375,0.23095703125,28.48294117647059,171.1863441544613
0.96393896484375,-0.0366650390625,0.0527880859375,0.966079310952491,1.2353515625,1.15185546875,0.310546875,28.624117647058824,171.1863441544613
1.10212255859375,-0.0483837890625,0.1597216796875,1.1146865658863367,1.22314453125,1.14453125,0.20263671875,28.53,171.1863441544613
1.12409521484375,-0.0532666015625,0.2949755859375,1.1633735338126814,1.1533203125,0.65625,0.064453125,28.577058823529413,171.1863441544613
1.10163427734375,-0.0469189453125,0.1680224609375,1.1153613835109306,1.14111328125,0.134765625,0.02001953125,28.388823529411766,171.1863441544613
1.19929052734375,-0.0508251953125,0.1699755859375,1.212341812060361,1.076171875,-0.48291015625,0.048828125,28.53,171.1863441544613
1.06940771484375,-0.0420361328125,0.1821826171875,1.085629035644519,1.01318359375,-0.890625,0.0048828125,28.53,171.1863441544613
1.06696630859375,-0.0415478515625,0.1895068359375,1.0844612342129505,0.89990234375,-1.2744140625,-0.15283203125,28.577058823529413,171.1863441544613
1.04938818359375,-0.0332470703125,0.1870654296875,1.0664494374018505,0.57177734375,-1.23046875,-0.14599609375,28.577058823529413,171.19231923036307
1.01423193359375,-0.0371533203125,0.1914599609375,1.0328134879898447,0.22705078125,-0.6982421875,-0.20068359375,28.48294117647059,171.19231923036307
1.01960302734375,-0.0376416015625,0.2266162109375,1.0451612940577155,0.26953125,-0.02392578125,-0.3349609375,28.53,171.19231923036307
0.99811865234375,-0.0415478515625,0.1934130859375,1.0175341222474212,0.3525390625,1.01220703125,-0.4228515625,28.43588235294117,171.19231923036307
1.01374365234375,-0.0405712890625,0.1890185546875,1.032012711249038,0.44775390625,2.07080078125,-0.43017578125,28.48294117647059,171.19231923036307
1.02888037109375,-0.0298291015625,0.1748583984375,1.0440594105826382,0.7109375,2.75390625,-0.39794921875,28.53,171.19231923036307
1.05231787109375,-0.0337353515625,0.1543505859375,1.0641123432925572,0.888671875,3.2978515625,-0.30615234375,28.577058823529413,171.19231923036307
1.20661474609375,-0.0278759765625,0.0562060546875,1.2082447335468638,1.44384765625,3.2861328125,-0.146484375,28.577058823529413,171.19231923036307
1.12507177734375,-0.0557080078125,0.1147998046875,1.1322848058090995,1.45654296875,3.2421875,-0.09033203125,28.624117647058824,171.19231923036307
1.14118505859375,-0.0649853515625,0.1128466796875,1.1485907917930631,1.244140625,2.38525390625,0.1455078125,28.53,171.05580184852042
1.16804052734375,-0.0586376953125,0.1533740234375,1.1795256012034812,1.294921875,1.2578125,0.34521484375,28.577058823529413,171.05580184852042
1.16218115234375,-0.0596142578125,0.1333544921875,1.1713250237163757,1.296875,0.1396484375,0.3603515625,28.577058823529413,171.05580184852042
1.15632177734375,-0.0591259765625,0.1553271484375,1.1682048009255923,1.23095703125,-1.197265625,0.2509765625,28.53,171.05580184852042
1.13972021484375,-0.0635205078125,0.1563037109375,1.1521405613418334,1.16748046875,-2.365234375,0.0986328125,28.53,171.05580184852042
1.12165380859375,-0.0723095703125,0.1812060546875,1.1384953116052137,1.11328125,-2.88232421875,-0.04736328125,28.53,171.05580184852042
1.09821630859375,-0.0884228515625,0.1841357421875,1.11705131157466,0.75537109375,-3.19677734375,-0.1845703125,28.577058823529413,171.05580184852042
1.09382177734375,-0.0815869140625,0.2266162109375,1.120025630151985,0.6123046875,-3.14794921875,-0.0556640625,28.577058823529413,171.05580184852042
1.08796240234375,-0.0854931640625,0.2446826171875,1.1184099665009812,0.3955078125,-2.744140625,0.22509765625,28.53,171.05580184852042
1.07917333984375,-0.0806103515625,0.2730029296875,1.1160841033840156,0.16943359375,-2.0078125,0.52880859375,28.48294117647059,170.95999770656067
1.07966162109375,-0.0791455078125,0.2637255859375,1.1142191939415511,0.22314453125,-1.19677734375,0.45751953125,28.624117647058824,170.95999770656067
1.05182958984375,-0.0659619140625,0.2520068359375,1.083606896220622,0.2158203125,0.22705078125,0.41064453125,28.577058823529413,170.95999770656067
1.00544287109375,-0.0503369140625,0.2109912109375,1.0285749671479718,0.01318359375,1.13134765625,0.48486328125,28.53,170.95999770656067
1.00934912109375,-0.0483837890625,0.1899951171875,1.0282143666822896,-0.30029296875,1.9775390625,0.35205078125,28.577058823529413,170.95999770656067
1.03278662109375,-0.0518017578125,0.1831591796875,1.0501804187502777,-0.51904296875,2.1279296875,0.134765625,28.53,170.95999770656067
1.07233740234375,-0.0498486328125,0.1831591796875,1.0890085746964595,-0.609375,1.75,-0.0478515625,28.577058823529413,170.95999770656067
1.10700537109375,-0.0561962890625,0.1831591796875,1.1234617036813517,-0.63037109375,1.01953125,-0.17578125,28.624117647058824,170.95999770656067
1.13679052734375,-0.0644970703125,0.1846240234375,1.1534897507856874,-0.62353515625,0.138671875,-0.1767578125,28.624117647058824,171.14058805245557
1.14606787109375,-0.0688916015625,0.1816943359375,1.1624243844788251,-0.2978515625,-0.43115234375,-0.02783203125,28.624117647058824,171.14058805245557
1.14997412109375,-0.0674267578125,0.2920458984375,1.188392886905932,-0.0615234375,-0.70556640625,0.16259765625,28.48294117647059,171.14058805245557
1.14362646484375,-0.0669384765625,0.1675341796875,1.1577693864060687,0.05224609375,-0.67529296875,0.3349609375,28.53,171.14058805245557
1.13532568359375,-0.0444775390625,0.1758349609375,1.1497219632574496,0.171875,-0.595703125,0.4384765625,28.577058823529413,171.14058805245557
1.11188818359375,-0.0312939453125,0.1851123046875,1.1276263606245414,0.25390625,-0.6201171875,0.390625,28.624117647058824,171.14058805245557
1.07966162109375,-0.0088330078125,0.1890185546875,1.096118265565332,0.2548828125,-0.34326171875,0.26171875,28.67117647058824,171.14058805245557
1.04792333984375,0.0160693359375,0.1943896484375,1.0659216130496685,0.56640625,-0.21337890625,0.11962890625,28.43588235294117,171.14058805245557
1.03327490234375,0.0307177734375,0.0606005859375,1.0355061740204217,0.7880859375,-0.1552734375,-0.0302734375,28.577058823529413,171.14058805245557
1.02936865234375,0.0258349609375,0.1738818359375,1.044271114463876,0.9228515625,-0.27685546875,-0.1318359375,28.53,170.92862381047266
1.04011083984375,0.0028857421875,0.1685107421875,1.0536767800900928,0.94921875,-0.376953125,-0.4365234375,28.577058823529413,170.92862381047266
1.04938818359375,-0.0322705078125,0.1611865234375,1.0621855021033446,0.90380859375,-0.5966796875,-0.53759765625,28.53,170.92862381047266
1.06989599609375,-0.0649853515625,0.1763232421875,1.08627364145074,0.90966796875,-0.62109375,-0.4462890625,28.43588235294117,170.92862381047266
1.20661474609375,-0.0620556640625,0.0522998046875,1.2093408620002355,0.943359375,-0.30615234375,-0.1630859375,28.577058823529413,170.92862381047266
1.10602880859375,-0.0679150390625,0.1929248046875,1.124780937886965,0.9501953125,-0.0556640625,0.02490234375,28.53,170.92862381047266
1.12018896484375,-0.0747509765625,0.1934130859375,1.1392188759262314,0.97802734375,0.22265625,0.09375,28.53,170.92862381047266
1.13581396484375,-0.0757275390625,0.1782763671875,1.1522111290922832,0.9951171875,0.36767578125,0.09375,28.53,170.92862381047266
1.11677099609375,-0.0693798828125,0.1831591796875,1.133815818799112,0.9892578125,0.30810546875,0.1142578125,28.577058823529413,170.89556799358948
1.11139990234375,-0.0537548828125,0.1777880859375,1.1268131761109303,0.9248046875,0.1279296875,0.0673828125,28.624117647058824,170.89556799358948
1.11384130859375,-0.0439892578125,0.1743701171875,1.128265240668485,0.8310546875,-0.21044921875,0.03759765625,28.53,170.89556799358948
1.10407568359375,-0.0454541015625,0.3013232421875,1.145357973183165,0.7373046875,-0.60791015625,0.06787109375,28.53,170.89556799358948
1.09968115234375,-0.0674267578125,0.1934130859375,1.1185944869795532,0.67431640625,-0.994140625,0.12060546875,28.53,170.89556799358948
1.11042333984375,-0.0796337890625,0.2100146484375,1.132911155646605,0.669921875,-1.3232421875,0.09375,28.48294117647059,170.89556799358948
1.10700537109375,-0.0869580078125,0.2222216796875,1.1324332482209554,0.70263671875,-1.5400390625,0.09375,28.53,170.89556799358948
1.09772802734375,-0.0771923828125,0.2383349609375,1.125952503254623,0.705078125,-1.6728515625,0.1748046875,28.53,170.89556799358948
1.08161474609375,-0.0620556640625,0.2466357421875,1.1111123047352434,0.63623046875,-1.7783203125,0.18603515625,28.53,170.84047524645524
1.07184912109375,-0.0630322265625,0.2544482421875,1.1034389461710965,0.5390625,-1.86962890625,0.08984375,28.53,170.84047524645524
1.07380224609375,-0.0698681640625,0.2681201171875,1.1089730480521542,0.447265625,-1.61376953125,-0.1220703125,28.577058823529413,170.84047524645524
1.07673193359375,-0.0752392578125,0.2803271484375,1.115166316245165,0.35791015625,-1.39697265625,-0.35400390625,28.624117647058824,170.84047524645524
1.07624365234375,-0.0630322265625,0.2754443359375,1.1127187618601977,0.2119140625,-1.23095703125,-0.521484375,28.577058823529413,170.84047524645524
1.07770849609375,-0.0386181640625,0.2871630859375,1.1159792126528874,0.04541015625,-0.78515625,-0.70361328125,28.53,170.84047524645524
1.10700537109375,-0.0273876953125,0.2861865234375,1.1437279850043822,-0.02685546875,-0.447265625,-0.9326171875,28.53,170.84047524645524
1.13923193359375,-0.0454541015625,0.2798388671875,1.173978392244675,-0.0546875,0.111328125,-1.10546875,28.53,170.84047524645524
1.14850927734375,-0.0561962890625,0.2715380859375,1.1815094223761655,0.005859375,0.7607421875,-0.96923828125,28.53,170.84047524645524
1.17097021484375,-0.0703564453125,0.2588427734375,1.2012996523803068,0.00244140625,1.68798828125,-0.67724609375,28.577058823529413,171.27710681947474
1.16755224609375,-0.0615673828125,0.2471240234375,1.195005888246949,0.12109375,2.3525390625,-0.49365234375,28.577058823529413,171.27710681947474
1.16999365234375,-0.0488720703125,0.2393115234375,1.195216980732484,0.482421875,2.92822265625,-0.29052734375,28.48294117647059,171.27710681947474
1.13532568359375,-0.0317822265625,0.2002490234375,1.153288424090244,0.99462890625,3.6259765625,-0.25439453125,28.577058823529413,171.27710681947474
1.07819677734375,0.0092333984375,0.2090380859375,1.098312554646248,1.4873046875,4.15185546875,-0.23388671875,28.43588235294117,171.27710681947474
1.04011083984375,0.0331591796875,0.1323779296875,1.0490252650086018,1.78076171875,4.6201171875,-0.1923828125,28.48294117647059,171.27710681947474
0.95856787109375,0.0565966796875,0.1519091796875,0.9721789683582868,1.8828125,3.515625,-0.19970703125,28.53,171.27710681947474
1.08063818359375,0.0575732421875,0.1289599609375,1.089827616452153,2.1689453125,1.77880859375,-0.05126953125,28.53,171.27710681947474
1.10749365234375,0.0258349609375,0.1411669921875,1.1167532202199404,2.24072265625,-0.7841796875,0.04150390625,28.53,171.02106497612914
1.12263037109375,0.0194873046875,0.1528857421875,1.13316051612748,2.4384765625,-3.1728515625,0.10400390625,28.53,171.02106497612914
1.11335302734375,0.0014208984375,0.1738818359375,1.1268504227788434,2.37158203125,-5.00146484375,0.216796875,28.577058823529413,171.02106497612914
1.08600927734375,0.0028857421875,0.0654833984375,1.0879855483670686,2.3994140625,-6.0859375,0.328125,28.577058823529413,171.02106497612914
1.04743505859375,-0.0107861328125,0.2036669921875,1.067106736151096,2.33251953125,-5.96484375,0.181640625,28.577058823529413,171.02106497612914
1.03473974609375,-0.0527783203125,0.2080615234375,1.0567693649876022,2.06494140625,-4.5751953125,-0.31787109375,28.577058823529413,171.02106497612914
1.00251318359375,-0.0718212890625,0.2417529296875,1.0337482574855277,1.83447265625,-2.59765625,-0.70849609375,28.53,171.02106497612914
0.96686865234375,-0.0864697265625,0.2266162109375,0.996828426338496,1.5732421875,-0.251953125,-0.97314453125,28.67117647058824,171.02106497612914
0.97712255859375,-0.0879345703125,0.1973193359375,1.0007176942093392,1.28076171875,2.5068359375,-1.17236328125,28.577058823529413,171.19231923036307
1.02888037109375,-0.0566845703125,0.2192919921875,1.0535164623161273,1.31884765625,4.51220703125,-1.1923828125,28.67117647058824,171.19231923036307
1.05720068359375,-0.0425244140625,0.1890185546875,1.0748067850542269,1.494140625,6.35009765625,-1.1171875,28.48294117647059,171.19231923036307
1.09528662109375,-0.0332470703125,0.1509326171875,1.1061368834653318,1.59619140625,7.6923828125,-0.92138671875,28.624117647058824,171.19231923036307
1.14802099609375,-0.0273876953125,0.1191943359375,1.1545170345413696,1.58056640625,8.45556640625,-0.90185546875,28.577058823529413,171.19231923036307
1.15925146484375,-0.0268994140625,0.0815966796875,1.1624308819690357,1.59765625,8.34423828125,-0.798828125,28.53,171.19231923036307
1.16462255859375,-0.0122509765625,0.0439990234375,1.165517783852156,1.64892578125,7.57373046875,-0.72607421875,28.53,171.19231923036307
1.18513037109375,-0.0356884765625,0.0132373046875,1.1857414937850288,1.65283203125,6.078125,-0.69384765625,28.577058823529413,171.19231923036307
1.17634130859375,-0.0264111328125,-0.0346142578124999,1.1771467916468217,1.642578125,4.19287109375,-0.52783203125,28.48294117647059,171.19231923036307
1.17389990234375,-0.0420361328125,0.0518115234375,1.1757943915266011,1.58056640625,2.18505859375,-0.3359375,28.624117647058824,171.28812536191936
1.16852880859375,-0.0581494140625,-0.0893017578124999,1.1733779164522158,1.42041015625,0.4306640625,-0.25048828125,28.53,171.28812536191936
1.15485693359375,-0.0669384765625,-0.1059033203124999,1.1616328206310629,1.2119140625,-1.3271484375,-0.22119140625,28.624117647058824,171.28812536191936
1.13776708984375,-0.0644970703125,-0.1093212890624999,1.1448252997958674,1.05712890625,-2.9130859375,-0.17431640625,28.577058823529413,171.28812536191936
1.11139990234375,-0.0649853515625,-0.0951611328124999,1.1173578120036378,0.94140625,-4.1357421875,-0.14501953125,28.53,171.28812536191936
1.09431005859375,-0.0576611328125,-0.0658642578124999,1.097805725542488,0.853515625,-5.30224609375,-0.060546875,28.53,171.28812536191936
1.07136083984375,-0.0425244140625,-0.0321728515624999,1.0726870313934662,0.84375,-6.47216796875,0.08740234375,28.48294117647059,171.28812536191936
1.05231787109375,-0.0410595703125,0.0073779296875,1.0531444459256305,0.90234375,-7.28076171875,0.24853515625,28.577058823529413,171.28812536191936
1.02253271484375,-0.0405712890625,0.0449755859375,1.0243251367375223,1.0263671875,-8.11376953125,0.45458984375,28.577058823529413,171.28812536191936
0.97321630859375,-0.0298291015625,0.0859912109375,0.9774631691124576,1.1396484375,-8.5302734375,0.8349609375,28.48294117647059,170.92694194821036
0.95026708984375,-0.0127392578125,0.1211474609375,0.9580430773307252,1.2314453125,-8.4921875,1.2177734375,28.48294117647059,170.92694194821036
0.94684912109375,-0.0127392578125,0.1504443359375,0.9588112666324357,1.3154296875,-7.5224609375,1.38623046875,28.577058823529413,170.92694194821036
0.94929052734375,0.0077685546875,0.1860888671875,0.9673892299574328,1.423828125,-6.1337890625,1.4921875,28.577058823529413,170.92694194821036
0.96296240234375,0.0180224609375,0.2036669921875,0.9844296019180818,1.375,-4.40966796875,1.1279296875,28.53,170.92694194821036
0.96735693359375,0.0341357421875,0.2158740234375,0.9917390180192008,1.51953125,-2.31005859375,0.78955078125,28.48294117647059,170.92694194821036
0.98835302734375,0.0517138671875,0.2329638671875,1.016753752948076,1.47021484375,-0.25244140625,0.32470703125,28.624117647058824,170.92694194821036
1.01862646484375,0.0605029296875,0.2207568359375,1.0440278061402304,1.3291015625,1.71240234375,-0.15185546875,28.577058823529413,170.92694194821036
1.05085302734375,0.0917529296875,0.2183154296875,1.0772057890781137,1.23583984375,3.28271484375,-0.666015625,28.577058823529413,170.9489791063899
1.06501318359375,0.1098193359375,0.1997607421875,1.0891362274268306,1.021484375,4.1416015625,-0.79931640625,28.624117647058824,170.9489791063899
1.09968115234375,0.0917529296875,0.2002490234375,1.121524368132048,0.79541015625,4.3388671875,-1.00146484375,28.48294117647059,170.9489791063899
1.16022802734375,0.0585498046875,0.2105029296875,1.1806221404284838,0.68359375,3.82470703125,-1.6904296875,28.577058823529413,170.9489791063899
1.18073583984375,0.0502490234375,0.2148974609375,1.2011840019602875,0.6748046875,3.0361328125,-2.02294921875,28.48294117647059,170.9489791063899
1.17341162109375,0.0233935546875,0.2114794921875,1.192545876071299,0.6044921875,2.33984375,-2.03076171875,28.48294117647059,170.9489791063899
1.16999365234375,-0.0298291015625,0.1919482421875,1.1860097172888444,0.38525390625,1.609375,-1.90478515625,28.43588235294117,170.9489791063899
1.19098974609375,-0.0762158203125,0.1982958984375,1.2097878697951543,0.24169921875,0.87451171875,-1.59765625,28.43588235294117,170.9489791063899
1.19684912109375,-0.1089306640625,0.2017138671875,1.2186066602688972,-0.19580078125,0.201171875,-1.18896484375,28.624117647058824,171.18298140800005
1.23981787109375,-0.1118603515625,0.2168505859375,1.2636001220150943,-0.25244140625,-0.0634765625,-0.88818359375,28.624117647058824,171.18298140800005
1.24811865234375,-0.1050244140625,0.2261279296875,1.2727781183153273,-0.34375,-0.2216796875,-0.55322265625,28.48294117647059,171.18298140800005
1.25251318359375,-0.0933056640625,0.2544482421875,1.2814987826660638,-0.19140625,-0.56005859375,-0.1865234375,28.43588235294117,171.18298140800005
1.24225927734375,-0.0762158203125,0.2661669921875,1.2727379271250874,0.02734375,-1.18212890625,0.009765625,28.48294117647059,171.18298140800005
1.21882177734375,-0.0415478515625,0.2881396484375,1.253107020927791,0.2705078125,-1.83056640625,0.60595703125,28.53,171.18298140800005
1.18317724609375,-0.0005322265624999,0.2876513671875,1.2176419785733168,0.513671875,-2.28271484375,1.12158203125,28.577058823529413,171.18298140800005
1.16218115234375,0.0380419921875,0.2749560546875,1.1948694723868194,0.98095703125,-2.412109375,1.5234375,28.48294117647059,171.18298140800005
1.14802099609375,0.0551318359375,0.2588427734375,1.1781304291829249,1.1259765625,-2.19775390625,1.97802734375,28.48294117647059,171.18298140800005
1.14118505859375,0.0756396484375,0.2378466796875,1.168159123326843,1.390625,-1.74267578125,2.0205078125,28.53,170.9489791063899
1.14118505859375,0.0941943359375,0.2246630859375,1.166897344698019,1.37548828125,-0.7783203125,1.759765625,28.53,170.9489791063899
1.14313818359375,0.1073779296875,0.1953662109375,1.1646728652072509,1.61376953125,0.1845703125,1.21240234375,28.53,170.9489791063899
1.12848974609375,0.1151904296875,0.1675341796875,1.146658468548456,1.658203125,1.47607421875,0.52392578125,28.48294117647059,170.9489791063899
1.11872412109375,0.1107958984375,0.1480029296875,1.1338978161296718,1.5634765625,2.26025390625,-0.08154296875,28.53,170.9489791063899
1.10651708984375,0.0907763671875,0.1372607421875,1.1186871458553125,1.4384765625,2.89453125,-0.50732421875,28.577058823529413,170.9489791063899
1.08503271484375,0.0917529296875,0.1172412109375,1.0951986550071768,1.3193359375,2.9248046875,-0.95166015625,28.48294117647059,170.9489791063899
1.04743505859375,0.0824755859375,0.1187060546875,1.0573615992963326,1.24365234375,2.62060546875,-0.96728515625,28.53,170.9489791063899
1.01472021484375,0.0678271484375,0.1021044921875,1.0220973357770655,1.14404296875,1.658203125,-0.76904296875,28.577058823529413,170.9489791063899
0.98005224609375,0.0551318359375,0.1021044921875,0.9868977919380056,1.072265625,0.53564453125,-0.60009765625,28.53,171.33985806391996
0.96735693359375,0.0399951171875,0.0947802734375,0.9728115678812788,1.0771484375,-0.4169921875,-0.56201171875,28.53,171.33985806391996
0.97419287109375,0.0439013671875,0.0908740234375,0.9794065388114044,1.1083984375,-1.60595703125,-0.61474609375,28.53,171.33985806391996
0.95954443359375,0.0565966796875,0.1035693359375,0.9667757297010174,1.0400390625,-2.44287109375,-0.6142578125,28.53,171.33985806391996
0.96979833984375,0.0570849609375,0.1060107421875,0.9772439767980532,0.943359375,-2.8232421875,-0.72265625,28.53,171.33985806391996
1.01032568359375,0.0248583984375,0.1235888671875,1.0181601715814388,0.8330078125,-2.8212890625,-1.06982421875,28.53,171.33985806391996
1.03278662109375,-0.0010205078125,0.1367724609375,1.0418041813207222,0.74853515625,-2.3232421875,-1.3173828125,28.624117647058824,171.33985806391996
1.01032568359375,-0.0029736328125,0.1528857421875,1.0218321190809694,0.74853515625,-1.13427734375,-1.05419921875,28.48294117647059,171.33985806391996
0.97028662109375,0.0053271484375,0.1675341796875,0.9846584214576976,1.08056640625,1.04638671875,-0.3017578125,28.53,171.25506977673763
0.99372412109375,-0.1089306640625,0.1523974609375,1.011226238048064,1.5771484375,3.58984375,0.12255859375,28.53,171.25506977673763
1.06794287109375,0.0136279296875,0.1055224609375,1.0732300248082125,1.89697265625,6.2705078125,0.12451171875,28.53,171.25506977673763
1.14167333984375,-0.1103955078125,0.0522998046875,1.148190076871209,1.8916015625,8.7373046875,-0.43505859375,28.48294117647059,171.25506977673763
1.17682958984375,0.0170458984375,0.0278857421875,1.1772833392190252,1.8701171875,9.875,-0.8466796875,28.53,171.25506977673763
1.21393896484375,0.0023974609375,0.0264208984375,1.214228817834228,1.7548828125,9.72119140625,-1.17041015625,28.53,171.25506977673763
1.25837255859375,-0.0244580078125,0.0283740234375,1.2589300121825553,1.751953125,7.7353515625,-1.28662109375,28.53,171.25506977673763
1.27302099609375,-0.0522900390625,0.0137255859375,1.2741683940476662,1.88037109375,3.95556640625,-1.00390625,28.48294117647059,171.25506977673763
1.24518896484375,-0.0508251953125,-0.0053173828124999,1.2462371496658162,1.75830078125,-1.0830078125,-0.28955078125,28.577058823529413,171.29914391841797
1.17780615234375,-0.0425244140625,0.0122607421875,1.178637342056129,1.662109375,-5.11181640625,0.251953125,28.53,171.29914391841797
1.13727880859375,-0.0190869140625,0.0542529296875,1.138732092787643,1.6728515625,-8.60888671875,1.04736328125,28.48294117647059,171.29914391841797
1.13972021484375,-0.0034619140625,0.0957568359375,1.143741021648354,1.71142578125,-11.16064453125,1.70263671875,28.624117647058824,171.29914391841797
1.12556005859375,0.0297412109375,0.1436083984375,1.1350741637582007,1.7548828125,-12.71826171875,1.90283203125,28.48294117647059,171.29914391841797
1.13434912109375,0.0385302734375,0.1738818359375,1.1482453585215693,1.8564453125,-12.9052734375,1.63232421875,28.624117647058824,171.29914391841797
1.10651708984375,0.0600146484375,0.2095263671875,1.1277779598352458,1.9169921875,-11.93994140625,1.0546875,28.48294117647059,171.29914391841797
1.03766943359375,0.0863818359375,0.2388232421875,1.0682959402729453,2.04638671875,-9.68896484375,0.71533203125,28.624117647058824,171.29914391841797
0.95807958984375,0.0956591796875,0.2300341796875,0.9899408583133412,2.11767578125,-6.4228515625,0.416015625,28.53,171.29914391841797
0.93171240234375,0.0692919921875,0.2500537109375,0.9671691885167192,2.072265625,-2.64208984375,0.26171875,28.577058823529413,171.07615768433328
0.83454443359375,0.0522021484375,0.2437060546875,0.8709661974124774,1.9775390625,0.7060546875,0.24267578125,28.577058823529413,171.07615768433328
1.01130224609375,0.0439013671875,0.2358935546875,1.039377377153409,1.7841796875,3.6416015625,-0.00927734375,28.53,171.07615768433328
1.05182958984375,0.0448779296875,0.2212451171875,1.0757829318794838,1.54248046875,5.97119140625,-0.1572265625,28.48294117647059,171.07615768433328
1.10163427734375,0.0443896484375,0.2173388671875,1.123745836520624,1.36083984375,7.0986328125,-0.40234375,28.53,171.07615768433328
1.13825537109375,0.0605029296875,0.2109912109375,1.1592252522341866,1.3623046875,7.51904296875,-0.5126953125,28.53,171.07615768433328
1.16364599609375,0.0507373046875,0.1890185546875,1.1799891068684147,1.44189453125,7.1904296875,-0.81298828125,28.577058823529413,171.07615768433328
1.19440771484375,0.0404833984375,0.1558154296875,1.2052083400624218,1.45751953125,6.2626953125,-0.75048828125,28.53,171.07615768433328
1.19587255859375,0.0253466796875,0.1235888671875,1.2025089765408956,1.36279296875,4.8974609375,-0.6630859375,28.53,171.07615768433328
1.16852880859375,0.0282763671875,0.1060107421875,1.173668354738252,1.32470703125,3.111328125,-0.16162109375,28.48294117647059,171.18130069105194
1.13727880859375,0.0312060546875,0.1035693359375,1.1424112716846386,1.3984375,1.38525390625,0.35302734375,28.48294117647059,171.18130069105194
1.12018896484375,0.0541552734375,0.0967333984375,1.1256613438206318,1.6455078125,-0.048828125,0.744140625,28.48294117647059,171.18130069105194
1.12214208984375,0.0751513671875,0.0903857421875,1.128281959520684,1.9296875,-1.306640625,0.880859375,28.48294117647059,171.18130069105194
1.11481787109375,0.0912646484375,0.0840380859375,1.1216998358083414,2.18115234375,-2.3125,0.72412109375,28.577058823529413,171.18130069105194
1.13141943359375,0.0922412109375,0.0903857421875,1.1387659803926369,2.40380859375,-2.8330078125,0.3125,28.577058823529413,171.18130069105194
1.12995458984375,0.0834521484375,0.0933154296875,1.1368682446112894,2.5107421875,-2.94384765625,-0.06787109375,28.577058823529413,171.18130069105194
1.10554052734375,0.0702685546875,0.1172412109375,1.1139582707262683,2.56591796875,-2.7197265625,-0.19580078125,28.577058823529413,171.18130069105194
1.06306005859375,0.0619677734375,0.1231005859375,1.0719563644945185,2.57421875,-2.333984375,0.08349609375,28.577058823529413,170.99902799119195
1.05866552734375,0.0688037109375,0.1362841796875,1.0696167664438914,2.521484375,-1.6376953125,0.32958984375,28.53,170.99902799119195
1.09235693359375,0.0668505859375,0.1431201171875,1.1037191849172012,2.42138671875,-1.2197265625,0.17724609375,28.53,170.99902799119195
1.12702490234375,0.0605029296875,0.1494677734375,1.1385018007452046,2.2529296875,-0.8583984375,-0.3037109375,28.53,170.99902799119195
1.11384130859375,0.0531787109375,0.1519091796875,1.1254096298237992,2.12109375,-0.5712890625,-0.8212890625,28.53,170.99902799119195
1.08552099609375,0.0414599609375,0.1494677734375,1.0965470243531146,1.783203125,-0.5107421875,-1.06640625,28.577058823529413,170.99902799119195
1.06013037109375,0.0272998046875,0.1401904296875,1.0697079225785484,1.63037109375,-0.361328125,-0.97900390625,28.53,170.99902799119195
1.03473974609375,0.0214404296875,0.1470263671875,1.0453529484435848,1.49267578125,-0.1064453125,-0.70556640625,28.624117647058824,170.99902799119195
1.03669287109375,0.0214404296875,0.1416552734375,1.0465457550888255,1.36181640625,0.23388671875,-0.423828125,28.48294117647059,171.00070897252922
1.05866552734375,0.0287646484375,0.1284716796875,1.0668200768018383,1.283203125,0.52294921875,-0.3037109375,28.53,171.00070897252922
1.07917333984375,0.0546435546875,0.1187060546875,1.0870566420007153,1.3720703125,0.849609375,-0.365234375,28.53,171.00070897252922
1.07184912109375,0.0673388671875,0.1069873046875,1.0792781591359273,1.240234375,1.0986328125,-0.537109375,28.53,171.00070897252922
1.07380224609375,0.0741748046875,0.0928271484375,1.0803564434266353,1.37158203125,1.265625,-0.6611328125,28.48294117647059,171.00070897252922
1.20710302734375,0.0746630859375,0.0962451171875,1.2132334555256017,1.330078125,1.23681640625,-0.71728515625,28.624117647058824,171.00070897252922
1.10212255859375,0.0658740234375,0.0903857421875,1.107782967695326,1.40966796875,1.00537109375,-0.68505859375,28.577058823529413,171.00070897252922
1.13434912109375,0.0746630859375,0.0918505859375,1.1405082354217946,1.48681640625,0.57275390625,-0.56103515625,28.624117647058824,171.00070897252922
1.17487646484375,0.0561083984375,0.0947802734375,1.1800280336720208,1.51708984375,0.11474609375,-0.51025390625,28.48294117647059,171.00070897252922
1.18317724609375,0.0487841796875,0.0991748046875,1.1883282096064942,1.509765625,-0.5400390625,-0.53125,28.53,171.26608829108412
1.15436865234375,0.0414599609375,0.0864794921875,1.1583456377281665,1.47216796875,-0.92919921875,-0.53271484375,28.53,171.26608829108412
1.11286474609375,0.0263232421875,0.0820849609375,1.116198368118176,1.4189453125,-1.26708984375,-0.50048828125,28.53,171.26608829108412
1.07868505859375,0.0189990234375,0.0869677734375,1.08235198163151,1.35888671875,-1.5478515625,-0.41943359375,28.43588235294117,171.26608829108412
1.05964208984375,0.0097216796875,0.0996630859375,1.0643630021392896,1.318359375,-1.62939453125,-0.3828125,28.48294117647059,171.26608829108412
1.06208349609375,0.1361865234375,0.1128466796875,1.076709104148938,1.29638671875,-1.9560546875,-0.3505859375,28.48294117647059,171.26608829108412
1.05671240234375,0.0312060546875,0.1260302734375,1.0646588885361308,1.27880859375,-2.06640625,-0.2802734375,28.388823529411766,171.26608829108412
1.07770849609375,0.0272998046875,0.1328662109375,1.0862109886654232,1.236328125,-2.20849609375,-0.3310546875,28.624117647058824,171.26608829108412
0.95954443359375,0.0424365234375,0.1514208984375,0.9723449321335672,0.9794921875,-2.22021484375,-0.189453125,28.48294117647059,171.26608829108412
1.08698583984375,0.0258349609375,0.1606982421875,1.0991039924727857,0.796875,-2.12646484375,-0.22021484375,28.48294117647059,171.0507592922256
1.20514990234375,0.0189990234375,0.1836474609375,1.2192102525485582,0.68212890625,-1.9873046875,-0.47021484375,28.577058823529413,171.0507592922256
1.05427099609375,0.0414599609375,0.2065966796875,1.075122527725722,0.7177734375,-1.39892578125,-0.6005859375,28.53,171.0507592922256
1.00788427734375,0.0697802734375,0.2002490234375,1.029951297132742,0.7587890625,-0.79833984375,-0.54833984375,28.48294117647059,171.0507592922256
1.01276708984375,0.0678271484375,0.1836474609375,1.0315154338372894,0.6875,-0.1845703125,-0.38720703125,28.48294117647059,171.0507592922256
1.05134130859375,0.0575732421875,0.1841357421875,1.0688962517113345,0.51904296875,0.27880859375,-0.1962890625,28.577058823529413,171.0507592922256
1.10700537109375,0.0556201171875,0.1899951171875,1.1245677541266486,0.37451171875,0.88427734375,-0.046875,28.53,171.0507592922256
1.12214208984375,0.0536669921875,0.1948779296875,1.1402019221737163,0.283203125,1.650390625,-0.04541015625,28.53,171.0507592922256
1.12653662109375,0.0561083984375,0.1856005859375,1.1431012590933876,0.42919921875,2.525390625,-0.24951171875,28.53,171.0507592922256
1.10847021484375,0.0565966796875,0.1665576171875,1.122341677561061,0.57421875,3.34619140625,-0.373046875,28.53,170.96765341551946
1.20368505859375,0.0653857421875,0.1416552734375,1.2137541893051913,0.5947265625,3.8955078125,-0.26513671875,28.577058823529413,170.96765341551946
1.08649755859375,0.0546435546875,0.1343310546875,1.0961330645284453,0.74072265625,4.322265625,0.087890625,28.577058823529413,170.96765341551946
1.12409521484375,0.0590380859375,0.1274951171875,1.1328418038421932,0.89697265625,4.068359375,0.36669921875,28.48294117647059,170.96765341551946
1.14606787109375,0.0741748046875,0.1079638671875,1.1535292208790675,0.9619140625,3.154296875,0.505859375,28.53,170.96765341551946
1.15046240234375,0.0912646484375,0.0947802734375,1.1579621217871767,0.96142578125,2.1025390625,0.419921875,28.624117647058824,170.96765341551946
1.14606787109375,0.1049365234375,0.0830615234375,1.153855474390215,0.98828125,0.68798828125,0.32763671875,28.53,170.96765341551946
1.14557958984375,0.0985888671875,0.0996630859375,1.1541252497447902,1.09130859375,-0.65478515625,0.3271484375,28.624117647058824,171.3491970514951
1.12946630859375,0.0946826171875,0.0972216796875,1.137589994350832,1.1845703125,-1.451171875,0.36474609375,28.48294117647059,171.3491970514951
1.13923193359375,0.0829638671875,0.1035693359375,1.1469346141454595,1.2119140625,-1.50537109375,0.4541015625,28.53,171.3491970514951
1.11872412109375,0.0834521484375,0.1177294921875,1.1279929758320946,1.17724609375,-0.9365234375,0.62255859375,28.48294117647059,171.3491970514951
1.09040380859375,0.0927294921875,0.1172412109375,1.1006019834886716,1.1708984375,-0.09716796875,0.63427734375,28.577058823529413,171.3491970514951
1.08698583984375,0.0888232421875,0.1123583984375,1.0963814090328976,1.177734375,1.0791015625,0.7861328125,28.53,171.3491970514951
1.09040380859375,0.0893115234375,0.1104052734375,1.0996119035447425,1.23828125,1.95947265625,0.62939453125,28.577058823529413,171.3491970514951
1.09431005859375,0.0888232421875,0.0884326171875,1.101464661473434,1.2392578125,2.68896484375,0.4833984375,28.53,171.3491970514951
1.10602880859375,0.0922412109375,0.0742724609375,1.1123509180507016,1.24365234375,2.9267578125,0.14208984375,28.577058823529413,171.3491970514951
1.12897802734375,0.0932177734375,0.0630419921875,1.1345727091238351,1.125,2.56494140625,0.03466796875,28.624117647058824,171.3178210992103
1.14020849609375,0.0854052734375,0.0684130859375,1.1454474346834067,1.2578125,1.8603515625,0.0400390625,28.53,171.3178210992103
1.15632177734375,0.0683154296875,0.0630419921875,1.160052302041492,1.2705078125,0.47802734375,0.17578125,28.577058823529413,171.3178210992103
1.15241552734375,0.0644091796875,0.0742724609375,1.1566012660137903,1.2548828125,-1.04296875,0.353515625,28.577058823529413,171.3178210992103
1.14899755859375,0.0424365234375,0.0952685546875,1.153721086609803,1.18310546875,-2.513671875,0.55615234375,28.67117647058824,171.3178210992103
1.11579443359375,0.0409716796875,0.1025927734375,1.1212498266384752,1.1103515625,-3.7333984375,0.62744140625,28.53,171.3178210992103
1.07722021484375,0.0395068359375,0.1147998046875,1.084040209821617,1.02587890625,-4.36962890625,0.83447265625,28.48294117647059,171.3178210992103
1.05231787109375,0.0443896484375,0.1284716796875,1.061059996038591,0.9423828125,-4.5625,0.8056640625,28.577058823529413,171.3178210992103
1.03522802734375,0.0424365234375,0.1499560546875,1.046892900662209,0.849609375,-4.18798828125,0.61474609375,28.577058823529413,170.98969043947525
1.01423193359375,0.0404833984375,0.1689990234375,1.029012143073732,0.77978515625,-3.42431640625,0.5,28.67117647058824,170.98969043947525
0.99811865234375,0.0580615234375,0.1846240234375,1.016709405233687,0.7587890625,-2.41552734375,0.5673828125,28.48294117647059,170.98969043947525
0.96491552734375,0.0609912109375,0.1797412109375,0.983406734586442,0.7255859375,-0.99365234375,0.63330078125,28.53,170.98969043947525
0.97614599609375,0.0761279296875,0.3008349609375,1.0242842091385729,0.646484375,0.3857421875,0.85791015625,28.577058823529413,170.98969043947525
1.02009130859375,0.0731982421875,0.1812060546875,1.038643295257452,0.6640625,1.59765625,0.87451171875,28.624117647058824,170.98969043947525
1.03522802734375,0.0688037109375,0.2954638671875,1.078763141774039,0.630859375,2.2939453125,0.6865234375,28.577058823529413,170.98969043947525
1.02009130859375,0.0673388671875,0.1626513671875,1.0351696808497477,0.6533203125,3.06787109375,0.78759765625,28.48294117647059,170.98969043947525
1.03229833984375,0.0502490234375,0.1387255859375,1.0427893435369808,0.7294921875,3.7001953125,0.9091796875,28.577058823529413,170.98969043947525
1.08112646484375,0.0634326171875,0.1250537109375,1.0901818933224126,0.79638671875,3.98974609375,0.90966796875,28.48294117647059,171.09483310602045
1.12458349609375,0.0976123046875,0.1108935546875,1.134245820880146,0.91455078125,3.6259765625,0.919921875,28.577058823529413,171.09483310602045
1.14802099609375,0.1332568359375,0.1016162109375,1.1601876771115327,1.04248046875,3.123046875,0.88671875,28.53,171.09483310602045
1.15436865234375,0.1591357421875,0.0938037109375,1.1690553049967902,1.294921875,2.3720703125,0.64794921875,28.48294117647059,171.09483310602045
1.18366552734375,0.1513232421875,0.0923388671875,1.1968664380964007,1.62255859375,1.37841796875,0.1884765625,28.53,171.09483310602045
1.20807958984375,0.0966357421875,0.0703662109375,1.2139794749940678,1.44189453125,0.51806640625,-0.66015625,28.43588235294117,171.09483310602045
1.16169287109375,0.0399951171875,0.0757373046875,1.16484594495161,1.1279296875,-0.31689453125,-1.04443359375,28.624117647058824,171.09483310602045
1.19196630859375,-0.0225048828125,0.0859912109375,1.1952759676875933,0.7275390625,-0.99560546875,-0.95361328125,28.53,171.09483310602045
0.86725927734375,-0.0791455078125,0.1777880859375,0.8888257810431816,0.96826171875,-1.17822265625,0.19189453125,28.48294117647059,171.23303279019683
0.90778662109375,-0.0688916015625,0.0957568359375,0.9154190154412432,0.76904296875,-0.861328125,0.80078125,28.624117647058824,171.23303279019683
1.02936865234375,-0.0762158203125,0.1035693359375,1.0373694043302173,0.25390625,-0.19287109375,0.77783203125,28.53,171.23303279019683
1.05573583984375,-0.0552197265625,0.1650927734375,1.0699920586497411,0.18701171875,0.13134765625,0.689453125,28.53,171.23303279019683
1.06940771484375,-0.0737744140625,0.1528857421875,1.0827971069881093,0.103515625,0.92529296875,0.64990234375,28.624117647058824,171.23303279019683
1.05720068359375,-0.0903759765625,0.1445849609375,1.0708622289818688,-0.13916015625,1.57080078125,0.8388671875,28.53,171.23303279019683
1.06013037109375,-0.0737744140625,0.1519091796875,1.07349684059105,-0.30322265625,2.09130859375,1.1240234375,28.624117647058824,171.23303279019683
1.08845068359375,-0.0459423828125,0.1519091796875,1.099959995648715,-0.25439453125,2.43115234375,1.4111328125,28.53,171.23303279019683
1.10212255859375,-0.0225048828125,0.1538623046875,1.1130382799865364,-0.32666015625,2.6796875,1.60302734375,28.624117647058824,171.13722667429326
1.12653662109375,-0.0137158203125,0.1460498046875,1.136047282396919,-0.2763671875,2.80859375,1.73779296875,28.43588235294117,171.13722667429326
1.13532568359375,0.0043505859375,0.1416552734375,1.1441370337150476,-0.28271484375,2.70947265625,1.82958984375,28.577058823529413,171.13722667429326
1.14069677734375,0.0356005859375,0.1406787109375,1.1498900118152808,-0.26806640625,2.27685546875,1.92041015625,28.53,171.13722667429326
1.11579443359375,0.0380419921875,0.1245654296875,1.1233703563302813,-0.35400390625,1.630859375,2.09912109375,28.624117647058824,171.13722667429326
1.13044287109375,0.0907763671875,0.1465380859375,1.1435098793961802,-0.287109375,0.86962890625,2.15234375,28.48294117647059,171.13722667429326
1.12507177734375,0.1293505859375,0.1343310546875,1.1404222509716544,-0.12890625,-0.0859375,2.0400390625,28.53,171.13722667429326
1.11921240234375,0.1342333984375,0.1284716796875,1.1345307308741692,-0.1025390625,-0.6484375,1.626953125,28.53,171.13722667429326
1.17536474609375,0.1366748046875,0.1397021484375,1.1915028236955398,-0.1708984375,-1.38916015625,0.9853515625,28.577058823529413,171.13722667429326
1.16218115234375,0.1264208984375,0.1480029296875,1.1783684235504932,-0.28466796875,-2.0361328125,0.18505859375,28.577058823529413,170.99902799119195
1.10505224609375,0.0858935546875,0.1890185546875,1.1243870256054398,-0.32470703125,-2.46826171875,0.00830078125,28.48294117647059,170.99902799119195
1.03815771484375,0.0468310546875,0.1631396484375,1.0519406511134797,-0.54052734375,-2.2158203125,0.19921875,28.577058823529413,170.99902799119195
1.04645849609375,0.0321826171875,0.1812060546875,1.062519053547389,-0.7783203125,-1.8115234375,0.17724609375,28.53,170.99902799119195
1.04792333984375,0.0277880859375,0.2222216796875,1.071586664172564,-0.75830078125,-1.20263671875,0.1435546875,28.577058823529413,170.99902799119195
1.04206396484375,0.0067919921875,0.2300341796875,1.0671734450445496,-0.568359375,-0.1611328125,0.02197265625,28.53,170.99902799119195
1.03669287109375,-0.0019970703125,0.2207568359375,1.059938525519085,-0.5693359375,0.77685546875,-0.08154296875,28.53,170.99902799119195
1.03620458984375,-0.0010205078125,0.2124560546875,1.057761111320901,-0.58740234375,1.78564453125,0.08984375,28.48294117647059,170.99902799119195
1.05231787109375,0.0014208984375,0.2114794921875,1.073358512516454,-0.55126953125,2.45263671875,0.3017578125,28.53,171.253389940749
1.08649755859375,0.0028857421875,0.2998583984375,1.1271203713231583,-0.43994140625,2.7724609375,0.43115234375,28.577058823529413,171.253389940749
1.10309912109375,0.0155810546875,0.1680224609375,1.1159309958964632,-0.2880859375,2.87255859375,0.4013671875,28.577058823529413,171.253389940749
1.13434912109375,0.0209521484375,0.1567919921875,1.1453255650095455,-0.08837890625,2.33984375,0.28369140625,28.48294117647059,171.253389940749
1.12653662109375,0.0185107421875,0.1367724609375,1.134959960664937,-0.12255859375,1.85205078125,0.16357421875,28.53,171.253389940749
1.13239599609375,-0.1069775390625,0.1333544921875,1.1452284952879974,0.08447265625,1.06982421875,0.041015625,28.577058823529413,171.253389940749
1.13288427734375,0.0214404296875,0.1445849609375,1.142274611819397,0.21240234375,0.4892578125,-0.13330078125,28.48294117647059,171.253389940749
1.11823583984375,0.0180224609375,0.1480029296875,1.1281316721931811,0.3212890625,-0.32373046875,-0.3115234375,28.53,171.253389940749
1.11091162109375,0.0126513671875,0.1567919921875,1.1219930551420456,0.38818359375,-0.9619140625,-0.36962890625,28.624117647058824,171.10249146141908
1.09382177734375,-0.0034619140625,0.1680224609375,1.106656953540667,0.498046875,-1.4208984375,-0.37841796875,28.48294117647059,171.10249146141908
1.08600927734375,-0.0156689453125,0.1841357421875,1.1016204599928423,0.38330078125,-1.62890625,-0.3974609375,28.53,171.10249146141908
1.09382177734375,-0.0249462890625,0.2075732421875,1.1136224893569904,0.35693359375,-2.015625,-0.38330078125,28.577058823529413,171.10249146141908
1.09186865234375,-0.0342236328125,0.2280810546875,1.115961190418916,0.3359375,-2.1513671875,-0.3232421875,28.53,171.10249146141908
1.08942724609375,-0.0278759765625,0.2471240234375,1.117452047096726,0.29443359375,-2.126953125,-0.14794921875,28.577058823529413,171.10249146141908
1.09772802734375,-0.0264111328125,0.2568896484375,1.1276952874898354,0.28857421875,-1.95703125,0.03173828125,28.624117647058824,171.10249146141908
1.10798193359375,-0.0176220703125,0.2847216796875,1.1441157884656232,0.2998046875,-1.71337890625,0.1064453125,28.53,171.10249146141908
1.11237646484375,-0.0215283203125,0.2798388671875,1.147237839204469,0.3583984375,-1.23779296875,0.07421875,28.53,171.10249146141908
1.08796240234375,-0.0132275390625,0.2661669921875,1.1201258966890169,0.25634765625,-0.275390625,0.08251953125,28.53,171.0177040793935
1.07380224609375,-0.0161572265625,0.2554248046875,1.1038814023869692,0.08349609375,0.50927734375,0.03515625,28.577058823529413,171.0177040793935
1.08014990234375,-0.0112744140625,0.2329638671875,1.1050443825297789,-0.03955078125,1.4638671875,-0.115234375,28.48294117647059,171.0177040793935
1.08014990234375,-0.0137158203125,0.2192919921875,1.1022707984418438,-0.10888671875,1.73486328125,-0.24853515625,28.577058823529413,171.0177040793935
0.96149755859375,-0.0093212890625,0.2065966796875,0.9834869748346584,-0.078125,1.55322265625,-0.25537109375,28.53,171.0177040793935
1.11139990234375,-0.0215283203125,0.1909716796875,1.1278933433387397,-0.0830078125,1.0400390625,-0.54931640625,28.48294117647059,171.0177040793935
1.10993505859375,-0.0146923828125,0.1782763671875,1.1242571607536207,-0.025390625,0.50830078125,-0.47900390625,28.53,171.0177040793935
1.12702490234375,-0.0498486328125,0.1939013671875,1.1446692783915344,-0.15234375,-0.0107421875,-0.55029296875,28.53,171.0177040793935
1.10065771484375,-0.0327587890625,0.1943896484375,1.1181716679139937,0.08544921875,-0.6015625,-0.50244140625,28.624117647058824,171.08213446946502
1.20466162109375,-0.0161572265625,0.1807177734375,1.2182485751859595,0.30712890625,-0.7841796875,-0.3642578125,28.53,171.08213446946502
1.08014990234375,0.0009326171875,0.1841357421875,1.0957329295311755,0.45361328125,-0.7626953125,-0.25439453125,28.43588235294117,171.08213446946502
1.08747412109375,-0.0156689453125,0.0562060546875,1.0890383833820387,0.5341796875,-0.6376953125,-0.142578125,28.53,171.08213446946502
1.08405615234375,-0.0229931640625,0.2944873046875,1.1235787465282747,0.552734375,-0.6171875,0.03125,28.624117647058824,171.08213446946502
0.96052099609375,-0.0356884765625,0.1797412109375,0.9778451586041425,0.615234375,-0.4482421875,0.166015625,28.53,171.08213446946502
1.09528662109375,-0.0376416015625,0.1948779296875,1.1131249166173758,0.71484375,-0.52685546875,0.1943359375,28.577058823529413,171.08213446946502
1.09040380859375,-0.0356884765625,0.1880419921875,1.1070744889035025,0.8134765625,-0.69873046875,0.12939453125,28.624117647058824,171.08213446946502
1.08161474609375,-0.0259228515625,0.1841357421875,1.0974827674052656,0.86669921875,-0.904296875,0.06884765625,28.624117647058824,171.08213446946502
1.07038427734375,-0.0171337890625,0.1973193359375,1.0885545407774275,0.888671875,-1.029296875,0.00634765625,28.53,170.8184382459441
1.06110693359375,-0.0151806640625,0.1953662109375,1.0790488095810056,0.8583984375,-1.06640625,-0.05419921875,28.53,170.8184382459441
1.03864599609375,-0.0185986328125,0.2080615234375,1.0594437275661248,0.845703125,-0.97314453125,-0.150390625,28.577058823529413,170.8184382459441
1.03278662109375,-0.0288525390625,0.2022021484375,1.05278980929402,0.82080078125,-0.7607421875,-0.21044921875,28.48294117647059,170.8184382459441
1.03229833984375,-0.0322705078125,0.2100146484375,1.0539389928629483,0.80224609375,-0.40234375,-0.2080078125,28.577058823529413,170.8184382459441
1.04792333984375,-0.0205517578125,0.2119677734375,1.0693437417007283,0.818359375,0.05322265625,-0.15380859375,28.577058823529413,170.8184382459441
1.06452490234375,-0.0132275390625,0.2129443359375,1.0856949505765805,0.92138671875,0.59375,-0.12060546875,28.48294117647059,170.8184382459441
1.07722021484375,-0.0044384765625,0.2002490234375,1.095683696478999,0.8779296875,1.04736328125,-0.12890625,28.53,170.8184382459441
1.08991552734375,-0.0005322265624999,0.1851123046875,1.1055237244658462,1.04833984375,1.36279296875,-0.234375,28.53,170.9769910624609
1.09626318359375,-0.0019970703125,0.1812060546875,1.1111402207859935,1.09716796875,1.443359375,-0.375,28.624117647058824,170.9769910624609
0.96052099609375,-0.0044384765625,0.1626513671875,0.974205189505316,1.13525390625,1.48388671875,-0.26904296875,28.48294117647059,170.9769910624609
1.10602880859375,-0.0098095703125,0.1660693359375,1.118469926930424,1.20166015625,1.3984375,-0.35400390625,28.577058823529413,170.9769910624609
1.11384130859375,-0.0112744140625,0.1538623046875,1.1244746248564434,1.13330078125,1.123046875,-0.2890625,28.48294117647059,170.9769910624609
1.10798193359375,-0.0254345703125,0.1563037109375,1.11924158812562,1.107421875,0.14111328125,-0.15234375,28.577058823529413,170.9769910624609
1.12018896484375,-0.0347119140625,0.1689990234375,1.1333970636358748,1.20068359375,-0.6279296875,-0.1748046875,28.624117647058824,170.9769910624609
1.11188818359375,-0.0195751953125,0.3013232421875,1.1521606734172618,1.31982421875,-1.568359375,-0.1123046875,28.577058823529413,170.9769910624609
1.09821630859375,-0.0142041015625,0.1841357421875,1.1136367399261853,1.2841796875,-1.921875,-0.0458984375,28.53,170.9769910624609
1.07526708984375,-0.0181103515625,0.1802294921875,1.0904173371645045,1.1142578125,-2.052734375,0.08935546875,28.577058823529413,170.93123719971297
1.07770849609375,-0.0166455078125,0.1992724609375,1.096103183633309,1.0537109375,-1.7958984375,0.16552734375,28.577058823529413,170.93123719971297
1.08014990234375,-0.0176220703125,0.2090380859375,1.1003323453701273,0.92333984375,-1.30810546875,0.0322265625,28.48294117647059,170.93123719971297
1.20222021484375,-0.0220166015625,0.2275927734375,1.223771484487315,0.943359375,-0.6572265625,0.06494140625,28.624117647058824,170.93123719971297
1.05866552734375,-0.0395947265625,0.2163623046875,1.0812738265801434,0.8310546875,0.18310546875,0.0771484375,28.577058823529413,170.93123719971297
1.07575537109375,-0.0195751953125,0.2134326171875,1.096898486090705,0.82568359375,0.8095703125,0.04248046875,28.53,170.93123719971297
1.06061865234375,-0.0137158203125,0.2026904296875,1.079899745213981,0.8447265625,1.43115234375,0.07177734375,28.53,170.93123719971297
1.06647802734375,-0.0044384765625,0.1914599609375,1.0835368011855442,0.8232421875,1.91845703125,0.0556640625,28.53,170.93123719971297
1.07380224609375,-0.0049267578125,0.1797412109375,1.0887526989944982,0.77685546875,2.13427734375,-0.06494140625,28.48294117647059,171.0694364077852
1.09284521484375,-0.0049267578125,0.1729052734375,1.1064498046147062,0.74365234375,2.01708984375,-0.18505859375,28.53,171.0694364077852
1.09626318359375,-0.0122509765625,0.1558154296875,1.107348862038761,0.6787109375,1.54052734375,-0.3134765625,28.53,171.0694364077852
1.10993505859375,-0.0215283203125,0.1616748046875,1.1218547345096557,0.61279296875,0.90576171875,-0.365234375,28.53,171.0694364077852
1.11286474609375,-0.0483837890625,0.1514208984375,1.1241606747373665,0.5322265625,0.17822265625,-0.3037109375,28.53,171.0694364077852
1.10602880859375,-0.0537548828125,0.1558154296875,1.1182431582595065,0.41845703125,-0.3818359375,-0.10693359375,28.53,171.0694364077852
1.11774755859375,-0.0659619140625,0.1670458984375,1.132084321521091,0.27392578125,-1.00146484375,0.00732421875,28.624117647058824,171.0694364077852
1.12653662109375,-0.0615673828125,0.1826708984375,1.142910302004347,0.125,-1.609375,0.3447265625,28.53,171.0694364077852
1.12848974609375,-0.0649853515625,0.1948779296875,1.1470351391460176,0.02197265625,-1.80908203125,0.47216796875,28.577058823529413,171.11350984072524
1.10651708984375,-0.0576611328125,0.1973193359375,1.1254509303778275,-0.01513671875,-1.55322265625,0.56201171875,28.577058823529413,171.11350984072524
1.07526708984375,-0.0391064453125,0.2041552734375,1.095174873816217,-0.03369140625,-1.04052734375,0.505859375,28.53,171.11350984072524
1.04841162109375,-0.0317822265625,0.1978076171875,1.0673822607609196,-0.1240234375,-0.24560546875,0.7001953125,28.67117647058824,171.11350984072524
1.04450537109375,-0.0229931640625,0.2056201171875,1.0648003514412918,0.1201171875,0.51123046875,0.787109375,28.53,171.11350984072524
1.03620458984375,-0.0034619140625,0.1939013671875,1.0541962232238418,0.3349609375,1.19384765625,0.93115234375,28.48294117647059,171.11350984072524
1.05036474609375,0.0233935546875,0.3018115234375,1.0931164411521626,0.59423828125,1.47412109375,1.03515625,28.53,171.11350984072524
1.08112646484375,0.0492724609375,0.1699755859375,1.09551536192204,0.74951171875,1.3994140625,1.0009765625,28.53,171.11350984072524
1.12409521484375,0.0619677734375,0.2939990234375,1.163557253753171,0.890625,0.8994140625,1.05419921875,28.53,170.9329173735828
1.17536474609375,0.0526904296875,0.1694873046875,1.1886902515756206,0.966796875,0.2490234375,0.53662109375,28.577058823529413,170.9329173735828
1.17194677734375,0.0634326171875,0.1714404296875,1.1861175181157606,1.119140625,-0.6240234375,0.01318359375,28.48294117647059,170.9329173735828
1.12556005859375,0.0766162109375,0.1675341796875,1.1405363609475805,1.30517578125,-1.0322265625,-0.13623046875,28.48294117647059,170.9329173735828
1.07673193359375,0.0497607421875,0.1602099609375,1.089722450841122,1.4990234375,-1.453125,-0.396484375,28.577058823529413,170.9329173735828
1.04743505859375,0.0331591796875,0.1558154296875,1.0594801467217498,1.34765625,-1.49267578125,-0.3642578125,28.48294117647059,170.9329173735828
1.04206396484375,0.1283740234375,0.1680224609375,1.063300871860313,1.30712890625,-1.3193359375,-0.23193359375,28.48294117647059,170.9329173735828
1.05036474609375,-0.0054150390625,0.1870654296875,1.0669062271206429,1.3193359375,-1.0400390625,-0.1669921875,28.577058823529413,170.9329173735828
1.08161474609375,-0.0132275390625,0.1880419921875,1.0979185842233208,1.31298828125,-0.66259765625,-0.1865234375,28.624117647058824,170.9329173735828
1.09919287109375,-0.0093212890625,0.2109912109375,1.1192985059339535,1.2734375,-0.337890625,-0.29833984375,28.53,170.92619930318938
1.10114599609375,-0.0205517578125,0.2134326171875,1.1218281336916036,1.25537109375,-0.08935546875,-0.404296875,28.53,170.92619930318938
1.10602880859375,-0.0195751953125,0.2222216796875,1.1283019935433805,1.27197265625,0.15478515625,-0.4931640625,28.53,170.92619930318938
1.07722021484375,-0.0195751953125,0.2188037109375,1.0993914878056672,1.30322265625,0.388671875,-0.09619140625,28.53,170.92619930318938
1.06843115234375,-0.0200634765625,0.2085498046875,1.088779450313773,1.3349609375,0.57763671875,0.1865234375,28.48294117647059,170.92619930318938
1.08649755859375,-0.0273876953125,0.1978076171875,1.1046967385224356,1.326171875,0.7109375,0.27001953125,28.624117647058824,170.92619930318938
1.10505224609375,-0.0137158203125,0.1899951171875,1.1213504068215157,1.3173828125,0.80615234375,0.1640625,28.53,170.92619930318938
1.12360693359375,-0.0137158203125,0.1699755859375,1.1364736533512738,1.255859375,0.99462890625,-0.0283203125,28.48294117647059,170.92619930318938
1.12458349609375,-0.0088330078125,0.1733935546875,1.137906580752842,1.224609375,0.998046875,-0.1494140625,28.577058823529413,171.17290366911212
1.12214208984375,-0.0039501953125,0.1675341796875,1.1345863454164558,1.1689453125,0.763671875,-0.201171875,28.577058823529413,171.17290366911212
1.11628271484375,-0.0059033203125,0.1626513671875,1.1280857307392944,1.07763671875,0.50830078125,-0.2080078125,28.53,171.17290366911212
1.10554052734375,-0.0156689453125,0.1621630859375,1.1174803085009937,0.97314453125,0.24853515625,-0.21533203125,28.624117647058824,171.17290366911212
1.10407568359375,-0.0171337890625,0.1606982421875,1.115840762328029,0.89453125,-0.328125,-0.13623046875,28.53,171.17290366911212
1.09040380859375,-0.0259228515625,0.1616748046875,1.1026292225855563,0.82080078125,-0.68115234375,-0.02294921875,28.577058823529413,171.17290366911212
0.95807958984375,-0.0229931640625,0.1851123046875,0.9760695423049994,0.8095703125,-0.9736328125,0.08642578125,28.43588235294117,171.17290366911212
1.07136083984375,-0.0171337890625,0.1948779296875,1.089075306559482,0.83740234375,-1.0869140625,0.1962890625,28.577058823529413,171.17290366911212
1.08063818359375,-0.0117626953125,0.1934130859375,1.0978733381650547,0.83544921875,-1.02880859375,0.232421875,28.53,170.82441412966747
1.07624365234375,-0.0151806640625,0.2007373046875,1.09490927353128,0.81787109375,-0.896484375,0.1865234375,28.53,170.82441412966747
1.07184912109375,-0.0029736328125,0.2012255859375,1.0905783407520242,0.78466796875,-0.7314453125,0.15087890625,28.577058823529413,170.82441412966747
1.06257177734375,0.0131396484375,0.1948779296875,1.0803743979971958,0.78857421875,-0.22216796875,0.0966796875,28.53,170.82441412966747
1.06550146484375,-0.0063916015625,0.1963427734375,1.083459601847637,0.8095703125,0.39697265625,0.017578125,28.624117647058824,170.82441412966747
1.05182958984375,-0.0063916015625,0.1958544921875,1.0699277175358288,0.82275390625,1.10546875,-0.04150390625,28.624117647058824,170.82441412966747
1.06550146484375,-0.0029736328125,0.1953662109375,1.083268281845433,0.82861328125,1.40625,-0.04931640625,28.624117647058824,170.82441412966747
1.07477880859375,-0.0146923828125,0.1895068359375,1.091456913662629,0.7958984375,1.63232421875,-0.07568359375,28.624117647058824,170.82441412966747
1.09479833984375,-0.0254345703125,0.0532763671875,1.0963889335415191,0.7666015625,1.87060546875,-0.13818359375,28.48294117647059,170.82441412966747
1.09821630859375,-0.0268994140625,0.1694873046875,1.111543334912509,0.73583984375,1.54150390625,-0.1455078125,28.577058823529413,171.00500597278224
1.09431005859375,-0.0278759765625,0.1567919921875,1.1058369243350914,0.7138671875,1.37255859375,-0.10107421875,28.577058823529413,171.00500597278224
1.07868505859375,-0.0361767578125,0.1611865234375,1.0912613384414815,0.70166015625,0.80517578125,-0.00146484375,28.53,171.00500597278224
1.08112646484375,-0.0395947265625,0.1782763671875,1.0964418080567138,0.72802734375,0.37060546875,0.12060546875,28.48294117647059,171.00500597278224
1.08552099609375,-0.0327587890625,0.1914599609375,1.10276284298275,0.794921875,-0.1796875,0.296875,28.53,171.00500597278224
1.09528662109375,-0.0181103515625,0.2105029296875,1.1154784850402548,0.94189453125,-0.51025390625,0.44091796875,28.624117647058824,171.00500597278224
1.11530615234375,-0.0122509765625,0.2144091796875,1.1357945220051122,1.07373046875,-0.95947265625,0.45458984375,28.53,171.00500597278224
1.10749365234375,-0.0063916015625,0.2129443359375,1.1277980017539024,1.07080078125,-0.92138671875,0.4580078125,28.48294117647059,171.00500597278224
1.07673193359375,0.0019091796875,0.2290576171875,1.1008281854037123,1.0224609375,-0.408203125,0.45361328125,28.624117647058824,170.98464899300794
1.02106787109375,-0.0083447265625,0.1968310546875,1.0398998489906224,1.02197265625,0.41162109375,0.490234375,28.577058823529413,170.98464899300794
0.99225927734375,-0.0093212890625,0.1763232421875,1.0078468363992812,1.02783203125,1.57861328125,0.31103515625,28.624117647058824,170.98464899300794
0.99860693359375,-0.0049267578125,0.1650927734375,1.0121737521815812,0.955078125,2.37109375,0.36865234375,28.53,170.98464899300794
1.04841162109375,-0.0049267578125,0.1504443359375,1.0591622625465105,0.9326171875,2.56005859375,0.39794921875,28.48294117647059,170.98464899300794
1.10895849609375,-4.394531249999993e-05,0.1519091796875,1.119314677319578,0.9404296875,2.2578125,0.388671875,28.53,170.98464899300794
1.15534521484375,0.0092333984375,0.1563037109375,1.1659068020909262,0.87548828125,1.5126953125,0.36669921875,28.48294117647059,170.98464899300794
1.19929052734375,-4.394531249999993e-05,0.1475146484375,1.2083287393798423,0.9853515625,0.572265625,0.2314453125,28.53,170.98464899300794
1.19880224609375,-0.0015087890625,0.1660693359375,1.2102512656562592,0.89453125,-0.74072265625,-0.00830078125,28.43588235294117,171.20595840434464
1.19147802734375,-0.0205517578125,0.1856005859375,1.2060223223027344,0.8583984375,-1.60693359375,-0.0166015625,28.53,171.20595840434464
1.17975927734375,-0.0361767578125,0.2153857421875,1.1998048708944848,0.9482421875,-2.15087890625,-0.39111328125,28.53,171.20595840434464
1.10505224609375,-0.0474072265625,0.2524951171875,1.134522673167319,1.29248046875,-2.587890625,-0.0068359375,28.43588235294117,171.20595840434464
1.00739599609375,-0.0176220703125,0.2134326171875,1.0299081087103468,1.3603515625,-2.41650390625,0.4189453125,28.577058823529413,171.20595840434464
1.05524755859375,-0.0210400390625,0.2173388671875,1.0776020955585448,1.16943359375,-2.18994140625,0.49853515625,28.577058823529413,171.20595840434464
1.07770849609375,-0.0132275390625,0.2290576171875,1.1018611356853991,1.0849609375,-1.88916015625,0.451171875,28.48294117647059,171.20595840434464
1.06550146484375,-0.0200634765625,0.2334521484375,1.0909609618524558,1.11865234375,-1.4736328125,0.43798828125,28.53,171.20595840434464
1.03620458984375,-0.0190869140625,0.2393115234375,1.0636513844073443,0.92431640625,-0.5419921875,0.55126953125,28.48294117647059,171.20595840434464
1.04255224609375,-0.0151806640625,0.2417529296875,1.070322436188736,0.92919921875,0.18115234375,0.61376953125,28.624117647058824,171.01602428729836
1.05085302734375,0.0023974609375,0.2388232421875,1.0776522509165098,0.982421875,0.8193359375,0.296875,28.48294117647059,171.01602428729836
1.04499365234375,-0.1103955078125,0.2207568359375,1.0737469358266156,0.98974609375,1.35888671875,0.12548828125,28.624117647058824,171.01602428729836
1.05134130859375,0.0321826171875,0.2134326171875,1.0732696539473023,1.0634765625,1.68359375,0.05712890625,28.48294117647059,171.01602428729836
1.04743505859375,0.0439013671875,0.1934130859375,1.0660469754303,1.07958984375,1.9384765625,0.11767578125,28.48294117647059,171.01602428729836
1.05866552734375,0.0497607421875,0.1787646484375,1.0748049263843436,1.00634765625,1.98193359375,-0.03271484375,28.53,171.01602428729836
1.07136083984375,0.0595263671875,0.1782763671875,1.0877223453799314,0.95263671875,1.7763671875,0.0078125,28.577058823529413,171.01602428729836
1.10114599609375,0.0580615234375,0.1885302734375,1.1186765883040544,0.99072265625,1.390625,0.03466796875,28.53,171.01602428729836
1.12458349609375,0.0644091796875,0.2007373046875,1.1441730846369618,1.095703125,0.82275390625,-0.00341796875,28.53,170.8541092166822
1.14948583984375,0.0487841796875,0.2065966796875,1.168922486842893,1.19677734375,0.34765625,-0.00146484375,28.53,170.8541092166822
1.16999365234375,0.0429248046875,0.2192919921875,1.1911409082135036,1.34716796875,-0.33447265625,-0.34033203125,28.48294117647059,170.8541092166822
1.14655615234375,0.0395068359375,0.2397998046875,1.1720306083423164,1.578125,-0.64013671875,-0.62451171875,28.53,170.8541092166822
1.20124365234375,-0.0015087890625,0.2256396484375,1.2222527724196766,1.822265625,-0.50341796875,-0.79736328125,28.577058823529413,170.8541092166822
1.03571630859375,-0.0029736328125,0.1880419921875,1.0526523192417387,1.921875,0.2314453125,-1.0390625,28.53,170.8541092166822
1.01081396484375,0.0014208984375,0.1836474609375,1.0273622926622827,1.998046875,0.78076171875,-1.17431640625,28.624117647058824,170.8541092166822
1.02888037109375,-0.0264111328125,0.1582568359375,1.0413153182775143,1.8974609375,1.4462890625,-1.154296875,28.53,170.8541092166822
1.03229833984375,-0.0464306640625,0.1387255859375,1.0426123235427205,1.71435546875,1.705078125,-0.88427734375,28.577058823529413,171.13386704620947
1.07087255859375,-0.0727978515625,0.1372607421875,1.082085059173771,1.57568359375,1.39794921875,-0.560546875,28.48294117647059,171.13386704620947
1.11432958984375,-0.0737744140625,0.1460498046875,1.1262786708540928,1.3798828125,0.5,-0.2255859375,28.577058823529413,171.13386704620947
1.14313818359375,-0.0610791015625,0.0527880859375,1.1459852291607624,1.22998046875,-0.55029296875,0.060546875,28.624117647058824,171.13386704620947
1.13874365234375,-0.0615673828125,0.1968310546875,1.1572683839408031,1.169921875,-1.56640625,0.158203125,28.624117647058824,171.13386704620947
1.11774755859375,-0.0601025390625,0.2178271484375,1.14035984958278,1.064453125,-2.4248046875,0.16796875,28.53,171.13386704620947
1.20514990234375,-0.0552197265625,0.2417529296875,1.2303983031251615,0.974609375,-2.66748046875,0.1318359375,28.577058823529413,171.13386704620947
1.05329443359375,-0.0586376953125,0.2607958984375,1.0866839668426893,0.99853515625,-2.5439453125,0.40966796875,28.577058823529413,171.13386704620947
1.04206396484375,-0.0449658203125,0.2710498046875,1.0776767736401227,0.75,-2.03857421875,0.56494140625,28.48294117647059,171.13386704620947
1.03278662109375,-0.0347119140625,0.2959521484375,1.0749143202380826,0.72314453125,-1.2744140625,0.72265625,28.624117647058824,171.0066857032159
1.01716162109375,-0.0254345703125,0.2949755859375,1.059374946415205,0.67333984375,-0.4287109375,0.7548828125,28.48294117647059,171.0066857032159
1.01081396484375,-0.0098095703125,0.2832568359375,1.049797854016754,0.64794921875,0.8310546875,1.0302734375,28.67117647058824,171.0066857032159
1.01374365234375,0.0077685546875,0.2700732421875,1.0491311163314367,0.630859375,1.9208984375,1.0810546875,28.48294117647059,171.0066857032159
1.02888037109375,0.0146044921875,0.2603076171875,1.061399154314672,0.50634765625,2.986328125,0.90283203125,28.48294117647059,171.0066857032159
1.05573583984375,0.0180224609375,0.2271044921875,1.0800367692817563,0.5791015625,3.52734375,0.55078125,28.577058823529413,171.0066857032159
1.06550146484375,-0.1045361328125,0.2080615234375,1.0906469512095571,0.4892578125,4.025390625,0.19091796875,28.53,171.0066857032159
1.08454443359375,0.0146044921875,0.1978076171875,1.102532436279604,0.4609375,4.091796875,0.123046875,28.624117647058824,171.0066857032159
1.10651708984375,0.1342333984375,0.1899951171875,1.1307063367326875,0.49853515625,3.77685546875,0.0234375,28.624117647058824,171.0787754579466
1.13190771484375,-0.0005322265624999,0.1655810546875,1.143954738553645,0.5126953125,3.30517578125,0.0791015625,28.624117647058824,171.0787754579466
1.14802099609375,-0.0073681640625,0.1460498046875,1.157297300939994,0.4921875,2.64794921875,0.11083984375,28.577058823529413,171.0787754579466
1.16559912109375,-0.0166455078125,0.1460498046875,1.1748314472613148,0.4609375,1.9892578125,0.10595703125,28.624117647058824,171.0787754579466
1.17243505859375,-0.0205517578125,0.1445849609375,1.1814953035447122,0.3974609375,0.89599609375,0.10107421875,28.624117647058824,171.0787754579466
1.18854833984375,-0.0288525390625,0.0586474609375,1.1903441308420448,0.39306640625,-0.13720703125,0.13671875,28.48294117647059,171.0787754579466
1.16706396484375,-0.0371533203125,0.1841357421875,1.1820848695410997,0.4013671875,-1.3095703125,0.212890625,28.577058823529413,171.0787754579466
1.13239599609375,-0.0283642578125,0.2139208984375,1.152773773937765,0.46630859375,-2.2783203125,0.341796875,28.53,171.0787754579466
1.09479833984375,-0.0137158203125,0.2256396484375,1.1178930090122554,0.54931640625,-3.06787109375,0.55322265625,28.53,171.0787754579466
1.07526708984375,-0.0205517578125,0.2397998046875,1.1018736931147752,0.517578125,-3.37255859375,0.57275390625,28.577058823529413,171.26871139820923
1.03815771484375,-4.394531249999993e-05,0.2651904296875,1.0714930736213968,0.3759765625,-3.275390625,0.65283203125,28.53,171.26871139820923
1.02839208984375,0.0028857421875,0.2783740234375,1.0654063613879683,0.49755859375,-2.7802734375,0.607421875,28.577058823529413,171.26871139820923
1.04401708984375,-0.0142041015625,0.2886279296875,1.083272598279262,0.62109375,-1.9248046875,0.271484375,28.624117647058824,171.26871139820923
1.00446630859375,-0.1074658203125,0.2896044921875,1.050891159697603,0.55078125,-0.78076171875,0.189453125,28.67117647058824,171.26871139820923
0.97761083984375,0.0292529296875,0.2739794921875,1.0156985035996775,0.54345703125,0.3974609375,0.3232421875,28.624117647058824,171.26871139820923
0.99323583984375,0.0263232421875,0.2769091796875,1.0314499699086648,0.525390625,1.75830078125,0.42724609375,28.624117647058824,171.26871139820923
1.02839208984375,0.0268115234375,0.2549365234375,1.059859320487693,0.544921875,2.9677734375,0.3369140625,28.624117647058824,170.95757520011415
1.07331396484375,0.0185107421875,0.2285693359375,1.0975379064232142,0.55078125,3.62158203125,0.10986328125,28.577058823529413,170.95757520011415
1.09382177734375,0.1352099609375,0.2178271484375,1.1234662793001724,0.6083984375,3.818359375,-0.1650390625,28.53,170.95757520011415
1.10749365234375,0.0150927734375,0.2046435546875,1.1263431831670443,0.71533203125,3.56201171875,-0.32080078125,28.53,170.95757520011415
1.12018896484375,0.0131396484375,0.1885302734375,1.1360192037642636,0.81884765625,2.7783203125,-0.3447265625,28.67117647058824,170.95757520011415
1.12995458984375,0.0009326171875,0.1729052734375,1.1431073783622745,0.75341796875,1.748046875,-0.32373046875,28.48294117647059,170.95757520011415
1.12702490234375,-0.0054150390625,0.1606982421875,1.138436813438998,0.91455078125,0.32568359375,-0.33984375,28.577058823529413,170.95757520011415
1.10847021484375,-0.0278759765625,0.1636279296875,1.1208288837458105,0.89453125,-1.228515625,-0.29443359375,28.624117647058824,171.01697268124005
1.20661474609375,-0.0234814453125,0.1890185546875,1.221555785783441,0.89599609375,-2.02734375,-0.10986328125,28.53,171.01697268124005
1.06306005859375,-0.0239697265625,0.1978076171875,1.0815725076878686,0.923828125,-2.74560546875,0.0810546875,28.53,171.01697268124005
1.05378271484375,-0.0352001953125,0.2236865234375,1.0778370584745438,0.9560546875,-2.7958984375,0.15673828125,28.624117647058824,171.01697268124005
1.04011083984375,-0.0283642578125,0.2422412109375,1.0683238715661985,0.99462890625,-2.39990234375,0.12451171875,28.577058823529413,171.01697268124005
1.04401708984375,-0.0229931640625,0.2524951171875,1.074362207862389,1.01025390625,-1.67724609375,0.1220703125,28.48294117647059,171.01697268124005
1.04499365234375,-0.0185986328125,0.2632373046875,1.0777993881796204,1.0068359375,-0.8056640625,-0.1044921875,28.624117647058824,171.01697268124005
1.03620458984375,-0.0205517578125,0.2603076171875,1.0685983259991902,1.01123046875,-0.1123046875,-0.16748046875,28.577058823529413,171.01697268124005
1.03522802734375,-0.0112744140625,0.2564013671875,1.066567317193858,1.01171875,0.734375,-0.17333984375,28.53,170.81434072345235
1.04987646484375,-0.0132275390625,0.2412646484375,1.0773226952998485,0.9912109375,1.20849609375,-0.14892578125,28.624117647058824,170.81434072345235
1.06159521484375,-0.0171337890625,0.2354052734375,1.087517176723646,0.91796875,1.48046875,-0.15234375,28.53,170.81434072345235
1.07429052734375,-0.0117626953125,0.2227099609375,1.0971956183116618,0.90234375,1.54638671875,-0.19189453125,28.53,170.81434072345235
1.08454443359375,-0.0093212890625,0.2212451171875,1.1069204654121656,0.962890625,1.4384765625,-0.2041015625,28.53,170.81434072345235
1.09186865234375,0.0019091796875,0.2100146484375,1.1118844146296694,0.97216796875,1.07958984375,-0.20654296875,28.577058823529413,170.81434072345235
1.09870458984375,-0.0024853515625,0.1914599609375,1.1152644840387866,0.96484375,0.64697265625,-0.1904296875,28.577058823529413,170.81434072345235
1.10651708984375,-0.0068798828125,0.1909716796875,1.1228969611440136,0.95068359375,0.0556640625,-0.19384765625,28.48294117647059,170.81434072345235
1.11188818359375,-0.0122509765625,0.1943896484375,1.1288191859911838,1.0146484375,-0.60546875,-0.14306640625,28.48294117647059,170.81434072345235
1.10602880859375,-0.0039501953125,0.2061083984375,1.1250759980502598,1.07568359375,-1.21142578125,-0.0185546875,28.624117647058824,170.7566248659808
1.10407568359375,-0.0019970703125,0.2134326171875,1.1245179347046206,1.1396484375,-1.69873046875,0.052734375,28.53,170.7566248659808
1.10554052734375,0.0014208984375,0.2363818359375,1.1305300743072029,1.17578125,-2.04296875,-0.01171875,28.48294117647059,170.7566248659808
1.09919287109375,-4.394531249999993e-05,0.2495654296875,1.1271680768588233,1.2060546875,-2.2041015625,-0.14990234375,28.577058823529413,170.7566248659808
1.08991552734375,0.0038623046875,0.2730029296875,1.1235930641297416,1.2314453125,-2.373046875,-0.26318359375,28.48294117647059,170.7566248659808
1.07526708984375,-0.0093212890625,0.2861865234375,1.1127393796968257,1.2470703125,-2.23388671875,-0.22265625,28.624117647058824,170.7566248659808
1.06208349609375,-0.0142041015625,0.2964404296875,1.1027692585165902,1.373046875,-1.75390625,-0.04150390625,28.624117647058824,170.7566248659808
1.05475927734375,-0.0098095703125,0.3091357421875,1.0991716280500703,1.24169921875,-1.232421875,0.14306640625,28.624117647058824,171.05338190617712
1.04743505859375,-0.0049267578125,0.2935107421875,1.0877927333335575,1.208984375,-0.28076171875,0.2421875,28.48294117647059,171.05338190617712
1.04548193359375,0.0023974609375,0.2886279296875,1.0845940729533634,1.1572265625,0.60595703125,0.23828125,28.53,171.05338190617712
1.06208349609375,-0.0044384765625,0.2837451171875,1.0993417777364176,1.06787109375,1.44287109375,0.130859375,28.67117647058824,171.05338190617712
1.06989599609375,0.0009326171875,0.2637255859375,1.1019208215250011,0.9599609375,2.08837890625,0.048828125,28.53,171.05338190617712
1.07477880859375,0.0014208984375,0.2559130859375,1.1048271420944658,0.8818359375,2.609375,0.03466796875,28.577058823529413,171.05338190617712
1.06843115234375,0.0053271484375,0.2183154296875,1.0905205787369197,0.81591796875,2.9638671875,0.02099609375,28.53,171.05338190617712
1.07868505859375,-4.394531249999993e-05,0.2056201171875,1.0981079592448064,0.72265625,3.0849609375,-0.04248046875,28.577058823529413,171.05338190617712
1.09333349609375,-0.0039501953125,0.1890185546875,1.109559260129778,0.640625,2.97509765625,-0.16943359375,28.624117647058824,171.05338190617712
1.11384130859375,-0.0034619140625,0.1875537109375,1.1295268213129075,0.61376953125,2.32958984375,-0.36083984375,28.577058823529413,171.12883088548907
1.11237646484375,0.0038623046875,0.1733935546875,1.125815989290854,0.64892578125,1.48779296875,-0.4228515625,28.577058823529413,171.12883088548907
1.11432958984375,-0.0185986328125,0.1758349609375,1.1282704806170043,0.61962890625,0.31396484375,-0.44189453125,28.53,171.12883088548907
1.10163427734375,-0.0117626953125,0.1763232421875,1.1157178531130585,0.57958984375,-0.95654296875,-0.13623046875,28.577058823529413,171.12883088548907
1.10016943359375,-0.0225048828125,0.2100146484375,1.1202613109996808,0.615234375,-1.8349609375,0.11767578125,28.577058823529413,171.12883088548907
1.11774755859375,-0.0303173828125,0.2329638671875,1.142169388426184,0.7099609375,-2.57666015625,0.06201171875,28.53,171.12883088548907
1.08893896484375,0.0014208984375,0.2441943359375,1.1159843017763753,0.85205078125,-2.7568359375,0.1162109375,28.53,171.12883088548907
1.06061865234375,0.0194873046875,0.2612841796875,1.0925022211869528,0.98583984375,-2.6123046875,0.17333984375,28.577058823529413,171.12883088548907
1.04255224609375,0.0248583984375,0.2466357421875,1.0716166829292924,1.00244140625,-1.84375,0.14990234375,28.624117647058824,171.12883088548907
1.04450537109375,0.0248583984375,0.2529833984375,1.0749930279316031,0.974609375,-0.79150390625,0.04345703125,28.577058823529413,170.98129021628023
1.05182958984375,0.0248583984375,0.2534716796875,1.0822251699380083,0.97802734375,0.0322265625,-0.08056640625,28.53,170.98129021628023
1.04987646484375,0.1366748046875,0.2500537109375,1.0878637102242132,0.97412109375,1.08349609375,-0.19921875,28.48294117647059,170.98129021628023
1.05475927734375,0.1347216796875,0.2393115234375,1.089925258616621,0.96630859375,1.52783203125,-0.30517578125,28.53,170.98129021628023
1.06208349609375,0.0058154296875,0.2207568359375,1.0847989456624252,0.912109375,1.8798828125,-0.35205078125,28.577058823529413,170.98129021628023
1.07184912109375,0.0004443359375,0.2100146484375,1.0922302359769192,0.87060546875,1.75732421875,-0.37353515625,28.577058823529413,170.98129021628023
1.08210302734375,0.0009326171875,0.1919482421875,1.0989958868167788,0.78759765625,1.4208984375,-0.34814453125,28.53,170.98129021628023
