AccX,AccY,AccZ,Magnitude,GyroX,GyroY,GyroZ,Temperature,Altitude
0.58693310546875,-0.15319287109375,1.38746044921875,1.5142671574710431,-1.564453125,-1.66357421875,1.78857421875,43.87117647058824,200.92885057890683
0.63673779296875,-0.10241162109375,1.36646435546875,1.5110089317725397,-1.4755859375,-1.46923828125,1.75048828125,43.40058823529412,200.92885057890683
0.62257763671875,-0.07555615234375,1.31421826171875,1.4561872425393476,-1.40478515625,-1.3525390625,1.69921875,43.87117647058824,200.92885057890683
0.63576123046875,-0.03893505859375,1.28345654296875,1.4328185435162866,-1.35400390625,-1.2998046875,1.5771484375,43.87117647058824,200.92885057890683
0.65578076171875,0.0230766601562499,1.19019482421875,1.3590970014246564,-1.3466796875,-1.3251953125,1.32470703125,43.87117647058824,200.92885057890683
0.69289013671875,0.08997119140625,1.12867138671875,1.3274376279293931,-1.38427734375,-1.7451171875,0.97802734375,43.96529411764706,200.92885057890683
0.67726513671875,0.13684619140625,1.14869091796875,1.3404871392672713,-1.52099609375,-2.27978515625,0.857421875,43.87117647058824,200.92885057890683
0.64064404296875,0.18469775390625,1.17701123046875,1.3527355568398876,-1.55419921875,-2.3388671875,0.94873046875,43.96529411764706,200.87243406033565
0.59376904296875,0.14026416015625,1.16285107421875,1.3131863279154503,-1.689453125,-2.2685546875,0.90380859375,43.447647058823534,200.87243406033565
0.53517529296875,0.36292041015625,1.13843701171875,1.3092603438442965,-1.71923828125,-1.9677734375,0.39111328125,43.82411764705883,200.87243406033565
0.49708935546875,0.46545947265625,1.02564404296875,1.2311360813829864,-1.71826171875,-1.8076171875,-0.537109375,44.01235294117648,200.87243406033565
0.48390576171875,0.50159228515625,0.90113232421875,1.1392098456846125,-1.5673828125,-2.14599609375,-1.6806640625,43.68294117647059,200.92552058048813
0.45460888671875,0.44397509765625,0.7673432617187499,0.9962925316028962,-1.46044921875,-2.56103515625,-2.4033203125,43.30647058823529,200.92552058048813
0.44728466796875,0.44202197265625,0.6731049804687499,0.9211499949751256,-0.8720703125,-2.44873046875,-2.4189453125,43.96529411764706,200.92552058048813
0.48292919921875,0.36389697265625,0.5149018554687499,0.794207491107713,-0.337890625,-1.93359375,-2.322265625,44.43588235294118,200.92552058048813
0.45997998046875,0.29895556640625,0.3415620117187499,0.6462357317315971,-0.1669921875,-1.35546875,-2.111328125,43.40058823529412,200.92552058048813
0.39064404296875,0.27405322265625,0.1677338867187499,0.5058088511572579,-0.0068359375,-0.73291015625,-1.916015625,44.01235294117648,200.8285236552822
0.39601513671875,0.23010791015625,0.0090424804687498,0.4581041423954544,0.48388671875,-0.53515625,-1.91943359375,44.01235294117648,200.8285236552822
0.38380810546875,0.19543994140625,-0.1364653320312501,0.4518055105538099,0.833984375,-0.759765625,-1.845703125,44.15352941176471,200.8285236552822
0.42287060546875,0.16516650390625,-0.1891997070312501,0.4918292916478556,1.00634765625,-1.9658203125,-1.31787109375,43.82411764705883,200.8285236552822
0.36183544921875,0.0221000976562499,-0.2053129882812501,0.4166134056709255,1.240234375,-4.3642578125,-0.84326171875,44.71823529411765,200.96081090720813
0.11720654296875,-0.05797802734375,-0.0720122070312501,0.1492802174799785,0.77978515625,-7.04736328125,0.2861328125,44.71823529411765,200.96081090720813
-0.02000048828125,-0.08776318359375,0.1877534179687499,0.2082156139316809,0.4658203125,-8.1728515625,1.25537109375,43.30647058823529,200.96081090720813
-0.03806689453125,-0.07848583984375,0.3698823242187499,0.380029011109279,0.47119140625,-6.20947265625,1.80712890625,44.01235294117648,200.96081090720813
-0.02634814453125,-0.06872021484375,0.4577729492187499,0.4636515563274246,0.5009765625,-2.90234375,1.9638671875,43.96529411764706,200.96081090720813
0.04787060546875,-0.08092724609375,0.4289643554687499,0.4391483032996747,0.8115234375,-1.2138671875,2.40673828125,43.82411764705883,201.07142399333188
0.19581982421875,-0.12047802734375,0.3566987304687499,0.4243752383772189,0.80810546875,-1.34814453125,2.92822265625,43.96529411764706,201.07142399333188
0.35158154296875,-0.11461865234375,0.2922456054687499,0.4713326964440093,0.55810546875,-1.9140625,3.2255859375,43.30647058823529,201.07142399333188
0.56886669921875,-0.03649365234375,0.2810151367187499,0.6355396252056043,0.2744140625,-2.67041015625,3.2353515625,43.30647058823529,201.07142399333188
0.84230419921875,0.0245415039062499,0.3347260742187499,0.9067084394651987,-0.11767578125,-4.18017578125,2.6259765625,43.87117647058824,200.7532068703496
1.08986279296875,0.0162407226562499,0.4773041992187499,1.189909226437838,-0.62109375,-6.88037109375,1.296875,44.01235294117648,200.7532068703496
1.14845654296875,-0.02379833984375,0.7775971679687499,1.387146765018061,-0.9443359375,-10.4443359375,0.49658203125,43.30647058823529,200.7532068703496
1.19435498046875,-0.15514599609375,1.16138623046875,1.673132414304631,-0.6220703125,-13.1494140625,0.08837890625,43.63588235294118,200.7532068703496
1.38917919921875,-0.36071240234375,1.66382763671875,2.197328989809161,0.45068359375,-14.8232421875,-0.8486328125,43.96529411764706,200.7532068703496
1.55275341796875,-0.69469677734375,2.19800732421875,2.7793673716845526,-0.36328125,-15.33203125,-2.90283203125,43.40058823529412,200.7754400435139
1.61622998046875,-0.68444287109375,2.73999951171875,3.25396046653552,-0.6337890625,-13.38720703125,-3.74853515625,43.82411764705883,200.7754400435139
1.74855419921875,-0.55944287109375,2.98560498046875,3.50489018558684,0.58837890625,-9.099609375,-2.02197265625,43.82411764705883,200.7754400435139
1.73683544921875,-0.22741162109375,2.75953076171875,3.2685353673998163,1.26904296875,-0.79833984375,0.19970703125,44.76529411764706,200.7754400435139
1.68703076171875,-0.21862255859375,1.99048779296875,2.6183793208908885,0.09326171875,6.3984375,0.767578125,44.62411764705882,200.77488441850028
1.43605419921875,-0.07897412109375,1.50318310546875,2.080396121766961,-0.31591796875,9.2255859375,0.9921875,44.01235294117648,200.77488441850028
1.21095654296875,-0.03698193359375,1.03882763671875,1.595915496253427,-1.62158203125,6.14306640625,1.8017578125,44.62411764705882,200.77488441850028
1.22316357421875,0.03674853515625,0.7316987304687499,1.4257849123557516,-2.91064453125,-0.251953125,1.9296875,43.54176470588236,200.77488441850028
1.33986279296875,0.17346728515625,0.6145112304687499,1.4842328844806385,-3.48193359375,-5.75341796875,-0.95703125,43.58882352941177,200.77488441850028
1.12208935546875,0.20276416015625,0.6472260742187499,1.3111443160265612,-4.2841796875,-7.7197265625,-5.740234375,44.01235294117648,200.83130250867856
0.68800732421875,0.09534228515625,0.7619721679687499,1.0310411312243837,-4.50244140625,-7.12060546875,-8.2939453125,44.059411764705885,200.83130250867856
0.32179638671875,0.0264946289062499,0.7570893554687499,0.8230669304681184,-4.5166015625,-5.4453125,-8.220703125,43.96529411764706,200.83130250867856
0.07716748046875,0.0235649414062499,0.6574799804687499,0.6624122970043375,-4.40869140625,-3.3232421875,-6.544921875,43.87117647058824,200.83130250867856
0.01955029296875,0.0260063476562499,0.5012299804687499,0.5022848170055363,-4.244140625,-1.345703125,-5.06396484375,44.29470588235294,200.7206906504172
0.07326123046875,-0.00377880859375,0.3449799804687499,0.3526934564298047,-4.318359375,0.1865234375,-4.66845703125,44.01235294117648,200.7206906504172
0.08742138671875,0.01428759765625,0.2683198242187499,0.2825635545702895,-4.7138671875,1.396484375,-4.873046875,43.87117647058824,200.7206906504172
0.16017529296875,0.01477587890625,0.2927338867187499,0.3340173341438179,-5.1337890625,2.91943359375,-4.99609375,44.01235294117648,200.7206906504172
0.04591748046875,0.0211235351562499,0.2854096679687499,0.2898504740726284,-5.29833984375,5.896484375,-4.9453125,43.96529411764706,200.7206906504172
0.11915966796875,0.10071337890625,0.1511323242187499,0.2172169205768693,-4.85986328125,9.326171875,-4.71875,43.96529411764706,200.6225867014656
0.21193310546875,0.09143603515625,0.0114838867187498,0.2311018593021102,-4.15966796875,10.5400390625,-4.57666015625,43.30647058823529,200.6225867014656
0.16945263671875,0.08313525390625,-0.1198637695312501,0.2235911218703326,-3.90380859375,10.02197265625,-4.5400390625,43.96529411764706,200.6225867014656
0.19581982421875,0.07092822265625,-0.1984770507812501,0.2876966388629864,-3.587890625,7.0927734375,-5.4853515625,43.30647058823529,200.6225867014656
0.17970654296875,0.11536181640625,-0.2214262695312501,0.3076237687644671,-3.611328125,3.12109375,-7.28369140625,43.87117647058824,200.71040792695965
0.14552685546875,0.16516650390625,-0.1115629882812501,0.2467880467718769,-3.53515625,0.26806640625,-9.220703125,44.01235294117648,200.71040792695965
0.01027294921875,0.16028369140625,-0.0051176757812501,0.1606940752544007,-3.48291015625,0.13427734375,-10.2099609375,43.87117647058824,200.71040792695965
-0.08201220703125,0.20374072265625,0.0505463867187498,0.2253690781383928,-2.91455078125,1.869140625,-10.01171875,43.82411764705883,200.71040792695965
-0.03806689453125,0.16565478515625,-0.0158598632812501,0.1707106662388633,-2.4482421875,3.26220703125,-9.599609375,43.96529411764706,200.71040792695965
0.04640576171875,0.13098681640625,-0.0978911132812501,0.1699815015005591,-2.017578125,2.85888671875,-9.08447265625,44.01235294117648,200.7976734776043
0.25246044921875,0.09680712890625,-0.1047270507812501,0.2899580207411805,-1.60498046875,1.06103515625,-8.76171875,43.96529411764706,200.7976734776043
0.54152294921875,-0.00182568359375,0.0066010742187498,0.5415662580257367,-1.4365234375,-1.11572265625,-9.3466796875,43.82411764705883,200.7976734776043
0.61427685546875,-0.20104443359375,0.1770112304687499,0.6701402055955665,-0.94140625,-2.80517578125,-9.3173828125,43.777058823529416,200.7976734776043
0.61037060546875,-0.40026318359375,0.3244721679687499,0.7987772405040301,-0.3271484375,-4.48974609375,-7.66064453125,43.82411764705883,200.84158452022783
0.55128857421875,-0.55456005859375,0.4323823242187499,0.8935381496883352,0.01953125,-5.81005859375,-4.52587890625,43.82411764705883,200.84158452022783
0.41310498046875,-0.54039990234375,0.5505463867187499,0.8750937682730303,0.47412109375,-5.837890625,-0.34130859375,43.82411764705883,200.84158452022783
0.46242138671875,-0.41198193359375,0.5983979492187499,0.8611868311416184,0.67822265625,-4.34814453125,2.7373046875,44.57705882352941,200.84158452022783
0.67384716796875,-0.17418896484375,0.6047456054687499,0.9220244294955569,0.44873046875,-3.2734375,2.30615234375,44.62411764705882,200.84158452022783
0.93263623046875,0.0235649414062499,0.7190034179687499,1.1778503979271664,0.42431640625,-3.82421875,0.04541015625,43.777058823529416,200.72124657895665
0.96388623046875,0.0191704101562499,0.8825776367187499,1.307052965548401,0.52978515625,-4.87109375,-0.74169921875,43.96529411764706,200.72124657895665
0.91359326171875,-0.02233349609375,1.05445263671875,1.395357228808737,0.6904296875,-5.2919921875,1.53662109375,44.01235294117648,200.72124657895665
0.94191357421875,-0.03893505859375,1.17164013671875,1.5038143934859682,0.59326171875,-5.06689453125,5.5517578125,43.96529411764706,200.72124657895665
1.23585888671875,-0.03258740234375,1.19654248046875,1.7205008091365523,0.40478515625,-5.05029296875,8.4833984375,43.40058823529412,200.60090941379823
1.44289013671875,0.06262744140625,1.19654248046875,1.8755180752591152,0.05615234375,-5.12353515625,8.41455078125,43.82411764705883,200.60090941379823
1.59425732421875,0.19592822265625,1.14624951171875,1.9733048997491085,-0.29150390625,-4.6953125,7.1298828125,43.96529411764706,200.60090941379823
1.61769482421875,0.17883837890625,0.97876904296875,1.899186286162553,-0.3134765625,-5.28857421875,6.70361328125,44.01235294117648,200.60090941379823
1.90236279296875,0.05627978515625,0.8767182617187499,2.0954203684989423,-1.64404296875,-7.84912109375,6.24951171875,43.82411764705883,200.60090941379823
2.13185498046875,0.33215869140625,0.93189404296875,2.3502258532632068,-1.14013671875,-11.54638671875,4.7177734375,43.87117647058824,200.6225867014656
2.26857373046875,0.40247119140625,0.8630463867187499,2.460337150902932,-0.822265625,16.0,4.65625,43.82411764705883,200.6225867014656
2.20363232421875,0.23596728515625,0.92505810546875,2.401542937050923,-1.71826171875,16.0,5.1298828125,43.96529411764706,200.6225867014656
2.07179638671875,0.0181938476562499,0.94947216796875,2.2790718904546834,-3.05615234375,16.0,5.9326171875,44.01235294117648,200.6225867014656
2.04738232421875,-0.14831005859375,1.15894482421875,2.357312741361841,-3.611328125,16.0,5.7734375,44.62411764705882,200.3488435483224
1.98146435546875,-0.14196240234375,1.13746044921875,2.289141889269714,-2.814453125,16.0,5.51611328125,43.30647058823529,200.3488435483224
1.87306591796875,-0.23620068359375,1.07935498046875,2.1746663812752907,-1.76025390625,16.0,5.99560546875,43.82411764705883,200.3488435483224
1.38917919921875,-0.16735302734375,1.11597607421875,1.7897565425308155,-1.41162109375,16.0,6.91357421875,43.82411764705883,200.3488435483224
0.83644482421875,-0.00329052734375,1.56372998046875,1.7733872175442489,-1.53076171875,16.0,7.70751953125,43.30647058823529,200.3488435483224
-0.08835986328125,-0.03161083984375,1.50757763671875,1.510495627722636,-3.29931640625,16.0,9.2724609375,43.96529411764706,200.6881745532419
-1.11912158203125,0.45227587890625,1.24097607421875,1.7311869346757238,-3.60009765625,16.0,11.22705078125,43.777058823529416,200.6881745532419
-0.65476611328125,0.69836962890625,0.7063081054687499,1.1896679963464356,-2.03125,16.0,6.7119140625,43.82411764705883,200.6881745532419
-0.31345751953125,0.38831103515625,-0.2961333007812501,0.5802895901241041,-3.16650390625,-11.3505859375,1.04296875,43.82411764705883,200.6881745532419
-0.18357470703125,0.24573291015625,-0.7497465820312501,0.8100643637779722,-4.919921875,-7.5185546875,1.119140625,44.01235294117648,200.46806919360907
0.31740185546875,0.10071337890625,-0.93578173828125,0.9932646093797952,-5.24609375,-8.41259765625,1.58056640625,43.96529411764706,200.46806919360907
0.90919873046875,0.14807666015625,-0.6071684570312501,1.10327809911315,-4.22021484375,-15.45361328125,1.58203125,43.30647058823529,200.46806919360907
1.03029248046875,0.13831103515625,-0.1765043945312501,1.0544127934757273,-2.46044921875,16.0,1.21435546875,44.01235294117648,200.46806919360907
0.72951123046875,0.09876025390625,0.3254487304687499,0.8048957070921534,-2.10888671875,16.0,2.07666015625,44.76529411764706,200.46806919360907
0.36964794921875,0.09436572265625,0.91773388671875,0.9938712103718303,-1.681640625,16.0,1.625,43.96529411764706,200.579232180699
0.19972607421875,0.01477587890625,1.65503857421875,1.6671117279511651,-2.17626953125,16.0,-1.7236328125,44.71823529411765,200.579232180699
0.0255724283854166,0.0168917643229166,1.55787060546875,2.140221267440213,-0.29150390625,16.0,-3.494140625,43.87117647058824,200.579232180699
-0.1485812174479167,0.0190076497395833,1.46070263671875,1.9133969478121573,1.67529296875,-8.16015625,-1.83740234375,44.57705882352941,200.579232180699
-0.32273486328125,0.0211235351562499,1.36353466796875,1.40136747017594,2.22607421875,5.98681640625,1.44189453125,43.30647058823529,200.3380049351325
1.904296875000072e-05,0.16418994140625,0.8454682617187499,0.8612635594261184,1.416015625,12.029296875,2.62109375,43.40058823529412,200.3380049351325
0.29982373046875,0.22620166015625,0.4494721679687499,0.5857360243216815,-0.10400390625,12.35888671875,0.19775390625,43.40058823529412,200.3380049351325
0.40236279296875,0.22131884765625,0.0588471679687498,0.4629695871992521,-0.423828125,11.26171875,-3.83349609375,43.87117647058824,200.3380049351325
0.09083935546875,0.10168994140625,-0.2609770507812501,0.2944514454365332,0.0224609375,11.18505859375,-6.1083984375,44.01235294117648,200.3380049351325
0.16798779296875,-0.02331005859375,-0.3513090820312501,0.3901042534192562,0.09521484375,9.7978515625,-6.81201171875,43.87117647058824,200.17265276844745
-0.15769580078125,-0.05065380859375,-0.3747465820312501,0.4097179208348061,0.0546875,4.2900390625,-5.25146484375,44.62411764705882,200.17265276844745
-0.62205126953125,0.0279594726562499,-0.4675200195312501,0.7786555610147249,0.22119140625,0.302734375,-3.37548828125,43.40058823529412,200.17265276844745
-0.28025439453125,0.01086962890625,-0.4025786132812501,0.4906426544422034,0.787109375,-0.23291015625,-3.58642578125,43.96529411764706,200.17265276844745
-0.33884814453125,-0.23327099609375,-0.5427153320312501,0.6810090706390269,0.83642578125,2.56884765625,-4.2763671875,43.96529411764706,200.1184594124261
-0.44822314453125,-0.22643505859375,-0.8727934570312501,1.006948480156953,0.798828125,9.73828125,-5.49609375,43.87117647058824,200.1184594124261
0.80128857421875,0.01477587890625,-0.8327543945312501,1.1557515249317556,1.54345703125,15.99951171875,-5.5166015625,43.777058823529416,200.1184594124261
3.95607373046875,-0.55553662109375,-0.4465239257812501,4.019766649269121,-0.60595703125,15.99951171875,-9.49560546875,44.76529411764706,200.1184594124261
5.85206982421875,-1.97692333984375,-0.1516020507812501,6.178829201471078,-3.2451171875,15.99951171875,16.0,43.87117647058824,200.1184594124261
5.17140576171875,-2.08922802734375,-0.1613676757812501,5.579816379538272,1.36767578125,15.99951171875,16.0,43.96529411764706,200.22795435310428
2.30128857421875,-0.14000927734375,-1.00609423828125,2.515503392141385,3.91357421875,15.99951171875,-11.5234375,43.40058823529412,200.22795435310428
-1.54099658203125,0.30920947265625,-1.82396533203125,2.4077230937680976,-2.09423828125,15.99951171875,14.9541015625,43.87117647058824,200.22795435310428
0.39601513671875,-0.58581005859375,-1.40502001953125,1.5729216981603305,-5.41796875,15.99951171875,15.99951171875,44.62411764705882,200.22795435310428
0.60853955078125,-0.53075634765625,-1.08055712890625,3.207132988081614,2.1103515625,10.5478515625,-10.36328125,44.01235294117648,200.0506611202824
0.8210639648437501,-0.47570263671875,-0.7560942382812501,2.1856332770921463,2.1416015625,7.38525390625,16.0,44.059411764705885,200.0506611202824
1.03358837890625,-0.42064892578125,-0.4316313476562501,1.0534736179669224,-2.32861328125,9.03466796875,-8.34375,43.30647058823529,200.0506611202824
1.24611279296875,-0.36559521484375,-0.1071684570312501,1.3030510473882002,-3.18310546875,13.28466796875,4.09228515625,43.30647058823529,200.0506611202824
2.30665966796875,-0.09899365234375,0.0173432617187498,2.308848058180768,-0.79443359375,15.99951171875,5.443359375,43.30647058823529,200.0506611202824
2.90089794921875,-0.04479443359375,-0.3166411132812501,2.918471697255693,-0.68896484375,15.99951171875,2.2392578125,44.57705882352941,200.0951215174389
2.54054638671875,-0.08922802734375,-0.4733793945312501,2.585812374303311,-0.9228515625,15.99951171875,-0.09619140625,44.01235294117648,200.0951215174389
1.79152294921875,-0.04870068359375,-0.5368559570312501,1.8708662573150128,-1.23095703125,15.748046875,2.33935546875,44.059411764705885,200.0951215174389
1.61232373046875,-0.06286083984375,-0.5026762695312501,1.6900363099556122,-1.2607421875,11.24169921875,5.4638671875,43.30647058823529,200.0951215174389
1.93654248046875,0.13831103515625,-0.2341215820312501,1.955540752906691,-1.2744140625,5.39697265625,5.02783203125,43.82411764705883,200.041481131924
1.88283154296875,0.29211962890625,-0.0241606445312501,1.9055110163771227,-0.4736328125,2.33935546875,3.15380859375,43.30647058823529,200.041481131924
1.70216748046875,0.33606494140625,0.0437104492187498,1.7355760944938785,0.39990234375,1.3720703125,1.6494140625,43.777058823529416,200.041481131924
1.57863232421875,0.41174853515625,0.1941010742187499,1.6429522507621708,0.625,2.18603515625,1.7744140625,44.76529411764706,200.041481131924
1.54640576171875,0.50110400390625,0.2971284179687499,1.6525015277973072,1.91943359375,3.8193359375,2.4072265625,43.82411764705883,200.041481131924
1.52687451171875,0.47522509765625,0.2883393554687499,1.6249074594852777,2.57861328125,7.18115234375,1.6240234375,43.87117647058824,199.8550107833657
1.58497998046875,0.29016650390625,0.3928315429687499,1.6585158303818217,2.322265625,10.90673828125,-1.1748046875,43.777058823529416,199.8550107833657
1.47804638671875,0.35315478515625,0.6228120117187499,1.6423258585044158,3.1572265625,12.23779296875,-3.11572265625,43.777058823529416,199.8550107833657
1.20509716796875,0.27747119140625,0.6594331054687499,1.4014640440963388,4.43408203125,11.83837890625,-3.013671875,44.01235294117648,199.8550107833657
0.63820263671875,-0.10680615234375,0.4870698242187499,0.8099056570723068,3.0380859375,13.3515625,-1.3525390625,43.87117647058824,200.1184594124261
0.37160107421875,-0.32897412109375,0.6535737304687499,0.8206521503467668,1.13525390625,14.2939453125,-0.67236328125,43.87117647058824,200.1184594124261
0.95949169921875,-0.31481396484375,0.6594331054687499,1.206061430408288,-0.60693359375,14.4013671875,-2.50244140625,43.447647058823534,200.1184594124261
1.33693310546875,-0.17565380859375,0.7336518554687499,1.535086132438355,-1.658203125,14.53955078125,-4.2900390625,43.40058823529412,200.1184594124261
1.38283154296875,-0.51207958984375,0.5691010742187499,1.580608938112401,-2.79296875,15.99951171875,-4.66162109375,43.96529411764706,200.1184594124261
1.62355419921875,-0.82506787109375,0.5407807617187499,1.899765528152651,-2.72265625,15.99951171875,-2.66943359375,43.777058823529416,200.3049340863867
1.66261669921875,-0.78063427734375,0.4821870117187499,1.8989967029342911,-2.1435546875,15.99951171875,1.87890625,43.30647058823529,200.3049340863867
1.75490185546875,-0.55309521484375,0.4670502929687499,1.8983494976354884,-0.626953125,15.7265625,6.82958984375,43.87117647058824,200.3049340863867
1.58937451171875,-0.42516552734375,0.3859956054687499,1.6899318541242696,0.32373046875,12.7158203125,10.4228515625,44.57705882352941,200.3049340863867
1.08986279296875,-0.47399365234375,0.2844331054687499,1.2220364484934194,-0.09716796875,10.32275390625,11.69384765625,43.30647058823529,200.15097538512245
0.97706982421875,-0.36071240234375,0.3327729492187499,1.0933968695470109,-1.54931640625,5.52734375,10.1337890625,44.71823529411765,200.15097538512245
0.96290966796875,0.58215869140625,0.6106049804687499,1.2802117843625591,-2.9267578125,-3.29833984375,9.28466796875,44.01235294117648,200.15097538512245
1.32374951171875,1.28821337890625,0.7214448242187499,1.983000028683991,-3.67578125,-9.3515625,9.0,43.40058823529412,200.15097538512245
2.20705029296875,1.44299853515625,0.98316357421875,2.814236376324333,-3.8955078125,-10.62744140625,3.37158203125,44.57705882352941,200.15097538512245
2.54005810546875,0.93469775390625,0.96607373046875,2.873822110537932,-3.11962890625,-5.3544921875,-6.3466796875,44.71823529411765,200.0409277282133
1.95167919921875,-0.03112255859375,0.95923779296875,2.174892515453608,-2.78076171875,3.2685546875,-13.5458984375,44.71823529411765,200.0409277282133
1.02394482421875,-0.51207958984375,0.8454682617187499,1.4232024068812683,-1.474609375,10.7216796875,-11.68603515625,44.059411764705885,200.0409277282133
0.61134716796875,-0.85924755859375,0.7185151367187499,1.2760547513436462,-2.029296875,12.453125,-3.0380859375,44.71823529411765,200.0409277282133
0.82033154296875,-0.81920849609375,0.4265229492187499,1.2353008648389807,-2.15234375,8.57421875,4.49658203125,43.96529411764706,199.87668815862327
1.24953076171875,-0.47545849609375,0.4001557617187499,1.3955330664752748,-1.97705078125,1.95361328125,8.28271484375,43.777058823529416,199.87668815862327
1.43947216796875,-0.02184521484375,0.4704682617187499,1.514561890796439,-1.26953125,-5.4306640625,7.58740234375,44.62411764705882,199.87668815862327
1.25050732421875,0.13538134765625,0.5681245117187499,1.380167431159578,-1.2763671875,-10.53173828125,3.58935546875,44.01235294117648,199.87668815862327
0.86525341796875,0.31506884765625,0.7590424804687499,1.1933471176594823,-1.17138671875,-10.43798828125,0.1435546875,44.01235294117648,199.87668815862327
0.69533154296875,0.20618212890625,0.8933198242187499,1.150659521000819,-0.880859375,-5.638671875,-1.49365234375,43.87117647058824,200.1948841076864
0.75099560546875,0.07922900390625,0.8366791992187499,1.1270775114865346,-0.65185546875,-0.01318359375,-1.89697265625,44.76529411764706,200.1948841076864
0.86622998046875,0.0201469726562499,0.6755463867187499,1.098691585559324,-0.4453125,2.3271484375,-1.9970703125,43.82411764705883,200.1948841076864
0.75880810546875,-0.08629833984375,0.5500581054687499,0.9411700504036088,-0.4912109375,1.7998046875,-2.2705078125,43.96529411764706,200.1948841076864
0.71144482421875,-0.21520458984375,0.4548432617187499,0.8714064184572065,-0.6396484375,-0.3935546875,-1.443359375,43.68294117647059,200.2382389043136
0.80617138671875,-0.26940380859375,0.4348237304687499,0.954757766885198,-0.56298828125,-2.8994140625,-0.220703125,43.96529411764706,200.2382389043136
0.81251904296875,-0.28600537109375,0.4963471679687499,0.9941563149887072,-0.69140625,-4.94189453125,0.97607421875,43.96529411764706,200.2382389043136
0.75734326171875,-0.26696240234375,0.5959565429687499,1.0000009707211313,-0.68798828125,-5.29736328125,1.8203125,43.96529411764706,200.2382389043136
0.66847607421875,-0.15856396484375,0.6843354492187499,0.9696998503698504,-0.3720703125,-3.55810546875,1.587890625,43.30647058823529,200.2382389043136
0.63527294921875,-0.14098583984375,0.7434174804687499,0.987986982359606,-0.78271484375,-2.12890625,0.7080078125,44.01235294117648,200.12874423994367
0.63771435546875,-0.24108349609375,0.6662690429687499,0.9532655919932296,-0.55078125,-1.609375,1.27392578125,43.96529411764706,200.12874423994367
0.71242138671875,-0.10143505859375,0.5817963867187499,0.9253757825689936,-0.54638671875,-2.3603515625,1.9501953125,43.30647058823529,200.12874423994367
0.71144482421875,-0.03795849609375,0.6032807617187499,0.9335642788760196,-0.38916015625,-3.06005859375,1.69189453125,44.01235294117648,200.12874423994367
0.68410107421875,0.0235649414062499,0.6023041992187499,0.911767478366753,-0.37548828125,-3.16650390625,1.04833984375,43.777058823529416,199.7774825551804
0.68703076171875,-0.03209912109375,0.5905854492187499,0.9065499401311268,-0.24462890625,-2.4658203125,-0.0322265625,43.87117647058824,199.7774825551804
0.73146435546875,-0.03112255859375,0.5222260742187499,0.8992934946771618,0.04296875,-1.701171875,-0.4462890625,43.96529411764706,199.7774825551804
0.83595654296875,-0.04479443359375,0.4768159179687499,0.9634227019546664,0.18798828125,-1.95849609375,-0.4931640625,43.30647058823529,199.7774825551804
0.88039013671875,-0.09411083984375,0.4382416992187499,0.9879268343060088,0.31884765625,-2.79931640625,-0.205078125,43.82411764705883,199.7774825551804
0.90431591796875,-0.12340771484375,0.4314057617187499,1.0095185361442127,0.13037109375,-3.970703125,0.015625,43.96529411764706,200.13958295821624
0.92921826171875,-0.10485302734375,0.4377534179687499,1.0325060727172928,-0.0556640625,-4.7158203125,-0.04345703125,43.30647058823529,200.13958295821624
0.94240185546875,-0.08434521484375,0.4909760742187499,1.065970392606303,-0.17236328125,-4.84130859375,-0.41455078125,44.57705882352941,200.13958295821624
0.91310498046875,-0.07360302734375,0.5476166992187499,1.0672685511408269,-0.1279296875,-4.75537109375,-0.5400390625,43.96529411764706,200.13958295821624
0.88722607421875,-0.04918896484375,0.5993745117187499,1.0718392912811625,-0.23095703125,-4.33154296875,-0.4833984375,43.777058823529416,200.1618140699645
0.90382763671875,-0.06627880859375,0.5935151367187499,1.0833085870976396,-0.26220703125,-3.732421875,-0.5771484375,43.30647058823529,200.1618140699645
0.94777294921875,-0.10143505859375,0.5651948242187499,1.1081551442403668,-0.314453125,-3.166015625,-1.0302734375,43.777058823529416,200.1618140699645
0.90968701171875,-0.12584912109375,0.5232026367187499,1.0569339901996295,-0.29638671875,-2.9833984375,-1.162109375,43.54176470588236,200.1618140699645
0.91212841796875,-0.12291943359375,0.4807221679687499,1.038355064897243,-0.34619140625,-2.92333984375,-0.85400390625,43.87117647058824,200.1618140699645
0.98781201171875,-0.09118115234375,0.4514252929687499,1.0898951179680088,-0.3125,-2.78857421875,-0.89697265625,43.96529411764706,200.35912738766777
0.94728466796875,-0.06286083984375,0.4392182617187499,1.0460460834885654,-0.30615234375,-2.666015625,-0.92333984375,43.87117647058824,200.35912738766777
0.86085888671875,-0.04381787109375,0.4343354492187499,0.965217753213174,-0.14306640625,-2.7568359375,-0.6376953125,44.15352941176471,200.35912738766777
0.84767529296875,-0.01500927734375,0.4226166992187499,0.9473033068529788,-0.05859375,-2.826171875,-0.67333984375,43.96529411764706,200.35912738766777
0.90822216796875,-0.00084912109375,0.4250581054687499,1.002767480735774,-0.0283203125,-2.67578125,-1.42529296875,43.40058823529412,199.8983655884391
0.90040966796875,-0.04723583984375,0.4299409179687499,0.9989083980431592,-0.06640625,-2.0712890625,-2.21630859375,43.447647058823534,199.8983655884391
0.88331982421875,-0.10729443359375,0.4377534179687499,0.9916622722889936,0.04443359375,-1.80615234375,-2.32421875,44.01235294117648,199.8983655884391
0.84425732421875,-0.15661083984375,0.4450776367187499,0.9671563924002756,0.18212890625,-2.03076171875,-1.72509765625,43.87117647058824,199.8983655884391
0.82033154296875,-0.20543896484375,0.4826752929687499,0.9737168207995742,0.49951171875,-2.2890625,-0.96337890625,43.30647058823529,199.8983655884391
0.82179638671875,-0.20202099609375,0.5217377929687499,0.994169054385926,0.4228515625,-2.37646484375,-0.35205078125,43.82411764705883,200.31521813824395
0.76564404296875,-0.19030224609375,0.5105073242187499,0.9397039286301015,0.43359375,-2.083984375,0.4345703125,43.777058823529416,200.31521813824395
0.72267529296875,-0.14733349609375,0.4797456054687499,0.8798423632135777,0.38037109375,-1.89453125,1.3486328125,43.96529411764706,200.31521813824395
0.75587841796875,-0.13219677734375,0.4509370117187499,0.8900406503238205,0.3466796875,-2.2373046875,1.60986328125,44.53,200.31521813824395
0.87062451171875,-0.13854443359375,0.4074799804687499,0.9711959302674912,0.3583984375,-2.7314453125,1.42578125,43.777058823529416,200.00785848170608
0.96437451171875,-0.16491162109375,0.3737885742187499,1.047345186574623,0.41162109375,-3.01123046875,1.53125,43.87117647058824,200.00785848170608
0.96632763671875,-0.22106396484375,0.3542573242187499,1.0526901869978231,0.64990234375,-3.150390625,1.93701171875,44.01235294117648,200.00785848170608
0.92287060546875,-0.25573193359375,0.3132416992187499,1.0075759715412556,0.85693359375,-2.9873046875,2.72998046875,43.82411764705883,200.00785848170608
0.96388623046875,-0.25133740234375,0.2741791992187499,1.0331608724629455,0.9287109375,-2.64599609375,3.49072265625,44.059411764705885,200.00785848170608
1.07619091796875,-0.23229443359375,0.2351166992187499,1.1258008074471175,1.01513671875,-2.26416015625,3.765625,43.87117647058824,200.3163277496752
1.16554638671875,-0.16637646484375,0.1804291992187499,1.1911062939879702,1.00439453125,-1.80029296875,3.78271484375,43.96529411764706,200.3163277496752
1.20949169921875,-0.08678662109375,0.1652924804687499,1.223815219785831,0.9287109375,-1.7587890625,3.8408203125,43.40058823529412,200.3163277496752
1.23976513671875,-0.04284130859375,0.1789643554687499,1.253348001344252,0.8994140625,-2.96728515625,3.8486328125,44.01235294117648,200.3163277496752
1.22658154296875,0.0216118164062499,0.2048432617187499,1.243756452860267,0.88330078125,-4.3720703125,3.61962890625,43.82411764705883,199.88807977279365
1.16994091796875,0.08460009765625,0.2536713867187499,1.200111703342994,0.982421875,-5.14013671875,2.8759765625,43.40058823529412,199.88807977279365
1.06837841796875,0.12317431640625,0.2956635742187499,1.1153570304271911,1.07373046875,-5.0615234375,2.3056640625,43.49470588235295,199.88807977279365
0.99367138671875,0.12903369140625,0.3254487304687499,1.0535413586875495,1.20654296875,-4.35009765625,1.7197265625,44.62411764705882,199.88807977279365
0.94777294921875,0.10754931640625,0.3200776367187499,1.0061262904117547,1.32080078125,-3.51171875,0.94677734375,44.01235294117648,199.88807977279365
0.92238232421875,0.08997119140625,0.2844331054687499,0.969425685032556,1.3388671875,-3.064453125,0.37548828125,43.777058823529416,200.1948841076864
0.94044873046875,0.08167041015625,0.2624604492187499,0.9797955694630802,1.3642578125,-2.90185546875,-0.005859375,43.30647058823529,200.1948841076864
0.98927685546875,0.06213916015625,0.2419526367187499,1.0203288932526695,1.37255859375,-2.91943359375,-0.47705078125,43.82411764705883,200.1948841076864
0.98195263671875,0.04797900390625,0.2136323242187499,1.0060674607231102,1.3994140625,-2.71142578125,-0.7958984375,43.87117647058824,200.1948841076864
1.02199169921875,0.03235400390625,0.2233979492187499,1.0466233604100077,1.521484375,-3.02685546875,-1.01171875,44.059411764705885,199.98673427998267
1.03468701171875,0.01038134765625,0.2097260742187499,1.055779338122245,1.39892578125,-3.51806640625,-1.40185546875,43.82411764705883,199.98673427998267
1.03273388671875,0.0196586914062499,0.2536713867187499,1.0636140829101672,1.43212890625,-3.97265625,-1.86474609375,44.62411764705882,199.98673427998267
1.02247998046875,-0.03551708984375,0.2678315429687499,1.0575729334373898,1.40673828125,-4.1806640625,-2.4619140625,43.30647058823529,199.98673427998267
1.00294873046875,-0.05797802734375,0.2917573242187499,1.0461309401020673,1.154296875,-4.2744140625,-2.96484375,44.29470588235294,199.98673427998267
0.97414013671875,-0.03258740234375,0.3381440429687499,1.0316745313097488,1.18994140625,-4.064453125,-3.11474609375,44.059411764705885,200.2176703861317
1.03419873046875,-0.09459912109375,0.3210541992187499,1.0870104905891558,1.37939453125,-3.01123046875,-3.17431640625,44.43588235294118,200.2176703861317
1.02687451171875,-0.16295849609375,0.2717377929687499,1.074647924854594,1.3115234375,-1.4375,-2.77490234375,43.87117647058824,200.2176703861317
0.90578076171875,-0.18737255859375,0.2067963867187499,0.9477932314453916,0.9033203125,-0.73486328125,-1.39697265625,43.96529411764706,200.2176703861317
0.88234326171875,-0.15221630859375,0.1428315429687499,0.9066974609919364,0.2763671875,-1.1005859375,-0.478515625,43.87117647058824,200.22795435310428
0.99171826171875,-0.16930615234375,0.1330659179687499,1.0148281738170113,-0.265625,-1.63916015625,-1.0439453125,44.62411764705882,200.22795435310428
0.99367138671875,-0.21862255859375,0.1189057617187498,1.0243618638350207,-0.69677734375,-2.42919921875,-1.4501953125,44.71823529411765,200.22795435310428
1.01417919921875,-0.26549755859375,0.1452729492187499,1.0583726335851378,-1.00634765625,-2.9404296875,-0.865234375,43.777058823529416,200.22795435310428
1.06886669921875,-0.25963818359375,0.1672456054687499,1.112591164636524,-1.0625,-2.9619140625,0.1357421875,43.96529411764706,200.22795435310428
1.15822216796875,-0.16051708984375,0.1657807617187499,1.1809858540482978,-1.01318359375,-2.80908203125,0.6640625,44.059411764705885,200.0186972320564
1.21095654296875,-0.08922802734375,0.1506440429687499,1.223548535001556,-1.087890625,-2.9775390625,0.15771484375,44.53,200.0186972320564
1.17140576171875,-0.03747021484375,0.1462495117187499,1.1810945750727564,-1.09619140625,-3.2763671875,-0.62353515625,43.54176470588236,200.0186972320564
1.14747998046875,-0.03454052734375,0.1467377929687499,1.157339765795286,-1.0947265625,-3.45703125,-1.1376953125,43.96529411764706,200.0186972320564
1.15187451171875,-0.07360302734375,0.1682221679687499,1.1664180186269328,-0.986328125,-3.25244140625,-1.54248046875,43.96529411764706,200.1292980563508
1.08302685546875,-0.08141552734375,0.1721284179687499,1.0996380541030828,-0.849609375,-2.76416015625,-1.5791015625,44.059411764705885,200.1292980563508
1.02052685546875,-0.05065380859375,0.1560151367187499,1.0336254611528093,-0.83984375,-2.38623046875,-1.1396484375,43.82411764705883,200.1292980563508
1.07374951171875,-0.00622021484375,0.1516206054687499,1.0844194359156731,-0.8193359375,-1.94091796875,-1.14404296875,43.96529411764706,200.1292980563508
1.07228466796875,0.06653369140625,0.1389252929687499,1.08329191738859,-0.7646484375,-1.61962890625,-1.6337890625,43.96529411764706,200.1292980563508
0.99171826171875,0.06506884765625,0.1169526367187498,1.0007082415955408,-0.64013671875,-1.04052734375,-2.24267578125,43.82411764705883,200.2285089706971
0.89650341796875,0.03723681640625,0.0764252929687498,0.900525282449684,-0.6162109375,-0.4521484375,-2.58447265625,44.01235294117648,200.2285089706971
0.93410107421875,0.0186821289062499,0.0461518554687498,0.9354270856460704,-0.658203125,-0.1845703125,-2.6396484375,43.82411764705883,200.2285089706971
1.00099560546875,0.00403369140625,0.0339448242187498,1.0015791151603315,-0.818359375,-0.154296875,-2.60205078125,43.87117647058824,200.2285089706971
0.99415966796875,-0.01452099609375,0.0163666992187498,0.9944004090840908,-0.92236328125,-0.201171875,-2.64599609375,43.96529411764706,200.22795435310428
0.96925732421875,-0.00426708984375,0.0095307617187498,0.9693135736315496,-0.90576171875,-0.671875,-2.5380859375,43.777058823529416,200.22795435310428
0.97072216796875,-0.02868115234375,-0.0104887695312501,0.9712024249207758,-1.03955078125,-1.1025390625,-2.38330078125,43.96529411764706,200.22795435310428
0.97072216796875,0.0157524414062499,0.0222260742187498,0.9711043533891632,-1.0810546875,-1.48486328125,-2.11328125,44.01235294117648,200.22795435310428
0.94533154296875,0.09778369140625,0.0398041992187498,0.9512085737166988,-0.92724609375,-1.37109375,-2.06298828125,44.57705882352941,200.22795435310428
0.93312451171875,0.18762744140625,0.0300385742187498,0.9522750270169364,-0.7080078125,-0.27392578125,-2.57275390625,43.63588235294118,199.91031034231463
0.97169873046875,0.25793994140625,0.0290620117187498,1.005771364024837,-0.2783203125,0.751953125,-3.62353515625,43.54176470588236,199.91031034231463
0.97804638671875,0.25256884765625,-0.0358793945312501,1.010768563189387,0.04833984375,1.736328125,-4.2197265625,43.96529411764706,199.91031034231463
0.92384716796875,0.18225634765625,-0.0480864257812501,0.9428803054308068,0.20458984375,2.00634765625,-3.95263671875,43.96529411764706,199.91031034231463
0.88917919921875,0.09143603515625,-0.0407622070312501,0.8947970464694499,0.57177734375,1.50390625,-3.341796875,43.68294117647059,200.20572278638448
0.81593701171875,0.00842822265625,-0.0392973632812501,0.8169262664344472,0.66796875,0.68408203125,-2.98583984375,44.059411764705885,200.20572278638448
0.75587841796875,-0.02721630859375,-0.0334379882812501,0.7571069998782917,0.79248046875,-0.115234375,-2.2548828125,43.82411764705883,200.20572278638448
0.79152294921875,-0.02135693359375,-0.0026762695312501,0.7918155468106695,0.9052734375,-0.8486328125,-1.8818359375,44.01235294117648,200.20572278638448
0.90480419921875,0.04358447265625,0.0573823242187498,0.907668979481701,1.04541015625,-1.56787109375,-1.79296875,43.87117647058824,200.20572278638448
0.94337841796875,0.03186572265625,0.1027924804687498,0.9494970025284676,1.1318359375,-1.67431640625,-1.599609375,43.777058823529416,200.17265276844745
0.97121044921875,0.06311572265625,0.1921479492187499,0.9920454452831676,1.3125,-1.20947265625,-0.88916015625,43.30647058823529,200.17265276844745
0.97560498046875,0.07190478515625,0.2180268554687499,1.002253004859246,1.5146484375,-0.2509765625,-0.19140625,43.87117647058824,200.17265276844745
0.94533154296875,0.05530322265625,0.2009370117187499,0.9680319494966608,1.607421875,0.8935546875,0.1630859375,44.01235294117648,200.17265276844745
0.92384716796875,0.00842822265625,0.1477143554687499,0.9356196639193574,1.58984375,2.11376953125,0.3984375,43.96529411764706,200.19543845821403
0.98341748046875,-0.00329052734375,0.0813081054687498,0.9867784839955832,1.5986328125,2.3818359375,0.5458984375,44.01235294117648,200.19543845821403
1.09035107421875,0.0172172851562499,0.0339448242187498,1.0910151928590983,1.63916015625,1.896484375,0.55419921875,43.82411764705883,200.19543845821403
1.18410107421875,0.04700244140625,0.0022065429687498,1.1850356333444234,1.775390625,0.701171875,0.46875,44.43588235294118,200.19543845821403
1.20656201171875,0.06555712890625,0.0085541992187498,1.2083719624343747,1.79443359375,-0.62451171875,0.744140625,43.82411764705883,200.19543845821403
1.16212841796875,0.09338916015625,0.0310151367187498,1.1662872432599622,1.76220703125,-1.3505859375,1.15234375,43.87117647058824,200.22740018469807
1.12160107421875,0.09534228515625,0.0608002929687498,1.1272869185138965,1.6806640625,-1.4296875,1.1650390625,43.82411764705883,200.22740018469807
1.04298779296875,0.10168994140625,0.0871674804687498,1.0515524476298368,1.5634765625,-0.96044921875,0.9482421875,44.01235294117648,200.22740018469807
0.98097607421875,0.12122119140625,0.0910737304687498,0.9926243296519968,1.47265625,-0.3505859375,0.82763671875,43.96529411764706,200.22740018469807
0.99025341796875,0.13586962890625,0.0651948242187498,1.0016550069573993,1.45458984375,0.0546875,0.57568359375,43.87117647058824,199.98618102191304
1.02247998046875,0.15881884765625,0.0319916992187498,1.035235338292283,1.4501953125,0.0224609375,0.435546875,43.82411764705883,199.98618102191304
1.09474560546875,0.15247119140625,-0.0085356445312501,1.1053453135240343,1.4541015625,-0.396484375,0.6455078125,44.71823529411765,199.98618102191304
1.17287060546875,0.13001025390625,-0.0041411132812501,1.1800615543744353,1.46728515625,-1.02001953125,0.64208984375,43.447647058823534,199.98618102191304
1.21974560546875,0.08411181640625,-0.0021879882812501,1.2226442356680072,1.39404296875,-1.61328125,0.34228515625,43.87117647058824,199.98618102191304
1.21583935546875,0.07288134765625,-0.0012114257812501,1.218022371180136,1.2275390625,-1.97998046875,0.19970703125,43.87117647058824,200.2165614787233
1.24122998046875,0.06506884765625,0.0251557617187498,1.2431888962251136,1.1162109375,-2.1220703125,0.2353515625,43.82411764705883,200.2165614787233
1.22560498046875,0.07532275390625,0.0373627929687498,1.2284856790798386,1.1064453125,-2.0732421875,0.224609375,43.87117647058824,200.2165614787233
1.15675732421875,0.09192431640625,0.0217377929687498,1.160607650639798,1.13818359375,-1.86669921875,0.18505859375,44.388823529411766,200.2165614787233
1.12794873046875,0.10413134765625,-0.0056059570312501,1.132759066564911,1.1904296875,-1.76318359375,0.09619140625,43.96529411764706,200.40303681886377
1.15724560546875,0.08069384765625,-0.0241606445312501,1.160307125364,1.21875,-2.017578125,-0.03662109375,44.01235294117648,200.40303681886377
1.16652294921875,0.04846728515625,-0.0305083007812501,1.167927919522856,1.1650390625,-2.60302734375,-0.02783203125,43.777058823529416,200.40303681886377
1.12843701171875,0.06848681640625,-0.0100004882812501,1.1305576248931628,1.24658203125,-3.22998046875,-0.22509765625,43.63588235294118,200.40303681886377
1.09035107421875,0.07239306640625,0.0158784179687498,1.0928670300045071,1.23876953125,-3.693359375,-0.5234375,43.82411764705883,200.40303681886377
1.09572216796875,0.06946337890625,0.0588471679687498,1.0994977123965075,1.20166015625,-3.77197265625,-0.41064453125,43.82411764705883,200.3157727193663
1.08205029296875,0.06067431640625,0.0861909179687498,1.0871720579215691,1.12353515625,-3.43798828125,-0.2421875,43.96529411764706,200.3157727193663
1.02687451171875,0.04797900390625,0.1140229492187498,1.034299028609231,1.13818359375,-2.8447265625,-0.16162109375,43.87117647058824,200.3157727193663
1.01076123046875,0.0245415039062499,0.0900971679687498,1.0150655398094603,1.138671875,-2.2294921875,-0.25341796875,43.82411764705883,200.3157727193663
1.00050732421875,0.00696337890625,0.0676362304687498,1.002815064771754,1.19970703125,-1.7099609375,-0.33056640625,44.43588235294118,200.27186344535164
0.98683544921875,-0.02428662109375,0.0471284179687498,0.9882586359749964,1.03369140625,-1.86767578125,-0.197265625,44.01235294117648,200.27186344535164
0.98830029296875,-0.03747021484375,0.0080659179687498,0.9890432473432254,0.75634765625,-2.1513671875,0.115234375,43.82411764705883,200.27186344535164
0.99220654296875,-0.02428662109375,-0.0036528320312501,0.992510456900076,0.55810546875,-2.0966796875,0.34765625,44.71823529411765,200.27186344535164
1.01515576171875,-0.01940380859375,-0.0158598632812501,1.0154650479470078,0.51416015625,-1.91845703125,0.33984375,43.30647058823529,200.27186344535164
1.00685498046875,-0.02868115234375,-0.0344145507812501,1.0078511405460469,0.53173828125,-1.4521484375,0.4853515625,43.96529411764706,200.26047037075668
1.01710888671875,-0.03356396484375,-0.0534575195312501,1.0190656178935298,0.412109375,-1.55126953125,0.95947265625,43.30647058823529,200.26047037075668
1.01613232421875,0.0235649414062499,-0.0759184570312501,1.0192368806630208,0.14501953125,-1.91796875,1.20751953125,43.96529411764706,200.26047037075668
1.02296826171875,0.06799853515625,-0.0837309570312501,1.028639265453466,0.0634765625,-1.994140625,1.01611328125,43.96529411764706,200.26047037075668
1.01222607421875,0.09534228515625,-0.0934965820312501,1.0209962720395431,0.01904296875,-1.8232421875,0.5830078125,44.57705882352941,200.1840454426291
0.97462841796875,0.10461962890625,-0.0764067382812501,0.98320079816868,0.0244140625,-1.7998046875,0.33984375,44.62411764705882,200.1840454426291
0.94386669921875,0.10999072265625,-0.0788481445312501,0.9535194465036164,0.048828125,-1.72412109375,0.19091796875,43.96529411764706,200.1840454426291
0.97023388671875,0.08801806640625,-0.0646879882812501,0.9763634112251148,0.1201171875,-1.71923828125,-0.060546875,43.40058823529412,200.1840454426291
0.99562451171875,0.06995166015625,-0.0676176757812501,1.0003667093480637,0.146484375,-1.65380859375,-0.28955078125,43.30647058823529,200.1840454426291
0.99708935546875,0.05188525390625,-0.0461333007812501,0.9995036487191912,0.1767578125,-1.52978515625,-0.21435546875,44.62411764705882,200.40414725574192
1.02247998046875,0.04651416015625,-0.0456450195312501,1.024554705890527,0.22021484375,-1.34326171875,-0.1201171875,43.777058823529416,200.40414725574192
1.04933544921875,0.04504931640625,-0.0495512695312501,1.051470234580107,0.2421875,-1.0537109375,-0.361328125,44.71823529411765,200.40414725574192
1.01710888671875,0.04114306640625,-0.0705473632812501,1.0203823645190566,0.21728515625,-0.765625,-0.45166015625,43.30647058823529,200.40414725574192
0.97658154296875,0.04651416015625,-0.0812895507812501,0.9810622142496792,0.263671875,-0.4287109375,-0.2958984375,43.96529411764706,200.40359181270708
0.98634716796875,0.04163134765625,-0.1032622070312501,0.9926111969288952,0.2578125,-0.35009765625,-0.24169921875,43.96529411764706,200.40359181270708
1.02589794921875,0.03284228515625,-0.1100981445312501,1.032311396495624,0.3544921875,-0.5185546875,-0.40185546875,43.96529411764706,200.40359181270708
1.03224560546875,0.03723681640625,-0.1183989257812501,1.0396806606510354,0.41748046875,-0.8154296875,-0.53271484375,44.57705882352941,200.40359181270708
1.01759716796875,0.0294243164062499,-0.1208403320312501,1.0251693384506866,0.33349609375,-1.1298828125,-0.4853515625,44.01235294117648,200.40359181270708
1.00831982421875,0.06067431640625,-0.1140043945312501,1.016556561415219,0.2392578125,-1.2607421875,-0.44775390625,43.82411764705883,200.35968217514807
1.03078076171875,0.09338916015625,-0.0851958007812501,1.0385031720870836,0.17236328125,-1.3046875,-0.55224609375,43.82411764705883,200.35968217514807
1.05665966796875,0.09338916015625,-0.0676176757812501,1.0629314837865032,0.12890625,-1.31005859375,-0.70166015625,43.87117647058824,200.35968217514807
1.06544873046875,0.08362353515625,-0.0505278320312501,1.0699191346542405,0.11376953125,-1.08984375,-0.76220703125,43.82411764705883,200.35968217514807
1.07228466796875,0.07190478515625,-0.0568754882812501,1.07619678890826,0.12646484375,-0.8193359375,-0.92626953125,44.57705882352941,200.27186344535164
1.07814404296875,0.06213916015625,-0.0720122070312501,1.0823315622190075,0.11181640625,-0.4873046875,-1.0712890625,43.777058823529416,200.27186344535164
1.06154248046875,0.03967822265625,-0.1100981445312501,1.0679739700115023,0.0576171875,-0.26123046875,-1.0126953125,43.54176470588236,200.27186344535164
1.04152294921875,0.0304008789062499,-0.1310942382812501,1.0501809208408506,-0.01953125,-0.2666015625,-0.79736328125,43.40058823529412,200.27186344535164
1.06447216796875,0.03235400390625,-0.1403715820312501,1.074175013203534,-0.0439453125,-0.53759765625,-0.5439453125,43.30647058823529,200.27186344535164
1.08790966796875,0.0216118164062499,-0.1398833007812501,1.0970787820870984,-0.01708984375,-0.81640625,-0.43310546875,43.87117647058824,200.3380049351325
1.05812451171875,0.0221000976562499,-0.1310942382812501,1.0664434330647832,0.00244140625,-1.076171875,-0.5322265625,43.82411764705883,200.3380049351325
1.04640576171875,0.0299125976562499,-0.1159575195312501,1.0532359317800464,0.0029296875,-1.177734375,-0.89892578125,43.30647058823529,200.3380049351325
1.02492138671875,0.03821337890625,-0.0993559570312501,1.0304347225702917,-0.01953125,-1.017578125,-0.9755859375,44.01235294117648,200.3380049351325
1.03078076171875,0.01038134765625,-0.0915434570312501,1.034889827775826,-0.07666015625,-0.6064453125,-0.64501953125,44.57705882352941,200.3049340863867
1.07179638671875,0.0186821289062499,-0.0886137695312501,1.0756155989359657,-0.11962890625,-0.2451171875,-0.255859375,43.82411764705883,200.3049340863867
1.06349560546875,0.04749072265625,-0.0988676757812501,1.0691366090935912,-0.15380859375,0.12744140625,-0.517578125,44.57705882352941,200.3049340863867
1.01857373046875,0.06799853515625,-0.1091215820312501,1.026656595385928,-0.00146484375,-0.0703125,-0.76171875,44.76529411764706,200.3049340863867
1.01515576171875,0.04407275390625,-0.1096098632812501,1.0220068249851324,-0.2197265625,-0.3720703125,-0.26513671875,44.57705882352941,200.3049340863867
1.03615185546875,0.03626025390625,-0.1154692382812501,1.043196347095757,-0.29833984375,-0.46142578125,0.46484375,43.68294117647059,200.07399718241652
1.02980419921875,0.04163134765625,-0.1183989257812501,1.0374238109193372,-0.28271484375,-0.33984375,0.46630859375,43.30647058823529,200.07399718241652
1.00880810546875,0.06409228515625,-0.1135161132812501,1.017195911636731,-0.2646484375,-0.19189453125,-0.0341796875,43.82411764705883,200.07399718241652
0.98585888671875,0.07239306640625,-0.1120512695312501,0.9948437000803684,-0.21923828125,-0.1044921875,-0.27978515625,43.777058823529416,200.07399718241652
0.97951123046875,0.09045947265625,-0.0959379882812501,0.9883467328843176,-0.2314453125,-0.08349609375,-0.23388671875,43.87117647058824,200.08538950325624
1.00490185546875,0.09827197265625,-0.0778715820312501,1.0126939829101076,-0.25927734375,0.13427734375,-0.02392578125,43.82411764705883,200.08538950325624
1.04396435546875,0.11389697265625,-0.0793364257812501,1.0531516340609672,-0.25244140625,0.5517578125,0.0302734375,43.96529411764706,200.08538950325624
1.07130810546875,0.11340869140625,-0.0934965820312501,1.0813437006710895,-0.23681640625,0.84033203125,0.03515625,44.53,200.08538950325624
1.08058544921875,0.09827197265625,-0.1223051757812501,1.0919161367504011,-0.19580078125,0.8388671875,0.201171875,44.76529411764706,200.08538950325624
1.08302685546875,0.08557666015625,-0.1447661132812501,1.0960053658557458,-0.208984375,0.54296875,0.32861328125,43.82411764705883,200.22795435310428
1.06984326171875,0.08801806640625,-0.1564848632812501,1.0848038058077878,-0.21826171875,0.09375,0.3359375,43.40058823529412,200.22795435310428
1.02931591796875,0.08264697265625,-0.1369536132812501,1.0416708084917634,-0.17724609375,-0.14111328125,0.32666015625,43.82411764705883,200.22795435310428
0.99611279296875,0.08655322265625,-0.1232817382812501,1.0074376127889175,-0.21533203125,-0.068359375,0.25439453125,43.96529411764706,200.22795435310428
0.98488232421875,0.10022509765625,-0.1188872070312501,0.9970819578923406,-0.22900390625,0.12451171875,0.40478515625,43.82411764705883,200.0089652041788
1.01027294921875,0.10901416015625,-0.1096098632812501,1.0220322114132498,-0.2216796875,0.3935546875,0.33544921875,43.87117647058824,200.0089652041788
1.03615185546875,0.11389697265625,-0.1076567382812501,1.047937575082099,-0.12841796875,0.50244140625,0.16064453125,44.62411764705882,200.0089652041788
1.00490185546875,0.12708056640625,-0.1198637695312501,1.0199728097988254,-0.0810546875,0.7548828125,0.134765625,43.96529411764706,200.0089652041788
0.99855419921875,0.12122119140625,-0.1369536132812501,1.0151656801794178,-0.13623046875,0.53955078125,0.29736328125,43.30647058823529,200.0089652041788
1.03078076171875,0.12170947265625,-0.1364653320312501,1.0468738994311342,-0.150390625,0.28125,0.37060546875,44.01235294117648,200.06315848528155
1.05421826171875,0.11780322265625,-0.1330473632812501,1.0690908958014722,-0.173828125,0.1962890625,0.2841796875,44.01235294117648,200.06315848528155
1.02247998046875,0.12659228515625,-0.1340239257812501,1.0389674344281803,-0.09912109375,0.173828125,0.31591796875,44.57705882352941,200.06315848528155
1.03859326171875,0.13098681640625,-0.1359770507812501,1.0556151134286604,-0.0751953125,0.001953125,0.201171875,44.01235294117648,200.06315848528155
1.05568310546875,0.11585009765625,-0.1408598632812501,1.071321410867308,-0.08544921875,-0.3203125,0.27099609375,43.82411764705883,200.51364462519768
1.07033154296875,0.09631884765625,-0.1481840820312501,1.0848250801189736,-0.1533203125,-0.5263671875,0.46044921875,43.82411764705883,200.51364462519768
1.05177685546875,0.10266650390625,-0.1579497070312501,1.0685144241774756,-0.16162109375,-0.39111328125,0.484375,44.62411764705882,200.51364462519768
1.01662060546875,0.11438525390625,-0.1667387695312501,1.03653425367406,-0.1669921875,-0.1982421875,0.30126953125,44.01235294117648,200.51364462519768
0.98097607421875,0.12610400390625,-0.1794340820312501,1.00519295052503,-0.19189453125,-0.17529296875,0.33544921875,43.96529411764706,200.51364462519768
1.01271435546875,0.12024462890625,-0.1867583007812501,1.0367872488914915,-0.30078125,-0.40283203125,0.47705078125,44.76529411764706,200.03008901128857
1.02687451171875,0.12366259765625,-0.1848051757812501,1.050674380515796,-0.3369140625,-0.5654296875,0.54638671875,43.87117647058824,200.03008901128857
1.02589794921875,0.12073291015625,-0.1813872070312501,1.0487823209229987,-0.31494140625,-0.6669921875,0.4921875,43.96529411764706,200.03008901128857
1.04298779296875,0.10950244140625,-0.1755278320312501,1.0633082059183707,-0.251953125,-0.669921875,0.23388671875,44.01235294117648,200.03008901128857
1.06593701171875,0.08508837890625,-0.1642973632812501,1.0818758564447046,-0.18798828125,-0.63525390625,-0.00634765625,43.30647058823529,200.2821477840589
1.05568310546875,0.06702197265625,-0.1491606445312501,1.068273214991304,-0.1552734375,-0.39013671875,-0.1689453125,43.96529411764706,200.2821477840589
1.03859326171875,0.06604541015625,-0.1306059570312501,1.048854554026605,-0.15478515625,-0.10791015625,0.0576171875,43.30647058823529,200.2821477840589
1.06007763671875,0.08801806640625,-0.1286528320312501,1.0714771705803006,-0.1201171875,0.12939453125,-0.068359375,43.87117647058824,200.2821477840589
1.08839794921875,0.10071337890625,-0.1340239257812501,1.101233714175203,-0.10791015625,0.2978515625,-0.41455078125,44.62411764705882,200.2821477840589
1.12550732421875,0.09387744140625,-0.1398833007812501,1.1380452753350774,-0.0166015625,0.57666015625,-0.869140625,43.82411764705883,200.31521813824395
1.07228466796875,0.07922900390625,-0.1564848632812501,1.0865353913504063,0.0458984375,0.8369140625,-0.986328125,44.01235294117648,200.31521813824395
1.12355419921875,0.05725634765625,-0.1481840820312501,1.1347294171283586,0.16357421875,0.990234375,-1.2958984375,44.76529411764706,200.31521813824395
1.11330029296875,0.04309619140625,-0.1437895507812501,1.123374496306509,0.3095703125,1.52294921875,-1.5048828125,43.96529411764706,200.31521813824395
1.07228466796875,-0.00182568359375,-0.1701567382812501,1.0857030247097734,0.345703125,1.86962890625,-1.68505859375,43.87117647058824,200.282702098116
1.09669873046875,-0.00329052734375,-0.1931059570312501,1.1135748037841566,0.36328125,2.00537109375,-1.64794921875,43.82411764705883,200.282702098116
1.05324169921875,0.0191704101562499,-0.2126372070312501,1.0746628138224612,0.28857421875,1.78369140625,-0.9541015625,43.96529411764706,200.282702098116
1.05177685546875,0.0308891601562499,-0.2253325195312501,1.0760870960443638,0.14306640625,1.138671875,0.04296875,43.96529411764706,200.282702098116
1.05861279296875,0.07385791015625,-0.2336333007812501,1.0866004581094602,0.0537109375,0.31396484375,0.2587890625,44.01235294117648,200.282702098116
1.03322216796875,0.10754931640625,-0.2136137695312501,1.0605403086987528,0.02734375,-0.4521484375,-0.17333984375,44.57705882352941,200.19543845821403
0.99611279296875,0.11487353515625,-0.1716215820312501,1.017295725349422,0.08056640625,-1.005859375,-0.41748046875,44.76529411764706,200.19543845821403
0.95607373046875,0.11194384765625,-0.1149809570312501,0.9694477931277888,0.12841796875,-1.22900390625,-0.28857421875,44.01235294117648,200.19543845821403
0.95021435546875,0.10901416015625,-0.0573637695312501,0.9581659618814994,0.12939453125,-0.9892578125,-0.11376953125,43.777058823529416,200.19543845821403
0.97902294921875,0.10461962890625,-0.0358793945312501,0.9852504924136752,0.115234375,-0.33740234375,-0.1953125,44.01235294117648,200.07455085318264
1.01271435546875,0.10168994140625,-0.0495512695312501,1.0190125309670393,0.1552734375,0.3671875,-0.244140625,43.96529411764706,200.07455085318264
1.04298779296875,0.09045947265625,-0.0861723632812501,1.0504437770145276,0.2021484375,0.73095703125,-0.09130859375,43.63588235294118,200.07455085318264
1.06837841796875,0.08899462890625,-0.1335356445312501,1.0803630206166568,0.22314453125,0.5556640625,0.1328125,44.01235294117648,200.07455085318264
1.08790966796875,0.08118212890625,-0.1647856445312501,1.1033096992038125,0.19189453125,0.18896484375,0.40087890625,44.53,200.07455085318264
1.07765576171875,0.07825244140625,-0.1667387695312501,1.0932827642547254,0.15478515625,-0.02197265625,0.5615234375,43.96529411764706,200.36023741182
1.08449169921875,0.08704150390625,-0.1623442382812501,1.1000246000793588,0.14306640625,-0.158203125,0.56640625,44.57705882352941,200.36023741182
1.06300732421875,0.09485400390625,-0.1618559570312501,1.07943466880875,0.09912109375,-0.20166015625,0.5458984375,43.96529411764706,200.36023741182
1.04005810546875,0.09192431640625,-0.1540434570312501,1.0554147665027909,0.06787109375,-0.234375,0.55517578125,43.30647058823529,200.36023741182
1.03371044921875,0.10315478515625,-0.1413481445312501,1.048416663587092,0.05908203125,-0.26220703125,0.46044921875,44.76529411764706,200.1520841226335
1.02980419921875,0.12415087890625,-0.1310942382812501,1.0455122327224615,0.0771484375,-0.0390625,0.16162109375,43.82411764705883,200.1520841226335
0.99171826171875,0.13440478515625,-0.1286528320312501,1.009019974078322,0.0517578125,0.12109375,0.09375,43.30647058823529,200.1520841226335
0.99757763671875,0.14026416015625,-0.1271879882812501,1.0153875911536123,0.00390625,0.0751953125,0.234375,43.30647058823529,200.1520841226335
1.02931591796875,0.15930712890625,-0.1291411132812501,1.0495463055262135,-0.0322265625,0.08251953125,0.2294921875,44.059411764705885,200.1520841226335
1.04640576171875,0.17444384765625,-0.1183989257812501,1.0674333608096895,-0.0283203125,0.13671875,0.07568359375,43.87117647058824,200.10706684432083
1.04152294921875,0.17883837890625,-0.1052153320312501,1.061990341582062,-0.0322265625,0.22021484375,-0.08056640625,43.30647058823529,200.10706684432083
1.01710888671875,0.16467822265625,-0.1091215820312501,1.0361162695974229,-0.06494140625,0.27392578125,-0.1064453125,43.87117647058824,200.10706684432083
1.00783154296875,0.14807666015625,-0.1105864257812501,1.02463675214823,-0.1044921875,0.22900390625,-0.09326171875,43.63588235294118,200.10706684432083
1.01027294921875,0.13733447265625,-0.1066801757812501,1.0251306498235433,-0.12939453125,0.208984375,-0.171875,44.57705882352941,200.19543845821403
1.01710888671875,0.14563525390625,-0.0959379882812501,1.0319516520738976,-0.1630859375,0.22412109375,-0.21826171875,43.68294117647059,200.19543845821403
1.05617138671875,0.13049853515625,-0.0930083007812501,1.068259523625018,-0.1416015625,0.28564453125,-0.1591796875,43.447647058823534,200.19543845821403
1.06398388671875,0.13293994140625,-0.0944731445312501,1.0764106624592018,-0.1572265625,0.41015625,-0.134765625,43.87117647058824,200.19543845821403
1.05910107421875,0.13586962890625,-0.0978911132812501,1.0722585096560786,-0.16357421875,0.44970703125,-0.10205078125,43.82411764705883,200.19543845821403
1.08449169921875,0.12317431640625,-0.0969145507812501,1.095758453332508,-0.173828125,0.310546875,-0.12841796875,44.01235294117648,200.29409546705284
1.05519482421875,0.11829150390625,-0.1057036132812501,1.067053068415603,-0.16748046875,0.3681640625,-0.123046875,44.059411764705885,200.29409546705284
1.02443310546875,0.10803759765625,-0.1027739257812501,1.0352283757259415,-0.1708984375,0.39990234375,-0.10888671875,43.54176470588236,200.29409546705284
1.04884716796875,0.09436572265625,-0.1232817382812501,1.060275274804685,-0.1630859375,0.32666015625,-0.044921875,43.63588235294118,200.29409546705284
1.07374951171875,0.08460009765625,-0.1115629882812501,1.0828395498844432,-0.1044921875,0.1025390625,-0.17333984375,43.87117647058824,200.4144304470296
1.07081982421875,0.08069384765625,-0.0993559570312501,1.078442487658494,-0.08740234375,-0.0732421875,-0.158203125,43.40058823529412,200.4144304470296
1.05372998046875,0.07239306640625,-0.0861723632812501,1.0597232204664802,-0.1103515625,0.091796875,0.15283203125,43.87117647058824,200.4144304470296
1.05763623046875,0.08460009765625,-0.0871489257812501,1.06458748244962,-0.0712890625,0.302734375,0.12451171875,43.777058823529416,200.4144304470296
1.02687451171875,0.11877978515625,-0.1091215820312501,1.0394649680698187,0.00537109375,0.33544921875,-0.19384765625,43.87117647058824,200.4144304470296
1.02492138671875,0.09338916015625,-0.1086333007812501,1.0348848139898492,-0.025390625,0.232421875,0.1455078125,43.30647058823529,200.14069091879296
1.04152294921875,0.07971728515625,-0.0959379882812501,1.0489656795612805,-0.060546875,0.26416015625,0.63232421875,43.30647058823529,200.14069091879296
1.03224560546875,0.09290087890625,-0.1027739257812501,1.041500860840542,-0.01416015625,0.39013671875,0.1904296875,44.01235294117648,200.14069091879296
1.04738232421875,0.09485400390625,-0.1242583007812501,1.0589840133146309,0.064453125,0.43017578125,-0.0751953125,44.01235294117648,200.14069091879296
1.00392529296875,0.07288134765625,-0.1496489257812501,1.017630819937203,-0.01416015625,0.4765625,0.3359375,44.71823529411765,200.1737612631496
1.00636669921875,0.05725634765625,-0.1613676757812501,1.0208289520925715,-0.1103515625,0.3828125,1.0341796875,44.01235294117648,200.1737612631496
1.00539013671875,0.04797900390625,-0.1740629882812501,1.021474050437201,-0.205078125,0.17724609375,1.296875,43.777058823529416,200.1737612631496
0.96144482421875,0.05188525390625,-0.1555083007812501,0.975321004183654,-0.41259765625,-0.2548828125,1.45654296875,43.30647058823529,200.1737612631496
0.88624951171875,0.10706103515625,-0.1037504882812501,0.8987015222469852,-0.56201171875,-0.890625,1.912109375,43.777058823529416,200.1737612631496
0.81300732421875,0.13586962890625,-0.0612700195312501,0.8265563989140811,-0.23095703125,-0.544921875,2.29345703125,44.01235294117648,200.1076207821373
0.85060498046875,0.10413134765625,-0.0109770507812501,0.8570254757046628,0.46142578125,0.00830078125,1.90478515625,43.30647058823529,200.1076207821373
1.00343701171875,0.08801806640625,-0.0114653320312501,1.00735518579076,1.08251953125,0.64208984375,0.63720703125,44.01235294117648,200.1076207821373
1.07277294921875,0.09631884765625,-0.0490629882812501,1.0782051278900546,1.17724609375,1.6728515625,-0.3837890625,44.71823529411765,200.1076207821373
1.06251904296875,0.12317431640625,-0.0881254882812501,1.0732589298851347,1.1279296875,2.26611328125,-0.47021484375,43.777058823529416,200.3049340863867
1.01759716796875,0.11926806640625,-0.1559965820312501,1.036370494334791,0.857421875,2.03759765625,-0.0595703125,43.87117647058824,200.3049340863867
0.99562451171875,0.09631884765625,-0.1906645507812501,1.0182821120267425,0.6572265625,1.6806640625,0.005859375,43.30647058823529,200.3049340863867
1.00831982421875,0.06995166015625,-0.1740629882812501,1.0256217755881285,0.6865234375,1.240234375,-0.3935546875,44.57705882352941,200.3049340863867
0.97560498046875,0.04016650390625,-0.1354887695312501,0.9857868089098032,0.78759765625,0.63134765625,-0.70849609375,43.87117647058824,200.3049340863867
0.92824169921875,-0.00573193359375,-0.0969145507812501,0.9333048469735744,0.88427734375,0.71044921875,-0.63818359375,43.68294117647059,200.2724182692976
0.88917919921875,-0.04479443359375,-0.0798247070312501,0.8938781647724187,0.96240234375,1.3466796875,-0.283203125,43.96529411764706,200.2724182692976
0.91164013671875,-0.05309521484375,-0.0651762695312501,0.9155079392478774,0.9765625,2.123046875,0.0244140625,44.62411764705882,200.2724182692976
0.95460888671875,-0.03942333984375,-0.0666411132812501,0.9577438928576948,0.99560546875,2.5185546875,0.064453125,43.30647058823529,200.2724182692976
0.95900341796875,-0.03649365234375,-0.0695708007812501,0.9622159002315832,0.96728515625,2.6171875,-0.00634765625,43.87117647058824,200.11901373871223
0.94142529296875,0.00598681640625,-0.0725004882812501,0.9442318280025296,0.86328125,2.70947265625,0.1494140625,43.87117647058824,200.11901373871223
0.94728466796875,0.06165087890625,-0.0568754882812501,0.9509910063748284,0.73486328125,2.73974609375,0.392578125,43.87117647058824,200.11901373871223
0.97023388671875,0.10315478515625,-0.0173247070312501,0.9758559576657422,0.6572265625,2.78515625,0.35400390625,43.96529411764706,200.11901373871223
0.96144482421875,0.13635791015625,0.0144135742187498,0.9711731981479732,0.6201171875,2.87744140625,-0.04931640625,43.87117647058824,200.11901373871223
0.93898388671875,0.18079150390625,0.0603120117187498,0.9581303910009832,0.68798828125,3.033203125,-0.52001953125,43.87117647058824,200.0089652041788
0.93410107421875,0.22034228515625,0.1057221679687498,0.9655427055726294,0.7939453125,3.40966796875,-0.9501953125,43.87117647058824,200.0089652041788
0.95705029296875,0.26819384765625,0.1335541992187499,1.002850899845633,0.8955078125,3.95556640625,-1.38330078125,43.30647058823529,200.0089652041788
0.97072216796875,0.30383837890625,0.1301362304687499,1.0254534247653295,1.009765625,4.869140625,-1.88232421875,43.82411764705883,200.0089652041788
0.97072216796875,0.33948291015625,0.1198823242187498,1.0353366338221577,1.11474609375,5.748046875,-2.17041015625,43.777058823529416,200.02035780740184
0.93605419921875,0.33606494140625,0.1047456054687498,1.0000543738129726,1.21142578125,6.115234375,-2.1982421875,43.82411764705883,200.02035780740184
1.01124951171875,0.16467822265625,0.0700776367187498,1.0269641508527536,1.24853515625,5.947265625,-2.396484375,43.54176470588236,200.02035780740184
1.16261669921875,-0.07116162109375,0.0134370117187498,1.164870000859719,1.025390625,6.04296875,-2.5654296875,43.82411764705883,200.02035780740184
1.39650341796875,-0.34411083984375,-0.0344145507812501,1.4386863549091746,0.72314453125,5.70361328125,-2.23974609375,43.96529411764706,200.02035780740184
1.50294873046875,-0.45397412109375,-0.0231840820312501,1.570186259874956,0.47412109375,4.8017578125,-0.4921875,43.82411764705883,200.085943562487
1.44923779296875,-0.35241162109375,-0.0309965820312501,1.4917925188673118,0.0869140625,3.19775390625,2.982421875,43.82411764705883,200.085943562487
1.22999951171875,-0.04284130859375,-0.0324614257812501,1.2311733918153611,-0.31298828125,0.29931640625,7.1611328125,43.30647058823529,200.085943562487
1.09718701171875,0.19006884765625,-0.0412504882812501,1.114292200599617,-0.8544921875,-2.73193359375,9.7734375,43.96529411764706,200.085943562487
1.14747998046875,0.35168994140625,0.0241791992187498,1.2004085780007383,-0.869140625,-4.38232421875,8.60009765625,44.01235294117648,200.2501861807453
1.22853466796875,0.41077197265625,0.0896088867187498,1.298484037830257,-0.3193359375,-4.46044921875,3.98486328125,44.01235294117648,200.2501861807453
1.12892529296875,0.38001025390625,0.1091401367187498,1.196157046387078,0.10791015625,-2.625,-0.6982421875,43.87117647058824,200.2501861807453
0.98634716796875,0.27795947265625,0.1574799804687499,1.0367941687952107,0.5107421875,-0.62451171875,-2.43408203125,43.30647058823529,200.2501861807453
0.93605419921875,0.11585009765625,0.1369721679687499,0.953089756423852,0.46630859375,0.65625,-1.90478515625,43.82411764705883,200.2501861807453
0.96583935546875,0.0172172851562499,0.1535737304687499,0.9781242181699268,0.34033203125,1.13037109375,-0.560546875,44.059411764705885,200.2615796908812
1.07765576171875,-0.03356396484375,0.1750581054687499,1.092297496468778,0.44775390625,0.794921875,0.1494140625,44.57705882352941,200.2615796908812
1.11183544921875,-0.06334912109375,0.1818940429687499,1.128395595591514,0.6962890625,-0.20947265625,0.18603515625,44.01235294117648,200.2615796908812
1.03956982421875,-0.09020458984375,0.1599213867187499,1.0556595745718076,0.861328125,-1.03076171875,0.39892578125,43.87117647058824,200.2615796908812
0.95119091796875,-0.09557568359375,0.1364838867187499,0.9656742334009448,0.99658203125,-1.0791015625,1.2177734375,44.01235294117648,200.2507411261006
0.90285107421875,-0.07897412109375,0.1125581054687498,0.913261354228457,0.93896484375,-0.33984375,2.4091796875,43.82411764705883,200.2507411261006
0.91945263671875,-0.00377880859375,0.0798432617187498,0.922920569174476,0.8564453125,1.18603515625,3.44384765625,43.82411764705883,200.2507411261006
1.01271435546875,0.08557666015625,0.0500581054687498,1.0175556714298757,0.84716796875,2.455078125,3.583984375,43.96529411764706,200.2507411261006
1.11427685546875,0.14465869140625,0.0271088867187498,1.123954598447742,0.77392578125,2.72216796875,2.78173828125,44.57705882352941,200.2507411261006
1.15382763671875,0.19690478515625,0.0144135742187498,1.1705970531293697,0.70703125,2.04150390625,1.798828125,44.71823529411765,200.04203498480163
1.14259716796875,0.18127978515625,0.0119721679687498,1.156950293470889,0.70166015625,0.69775390625,1.1728515625,43.82411764705883,200.04203498480163
1.10597607421875,0.16663134765625,0.0412690429687498,1.1192194676083922,0.64990234375,-0.7470703125,1.11572265625,43.87117647058824,200.04203498480163
1.09083935546875,0.15833056640625,0.0759370117187498,1.1048825717906747,0.6015625,-1.79541015625,1.32861328125,44.71823529411765,200.04203498480163
1.09914013671875,0.13147509765625,0.1306245117187499,1.114655778485715,0.65283203125,-2.408203125,1.4443359375,43.30647058823529,199.9764493991859
1.09865185546875,0.07776416015625,0.1535737304687499,1.1120557786459375,0.6083984375,-2.40673828125,1.39404296875,43.87117647058824,199.9764493991859
1.12746044921875,0.0216118164062499,0.2024018554687499,1.145687848525119,0.71240234375,-2.06689453125,1.1806640625,43.96529411764706,199.9764493991859
1.10499951171875,-0.01110302734375,0.2067963867187499,1.1242383838291603,0.75732421875,-1.13671875,1.09423828125,44.71823529411765,199.9764493991859
1.09474560546875,-0.05358349609375,0.2204682617187499,1.1180095644367525,0.73681640625,-0.36962890625,1.2626953125,43.68294117647059,199.9764493991859
1.09425732421875,-0.07946240234375,0.2248627929687499,1.1199449275095297,0.70947265625,0.4521484375,1.29931640625,44.059411764705885,200.19543845821403
1.05519482421875,-0.08483349609375,0.2312104492187499,1.0835548490710858,0.7568359375,1.20166015625,1.275390625,43.30647058823529,200.19543845821403
1.00294873046875,-0.08190380859375,0.2019135742187499,1.026344718535069,0.8544921875,2.12255859375,1.3046875,44.01235294117648,200.19543845821403
0.98439404296875,-0.08288037109375,0.1882416992187499,1.0056518906011966,0.9443359375,2.974609375,1.25146484375,43.30647058823529,200.19543845821403
0.97658154296875,-0.06481396484375,0.1491791992187499,0.9900337335593868,0.93505859375,3.4130859375,1.12353515625,44.01235294117648,200.3488435483224
0.99513623046875,-0.05358349609375,0.1228120117187498,1.0041165761342596,0.83447265625,3.26123046875,0.62646484375,43.96529411764706,200.3488435483224
1.02931591796875,-0.06090771484375,0.1145112304687498,1.0374554595811838,0.65380859375,2.58154296875,0.31298828125,43.82411764705883,200.3488435483224
1.06007763671875,-0.07702099609375,0.1159760742187498,1.069180658028229,0.5009765625,1.81591796875,0.22216796875,43.40058823529412,200.3488435483224
1.09425732421875,-0.09020458984375,0.1184174804687498,1.104336298106616,0.3798828125,1.2177734375,0.357421875,44.57705882352941,200.3488435483224
1.11037060546875,-0.10045849609375,0.1233002929687498,1.1217030592686446,0.21826171875,0.75927734375,0.6044921875,43.40058823529412,200.52559590865496
1.09132763671875,-0.09850537109375,0.1335541992187499,1.103873200566719,0.05126953125,0.70458984375,0.939453125,43.96529411764706,200.52559590865496
1.06154248046875,-0.10534130859375,0.1379487304687499,1.0756389177479262,-0.0888671875,0.87744140625,1.31982421875,43.82411764705883,200.52559590865496
1.07521435546875,-0.12047802734375,0.1325776367187499,1.0900356393424253,-0.25732421875,1.41064453125,1.46240234375,44.62411764705882,200.52559590865496
1.12111279296875,-0.11852490234375,0.1145112304687498,1.1331614487517894,-0.42333984375,1.71142578125,1.2783203125,44.76529411764706,200.1732067912077
1.15285107421875,-0.10387646484375,0.1120698242187498,1.1629340328566289,-0.5068359375,1.81640625,0.93701171875,44.01235294117648,200.1732067912077
1.14552685546875,-0.09850537109375,0.1047456054687498,1.1545157974663902,-0.595703125,1.6123046875,0.69384765625,43.96529411764706,200.1732067912077
1.12648388671875,-0.08288037109375,0.1027924804687498,1.1341963661511785,-0.69482421875,1.05126953125,0.6591796875,44.01235294117648,200.1732067912077
1.11622998046875,-0.06530224609375,0.1091401367187498,1.1234524120251568,-0.72412109375,0.44189453125,0.69189453125,43.96529411764706,200.1732067912077
1.10451123046875,-0.04674755859375,0.1164643554687498,1.1116178923356803,-0.7734375,0.01611328125,0.57861328125,43.96529411764706,200.4263801874206
1.07179638671875,-0.02770458984375,0.1394135742187499,1.0811804583686415,-0.79443359375,-0.1630859375,0.2861328125,43.87117647058824,200.4263801874206
1.05372998046875,-0.02135693359375,0.1457612304687499,1.0639780668129226,-0.759765625,-0.005859375,-0.01513671875,43.96529411764706,200.4263801874206
1.04933544921875,-0.03405224609375,0.1452729492187499,1.0598908765650636,-0.7333984375,0.32861328125,-0.3544921875,44.53,200.4263801874206
1.03224560546875,-0.05407177734375,0.1486909179687499,1.0443005966679555,-0.75390625,0.67529296875,-0.54833984375,44.01235294117648,200.2176703861317
0.99806591796875,-0.07164990234375,0.1384370117187499,1.0101653782080882,-0.767578125,0.7666015625,-0.5009765625,44.53,200.2176703861317
0.96095654296875,-0.08678662109375,0.1364838867187499,0.9744728043456,-0.9306640625,0.5537109375,-0.24609375,44.01235294117648,200.2176703861317
0.95802685546875,-0.08385693359375,0.1301362304687499,0.9704549858657554,-1.099609375,0.33056640625,0.388671875,43.82411764705883,200.2176703861317
1.02345654296875,-0.06920849609375,0.1501557617187499,1.0367255490506837,-1.18212890625,0.150390625,0.310546875,44.57705882352941,200.2176703861317
1.03322216796875,-0.07555615234375,0.1687104492187499,1.049628503907277,-1.14306640625,0.080078125,-0.24853515625,43.96529411764706,200.03064247570148
1.00636669921875,-0.08581005859375,0.1716401367187499,1.024498724247686,-1.1171875,0.2626953125,-0.8466796875,44.01235294117648,200.03064247570148
0.98097607421875,-0.10192333984375,0.1604096679687499,0.9992165365787236,-1.23681640625,0.63427734375,-0.98095703125,43.30647058823529,200.03064247570148
0.97853466796875,-0.10143505859375,0.1828706054687499,1.0006302143515038,-1.3916015625,1.06787109375,-0.58984375,44.71823529411765,200.03064247570148
0.97511669921875,-0.11901318359375,0.1662690429687499,0.9963242994196888,-1.61474609375,1.2646484375,-0.0947265625,44.76529411764706,199.975895631252
0.98390576171875,-0.11706005859375,0.1667573242187499,1.004779383965417,-1.6953125,1.0517578125,0.0205078125,44.01235294117648,199.975895631252
1.03712841796875,-0.11071240234375,0.1906831054687499,1.0603078034713755,-1.685546875,0.31640625,-0.40478515625,44.01235294117648,199.975895631252
1.06789013671875,-0.12731396484375,0.2063081054687499,1.0950622010313071,-1.57470703125,-0.4775390625,-1.09521484375,43.447647058823534,199.975895631252
1.10353466796875,-0.14928662109375,0.1032807617187498,1.118365849973833,-1.55224609375,-0.96435546875,-1.6923828125,43.82411764705883,199.975895631252
1.10353466796875,-0.17370068359375,0.2380463867187499,1.1422025972303198,-1.61328125,-0.82666015625,-1.7314453125,43.87117647058824,200.38191458498443
1.10744091796875,-0.17858349609375,0.2312104492187499,1.1453277800247712,-1.859375,-0.1796875,-1.2744140625,43.96529411764706,200.38191458498443
1.13478466796875,-0.16588818359375,0.2570893554687499,1.1753084994197556,-1.96728515625,0.3671875,-0.48828125,43.447647058823534,200.38191458498443
1.14406201171875,-0.14245068359375,0.2512299804687499,1.179951942665721,-2.140625,0.72314453125,0.08935546875,43.87117647058824,200.38191458498443
1.12111279296875,-0.10729443359375,0.2526948242187499,1.1542359655743448,-2.23876953125,0.8232421875,0.0576171875,43.96529411764706,200.20627707620497
1.07277294921875,-0.09069287109375,0.2409760742187499,1.1032390791612685,-2.40966796875,0.94140625,-0.240234375,43.87117647058824,200.20627707620497
0.96632763671875,-0.07409130859375,0.2385346679687499,0.9980868756368558,-2.4482421875,0.9716796875,-0.3408203125,44.62411764705882,200.20627707620497
0.92140576171875,-0.08092724609375,0.2395112304687499,0.955459798426644,-2.48193359375,1.16943359375,-0.32275390625,43.96529411764706,200.20627707620497
0.95900341796875,-0.08434521484375,0.2214448242187499,0.9878458792322092,-2.4619140625,1.3486328125,-0.43994140625,43.447647058823534,200.20627707620497
0.99318310546875,-0.06334912109375,0.2160737304687499,1.0183877695311263,-2.458984375,1.48193359375,-0.765625,44.01235294117648,200.2621350247061
1.04494091796875,-0.07702099609375,0.2141206054687499,1.0694304042671274,-2.556640625,1.42822265625,-1.31103515625,44.01235294117648,200.2621350247061
1.03712841796875,-0.07995068359375,0.2248627929687499,1.0642324665350036,-2.58984375,1.2939453125,-1.7548828125,44.62411764705882,200.2621350247061
0.96193310546875,-0.07555615234375,0.2224213867187499,0.990199628773732,-2.77685546875,1.29443359375,-1.5986328125,43.82411764705883,200.2621350247061
0.89406201171875,-0.06676708984375,0.2136323242187499,0.9216525891223258,-2.9658203125,1.451171875,-0.953125,44.76529411764706,200.20627707620497
0.88039013671875,-0.05944287109375,0.1877534179687499,0.9021483213499184,-3.30859375,1.41552734375,-0.333984375,43.777058823529416,200.20627707620497
0.90285107421875,-0.02233349609375,0.1662690429687499,0.9183050919577134,-3.81103515625,1.2861328125,-0.13671875,43.96529411764706,200.20627707620497
0.91505810546875,0.01331103515625,0.1403901367187499,0.925860632346412,-4.3564453125,0.552734375,-0.236328125,43.30647058823529,200.20627707620497
0.91505810546875,0.00842822265625,0.1257416992187499,0.9236954835028804,-4.78955078125,-0.54638671875,-0.74365234375,43.40058823529412,200.20627707620497
0.94630810546875,-0.02135693359375,0.1560151367187499,0.9593205261922384,-5.23583984375,-1.78125,-1.60009765625,43.96529411764706,200.07510497311563
0.92433544921875,-0.03991162109375,0.1755463867187499,0.941703506455598,-5.6484375,-2.68359375,-2.40966796875,44.57705882352941,200.07510497311563
0.90382763671875,-0.05163037109375,0.2248627929687499,0.9328093952022491,-6.15478515625,-3.1484375,-2.69677734375,43.777058823529416,200.07510497311563
0.91994091796875,-0.03747021484375,0.2761323242187499,0.9612202505316207,-6.68896484375,-2.71435546875,-2.943359375,44.62411764705882,200.07510497311563
0.87746044921875,-0.00573193359375,0.3103120117187499,0.9307326359502128,-7.28125,-1.2802734375,-3.400390625,44.71823529411765,200.3385602932138
0.86134716796875,-0.01891552734375,0.3464448242187499,0.928601506121134,-7.61083984375,0.416015625,-4.142578125,43.82411764705883,200.3385602932138
0.81789013671875,-0.02916943359375,0.3513276367187499,0.8906324943097336,-7.521484375,1.99951171875,-4.47265625,43.30647058823529,200.3385602932138
0.82081982421875,-0.03112255859375,0.3171479492187499,0.8805092953385443,-7.2763671875,2.84765625,-4.54638671875,43.96529411764706,200.3385602932138
0.88136669921875,-0.00329052734375,0.3127534179687499,0.935218042230308,-6.95556640625,3.08984375,-4.50244140625,43.30647058823529,200.3385602932138
0.89015576171875,-0.02623974609375,0.2536713867187499,0.9259670495411628,-6.58349609375,3.482421875,-4.3935546875,44.01235294117648,200.1076207821373
0.92042919921875,0.0025688476562499,0.2824799804687499,0.9628039515490034,-6.1962890625,3.7783203125,-3.9794921875,43.777058823529416,200.1076207821373
1.04591748046875,-0.00622021484375,0.2478120117187499,1.0748920225654734,-5.79833984375,3.95263671875,-4.162109375,44.01235294117648,200.1076207821373
1.00783154296875,0.00452197265625,0.2341401367187499,1.0346818210745516,-5.5009765625,4.001953125,-4.443359375,43.49470588235295,200.1076207821373
0.90089794921875,0.01086962890625,0.2082612304687499,0.9247205003975344,-5.12646484375,4.00439453125,-4.15625,43.87117647058824,200.08649807087977
0.94289013671875,-0.01256787109375,0.2004487304687499,0.9640432847397806,-4.79296875,4.130859375,-4.109375,44.01235294117648,200.08649807087977
1.02052685546875,-0.01452099609375,0.1975190429687499,1.0395670706576756,-4.42578125,4.814453125,-4.27197265625,43.96529411764706,200.08649807087977
1.03468701171875,-0.01207958984375,0.1999604492187499,1.0539009962809764,-4.3671875,4.953125,-4.2568359375,43.58882352941177,200.08649807087977
1.05714794921875,0.07825244140625,0.1765229492187499,1.0746374191904602,-4.42724609375,4.6083984375,-4.05810546875,44.01235294117648,200.08649807087977
1.06837841796875,0.17053759765625,0.2146088867187499,1.1029834497645172,-4.3818359375,3.75927734375,-4.0947265625,44.57705882352941,200.1076207821373
1.06837841796875,0.16565478515625,0.2277924804687499,1.104881607225262,-4.279296875,2.9208984375,-4.59130859375,43.87117647058824,200.1076207821373
0.99806591796875,0.21887744140625,0.2585541992187499,1.0539891768424374,-4.2099609375,2.6298828125,-4.85107421875,44.76529411764706,200.1076207821373
1.01222607421875,0.25305712890625,0.3112885742187499,1.0888251063681986,-3.9951171875,2.57666015625,-5.77685546875,44.01235294117648,200.1076207821373
1.03322216796875,0.25647509765625,0.3537690429687499,1.121819976583967,-3.8203125,2.61962890625,-7.4130859375,44.62411764705882,200.3049340863867
0.97706982421875,0.21545947265625,0.3879487304687499,1.0731227531035223,-3.8916015625,2.53369140625,-8.11279296875,44.57705882352941,200.3049340863867
0.89992138671875,0.28381884765625,0.3962495117187499,1.023437988397962,-4.09619140625,3.70849609375,-7.26318359375,43.96529411764706,200.3049340863867
1.02833935546875,0.27112353515625,0.3874604492187499,1.1318636848270651,-3.87158203125,5.11962890625,-6.5390625,43.447647058823534,200.3049340863867
1.10744091796875,0.29700244140625,0.3459565429687499,1.1976317324685537,-4.08740234375,6.07958984375,-6.52734375,43.447647058823534,200.3049340863867
1.01027294921875,0.38635791015625,0.3073823242187499,1.1244588742615609,-3.89208984375,7.45751953125,-6.865234375,43.82411764705883,199.92114896991268
1.01662060546875,0.31458056640625,0.2277924804687499,1.0882866361314152,-4.267578125,6.92724609375,-7.31982421875,43.777058823529416,199.92114896991268
1.00343701171875,0.38001025390625,0.2634370117187499,1.10484962266557,-4.662109375,4.88232421875,-7.15185546875,43.96529411764706,199.92114896991268
1.04054638671875,0.38538134765625,0.3024995117187499,1.1501136989988756,-4.41650390625,3.5419921875,-7.6044921875,43.54176470588236,199.92114896991268
1.05763623046875,0.41956103515625,0.3313081054687499,1.1850700059367056,-4.66552734375,2.9345703125,-8.50634765625,44.01235294117648,200.3385602932138
0.97365185546875,0.51428759765625,0.4196870117187499,1.178400125834256,-4.78076171875,2.818359375,-9.05859375,44.01235294117648,200.3385602932138
0.92970654296875,0.63538134765625,0.4416596679687499,1.2095978568510457,-4.6806640625,3.62060546875,-8.79248046875,44.57705882352941,200.3385602932138
1.00587841796875,0.70276416015625,0.4519135742187499,1.3076294334017573,-4.6220703125,4.22314453125,-9.18505859375,43.82411764705883,200.3385602932138
1.01759716796875,0.69788134765625,0.4631440429687499,1.317969945105716,-4.53125,4.29833984375,-10.54443359375,43.96529411764706,200.3385602932138
0.92042919921875,0.77307666015625,0.5095307617187499,1.305549321316702,-4.39599609375,3.669921875,-11.46142578125,44.76529411764706,200.0528735939578
0.82277294921875,0.56458056640625,0.4362885742187499,1.0890611837374204,-4.32275390625,4.20947265625,-12.453125,44.53,200.0528735939578
0.80128857421875,0.37708056640625,0.4899995117187499,1.0121030847791093,-4.9287109375,3.5224609375,-12.6171875,43.40058823529412,200.0528735939578
0.78615185546875,0.35950244140625,0.5559174804687499,1.027774776069512,-5.0107421875,2.86181640625,-11.3349609375,43.96529411764706,200.0528735939578
0.75978466796875,0.37610400390625,0.5700776367187499,1.0216239402644849,-5.26220703125,2.88134765625,-10.9462890625,44.059411764705885,200.32716633558348
0.78224560546875,0.42200244140625,0.5886323242187499,1.0660592201858086,-5.46142578125,3.103515625,-11.529296875,43.447647058823534,200.32716633558348
0.76271435546875,0.45911181640625,0.5666596679687499,1.0552819657818524,-6.005859375,3.04541015625,-11.9404296875,43.96529411764706,200.32716633558348
0.72218701171875,0.56165087890625,0.5451752929687499,1.0649985397806812,-6.1611328125,3.77197265625,-11.560546875,43.40058823529412,200.32716633558348
0.81447216796875,0.55920947265625,0.4587495117187499,1.089280157354566,-6.09423828125,4.68017578125,-11.37451171875,43.30647058823529,200.32716633558348
0.82863232421875,0.59534228515625,0.4494721679687499,1.1149390992398471,-5.92529296875,4.80322265625,-11.04833984375,43.30647058823529,199.96505699616705
0.82130810546875,0.58801806640625,0.4968354492187499,1.1256810001635495,-5.638671875,3.9248046875,-10.912109375,43.96529411764706,199.96505699616705
0.81837841796875,0.54846728515625,0.5339448242187499,1.120560874381081,-5.51611328125,2.6376953125,-10.44677734375,43.96529411764706,199.96505699616705
0.78615185546875,0.56458056640625,0.6291596679687499,1.1543950119517616,-5.36669921875,2.0234375,-9.6142578125,44.01235294117648,199.96505699616705
0.78273388671875,0.50208056640625,0.7004487304687499,1.1642103145892262,-4.82373046875,1.978515625,-9.29736328125,44.15352941176471,200.2724182692976
0.66554638671875,0.45520556640625,0.7155854492187499,1.0780661555281377,-4.60986328125,2.9287109375,-9.05126953125,43.96529411764706,200.2724182692976
0.60744091796875,0.41858447265625,0.6501557617187499,0.98331070576279,-4.28759765625,4.90478515625,-8.52001953125,44.15352941176471,200.2724182692976
0.61525341796875,0.35510791015625,0.6140229492187499,0.938968891042222,-4.5869140625,5.681640625,-7.87744140625,44.62411764705882,200.2724182692976
0.54396435546875,0.38391650390625,0.5608002929687499,0.8705090870209029,-4.599609375,5.66650390625,-6.1611328125,44.71823529411765,200.2724182692976
0.59181591796875,0.41956103515625,0.4626557617187499,0.860423091760173,-4.5712890625,5.55517578125,-5.19384765625,43.82411764705883,199.9878421436129
0.62501904296875,0.51379931640625,0.4016206054687499,0.903292672587455,-4.69287109375,4.97802734375,-5.12939453125,44.71823529411765,199.9878421436129
0.60499951171875,0.54211962890625,0.3908784179687499,0.901500992156486,-4.4267578125,3.97900390625,-5.3564453125,44.71823529411765,199.9878421436129
0.65529248046875,0.54065478515625,0.4787690429687499,0.9751592834898568,-4.24072265625,2.427734375,-4.8544921875,43.96529411764706,199.9878421436129
0.77492138671875,0.49573291015625,0.6687104492187499,1.137289733841134,-3.79833984375,0.44482421875,-4.5263671875,44.57705882352941,200.11901373871223
0.82472607421875,0.46301806640625,0.7990815429687499,1.238180172522631,-3.421875,-1.5244140625,-4.84130859375,44.01235294117648,200.11901373871223
0.88283154296875,0.43616259765625,0.92505810546875,1.3510595262046246,-3.232421875,-2.40087890625,-5.05078125,44.01235294117648,200.11901373871223
0.86525341796875,0.40002978515625,0.99830029296875,1.3803227091011188,-2.68310546875,-2.6474609375,-4.77685546875,43.96529411764706,200.11901373871223
0.72511669921875,0.31848681640625,0.94263623046875,1.2311747003178783,-1.84423828125,-1.943359375,-3.7509765625,43.40058823529412,200.11901373871223
0.58449169921875,0.27405322265625,0.8186127929687499,1.0425270356762912,-1.38671875,-1.21435546875,-3.09228515625,44.53,200.36023741182
0.45802685546875,0.18909228515625,0.5544526367187499,0.7436142945106541,-1.544921875,-1.6923828125,-2.33740234375,44.76529411764706,200.36023741182
0.42970654296875,0.30481494140625,0.5158784179687499,0.7373536490047297,-1.19775390625,-3.5986328125,-1.595703125,43.40058823529412,200.36023741182
0.39455029296875,0.26917041015625,0.5481049804687499,0.7270087434137632,-0.83056640625,-5.7265625,-1.662109375,43.96529411764706,200.36023741182
0.26857373046875,0.36340869140625,0.4538666992187499,0.6404628844415787,-2.3681640625,-5.11474609375,-0.21923828125,44.57705882352941,200.2171157078318
0.56984326171875,0.74231494140625,0.5383393554687499,1.0796120029009206,-2.8369140625,-4.93212890625,-0.55224609375,44.01235294117648,200.2171157078318
0.63869091796875,0.71497119140625,0.7214448242187499,1.1998302078330334,-2.6171875,-5.5087890625,-3.31103515625,43.96529411764706,200.2171157078318
0.34230419921875,0.52161181640625,1.03101513671875,1.2050905625556114,-1.77783203125,-4.08935546875,-4.5498046875,43.68294117647059,200.2171157078318
0.07374951171875,0.32874072265625,1.19361279296875,1.2402503588993503,-0.8505859375,1.39794921875,-1.9638671875,43.82411764705883,200.2171157078318
0.34376904296875,-0.00866162109375,1.58374951171875,1.620652552045935,1.46044921875,6.27587890625,0.94921875,43.96529411764706,200.34828870013
0.24367138671875,-0.16588818359375,1.28394482421875,1.317349211788427,1.69873046875,14.09765625,2.5732421875,43.87117647058824,200.34828870013
0.33449169921875,0.34192431640625,0.96119091796875,1.0736316480905992,0.853515625,13.84765625,3.6728515625,44.059411764705885,200.34828870013
0.44484326171875,0.34583056640625,1.10425732421875,1.239705023886004,2.23828125,10.552734375,5.5693359375,44.62411764705882,200.34828870013
0.45363232421875,0.29163134765625,1.10718701171875,1.2315413949318152,2.828125,10.64990234375,5.89453125,43.96529411764706,200.11901373871223
0.43898388671875,0.59924853515625,0.7756440429687499,1.0739782777498434,1.3369140625,11.5234375,5.3046875,44.01235294117648,200.11901373871223
0.74122998046875,0.48254931640625,0.7399995117187499,1.1532020655782016,0.43505859375,8.3583984375,3.30810546875,44.71823529411765,200.11901373871223
0.77687451171875,0.42932666015625,0.7136323242187499,1.138914607092657,-0.34423828125,3.41064453125,1.3818359375,44.01235294117648,200.11901373871223
0.56496044921875,0.51868212890625,0.8225190429687499,1.1246106153128734,-0.17138671875,-0.1396484375,0.1787109375,43.96529411764706,200.11901373871223
0.31300732421875,0.46155322265625,0.92115185546875,1.0768127521498212,-0.58203125,-1.33544921875,-0.5283203125,43.96529411764706,199.9433797669047
0.23341748046875,0.41126025390625,1.00806591796875,1.1134700766529793,-0.71533203125,-0.50146484375,-0.8447265625,44.15352941176471,199.9433797669047
0.27785107421875,0.34534228515625,0.93775341796875,1.0372289941346255,-0.8818359375,-0.08642578125,-0.98681640625,43.87117647058824,199.9433797669047
0.35011669921875,0.33948291015625,0.8601166992187499,0.988752287296948,-0.9658203125,-0.8515625,-1.0771484375,44.57705882352941,199.9433797669047
0.37892529296875,0.32336962890625,0.8337495117187499,0.9712314568843374,-0.912109375,-1.59130859375,-1.35986328125,43.30647058823529,200.085943562487
0.32960888671875,0.35022509765625,0.8366791992187499,0.9650552935648984,-0.85888671875,-1.65576171875,-1.642578125,44.01235294117648,200.085943562487
0.33986279296875,0.38147509765625,0.8430268554687499,0.9857607454234996,-0.578125,-1.947265625,-1.14404296875,43.87117647058824,200.085943562487
0.30421826171875,0.38440478515625,0.8562104492187499,0.9866165024798512,-0.6240234375,-1.81005859375,-0.93017578125,44.76529411764706,200.085943562487
0.29933544921875,0.38831103515625,0.90113232421875,1.0258784708409645,-0.33203125,-1.2294921875,-0.853515625,44.62411764705882,200.085943562487
0.33351513671875,0.43420947265625,0.8957612304687499,1.0498373181478329,-0.3203125,-0.970703125,-0.6357421875,43.96529411764706,199.92059579677692
0.33595654296875,0.48792041015625,0.8899018554687499,1.0690455732929631,-0.2099609375,-0.74560546875,-0.8310546875,43.82411764705883,199.92059579677692
0.33400341796875,0.53674853515625,0.8742768554687499,1.0788963310789008,-0.09765625,-0.34619140625,-0.9521484375,44.01235294117648,199.92059579677692
0.38722607421875,0.53381884765625,0.8576752929687499,1.0819027233707024,-0.02783203125,-0.318359375,-1.1328125,44.01235294117648,199.92059579677692
0.35988232421875,0.52600634765625,0.8586518554687499,1.0693366981263124,0.0263671875,-0.296875,-1.24853515625,43.96529411764706,199.931434498718
0.34425732421875,0.50501025390625,0.8811127929687499,1.0723377340007672,0.03515625,-0.1640625,-0.87548828125,44.01235294117648,199.931434498718
0.33937451171875,0.49475634765625,0.8894135742187499,1.0728538617887635,0.01171875,0.103515625,-0.6083984375,44.01235294117648,199.931434498718
0.34523388671875,0.46790087890625,0.91236279296875,1.0819073597188966,0.14404296875,0.33935546875,-0.26953125,44.43588235294118,199.931434498718
0.35402294921875,0.48303759765625,0.8991791992187499,1.080361421761595,0.23291015625,0.4521484375,-0.13720703125,43.87117647058824,199.931434498718
0.39406201171875,0.47620166015625,0.8698823242187499,1.067121430861367,0.2744140625,0.3017578125,-0.30517578125,44.71823529411765,200.0311963892863
0.38722607421875,0.46204150390625,0.8630463867187499,1.052746621706811,0.23095703125,0.27783203125,-0.23388671875,44.57705882352941,200.0311963892863
0.36915966796875,0.44983447265625,0.8689057617187499,1.0457662912872865,0.31640625,0.435546875,0.2001953125,44.01235294117648,200.0311963892863
0.31691357421875,0.45911181640625,0.8718354492187499,1.0350434406354203,0.453125,0.6943359375,0.369140625,44.01235294117648,200.0311963892863
0.32814404296875,0.44592822265625,0.8708588867187499,1.031952369673261,0.62939453125,1.19140625,-0.033203125,43.30647058823529,200.1948841076864
0.39113232421875,0.43909228515625,0.8537690429687499,1.0366812956083822,0.68017578125,1.4609375,0.25830078125,44.01235294117648,200.1948841076864
0.41505810546875,0.43225634765625,0.8381440429687499,1.03034179657453,0.60400390625,1.5419921875,0.376953125,43.40058823529412,200.1948841076864
0.44044873046875,0.44104541015625,0.8098237304687499,1.021924954398194,0.45166015625,1.38525390625,0.5146484375,43.30647058823529,200.1948841076864
0.43654248046875,0.43713916015625,0.7927338867187499,1.005030844177499,0.33837890625,1.09033203125,0.3203125,44.76529411764706,200.1948841076864
0.41749951171875,0.42444384765625,0.7844331054687499,0.984781051327646,0.2861328125,0.86767578125,0.17724609375,43.87117647058824,199.89891843381724
0.42091748046875,0.41809619140625,0.7736909179687499,0.9749736340947376,0.19384765625,0.658203125,-0.0048828125,44.76529411764706,199.89891843381724
0.41359326171875,0.44153369140625,0.8054291992187499,1.0073368759953845,0.0166015625,0.41845703125,-0.2919921875,44.01235294117648,199.89891843381724
0.42140576171875,0.43665087890625,0.7927338867187499,0.9983355253678876,-0.04736328125,0.1318359375,-0.56494140625,43.54176470588236,199.89891843381724
0.45070263671875,0.44495166015625,0.7492768554687499,0.9810864654872038,-0.10302734375,-0.57421875,-0.9111328125,44.01235294117648,200.0084116183565
0.42677685546875,0.42981494140625,0.7629487304687499,0.9741509808770556,-0.17578125,-0.75341796875,-0.99365234375,44.01235294117648,200.0084116183565
0.44728466796875,0.43713916015625,0.7580659179687499,0.9827604771905664,-0.1953125,-1.2861328125,-1.08984375,43.82411764705883,200.0084116183565
0.41115185546875,0.44592822265625,0.7990815429687499,1.0032094199767445,-0.20556640625,-1.365234375,-0.97119140625,43.87117647058824,200.0084116183565
0.44435498046875,0.46008837890625,0.7961518554687499,1.0212690350922706,-0.26416015625,-1.51806640625,-1.0712890625,43.96529411764706,200.0084116183565
0.40236279296875,0.44885791015625,0.7702729492187499,0.9781051359509364,-0.31884765625,-2.27587890625,-1.18505859375,43.82411764705883,200.26102480622808
0.31886669921875,0.44641650390625,0.8298432617187499,0.9947881713463188,-0.21142578125,-1.77001953125,-1.21044921875,44.01235294117648,200.26102480622808
0.35939404296875,0.45374072265625,0.8357026367187499,1.0165842899320796,-0.14697265625,-1.458984375,-1.326171875,43.96529411764706,200.26102480622808
0.34328076171875,0.46008837890625,0.8186127929687499,0.999824935967734,-0.1904296875,-0.98779296875,-1.26708984375,43.82411764705883,200.26102480622808
0.33790966796875,0.47034228515625,0.8278901367187499,1.0103498836487017,-0.18603515625,-0.5537109375,-1.2412109375,43.87117647058824,200.07510497311563
0.36476513671875,0.45813525390625,0.8147065429687499,1.003338560503524,-0.22509765625,-0.28564453125,-1.1435546875,43.82411764705883,200.07510497311563
0.38185498046875,0.46545947265625,0.8078706054687499,1.0075319657334294,-0.22802734375,-0.3466796875,-1.0419921875,43.447647058823534,200.07510497311563
0.36330029296875,0.48157275390625,0.8112885742187499,1.0109839617095422,-0.25146484375,-0.48193359375,-1.06298828125,43.30647058823529,200.07510497311563
0.34718701171875,0.47766650390625,0.8430268554687499,1.0292708045513306,-0.23046875,-0.47265625,-1.00732421875,44.01235294117648,200.07510497311563
0.35841748046875,0.48645556640625,0.97632763671875,1.1481801960554847,-0.22998046875,-0.42724609375,-0.921875,44.76529411764706,200.2615796908812
0.38039013671875,0.47424853515625,0.8313081054687499,1.0298939243576497,-0.26806640625,-0.49267578125,-0.85498046875,43.87117647058824,200.2615796908812
0.36427685546875,0.47083056640625,0.8527924804687499,1.0400163770040711,-0.2392578125,-0.46826171875,-0.69873046875,43.82411764705883,200.2615796908812
0.36232373046875,0.47278369140625,0.8689057617187499,1.0534705156142494,-0.20458984375,-0.2470703125,-0.54443359375,44.71823529411765,200.2615796908812
0.35890576171875,0.47424853515625,0.8811127929687499,1.063054454308883,-0.08740234375,-0.0849609375,-0.39453125,44.76529411764706,200.1076207821373
0.35011669921875,0.48352587890625,0.8796479492187499,1.0630895979213824,-0.02783203125,0.09326171875,-0.25927734375,44.059411764705885,200.1076207821373
0.35841748046875,0.48450244140625,0.8566987304687499,1.047443755445108,-0.04443359375,0.08935546875,-0.19482421875,44.20058823529412,200.1076207821373
0.38429638671875,0.46643603515625,0.8430268554687499,1.037275550072833,-0.05615234375,-0.0888671875,-0.015625,43.777058823529416,200.1076207821373
0.37453076171875,0.47034228515625,0.8508393554687499,1.0418362469669156,-0.0439453125,-0.15576171875,0.14013671875,44.71823529411765,200.1076207821373
0.36037060546875,0.48108447265625,0.8513276367187499,1.0421458574297493,-0.044921875,-0.1328125,0.18212890625,44.62411764705882,200.4702904071896
0.34767529296875,0.48108447265625,0.8449799804687499,1.0326236228969474,0.0048828125,-0.08642578125,0.095703125,44.01235294117648,200.4702904071896
0.36574169921875,0.46643603515625,0.8440034179687499,1.031344430819614,0.03466796875,-0.0537109375,0.10107421875,44.29470588235294,200.4702904071896
0.37550732421875,0.45227587890625,0.8420502929687499,1.0269410484887165,0.06787109375,-0.02978515625,0.11474609375,43.82411764705883,200.4702904071896
0.36134716796875,0.45227587890625,0.8366791992187499,1.0174268174393604,0.07177734375,0.06201171875,0.1357421875,43.30647058823529,200.2615796908812
0.37160107421875,0.44202197265625,0.8361909179687499,1.0162116088516566,0.08056640625,0.24951171875,0.18701171875,43.82411764705883,200.2615796908812
0.38966748046875,0.43079150390625,0.8357026367187499,1.0177528983949606,0.11376953125,0.19775390625,0.25390625,44.01235294117648,200.2615796908812
0.40382763671875,0.43518603515625,0.8283784179687499,1.0191537905190151,0.12060546875,0.126953125,0.1884765625,44.01235294117648,200.2615796908812
0.38576123046875,0.43323291015625,0.8278901367187499,1.0108929517270402,0.10498046875,0.123046875,0.150390625,44.76529411764706,200.2615796908812
0.40187451171875,0.44104541015625,0.8200776367187499,1.0141752842754983,0.0986328125,0.1357421875,0.30712890625,43.87117647058824,199.87724112541085
0.40089794921875,0.45032275390625,0.8181245117187499,1.0162861137733563,0.11767578125,0.20166015625,0.37060546875,43.82411764705883,199.87724112541085
0.39015576171875,0.45178759765625,0.8078706054687499,1.0044841795562478,0.15478515625,0.1181640625,0.07177734375,43.87117647058824,199.87724112541085
0.37453076171875,0.46057666015625,0.7917573242187499,0.9895876978865226,0.1728515625,-0.1015625,-0.40478515625,43.30647058823529,199.87724112541085
0.40187451171875,0.44397509765625,0.8015229492187499,1.0005278849849129,0.125,-0.2041015625,-0.34814453125,43.96529411764706,200.041481131924
0.39015576171875,0.44251025390625,0.8288666992187499,1.017377436494587,0.10205078125,-0.08447265625,-0.0283203125,43.777058823529416,200.041481131924
0.39455029296875,0.46350634765625,0.8210541992187499,1.022075372002528,0.041015625,-0.00439453125,0.1689453125,44.01235294117648,200.041481131924
0.37257763671875,0.47668994140625,0.8024995117187499,1.0050138615609512,-0.01806640625,-0.16796875,0.029296875,43.96529411764706,200.041481131924
0.36281201171875,0.47376025390625,0.8205659179687499,1.0145983243434902,-0.02783203125,-0.26318359375,-0.21875,44.01235294117648,200.041481131924
0.36232373046875,0.47913134765625,0.8361909179687499,1.02959243648208,-0.02001953125,-0.23388671875,-0.3916015625,44.01235294117648,200.1292980563508
0.36330029296875,0.47766650390625,0.8303315429687499,1.0245012752915752,-0.0673828125,-0.22900390625,-0.4169921875,43.40058823529412,200.1292980563508
0.36671826171875,0.47864306640625,0.8254487304687499,1.0222265282848368,-0.07958984375,-0.20068359375,-0.48974609375,43.82411764705883,200.1292980563508
0.37794873046875,0.48352587890625,0.8337495117187499,1.0352684515265862,-0.0302734375,-0.083984375,-0.46435546875,44.01235294117648,200.1292980563508
0.37550732421875,0.47766650390625,0.8244721679687499,1.024170588940649,-0.0009765625,-0.03076171875,-0.42333984375,43.87117647058824,199.96505699616705
0.37013623046875,0.46887744140625,0.8283784179687499,1.0213019570732722,0.0029296875,-0.00927734375,-0.28515625,44.01235294117648,199.96505699616705
0.37404248046875,0.46741259765625,0.8264252929687499,1.020471008163124,-0.01318359375,0.00732421875,-0.15283203125,43.82411764705883,199.96505699616705
0.38380810546875,0.46692431640625,0.8283784179687499,1.0254451630542532,-0.00830078125,-0.068359375,-0.11474609375,44.01235294117648,199.96505699616705
0.37404248046875,0.47034228515625,0.8415620117187499,1.034096833942222,-0.01220703125,-0.09326171875,-0.12939453125,43.96529411764706,199.96505699616705
0.37501904296875,0.47522509765625,0.8234956054687499,1.022068093748128,-0.01708984375,-0.0244140625,-0.1474609375,43.96529411764706,200.2176703861317
0.38429638671875,0.47131884765625,0.8195893554687499,1.020564491151237,-0.005859375,-0.10693359375,-0.150390625,43.30647058823529,200.2176703861317
0.38136669921875,0.47327197265625,0.8166596679687499,1.018017648502113,-0.01025390625,-0.1494140625,-0.09765625,43.82411764705883,200.2176703861317
0.37941357421875,0.48254931640625,0.8308198242187499,1.0329908438028192,-0.001953125,-0.06884765625,-0.07568359375,44.57705882352941,200.2176703861317
0.38331982421875,0.47522509765625,0.8244721679687499,1.02592754950658,0.00927734375,-0.04541015625,-0.052734375,43.30647058823529,200.1959932579086
0.38185498046875,0.47424853515625,0.8254487304687499,1.0257146317758703,0.02978515625,-0.00244140625,-0.11865234375,43.96529411764706,200.1959932579086
0.36525341796875,0.48059619140625,0.8161713867187499,1.0151445665669765,0.03369140625,0.12451171875,-0.1865234375,44.53,200.1959932579086
0.36964794921875,0.46594775390625,0.8244721679687499,1.0166126457441875,0.03369140625,-0.0458984375,-0.19140625,44.059411764705885,200.1959932579086
0.38624951171875,0.45520556640625,0.8327729492187499,1.0246519301405244,0.04736328125,0.0244140625,0.02197265625,44.57705882352941,200.1959932579086
0.38722607421875,0.45178759765625,0.8200776367187499,1.01320451844486,0.02880859375,-0.0166015625,0.13623046875,43.30647058823529,200.20627707620497
0.40285107421875,0.45764697265625,0.8029877929687499,1.0082257362502978,0.015625,-0.14990234375,0.07080078125,44.71823529411765,200.20627707620497
0.39455029296875,0.46252978515625,0.8029877929687499,1.0071708551657146,0.0205078125,-0.34228515625,0.0283203125,44.71823529411765,200.20627707620497
0.38966748046875,0.45276416015625,0.8274018554687499,1.0205047577008095,0.00830078125,-0.5498046875,-0.0185546875,43.96529411764706,200.20627707620497
0.36964794921875,0.44153369140625,0.8444916992187499,1.0221339623835168,0.00732421875,-0.4150390625,0.056640625,43.777058823529416,200.282702098116
0.35792919921875,0.45667041015625,0.8513276367187499,1.0302523575351743,0.0380859375,-0.177734375,0.095703125,43.30647058823529,200.282702098116
0.37599560546875,0.45862353515625,0.8313081054687499,1.0211666898940006,0.02783203125,-0.07177734375,0.0693359375,44.01235294117648,200.282702098116
0.41701123046875,0.44592822265625,0.8005463867187499,1.006789383827059,-0.02734375,-0.43017578125,0.0595703125,44.01235294117648,200.282702098116
0.41749951171875,0.44983447265625,0.7946870117187499,1.0040838319930252,-0.0625,-0.8017578125,-0.0146484375,43.777058823529416,200.282702098116
0.39210888671875,0.46057666015625,0.8029877929687499,1.005320662565595,-0.09326171875,-1.03271484375,-0.0712890625,44.15352941176471,199.87779454135543
0.38283154296875,0.46252978515625,0.8220307617187499,1.017953027236733,-0.1083984375,-0.9208984375,-0.0654296875,44.71823529411765,199.87779454135543
0.39699169921875,0.46741259765625,0.8244721679687499,1.0275365207385303,-0.06640625,-0.87548828125,-0.13134765625,44.059411764705885,199.87779454135543
0.40968701171875,0.46887744140625,0.8132416992187499,1.024232182651429,-0.03515625,-0.97998046875,-0.228515625,43.87117647058824,199.87779454135543
0.39650341796875,0.46741259765625,0.8186127929687499,1.022651652186981,-0.05224609375,-1.185546875,-0.2109375,44.57705882352941,200.08538950325624
0.40089794921875,0.45276416015625,0.8288666992187499,1.0260285354138936,-0.12353515625,-1.12109375,-0.03173828125,43.40058823529412,200.08538950325624
0.40724560546875,0.45178759765625,0.8254487304687499,1.0253421980988031,-0.14013671875,-1.12060546875,-0.013671875,44.76529411764706,200.08538950325624
0.40626904296875,0.45276416015625,0.8166596679687499,1.01832358967254,-0.1650390625,-1.23828125,-0.083984375,43.54176470588236,200.08538950325624
0.38039013671875,0.47473681640625,0.8337495117187499,1.0320900877615793,-0.14892578125,-1.10986328125,0.05908203125,44.62411764705882,200.08538950325624
0.41798779296875,0.47961962890625,0.8259370117187499,1.0425549054270256,-0.17138671875,-0.8544921875,0.2568359375,44.71823529411765,200.14069091879296
0.43996044921875,0.48743212890625,0.8239838867187499,1.053615073325634,-0.169921875,-1.08544921875,0.05712890625,43.68294117647059,200.14069091879296
0.32228466796875,0.48401416015625,0.8293549804687499,1.0129001915627265,-0.0341796875,-1.154296875,-0.47802734375,43.82411764705883,200.14069091879296
0.38136669921875,0.46350634765625,0.8635346679687499,1.05165147096105,-0.0322265625,-0.8125,-0.29736328125,43.30647058823529,200.14069091879296
0.39455029296875,0.46155322265625,0.8532807617187499,1.047277121561159,-0.08984375,-0.6337890625,0.2119140625,44.20058823529412,200.07510497311563
0.43800732421875,0.45325244140625,0.7297456054687499,0.9642701076000166,-0.173828125,-0.78857421875,0.49755859375,44.01235294117648,200.07510497311563
0.40675732421875,0.45813525390625,0.8576752929687499,1.0540143926182282,-0.2294921875,-1.17041015625,0.41259765625,43.82411764705883,200.07510497311563
0.38917919921875,0.44202197265625,0.8903901367187499,1.0675385093669942,-0.212890625,-1.404296875,0.23388671875,43.40058823529412,200.07510497311563
0.37648388671875,0.42395556640625,0.91480419921875,1.076264448058171,-0.1240234375,-1.35400390625,0.2265625,43.87117647058824,200.07510497311563
0.40187451171875,0.40442431640625,0.91285107421875,1.0762709856593606,-0.0634765625,-1.119140625,0.50634765625,43.82411764705883,200.1498684442988
0.46632763671875,0.40198291015625,0.90113232421875,1.0913712432427696,-0.0625,-1.45654296875,0.9423828125,43.82411764705883,200.1498684442988
0.47804638671875,0.44251025390625,0.91285107421875,1.121445833007262,-0.1064453125,-2.18310546875,1.4013671875,44.76529411764706,200.1498684442988
0.49660107421875,0.50598681640625,0.94800732421875,1.1837876380772618,-0.21142578125,-3.31201171875,1.56787109375,43.54176470588236,200.1498684442988
0.44777294921875,0.52405322265625,1.01197216796875,1.2244264220327128,0.171875,-4.2099609375,2.24951171875,43.777058823529416,200.041481131924
0.42335888671875,0.48157275390625,1.02417919921875,1.208341051351376,0.46630859375,-3.9765625,3.35205078125,44.01235294117648,200.041481131924
0.52638623046875,0.44690478515625,1.03443310546875,1.2437275426363992,0.7412109375,-3.5458984375,4.61328125,43.82411764705883,200.041481131924
0.59035107421875,0.42590869140625,0.99390576171875,1.2319745400877182,0.9716796875,-3.796875,5.513671875,43.96529411764706,200.041481131924
0.58937451171875,0.43616259765625,0.99488232421875,1.2358765980877155,1.4013671875,-4.009765625,5.67333984375,43.87117647058824,200.041481131924
0.56203076171875,0.49329150390625,1.10328076171875,1.3328328942980636,2.20703125,-2.86962890625,4.869140625,43.30647058823529,200.3163277496752
0.41945263671875,0.38391650390625,1.13843701171875,1.272545176436981,2.8837890625,-0.24853515625,4.10546875,43.87117647058824,200.3163277496752
0.31056591796875,0.38489306640625,1.13892529296875,1.2416701192085329,3.33642578125,2.82568359375,4.68896484375,43.87117647058824,200.3163277496752
0.41896435546875,0.56653369140625,1.06812451171875,1.2796020972107522,3.59326171875,5.11328125,5.38671875,44.01235294117648,200.3163277496752
0.65187451171875,0.61340869140625,0.94312451171875,1.3002670673081038,3.7861328125,6.3935546875,5.083984375,43.82411764705883,199.96505699616705
0.76320263671875,0.63489306640625,0.8230073242187499,1.289538105750617,4.00927734375,6.921875,3.90625,43.87117647058824,199.96505699616705
0.64015576171875,0.58508837890625,0.7365815429687499,1.1378401380840284,3.94482421875,6.74853515625,2.81201171875,44.01235294117648,199.96505699616705
0.44874951171875,0.55579150390625,0.6672456054687499,0.9774952777888732,3.9765625,5.81396484375,2.341796875,43.96529411764706,199.96505699616705
0.41017529296875,0.54407275390625,0.6198823242187499,0.9211476691518956,3.9521484375,4.65185546875,2.29052734375,43.96529411764706,199.96505699616705
0.46925732421875,0.53186572265625,0.6101166992187499,0.9355885687283586,3.80712890625,2.80517578125,2.17138671875,43.96529411764706,200.1965485067898
0.46925732421875,0.55774462890625,0.6457612304687499,0.9738013525269028,3.97900390625,1.46875,2.11279296875,44.01235294117648,200.1965485067898
0.47169873046875,0.55920947265625,0.6960541992187499,1.0098051172797486,4.0107421875,0.39013671875,2.119140625,43.82411764705883,200.1965485067898
0.45460888671875,0.56506884765625,0.7570893554687499,1.048406569341928,4.45263671875,0.12890625,1.943359375,43.96529411764706,200.1965485067898
0.42042919921875,0.59583056640625,0.7976166992187499,1.0807253001074444,4.75146484375,0.236328125,1.7099609375,43.96529411764706,199.99868068457008
0.40187451171875,0.57581103515625,0.8044526367187499,1.0678040625979304,4.65771484375,-0.04931640625,1.740234375,43.777058823529416,199.99868068457008
0.42677685546875,0.52649462890625,0.8137299804687499,1.0590049857033703,4.4892578125,-0.74169921875,1.8271484375,44.01235294117648,199.99868068457008
0.43800732421875,0.46252978515625,0.8430268554687499,1.0566354609170965,4.201171875,-1.4482421875,1.9599609375,44.76529411764706,199.99868068457008
0.44826123046875,0.40149462890625,0.8620698242187499,1.0513327016746277,4.28662109375,-1.5595703125,2.2294921875,43.96529411764706,199.99868068457008
0.44826123046875,0.37756884765625,0.7990815429687499,0.990973096393209,4.33056640625,-0.95458984375,2.693359375,43.87117647058824,200.0425892868462
0.44337841796875,0.39270556640625,0.7380463867187499,0.946316306715428,4.54443359375,-0.10107421875,3.42236328125,43.87117647058824,200.0425892868462
0.46046826171875,0.38782275390625,0.6667573242187499,0.8983333667949011,4.46826171875,0.23583984375,4.26025390625,43.82411764705883,200.0425892868462
0.46242138671875,0.43616259765625,0.6218354492187499,0.8892416299264357,4.50732421875,-0.138671875,5.46826171875,43.30647058823529,200.0425892868462
0.41066357421875,0.41760791015625,0.5700776367187499,0.817330685648119,4.5322265625,-1.10546875,6.51220703125,44.62411764705882,199.9536649345318
0.34523388671875,0.42883837890625,0.5383393554687499,0.7699987359784327,4.705078125,-2.12548828125,7.9453125,44.62411764705882,199.9536649345318
0.35402294921875,0.44251025390625,0.5031831054687499,0.7578527634144316,4.69482421875,-3.67919921875,9.173828125,43.82411764705883,199.9536649345318
0.44533154296875,0.43030322265625,0.4992768554687499,0.795461139841567,4.9091796875,-4.6494140625,9.6455078125,43.96529411764706,199.9536649345318
0.44826123046875,0.35950244140625,0.4983002929687499,0.7605809083136086,5.01806640625,-6.16357421875,9.619140625,43.96529411764706,199.9536649345318
0.38039013671875,0.32043994140625,0.5344331054687499,0.7300665424345387,5.203125,-6.98828125,10.365234375,43.777058823529416,200.3488435483224
0.33644482421875,0.31213916015625,0.5393159179687499,0.7081579163019432,5.6494140625,-6.83544921875,11.6806640625,43.96529411764706,200.3488435483224
0.34669873046875,0.34778369140625,0.5476166992187499,0.7355525507943259,6.072265625,-6.2314453125,12.9990234375,43.447647058823534,200.3488435483224
0.42921826171875,0.34290087890625,0.4816987304687499,0.7306456021100445,6.16943359375,-5.32861328125,14.00830078125,44.15352941176471,200.3488435483224
0.53810498046875,0.39270556640625,0.4450776367187499,0.8011671077864311,5.81396484375,-4.3681640625,14.42822265625,44.01235294117648,200.2073870033714
0.64259716796875,0.43616259765625,0.4113862304687499,0.878867204129835,5.69873046875,-3.326171875,14.52001953125,44.01235294117648,200.2073870033714
0.75734326171875,0.47327197265625,0.3835541992187499,0.9719408417753984,5.65234375,-3.130859375,14.4677734375,44.53,200.2073870033714
0.81349560546875,0.38928759765625,0.3391206054687499,0.9634950538842604,5.48388671875,-3.8671875,14.486328125,43.58882352941177,200.2073870033714
0.87697216796875,0.57190478515625,0.3298432617187499,1.0977029853187472,5.46484375,-4.7265625,14.51953125,43.447647058823534,200.2073870033714
0.95509716796875,0.64856494140625,0.3200776367187499,1.1980387209980647,5.47119140625,-5.81494140625,14.43212890625,44.62411764705882,200.1737612631496
0.97316357421875,0.63196337890625,0.2966401367187499,1.197672920783189,5.2021484375,-6.7587890625,14.45263671875,44.01235294117648,200.1737612631496
1.08107373046875,0.64417041015625,0.3938081054687499,1.3186207764036546,5.18994140625,-8.59912109375,14.2314453125,44.57705882352941,200.1737612631496
1.16505810546875,0.69153369140625,0.4880463867187499,1.440058509595223,5.04541015625,-10.34765625,13.26025390625,43.96529411764706,200.1737612631496
1.20460888671875,0.74377978515625,0.6169526367187499,1.5443191039170243,5.1708984375,-11.205078125,11.72705078125,43.30647058823529,200.13096220061308
1.22804638671875,0.81604541015625,0.8649995117187499,1.7094596206531865,6.57763671875,-12.59033203125,9.951171875,43.82411764705883,200.13096220061308
1.04494091796875,0.67151416015625,0.7570893554687499,1.454653595018352,7.17919921875,-11.68310546875,8.0185546875,43.30647058823529,200.13096220061308
0.83449169921875,0.66321337890625,0.7927338867187499,1.3284033262445023,7.37255859375,-7.56298828125,7.232421875,43.87117647058824,200.13096220061308
0.68117138671875,0.51526416015625,0.7531831054687499,1.1387609069464144,7.3974609375,-2.9111328125,7.59619140625,43.87117647058824,200.13096220061308
0.51613232421875,0.45764697265625,0.6555268554687499,0.9516032712877918,8.40673828125,2.359375,8.93798828125,43.82411764705883,199.9872879872144
0.55470654296875,0.18860400390625,0.4216401367187499,0.721838779779818,8.3427734375,4.87353515625,10.64599609375,43.447647058823534,199.9872879872144
0.57179638671875,0.17249072265625,0.2458588867187499,0.6458720844297862,7.40673828125,5.71337890625,12.31005859375,43.777058823529416,199.9872879872144
0.77736279296875,0.13928759765625,0.0261323242187498,0.7901751990046885,6.43212890625,4.97900390625,12.1259765625,43.40058823529412,199.9872879872144
1.24513623046875,0.36682666015625,0.0427338867187498,1.298750251627082,6.2353515625,0.88623046875,10.0751953125,43.96529411764706,200.2079426407173
1.71388623046875,0.55481494140625,0.0817963867187498,1.8033070396020323,7.16796875,-4.17822265625,4.63134765625,44.01235294117648,200.2079426407173
1.79933544921875,0.51477587890625,0.0622651367187498,1.8725595348531767,7.1064453125,-6.1259765625,-1.90380859375,44.01235294117648,200.2079426407173
1.61867138671875,0.60559619140625,0.1477143554687499,1.7345498943643292,6.23388671875,-6.0263671875,-6.3662109375,43.87117647058824,200.2079426407173
1.39552685546875,0.51184619140625,0.2048432617187499,1.5004807529132644,5.341796875,-3.353515625,-7.88818359375,43.96529411764706,200.2079426407173
1.06203076171875,0.32239306640625,0.1970307617187499,1.127238993810631,4.7265625,1.27685546875,-7.09716796875,43.30647058823529,200.08649807087977
0.90333935546875,0.07483447265625,0.1486909179687499,0.9185484083720494,4.57763671875,5.14697265625,-4.880859375,43.96529411764706,200.08649807087977
0.77296826171875,-0.22643505859375,-0.0143950195312501,0.8055805273044813,4.658203125,7.47314453125,-2.83837890625,43.87117647058824,200.08649807087977
0.57619091796875,-0.29674755859375,-0.1325590820312501,0.6615338220453959,3.8291015625,6.3427734375,-0.3740234375,43.87117647058824,200.08649807087977
0.31837841796875,-0.35338818359375,-0.2311918945312501,0.5288645548993832,3.150390625,2.7578125,2.70556640625,43.447647058823534,200.2079426407173
0.43703076171875,-0.31872021484375,-0.2477934570312501,0.5949622335795903,2.76611328125,-1.96728515625,3.8095703125,43.96529411764706,200.2079426407173
0.90871044921875,-0.21569287109375,-0.1198637695312501,0.9416185100167944,3.1123046875,-7.3837890625,1.5849609375,43.30647058823529,200.2079426407173
0.97462841796875,-0.28649365234375,-0.0056059570312501,1.01587922151197,2.93017578125,-10.14990234375,-1.35400390625,43.96529411764706,200.2079426407173
0.83742138671875,-0.27233349609375,0.1613862304687499,0.8952572967664163,2.83984375,-10.28662109375,-1.208984375,44.76529411764706,200.2079426407173
0.82765576171875,-0.22301708984375,0.2761323242187499,0.9005552413633872,2.56494140625,-7.93408203125,0.73681640625,44.57705882352941,200.22961955339835
