AccX,AccY,AccZ,Magnitude,GyroX,GyroY,GyroZ,Temperature,Altitude
-0.20256494140625,-0.0708447265625,0.8633349609375001,0.8896059720716738,0.9140625,1.056640625,-0.07958984375,28.388823529411766,212.0212120338201
-0.15227197265625,-0.0781689453125,0.8311083984375001,0.848550710105908,0.998046875,0.12939453125,0.1201171875,28.43588235294117,212.0212120338201
-0.13518212890625,-0.0664501953125,0.8579638671875001,0.8710865822821665,1.07568359375,-0.53857421875,0.080078125,28.43588235294117,212.0212120338201
-0.15080712890625,-0.0566845703125,0.8911669921875001,0.9056127972842338,1.0009765625,-0.89501953125,-0.10986328125,28.388823529411766,212.0212120338201
-0.18059228515625,-0.0576611328125,0.9268115234375,0.946001046337538,1.0166015625,-1.1474609375,-0.205078125,28.388823529411766,212.2039023811093
-0.19670556640625,-0.0488720703125,0.9663623046875,0.9873893168516512,0.8857421875,-1.25830078125,-0.25634765625,28.43588235294117,212.2039023811093
-0.16936181640625,-0.0200634765625,1.0308154296875005,1.0448284155927343,0.75341796875,-1.6220703125,-0.20068359375,28.24764705882353,212.2039023811093
-0.26164697265625,0.0131396484375,1.0859912109375005,1.1171430968746752,0.62939453125,-0.8154296875,-0.08154296875,28.43588235294117,212.2039023811093
-0.33635400390625,0.0326708984375,1.0464404296875005,1.0996540257885838,0.57470703125,0.9560546875,-0.45458984375,28.388823529411766,212.2039023811093
-0.24358056640625,0.0619677734375,1.0400927734375005,1.0700301279087905,0.5771484375,2.34033203125,-0.912109375,28.388823529411766,212.2039023811093
-0.22990869140625,0.0766162109375,0.8193896484375001,0.8544749534825955,0.79931640625,2.97607421875,-1.0556640625,28.388823529411766,212.2039023811093
-0.21135400390625,0.0951708984375,0.6782763671875001,0.7167892613325596,1.15478515625,2.17578125,-0.75537109375,28.294705882352943,212.2039023811093
-0.13225244140625,0.1034716796875,0.4985888671875,0.5261064105659432,1.46533203125,0.08447265625,-0.6240234375,28.43588235294117,211.7361509122392
-0.07268212890625,0.1249560546875,0.3584521484375,0.3865031050132324,1.6123046875,-2.10693359375,-0.6533203125,28.341764705882355,211.7361509122392
-0.04777978515625,0.1181201171875,0.2549365234375,0.2850050893166035,1.6982421875,-4.26513671875,-1.62255859375,28.388823529411766,211.7361509122392
-0.04973291015625,0.0741748046875,0.1567919921875,0.1804411062290505,1.65478515625,-5.97314453125,-2.31201171875,28.388823529411766,211.7361509122392
0.0308334960937499,0.0434130859375,0.1104052734375,0.1225753846201969,1.6298828125,-7.02099609375,-2.142578125,28.341764705882355,211.7361509122392
0.08649755859375,0.0473193359375,0.0615771484375,0.116244106972952,1.50634765625,-7.96533203125,-1.8701171875,28.48294117647059,211.7361509122392
0.09772802734375,0.1122607421875,0.0147021484375,0.1495640155039553,1.37548828125,-8.23193359375,-1.5029296875,28.43588235294117,211.7361509122392
0.13337255859375,0.1244677734375,-0.0570751953124999,0.1911492713307903,1.15625,-7.884765625,-1.6572265625,28.388823529411766,211.7361509122392
0.13679052734375,0.1083544921875,-0.1312939453124999,0.2183814195940532,0.80859375,-7.07177734375,-2.33056640625,28.341764705882355,211.7361509122392
0.23102880859375,0.1122607421875,-0.2069775390624999,0.3298734398418651,0.6923828125,-5.81298828125,-2.912109375,28.43588235294117,211.4527512189977
0.2969467773437499,0.0985888671875,-0.3031689453124999,0.4356702453806625,0.43017578125,-4.6162109375,-3.17138671875,28.388823529411766,211.4527512189977
0.3291733398437499,0.0937060546875,-0.3236767578124999,0.4710653414304616,0.00244140625,-2.755859375,-3.01904296875,28.388823529411766,211.4527512189977
0.3374741210937499,0.0961474609375,-0.5492626953124999,0.6517841859961618,-0.48779296875,-0.89306640625,-2.681640625,28.341764705882355,211.4527512189977
0.4009506835937499,0.0761279296875,-0.6439892578124999,0.7624166030004166,-0.927734375,-0.00439453125,-2.3974609375,28.341764705882355,211.4527512189977
0.53083349609375,0.0219287109375,-0.6405712890624999,0.8322239153675449,-0.93994140625,-0.5009765625,-2.21142578125,28.341764705882355,211.4527512189977
0.65339208984375,-0.0644970703125,-0.6488720703124999,0.9231013263888794,-0.50927734375,-2.56298828125,-2.06884765625,28.388823529411766,211.4527512189977
0.78864599609375,-0.1460400390625,-0.6332470703124999,1.0219060877710064,0.015625,-6.19921875,-1.7919921875,28.388823529411766,211.4527512189977
0.88679052734375,-0.1553173828125,-0.5092236328124999,1.0343256919389998,0.658203125,-11.3251953125,-1.0908203125,28.341764705882355,211.78192593003155
0.89704443359375,-0.0571728515625,-0.3085400390624999,0.9503443620614626,1.0439453125,-15.75,0.02490234375,28.341764705882355,211.78192593003155
0.81013037109375,-0.0464306640625,-0.0634228515624999,0.8139345691356895,1.04052734375,16.0,0.90673828125,28.341764705882355,211.78192593003155
0.50983740234375,-0.0498486328125,0.1807177734375,0.5432108031492985,0.875,16.0,1.4599609375,28.341764705882355,211.78192593003155
0.3125717773437499,-0.0610791015625,0.6279833984375001,0.7041270633576193,1.1142578125,16.0,1.84375,28.341764705882355,211.78192593003155
0.19831396484375,-0.0039501953125,0.8491748046875001,0.87203318836562,0.79931640625,16.0,1.97265625,28.388823529411766,211.78192593003155
0.12263037109375,0.0331591796875,1.0239794921875005,1.0318293170542838,0.861328125,16.0,1.5859375,28.341764705882355,211.78192593003155
0.07575537109375,0.0185107421875,1.2119677734375005,1.2144741280393485,0.84716796875,-12.68017578125,0.54736328125,28.388823529411766,211.78192593003155
-0.02971337890625,-0.0903759765625,1.3042529296875005,1.3077180149497365,0.36962890625,-7.2236328125,0.0478515625,28.43588235294117,211.848079067236
0.0562241210937499,-0.0513134765625,1.3276904296875005,1.3298707086606103,0.4599609375,-2.4287109375,-0.20556640625,28.388823529411766,211.848079067236
0.2793686523437499,0.0380419921875,1.2979052734375005,1.328176244290956,0.50048828125,1.64013671875,-1.07177734375,28.48294117647059,211.848079067236
0.50348974609375,0.0688037109375,0.9834521484375,1.106984192898279,0.76611328125,3.109375,-2.17578125,28.43588235294117,211.848079067236
0.68024755859375,0.0473193359375,0.8569873046875001,1.095172635214133,1.12060546875,2.50634765625,-2.91552734375,28.341764705882355,211.848079067236
0.79889990234375,0.0146044921875,0.7988818359375001,1.1298966912721615,1.5380859375,0.86669921875,-2.78759765625,28.341764705882355,211.848079067236
0.84479833984375,-0.0913525390625,0.7866748046875001,1.1579666531148631,1.52099609375,-2.18212890625,-2.04345703125,28.341764705882355,211.848079067236
0.88727880859375,-0.2134228515625,0.9561083984375,1.3217247320495047,1.4658203125,-5.46630859375,-1.21533203125,28.388823529411766,211.848079067236
0.91657568359375,-0.3096142578125,1.0591357421875005,1.4344826568401594,1.845703125,-8.5830078125,0.0625,28.388823529411766,211.3725539299301
1.13776708984375,-0.2417431640625,1.6152880859375005,1.9905047874029589,3.1357421875,-11.61865234375,0.8544921875,28.388823529411766,211.3725539299301
1.08259130859375,-0.3184033203125,1.5664599609375005,1.9305909522861304,3.41748046875,-12.521484375,1.28515625,28.48294117647059,211.3725539299301
0.76081396484375,-0.3491650390625,1.9170458984375005,2.0918458572086105,3.71044921875,-10.04541015625,2.0986328125,28.388823529411766,211.3725539299301
0.64509130859375,-0.6318798828125,1.8086474609375005,2.021539171196542,1.4814453125,-4.119140625,1.33056640625,28.341764705882355,211.3725539299301
0.85163427734375,-0.7314892578125,2.1616748046875003,2.435815148541169,-0.90869140625,2.7783203125,-0.7109375,28.388823529411766,211.3725539299301
0.65388037109375,-0.3657666015625,2.2207568359375003,2.343737543088692,-1.10498046875,10.513671875,-0.71240234375,28.43588235294117,211.3725539299301
0.51325537109375,-0.1909619140625,2.1411669921875003,2.210089051828515,-0.2099609375,14.97802734375,1.08349609375,28.341764705882355,211.3725539299301
0.50397802734375,-0.1470166015625,1.9678271484375005,2.036652012325117,0.2900390625,14.48095703125,2.70654296875,28.43588235294117,211.3725539299301
0.72321630859375,-0.0146923828125,1.8799365234375005,2.014303608516589,0.56298828125,11.75537109375,3.50634765625,28.43588235294117,211.41348072773528
1.00544287109375,0.1371630859375,1.8564990234375005,2.1157310091789867,1.197265625,10.05712890625,2.787109375,28.43588235294117,211.41348072773528
1.21491552734375,0.1801318359375,1.8462451171875005,2.2174508449203207,1.5380859375,9.66650390625,1.6484375,28.294705882352943,211.41348072773528
1.39802099609375,0.1293505859375,1.8267138671875005,2.303926611716712,1.60009765625,10.171875,0.87744140625,28.341764705882355,211.41348072773528
1.49860693359375,-0.0586376953125,1.8272021484375005,2.3638800333311,1.23193359375,11.32666015625,0.583984375,28.341764705882355,211.41348072773528
1.55866552734375,-0.2334423828125,1.8550341796875005,2.434149826948174,0.55029296875,13.0869140625,0.68408203125,28.388823529411766,211.41348072773528
1.50397802734375,-0.3818798828125,1.9404833984375005,2.4846041880430847,0.4208984375,15.4833984375,1.49853515625,28.294705882352943,211.41348072773528
1.53034521484375,-0.4487744140625,2.0156787109375003,2.570275397119726,0.5947265625,15.99951171875,2.0908203125,28.341764705882355,210.92854580431188
1.52009130859375,-0.4038525390625,2.0142138671875003,2.555549248701717,0.8642578125,15.99951171875,2.99658203125,28.341764705882355,210.92854580431188
1.41706396484375,-0.3242626953125,1.9473193359375005,2.430075960159699,0.57421875,15.92919921875,4.0888671875,28.43588235294117,210.92854580431188
1.33356787109375,-0.1685009765625,1.9854052734375005,2.397630068569684,0.505859375,14.85791015625,4.37646484375,28.48294117647059,210.92854580431188
1.27204443359375,-0.0493603515625,2.0259326171875003,2.392683943760105,0.61669921875,14.1123046875,4.17138671875,28.388823529411766,210.92854580431188
1.24811865234375,-0.0146923828125,2.0630419921875003,2.411256580700208,0.46826171875,13.93408203125,3.646484375,28.341764705882355,210.92854580431188
1.20856787109375,-0.0044384765625,2.0508349609375003,2.3804579467232334,0.4765625,14.685546875,3.09912109375,28.388823529411766,210.92854580431188
1.07282568359375,-0.0122509765625,1.9673388671875005,2.240876447319604,0.5791015625,15.3935546875,2.734375,28.388823529411766,211.3693781709705
0.86237646484375,-0.0303173828125,1.8633349609375005,2.0534433246303534,0.99072265625,15.53759765625,2.212890625,28.43588235294117,211.3693781709705
0.57917333984375,-0.0825634765625,1.6821826171875005,1.7810100625250938,1.37158203125,14.96484375,1.36865234375,28.294705882352943,211.3693781709705
0.24421240234375,-0.1138134765625,1.4858935546875005,1.5101234587832888,1.6962890625,13.54248046875,0.548828125,28.388823529411766,211.3693781709705
-0.00334619140625,-0.1069775390625,1.3564990234375005,1.3607148824965822,2.1220703125,11.90087890625,-0.01318359375,28.48294117647059,211.3693781709705
-0.13664697265625,-0.1191845703125,1.1958544921875005,1.209522766805866,2.4248046875,10.47802734375,-0.201171875,28.388823529411766,211.3693781709705
-0.20207666015625,-0.1094189453125,1.0620654296875005,1.0866418265051734,2.6962890625,9.9775390625,0.36865234375,28.43588235294117,211.3693781709705
-0.09660791015625,-0.0786572265625,0.8525927734375001,0.8616463804328959,2.8994140625,12.400390625,0.60595703125,28.43588235294117,210.9394705350176
0.0532944335937499,0.0023974609375,0.7979052734375001,0.7996867323210991,3.72216796875,15.99951171875,-0.041015625,28.48294117647059,210.9394705350176
0.08698583984375,-0.0337353515625,0.4805224609375,0.4894961141253312,4.59130859375,15.99951171875,-0.29931640625,28.43588235294117,210.9394705350176
-0.02971337890625,-0.1387158203125,0.1768115234375,0.2266876231982809,4.25732421875,15.99951171875,0.40625,28.43588235294117,210.9394705350176
0.0586655273437499,-0.2671337890625,-0.1542431640624999,0.3139953168717964,3.0498046875,15.99951171875,1.5673828125,28.388823529411766,210.9394705350176
0.2891342773437499,-0.2436962890625,-0.2641064453124999,0.4612360849863447,2.9677734375,15.99951171875,2.16064453125,28.341764705882355,210.9394705350176
0.4341538085937499,-0.2104931640625,-0.3671337890624999,0.6062871602672196,3.32275390625,15.99951171875,2.79150390625,28.43588235294117,210.9394705350176
0.4448959960937499,-0.2427197265625,-0.7919384765624999,0.9402190508934384,2.62548828125,15.99951171875,3.6982421875,28.388823529411766,210.9394705350176
0.50739599609375,-0.1079541015625,-0.8339306640624999,0.9821125889427634,2.58251953125,13.666015625,4.7255859375,28.294705882352943,210.9394705350176
0.54938818359375,0.1698779296875,-0.8060986328124999,0.9901923515608132,3.50634765625,9.48681640625,5.20751953125,28.43588235294117,211.3725539299301
0.50641943359375,0.3314990234375,-0.7851025390624999,0.9913315500395492,4.12646484375,2.69140625,5.142578125,28.388823529411766,211.3725539299301
0.2754624023437499,0.4823779296875,-0.5233837890624999,0.7632159542410052,4.76708984375,-7.01708984375,5.54248046875,28.341764705882355,211.3725539299301
-0.10539697265625,0.4398974609375,-0.3031689453124999,0.5445454135205393,4.07080078125,16.0,6.0732421875,28.388823529411766,211.3725539299301
-0.58195947265625,0.1928271484375,0.3525927734375,0.7072346151520205,1.6357421875,16.0,4.90625,28.388823529411766,211.3725539299301
-1.30461572265625,0.0668505859375,2.0415576171875003,2.4237261992515533,1.1220703125,16.0,3.693359375,28.341764705882355,211.3725539299301
-1.55608056640625,0.4037646484375,3.3345263671875003,3.7018209997167233,2.5830078125,16.0,5.74658203125,28.388823529411766,211.3725539299301
-2.59660791015625,0.6938037109375,4.5205615234375,5.259202669186673,6.89453125,-7.93798828125,1.5009765625,28.388823529411766,211.3725539299301
-0.21428369140625,0.0419482421875,3.1431201171875003,3.1506953560276303,3.33740234375,15.99951171875,-2.3017578125,28.48294117647059,211.2151119446148
-0.34904931640625,0.1220263671875,2.8081591796875003,2.83239895460294,3.45703125,15.99951171875,-2.076171875,28.388823529411766,211.2151119446148
-0.52922509765625,0.0180224609375,2.3735888671875003,2.431939169371625,8.2509765625,15.99951171875,-2.46484375,28.388823529411766,211.2151119446148
0.20905615234375,-0.3296337890625,1.4131396484375005,1.466058176100299,10.57421875,15.99951171875,-1.4951171875,28.388823529411766,211.2151119446148
0.4961655273437499,-0.6348095703125,0.2109912109375,0.832874967913861,7.45361328125,15.99951171875,-0.37841796875,28.48294117647059,211.2151119446148
0.69391943359375,-0.5200634765625,-0.7650830078124999,1.156435129532464,2.08203125,15.99951171875,0.7431640625,28.43588235294117,211.2151119446148
0.87653662109375,-0.0166455078125,-1.0521923828125,1.3695628249545293,-1.353515625,15.99951171875,0.98779296875,28.388823529411766,211.2151119446148
1.73591162109375,0.1703662109375,-2.1068798828125,2.735206873835605,-2.94921875,15.99951171875,-1.5,28.341764705882355,211.2151119446148
3.43903662109375,-1.1157666015625,-5.3983837890625,6.497265234265802,-14.5244140625,8.2392578125,-2.548828125,28.341764705882355,211.2151119446148
1.56501318359375,1.5692919921875,-1.0810009765625,2.465868352709677,3.84423828125,-13.14697265625,-0.1845703125,28.341764705882355,211.5048637543761
0.0542709960937499,-0.0591259765625,-2.5731884765625,2.574439775569729,2.73193359375,16.0,3.03466796875,28.341764705882355,211.5048637543761
-1.46818994140625,-0.2036572265625,-0.7929150390624999,1.681003340017236,0.52001953125,16.0,8.34521484375,28.388823529411766,211.5048637543761
-1.50920556640625,0.1840380859375,0.0815966796875,1.5225733075563794,6.6982421875,16.0,6.82080078125,28.388823529411766,211.5048637543761
-1.67131494140625,0.2563037109375,0.3804248046875,1.7331209587416665,8.1591796875,-9.18701171875,2.27099609375,28.48294117647059,211.5048637543761
-2.83195947265625,-0.0537548828125,0.8286669921875001,2.95119857450066,6.22802734375,-0.3515625,-0.51025390625,28.294705882352943,211.5048637543761
-3.71672509765625,0.0888232421875,1.5068896484375005,4.0115647112403225,4.26025390625,4.75390625,1.2373046875,28.388823529411766,211.5048637543761
-3.65910791015625,0.7826708984375,2.1484912109375003,4.314818526532105,2.43798828125,2.35009765625,3.51611328125,28.341764705882355,211.00413613334464
-2.71477197265625,1.5194873046875,1.9131396484375005,3.652250244308288,0.84033203125,6.2099609375,1.28466796875,28.43588235294117,211.00413613334464
-2.61516259765625,1.9897021484375,0.9097216796875,3.4096310044006866,1.5390625,15.99951171875,0.83935546875,28.388823529411766,211.00413613334464
-1.94963525390625,1.6513232421875,-0.6884228515624999,2.646105080305045,4.736328125,15.99951171875,3.6689453125,28.341764705882355,211.00413613334464
-0.44035791015625,1.2631396484375,-2.4389111328125,2.7816765401909587,6.02099609375,15.99951171875,-1.61572265625,28.388823529411766,211.00413613334464
0.3516342773437499,0.6220263671875,-2.8187939453125,2.9079482066587685,9.7890625,15.99951171875,-2.99853515625,28.388823529411766,211.00413613334464
1.49421240234375,-0.4912548828125,-2.8905712890625,3.2908060472105376,7.8525390625,11.17822265625,-2.5888671875,28.388823529411766,211.00413613334464
2.04987646484375,-0.0239697265625,-1.7245556640625,2.678928947800192,3.04345703125,-7.55322265625,-1.3037109375,28.388823529411766,210.82931341455208
1.21979833984375,-0.1924267578125,-1.1605908203125,1.6946702036683836,2.5126953125,16.0,0.38037109375,28.43588235294117,210.82931341455208
-0.34856103515625,-0.3809033203125,-0.6459423828124999,0.8269363316288466,0.794921875,16.0,2.6337890625,28.43588235294117,210.82931341455208
-1.60832666015625,-0.0586376953125,-0.0614697265624999,1.6105687046396338,0.2158203125,16.0,3.60546875,28.388823529411766,210.82931341455208
-1.80705712890625,0.2826708984375,0.3857958984375,1.869277073952805,1.55126953125,-1.5654296875,1.55126953125,28.388823529411766,210.82931341455208
-1.48479150390625,0.2328662109375,-0.0687939453124999,1.5045149016145474,2.013671875,15.99951171875,1.654296875,28.294705882352943,210.82931341455208
-1.60686181640625,0.3344287109375,-0.6762158203124999,1.775138105997564,0.4794921875,15.99951171875,3.150390625,28.294705882352943,210.82931341455208
-1.25920556640625,0.5380419921875,-1.1679150390625,1.799753700452909,-1.146484375,15.99951171875,2.7138671875,28.294705882352943,210.82931341455208
0.0332749023437499,0.8173388671875,-1.4794384765625,1.6905289849259912,-1.53369140625,15.99951171875,-1.08056640625,28.341764705882355,210.82931341455208
0.80280615234375,0.8397998046875,-1.6098095703125,1.9852577371373863,0.45654296875,8.82080078125,-3.650390625,28.388823529411766,210.87500746245595
0.55280615234375,0.5175341796875,-1.6527783203125,1.8179968221393907,0.5390625,-1.2998046875,-3.9873046875,28.43588235294117,210.87500746245595
-0.09074853515625,0.2206591796875,-1.1893994140625,1.2130938695688738,-0.65625,-8.39892578125,-3.267578125,28.43588235294117,210.87500746245595
-0.48479150390625,0.1537646484375,-0.6981884765624999,0.8637902049534112,-0.5732421875,-9.85498046875,-2.64013671875,28.43588235294117,210.87500746245595
-0.82463525390625,0.1020068359375,-0.4520947265624999,0.945948380382686,0.7490234375,-6.59912109375,-2.04052734375,28.43588235294117,210.87500746245595
-1.03215478515625,0.0048388671875,-0.3656689453124999,1.095025430171628,1.38671875,-0.55078125,-1.4306640625,28.341764705882355,210.87500746245595
-1.09221337890625,-0.0024853515625,-0.4047314453124999,1.1647934515865643,2.04541015625,5.4169921875,-0.2587890625,28.388823529411766,210.87500746245595
-0.88225244140625,0.0116748046875,-0.5521923828124999,1.0408756405392174,2.43994140625,8.31787109375,0.05419921875,28.43588235294117,210.87500746245595
-0.70647119140625,0.0277880859375,-0.8163525390624999,1.079956105608384,2.42919921875,7.1796875,-0.33544921875,28.341764705882355,210.78214093336507
-0.56828759765625,0.0634326171875,-0.9579541015625,1.1156390775127878,2.19140625,3.5537109375,-0.9111328125,28.341764705882355,210.78214093336507
-0.60735009765625,0.0824755859375,-0.9066845703125,1.0944191488828916,2.0927734375,0.11669921875,-1.2109375,28.388823529411766,210.78214093336507
-0.68645166015625,0.0463427734375,-0.7289501953124999,1.0023631685308887,2.14111328125,-1.7509765625,-1.40283203125,28.341764705882355,210.78214093336507
-0.82805322265625,0.1381396484375,-0.5409619140624999,0.9986963975543324,2.0703125,-1.66162109375,-1.24658203125,28.294705882352943,210.78214093336507
-0.83830712890625,0.0756396484375,-0.3954541015624999,0.929980723043974,2.22900390625,-0.66162109375,-0.2705078125,28.294705882352943,210.78214093336507
-0.80070947265625,0.1049365234375,-0.3227001953124999,0.8696451860427473,1.5810546875,0.47412109375,0.189453125,28.388823529411766,210.78214093336507
-0.75725244140625,0.2270068359375,-0.2509228515624999,0.829412829063029,1.53759765625,1.14306640625,-0.3056640625,28.341764705882355,210.78214093336507
-0.79387353515625,0.2929248046875,-0.2904736328124999,0.8946591878374597,1.46435546875,1.70654296875,-1.33544921875,28.388823529411766,210.78214093336507
-0.70061181640625,0.2558154296875,-0.3666455078124999,0.8311001021257013,1.4365234375,2.0234375,-1.7138671875,28.341764705882355,210.84670468793243
-0.84953759765625,0.1879443359375,-0.4789501953124999,0.9931920724776362,1.49658203125,2.62744140625,-1.5048828125,28.43588235294117,210.84670468793243
-0.91643212890625,0.0844287109375,-0.6185986328124999,1.108891483707808,1.14111328125,2.79345703125,-1.65625,28.388823529411766,210.84670468793243
-0.63811181640625,0.0238818359375,-0.7328564453124999,0.97202654375336,0.94189453125,2.5732421875,-1.48291015625,28.388823529411766,210.84670468793243
-0.71672509765625,-0.0327587890625,-0.7602001953124999,1.0453096865639222,0.953125,2.0634765625,-0.72607421875,28.388823529411766,210.84670468793243
-0.66154931640625,-0.0435009765625,-0.7592236328124999,1.0079485887784545,0.837890625,1.60009765625,-0.65185546875,28.341764705882355,210.84670468793243
-0.58293603515625,-0.0249462890625,-0.7685009765624999,0.9648992120419596,0.654296875,1.1103515625,-0.6630859375,28.294705882352943,210.84670468793243
-0.59270166015625,0.0399951171875,-0.7675244140624999,0.9705609684779214,0.4267578125,0.7626953125,-0.298828125,28.294705882352943,210.739629358008
-0.60686181640625,0.1132373046875,-0.7509228515624999,0.9721054883002868,0.44970703125,0.7861328125,-0.24462890625,28.388823529411766,210.739629358008
-0.61174462890625,0.1352099609375,-0.7543408203124999,0.9805831416672944,0.5380859375,0.79150390625,-0.2685546875,28.48294117647059,210.739629358008
-0.60539697265625,0.1273974609375,-0.7431103515624999,0.966927402731982,0.73486328125,0.76904296875,-0.06201171875,28.294705882352943,210.739629358008
-0.64543603515625,0.0902880859375,-0.8085400390624999,1.0384972839192532,0.76806640625,0.84521484375,0.228515625,28.43588235294117,210.739629358008
-0.54436181640625,0.1239794921875,-0.7841259765624999,0.9625768794045888,1.087890625,0.9541015625,0.494140625,28.388823529411766,210.739629358008
-0.66447900390625,0.1303271484375,-0.8080517578124999,1.0542604780394471,1.3037109375,0.783203125,0.6435546875,28.48294117647059,210.739629358008
-0.65764306640625,0.1376513671875,-0.8080517578124999,1.0508995884406247,1.52783203125,0.44189453125,0.70458984375,28.341764705882355,210.739629358008
-0.66154931640625,0.1474169921875,-0.7943798828124999,1.044231136214769,1.6669921875,0.154296875,0.5556640625,28.388823529411766,210.739629358008
-0.68254541015625,0.1366748046875,-0.7602001953124999,1.030753402184486,1.71142578125,-0.1767578125,0.46337890625,28.341764705882355,210.7522481627432
-0.71233056640625,0.1327685546875,-0.7274853515624999,1.026780045427681,1.650390625,-0.43310546875,0.53955078125,28.43588235294117,210.7522481627432
-0.70012353515625,0.1449755859375,-0.6977001953124999,0.9989877114042528,1.6240234375,-0.63525390625,0.544921875,28.43588235294117,210.7522481627432
-0.71721337890625,0.0136279296875,-0.6688916015624999,0.98081431779442,1.3671875,-0.7744140625,0.5146484375,28.43588235294117,210.7522481627432
-0.68889306640625,0.1205615234375,-0.6317822265624999,0.9424741480149188,1.017578125,-0.998046875,0.3212890625,28.294705882352943,210.7522481627432
-0.67863916015625,0.1064013671875,-0.6102978515624999,0.9188774827248476,0.75341796875,-0.72119140625,0.1298828125,28.388823529411766,210.7522481627432
-0.65178369140625,0.0966357421875,-0.6273876953124999,0.9098218327127664,0.4482421875,-0.5478515625,0.1640625,28.341764705882355,210.7522481627432
-0.65520166015625,0.0751513671875,-0.6679150390624999,0.9386412748582482,0.19287109375,-0.466796875,0.43505859375,28.43588235294117,210.7522481627432
-0.69426416015625,0.0590380859375,-0.7655712890624999,1.035175163103059,-0.05322265625,-0.58935546875,0.634765625,28.341764705882355,210.7522481627432
-0.73479150390625,0.0312060546875,-0.8578564453124999,1.1299601996646458,-0.4443359375,-0.8388671875,0.998046875,28.388823529411766,210.6971179528286
-0.64738916015625,0.0375537109375,-0.8939892578124999,1.1044183079690124,-0.658203125,-1.56689453125,1.00341796875,28.388823529411766,210.6971179528286
-0.58000634765625,0.0790576171875,-0.8754345703124999,1.0531111798168034,-0.77294921875,-2.70361328125,0.88818359375,28.43588235294117,210.6971179528286
-0.53459619140625,0.1269091796875,-0.8295361328124999,0.9950021223075556,-0.75439453125,-3.64111328125,0.85986328125,28.341764705882355,210.6971179528286
-0.52776025390625,0.1606005859375,-0.7470166015624999,0.928631916755312,-0.8486328125,-4.49658203125,0.87890625,28.43588235294117,210.6971179528286
-0.59660791015625,0.1718310546875,-0.7250439453124999,0.954544725222628,-1.16162109375,-4.5634765625,0.72705078125,28.43588235294117,210.6971179528286
-0.63274072265625,0.2309130859375,-0.6308056640624999,0.9228203840282596,-0.97509765625,-4.037109375,0.482421875,28.341764705882355,210.6971179528286
-0.66203759765625,0.2299365234375,-0.6459423828124999,0.9531034295576074,-0.4853515625,-3.70751953125,0.3359375,28.294705882352943,210.6971179528286
-0.60197900390625,0.2440966796875,-0.6142041015624999,0.8939846690825413,-0.1357421875,-3.77978515625,0.2822265625,28.341764705882355,210.7412220926621
-0.60051416015625,0.2138232421875,-0.6088330078124999,0.8814846946202505,0.20654296875,-4.22265625,0.40869140625,28.43588235294117,210.7412220926621
-0.57365869140625,0.1791552734375,-0.6122509765624999,0.8579231693619955,0.05810546875,-4.52099609375,0.30126953125,28.341764705882355,210.7412220926621
-0.64787744140625,0.1679248046875,-0.5585400390624999,0.8717286816139429,0.1103515625,-4.72216796875,0.51416015625,28.341764705882355,210.7412220926621
-0.65520166015625,0.1454638671875,-0.5282666015624999,0.8541162417698436,-0.1064453125,-4.95751953125,0.45947265625,28.48294117647059,210.7412220926621
-0.69621728515625,0.1606005859375,-0.5160595703124999,0.8813787701464846,-0.25146484375,-4.57763671875,0.3623046875,28.43588235294117,210.7412220926621
-0.70500634765625,0.1938037109375,-0.4276806640624999,0.8470564202116009,-0.3232421875,-4.32470703125,0.16162109375,28.388823529411766,210.7412220926621
-0.75334619140625,0.2157763671875,-0.3715283203124999,0.8672503776517857,-0.1376953125,-4.26513671875,0.35009765625,28.43588235294117,210.7412220926621
-0.78703759765625,0.2201708984375,-0.3817822265624999,0.9020316364531332,-0.484375,-3.87890625,0.1103515625,28.388823529411766,210.7522481627432
-0.85051416015625,0.3520068359375,-0.2103955078124999,0.9442189464741222,0.2578125,-3.0029296875,-0.0869140625,28.388823529411766,210.7522481627432
-0.78899072265625,0.3075732421875,-0.2060009765624999,0.8715182511525882,1.04931640625,-2.81005859375,-0.28369140625,28.388823529411766,210.7522481627432
-0.81438134765625,0.2494677734375,-0.1234814453124999,0.8606386098303618,1.2177734375,-3.18896484375,-0.08447265625,28.43588235294117,210.7522481627432
-0.75383447265625,0.2533740234375,-0.0150830078124999,0.7954195779854211,1.48486328125,-3.39599609375,-0.18408203125,28.341764705882355,210.7522481627432
-0.83195947265625,0.2616748046875,-0.0165478515624999,0.8722981708922938,1.1884765625,-2.9111328125,-0.09033203125,28.43588235294117,210.7522481627432
-0.95695947265625,0.3183154296875,0.0283740234375,1.008910912959959,1.12060546875,-1.76318359375,-0.47607421875,28.341764705882355,210.7522481627432
-0.92424462890625,0.3466357421875,0.0230029296875,0.9873771349378812,0.8076171875,-0.173828125,-1.232421875,28.294705882352943,210.7522481627432
-1.00285791015625,0.2904833984375,-0.0673291015624999,1.0462493969642104,0.86767578125,1.7041015625,-1.72314453125,28.388823529411766,210.7522481627432
-1.19182275390625,0.1034716796875,-0.2152783203124999,1.215521542558009,0.595703125,2.34375,-1.9814453125,28.43588235294117,211.0498313815833
-1.22404931640625,-0.0151806640625,-0.3070751953124999,1.2620706624956453,0.53857421875,1.56640625,-1.93798828125,28.43588235294117,211.0498313815833
-1.04240869140625,-0.0820751953125,-0.3041455078124999,1.0889704805583111,0.73291015625,-0.369140625,-1.51318359375,28.43588235294117,211.0498313815833
-0.86223291015625,-0.1602001953125,-0.2357861328124999,0.90813258633382,1.0009765625,-1.44091796875,-0.31689453125,28.43588235294117,211.0498313815833
-0.91203759765625,-0.1421337890625,-0.1508251953124999,0.9352875670471092,1.5146484375,-1.35888671875,0.65771484375,28.341764705882355,211.0498313815833
-0.71037744140625,-0.0752392578125,-0.1571728515624999,0.7314371883103523,1.96240234375,-0.0478515625,1.166015625,28.341764705882355,211.0498313815833
-0.63176416015625,0.0102099609375,-0.2240673828124999,0.670400171092401,2.24951171875,1.7392578125,1.90087890625,28.388823529411766,211.0498313815833
-0.53996728515625,0.1234912109375,-0.3163525390624999,0.6378821812757522,2.00341796875,2.89111328125,2.7763671875,28.388823529411766,211.0498313815833
-0.63811181640625,0.2367724609375,-0.4813916015624999,0.8336580609282156,1.8623046875,4.77294921875,3.62255859375,28.43588235294117,210.72076304467743
-0.71818994140625,0.2831591796875,-0.6508251953124999,1.0097273631193544,1.39111328125,6.09326171875,3.767578125,28.341764705882355,210.72076304467743
-0.72453759765625,0.3544482421875,-0.8153759765624999,1.1469203415941969,1.234375,6.4609375,3.1865234375,28.341764705882355,210.72076304467743
-0.58391259765625,0.4481982421875,-0.9335400390625,1.1888366542693949,1.0859375,5.54345703125,2.35546875,28.388823529411766,210.72076304467743
-0.54094384765625,0.5092333984375,-0.9701611328125,1.221945794223863,0.95068359375,3.96240234375,1.79248046875,28.341764705882355,210.72076304467743
-0.53996728515625,0.5556201171875,-0.9262158203125,1.2075405291167745,1.2744140625,1.58935546875,1.20068359375,28.341764705882355,210.72076304467743
-0.57756494140625,0.5067919921875,-0.8368603515624999,1.1361138292021142,1.693359375,-0.96923828125,0.32421875,28.48294117647059,210.72076304467743
-0.54924462890625,0.4242724609375,-0.6620556640624999,0.9591634301877676,1.88818359375,-2.666015625,-0.02685546875,28.43588235294117,210.72076304467743
-0.77434228515625,0.2958544921875,-0.5033642578124999,0.9697996861061854,2.29296875,-3.404296875,-0.70947265625,28.388823529411766,210.7380370620479
-0.76994775390625,0.1718310546875,-0.3495556640624999,0.8628641940528493,2.3369140625,-3.9609375,-1.20556640625,28.48294117647059,210.7380370620479
-0.81877587890625,0.0292529296875,-0.2509228515624999,0.8568616873278093,2.13525390625,-3.9677734375,-1.18115234375,28.388823529411766,210.7380370620479
-0.90129541015625,-0.0361767578125,-0.1879345703124999,0.9213911096234276,1.85888671875,-3.40576171875,-0.84228515625,28.43588235294117,210.7380370620479
-0.94035791015625,-0.0332470703125,-0.1893994140624999,0.9598179540543158,1.4970703125,-2.63232421875,-0.607421875,28.43588235294117,210.7380370620479
-0.91399072265625,-0.0015087890625,-0.2113720703124999,0.9381148488614396,1.01318359375,-2.11279296875,-0.54150390625,28.388823529411766,210.7380370620479
-0.90520166015625,0.0673388671875,-0.2226025390624999,0.9345996249629028,0.9189453125,-1.46484375,-0.57275390625,28.43588235294117,210.7380370620479
-0.88567041015625,0.1361865234375,-0.2855908203124999,0.9404897454194274,0.93798828125,-1.3984375,-0.4189453125,28.388823529411766,210.7380370620479
-0.87346337890625,0.2079638671875,-0.3070751953124999,0.948937521611467,1.07080078125,-1.384765625,-0.4228515625,28.341764705882355,210.5491261195024
-0.87785791015625,0.2611865234375,-0.3344189453124999,0.9750327899271856,1.2138671875,-1.1259765625,-0.4755859375,28.294705882352943,210.5491261195024
-0.87834619140625,0.2958544921875,-0.3622509765624999,0.9951118944751256,1.44287109375,-0.66748046875,-0.45849609375,28.43588235294117,210.5491261195024
-0.92375634765625,0.2841357421875,-0.4120556640624999,1.0506420799252445,1.58447265625,-0.3115234375,-0.6669921875,28.388823529411766,210.5491261195024
-0.89104150390625,0.3817919921875,-0.4291455078124999,1.0601348753142972,1.62890625,-0.3095703125,-1.0849609375,28.388823529411766,210.5491261195024
-0.87053369140625,0.2182177734375,-0.4218212890624999,0.9916557388649356,1.65283203125,-0.8681640625,-1.1904296875,28.341764705882355,210.5491261195024
-0.83147119140625,0.1693896484375,-0.3671337890624999,0.9245671496477132,1.78564453125,-1.416015625,-1.28271484375,28.294705882352943,210.5491261195024
-0.78850244140625,0.1645068359375,-0.2787548828124999,0.8523513852077644,1.63525390625,-2.087890625,-1.705078125,28.53,210.5491261195024
-0.60735009765625,0.1645068359375,-0.1342236328124999,0.6433915011861819,1.451171875,-1.501953125,-1.7099609375,28.388823529411766,210.5491261195024
-0.84514306640625,0.1332568359375,-0.0189892578124999,0.8557948229166279,1.724609375,1.0966796875,-0.65869140625,28.341764705882355,211.0403971787344
-0.87151025390625,0.0858935546875,0.0298388671875,0.8762409391232666,1.84521484375,3.78662109375,-0.12451171875,28.341764705882355,211.0403971787344
-0.84514306640625,0.0478076171875,-0.2309033203124999,0.877421628572628,1.46826171875,5.93701171875,0.33056640625,28.43588235294117,211.0403971787344
-0.77824853515625,0.0033740234375,-0.4374462890624999,0.8927717638464816,1.5146484375,6.322265625,0.58349609375,28.43588235294117,211.0403971787344
-0.73283837890625,-0.0425244140625,-0.6361767578124999,0.971381121172387,1.07861328125,5.50341796875,0.9658203125,28.294705882352943,211.0403971787344
-0.66399072265625,-0.0024853515625,-0.7479931640624999,1.0001917967221028,0.5029296875,4.19873046875,1.01953125,28.341764705882355,211.0403971787344
-0.58977197265625,0.0741748046875,-0.7421337890624999,0.9508393356658824,0.27783203125,3.0732421875,0.7861328125,28.388823529411766,211.0403971787344
-0.60979150390625,0.1283740234375,-0.7572705078124999,0.9807059651763008,-0.01708984375,2.46142578125,0.52587890625,28.341764705882355,211.0403971787344
-0.64104150390625,0.1728076171875,-0.7587353515624999,1.0082043523011983,-0.1083984375,2.16796875,0.21044921875,28.43588235294117,210.9427546823761
-0.63957666015625,0.1957568359375,-0.7650830078124999,1.0162337584809444,-0.1181640625,2.1396484375,-0.07958984375,28.48294117647059,210.9427546823761
-0.64445947265625,0.2299365234375,-0.7821728515624999,1.0392272063549473,-0.10107421875,1.9130859375,-0.3046875,28.341764705882355,210.9427546823761
-0.63078759765625,0.2528857421875,-0.7934033203124999,1.0446688569310203,-0.1376953125,1.40380859375,-0.546875,28.341764705882355,210.9427546823761
-0.63567041015625,0.2641162109375,-0.7733837890624999,1.0353534316420006,-0.17333984375,0.7724609375,-0.8505859375,28.388823529411766,210.9427546823761
-0.66496728515625,0.2240771484375,-0.7352978515624999,1.0163931273342923,-0.1435546875,0.16943359375,-1.12158203125,28.388823529411766,210.9427546823761
-0.78313134765625,0.1640185546875,-0.7265087890624999,1.0807459528255152,-0.1162109375,0.48046875,-0.81689453125,28.341764705882355,210.9427546823761
-0.77922509765625,0.1254443359375,-0.6874462890624999,1.0466663434839178,-0.15283203125,0.353515625,-0.64208984375,28.341764705882355,210.90967668057667
-0.75188134765625,0.0917529296875,-0.6781689453124999,1.016689372151537,-0.23876953125,-0.18359375,-0.4697265625,28.388823529411766,210.90967668057667
-0.76164697265625,0.1020068359375,-0.6127392578124999,0.9828331005816928,-0.248046875,-0.97802734375,-0.099609375,28.43588235294117,210.90967668057667
-0.82658837890625,0.1068896484375,-0.4838330078124999,0.963726166779156,-0.07177734375,-1.3935546875,0.62744140625,28.48294117647059,210.90967668057667
-1.01945947265625,0.1230029296875,-0.3529736328124999,1.0858258251492827,0.16064453125,-1.728515625,1.4267578125,28.48294117647059,210.90967668057667
-0.82170556640625,0.2577685546875,-0.2128369140624999,0.8870987643077556,0.86962890625,-2.18212890625,0.28466796875,28.43588235294117,210.90967668057667
-0.74602197265625,0.2821826171875,-0.1122509765624999,0.8054663834499518,1.36669921875,-2.27392578125,-0.1640625,28.388823529411766,210.90967668057667
-0.92766259765625,0.1957568359375,-0.0961376953124999,0.9529538763059848,1.544921875,-0.10595703125,0.62939453125,28.43588235294117,210.85295573911247
-1.00236962890625,0.1615771484375,-0.1713330078124999,1.0296635603035225,1.337890625,1.625,0.7294921875,28.388823529411766,210.85295573911247
-0.74406884765625,0.1918505859375,-0.2807080078124999,0.81807217470534,1.0390625,1.73828125,-0.0244140625,28.388823529411766,210.85295573911247
-0.69963525390625,0.1469287109375,-0.3461376953124999,0.7942851117341099,0.85400390625,1.22802734375,-0.353515625,28.388823529411766,210.85295573911247
-0.74943994140625,0.0160693359375,-0.3383251953124999,0.8224246999669435,0.53125,0.84228515625,-0.1552734375,28.388823529411766,210.85295573911247
-0.80510400390625,0.1581591796875,-0.3270947265624999,0.8832880296767837,0.5302734375,1.232421875,0.11767578125,28.43588235294117,210.85295573911247
-0.85832666015625,0.2035693359375,-0.3627392578124999,0.9538054829090578,0.57373046875,1.8916015625,0.4345703125,28.341764705882355,210.85295573911247
-0.85051416015625,0.2436083984375,-0.4271923828124999,0.9824524010600192,0.68408203125,2.71875,0.6787109375,28.341764705882355,210.85295573911247
-0.80119775390625,0.2890185546875,-0.5268017578124999,1.0014837282015177,0.802734375,2.87744140625,0.625,28.294705882352943,210.85295573911247
-0.76652978515625,0.3158740234375,-0.6337353515624999,1.0435347651297135,0.93017578125,2.626953125,0.73486328125,28.388823529411766,210.704959306063
-0.71672509765625,0.3139208984375,-0.6898876953124999,1.0431616500954015,1.03857421875,1.83984375,0.47119140625,28.388823529411766,210.704959306063
-0.66545556640625,0.3090380859375,-0.7201611328124999,1.028089347593272,1.119140625,0.4072265625,0.03125,28.43588235294117,210.704959306063
-0.68059228515625,0.2802294921875,-0.6747509765624999,0.9985105443999668,1.21728515625,-0.27685546875,-0.21240234375,28.294705882352943,210.704959306063
-0.70451806640625,0.2348193359375,-0.6283642578124999,0.9727936404598788,1.1494140625,-0.50390625,-0.080078125,28.388823529411766,210.704959306063
-0.74943994140625,0.2128466796875,-0.5517041015624999,0.954642001228671,1.2158203125,-0.24853515625,0.16796875,28.341764705882355,210.704959306063
-0.77531884765625,0.1820849609375,-0.5238720703124999,0.9532660670474594,1.17578125,0.20751953125,0.39990234375,28.341764705882355,210.704959306063
-0.75774072265625,0.1737841796875,-0.5170361328124999,0.9336478493066744,1.158203125,0.1376953125,0.5263671875,28.43588235294117,210.704959306063
-0.69475244140625,0.1449755859375,-0.5292431640624999,0.8853232189797987,1.111328125,-0.11572265625,0.4072265625,28.341764705882355,210.86875675314647
-0.80266259765625,0.1151904296875,-0.5102001953124999,0.9580398321911168,1.12158203125,-0.1923828125,0.15380859375,28.48294117647059,210.86875675314647
-0.79924462890625,0.0990771484375,-0.4965283203124999,0.9461229471111818,1.1171875,-0.2314453125,-0.2080078125,28.43588235294117,210.86875675314647
-0.81340478515625,0.0932177734375,-0.4965283203124999,0.9575266422779488,1.1787109375,0.00634765625,-0.21533203125,28.341764705882355,210.86875675314647
-0.77434228515625,0.0985888671875,-0.4931103515624999,0.9233003618175452,1.2431640625,0.07373046875,0.0,28.388823529411766,210.86875675314647
-0.73869775390625,0.1064013671875,-0.5233837890624999,0.91155154172374,1.05029296875,0.24462890625,0.390625,28.43588235294117,210.86875675314647
-0.71428369140625,0.1269091796875,-0.5463330078124999,0.9081777838745816,0.935546875,0.46337890625,0.40380859375,28.388823529411766,210.86875675314647
-0.71037744140625,0.1444873046875,-0.4579541015624999,0.8574582494866237,0.84716796875,0.61865234375,0.36328125,28.388823529411766,210.86875675314647
-0.69035791015625,0.1508349609375,-0.6107861328124999,0.9340261932046504,0.7626953125,0.56640625,0.05810546875,28.388823529411766,210.86875675314647
-0.67912744140625,0.1552294921875,-0.6264111328124999,0.9368570778017468,0.69775390625,0.408203125,-0.07177734375,28.43588235294117,210.7333826987125
-0.68449853515625,0.1620654296875,-0.6356884765624999,0.9481051035434828,0.70654296875,0.298828125,-0.14501953125,28.43588235294117,210.7333826987125
-0.70402978515625,0.1742724609375,-0.6220166015624999,0.9554755264514784,0.7099609375,0.3447265625,-0.1533203125,28.341764705882355,210.7333826987125
-0.70354150390625,0.1762255859375,-0.6220166015624999,0.9554741008928735,0.77197265625,0.4423828125,-0.2060546875,28.43588235294117,210.7333826987125
-0.69279931640625,0.1898974609375,-0.6166455078124999,0.9467225680149453,0.8583984375,0.51220703125,-0.3388671875,28.48294117647059,210.7333826987125
-0.68693994140625,0.1942919921875,-0.6298291015624999,0.9520086966527332,0.9091796875,0.5107421875,-0.4052734375,28.43588235294117,210.7333826987125
-0.68791650390625,0.1933154296875,-0.6337353515624999,0.9551023335339024,0.93115234375,0.38720703125,-0.42431640625,28.43588235294117,210.7333826987125
-0.67912744140625,0.1938037109375,-0.6268994140624999,0.94433936452742,0.9423828125,0.25439453125,-0.39208984375,28.388823529411766,210.82783781871416
-0.68938134765625,0.1928271484375,-0.5971142578124999,0.932187957739134,0.91455078125,0.1650390625,-0.4296875,28.294705882352943,210.82783781871416
-0.71428369140625,0.1986865234375,-0.5868603515624999,0.9455594104236288,0.91162109375,0.13623046875,-0.447265625,28.388823529411766,210.82783781871416
-0.73674462890625,0.2025927734375,-0.4486767578124999,0.8860853870098767,0.9111328125,0.18896484375,-0.41357421875,28.341764705882355,210.82783781871416
-0.74602197265625,0.2025927734375,-0.5351025390624999,0.9401741024119707,0.90380859375,0.17578125,-0.29736328125,28.341764705882355,210.82783781871416
-0.75725244140625,0.1947802734375,-0.5238720703124999,0.9411761583198004,0.87939453125,0.146484375,-0.326171875,28.341764705882355,210.82783781871416
-0.77043603515625,0.2006396484375,-0.4896923828124999,0.9346799359015846,0.85888671875,0.00830078125,-0.4248046875,28.388823529411766,210.82783781871416
-0.78020166015625,0.1855029296875,-0.4730908203124999,0.9310966070699476,0.82861328125,-0.130859375,-0.41845703125,28.43588235294117,210.56639906877444
-0.78557275390625,0.1752490234375,-0.4662548828124999,0.9301776108045954,0.75634765625,-0.16552734375,-0.31884765625,28.388823529411766,210.56639906877444
-0.78752587890625,0.1747607421875,-0.4594189453124999,0.9283340423947822,0.7080078125,-0.0751953125,-0.234375,28.388823529411766,210.56639906877444
-0.79533837890625,0.1723193359375,-0.4525830078124999,0.9311758531339676,0.65087890625,0.1240234375,-0.19287109375,28.48294117647059,210.56639906877444
-0.79777978515625,0.1703662109375,-0.4696728515624999,0.9413128167235392,0.619140625,0.25634765625,-0.18359375,28.388823529411766,210.56639906877444
-0.67277978515625,0.1649951171875,-0.4970166015624999,0.8525734749799243,0.60986328125,0.31298828125,-0.20654296875,28.48294117647059,210.56639906877444
-0.78752587890625,0.1601123046875,-0.4965283203124999,0.9446551396841902,0.5908203125,0.36669921875,-0.22119140625,28.43588235294117,210.56639906877444
-0.77385400390625,0.1522998046875,-0.4979931640624999,0.9327606559683814,0.5791015625,0.44287109375,-0.201171875,28.294705882352943,210.56639906877444
-0.76994775390625,0.1518115234375,-0.5038525390624999,0.9325951230375495,0.58056640625,0.5126953125,-0.16650390625,28.43588235294117,210.56639906877444
-0.75578759765625,0.1400927734375,-0.5185009765624999,0.9271915339543834,0.57421875,0.54296875,-0.15185546875,28.388823529411766,210.9301370166684
-0.76262353515625,0.1425341796875,-0.5307080078124999,0.9399795946241158,0.568359375,0.55224609375,-0.08251953125,28.388823529411766,210.9301370166684
-0.76652978515625,0.1332568359375,-0.5424267578124999,0.9484471959190672,0.58544921875,0.5439453125,-0.02978515625,28.294705882352943,210.9301370166684
-0.74651025390625,0.1215380859375,-0.5531689453124999,0.9370405261132886,0.62939453125,0.48046875,0.00634765625,28.43588235294117,210.9301370166684
-0.74358056640625,0.1200732421875,-0.5639111328124999,0.9409173225827732,0.66015625,0.4296875,0.017578125,28.388823529411766,210.9301370166684
-0.73772119140625,0.1264208984375,-0.5624462890624999,0.9362481657615032,0.7109375,0.40673828125,0.05322265625,28.388823529411766,210.9301370166684
-0.72746728515625,0.1225146484375,-0.5643994140624999,0.9288515428465748,0.72412109375,0.43017578125,0.14404296875,28.388823529411766,210.9301370166684
-0.72258447265625,0.1410693359375,-0.5790478515624999,0.9366564429207248,0.79296875,0.45068359375,0.13330078125,28.388823529411766,210.9301370166684
-0.68303369140625,0.1581591796875,-0.5722119140624999,0.9049728307029672,0.86669921875,0.1630859375,0.04638671875,28.388823529411766,210.739629358008
-0.65178369140625,0.1659716796875,-0.5902783203124999,0.894872658132091,0.9130859375,-0.091796875,0.150390625,28.341764705882355,210.739629358008
-0.66838525390625,0.1503466796875,-0.5800244140624999,0.8976476439232292,0.96533203125,-0.09619140625,-0.1015625,28.388823529411766,210.739629358008
-0.72893212890625,0.1518115234375,-0.5819775390624999,0.945032614872871,1.11865234375,-0.0234375,-0.328125,28.43588235294117,210.739629358008
-0.74211572265625,0.1562060546875,-0.6010205078124999,0.9676578569648664,0.97412109375,-0.2724609375,-0.16357421875,28.388823529411766,210.739629358008
-0.72160791015625,0.1762255859375,-0.5780712890624999,0.9412437773379786,0.96240234375,-0.59423828125,0.01025390625,28.388823529411766,210.739629358008
-0.69817041015625,0.1825732421875,-0.5600048828124999,0.913444239762036,0.89697265625,-0.578125,0.10009765625,28.294705882352943,210.739629358008
-0.72209619140625,0.1884326171875,-0.5341259765624999,0.9177256233223452,0.8876953125,-0.27197265625,0.07763671875,28.388823529411766,210.739629358008
-0.73235009765625,0.1908740234375,-0.5346142578124999,0.9265969798228076,0.85986328125,-0.013671875,0.0224609375,28.388823529411766,210.64517376963008
-0.72844384765625,0.1889208984375,-0.5365673828124999,0.9242435292459072,0.87158203125,0.07470703125,0.0361328125,28.388823529411766,210.64517376963008
-0.74065087890625,0.1928271484375,-0.5282666015624999,0.9299524912195952,0.75244140625,0.06005859375,0.07080078125,28.43588235294117,210.64517376963008
-0.73967431640625,0.1855029296875,-0.5336376953124999,0.9307516430993475,0.9033203125,0.04736328125,0.048828125,28.388823529411766,210.64517376963008
-0.73235009765625,0.1938037109375,-0.5297314453124999,0.9243981545108878,0.93359375,0.08740234375,-0.01220703125,28.294705882352943,210.64517376963008
-0.74358056640625,0.1889208984375,-0.5292431640624999,0.9320415716642462,0.92431640625,0.138671875,-0.0146484375,28.341764705882355,210.64517376963008
-0.75578759765625,0.1825732421875,-0.5477978515624999,0.9511205852626426,0.90576171875,0.16064453125,0.05029296875,28.388823529411766,210.64517376963008
-0.74651025390625,0.1801318359375,-0.5585400390624999,0.949574648324884,0.8828125,0.24853515625,0.0478515625,28.388823529411766,210.64517376963008
-0.73235009765625,0.1776904296875,-0.5600048828124999,0.9388908472839052,0.8466796875,0.0439453125,0.0234375,28.43588235294117,210.64517376963008
-0.73772119140625,0.1703662109375,-0.5643994140624999,0.9443536946892044,0.86376953125,0.00244140625,-0.0341796875,28.294705882352943,210.82624502946737
-0.74162744140625,0.1659716796875,-0.5492626953124999,0.9376819123599552,0.88427734375,0.00341796875,-0.07470703125,28.43588235294117,210.82624502946737
-0.73967431640625,0.1620654296875,-0.5424267578124999,0.9314558955966878,0.89599609375,-0.1171875,-0.0771484375,28.388823529411766,210.82624502946737
-0.73235009765625,0.1576708984375,-0.5580517578124999,0.934140536615786,0.9189453125,0.03369140625,-0.0078125,28.43588235294117,210.82624502946737
-0.72356103515625,0.1601123046875,-0.5570751953124999,0.9270972413620844,0.9189453125,0.0341796875,0.0380859375,28.341764705882355,210.82624502946737
-0.72942041015625,0.1562060546875,-0.5468212890624999,0.9249151249955428,0.92431640625,0.1455078125,-0.0263671875,28.294705882352943,210.82624502946737
-0.73235009765625,0.1532763671875,-0.5443798828124999,0.925299825508612,0.9423828125,0.2314453125,-0.11669921875,28.43588235294117,210.82624502946737
-0.72795556640625,0.1498583984375,-0.5556103515624999,0.9279438070311702,0.95556640625,0.18896484375,-0.12060546875,28.341764705882355,210.82624502946737
-0.72942041015625,0.1518115234375,-0.5609814453124999,0.9326312537041788,0.9619140625,0.02978515625,-0.14990234375,28.388823529411766,210.94593942392663
-0.71965478515625,0.1430224609375,-0.5565869140624999,0.920949198944504,0.95166015625,-0.09375,-0.0986328125,28.43588235294117,210.94593942392663
-0.72795556640625,0.1474169921875,-0.5512158203124999,0.9249270008007312,0.9375,-0.0986328125,-0.06640625,28.341764705882355,210.94593942392663
-0.73674462890625,0.1444873046875,-0.5507275390624999,0.9311122659056232,0.92529296875,-0.00244140625,-0.0419921875,28.48294117647059,210.94593942392663
-0.74113916015625,0.1371630859375,-0.5399853515624999,0.927192076520872,0.9208984375,0.0732421875,-0.0673828125,28.43588235294117,210.94593942392663
-0.74309228515625,0.1449755859375,-0.5409619140624999,0.9305073117621496,0.88916015625,0.1298828125,-0.0390625,28.43588235294117,210.94593942392663
-0.74406884765625,0.1400927734375,-0.5560986328124999,0.9394201001883248,0.857421875,0.125,0.06591796875,28.388823529411766,210.94593942392663
-0.74406884765625,0.1420458984375,-0.5458447265624999,0.9336819334395984,0.8544921875,0.138671875,0.07861328125,28.43588235294117,210.94593942392663
-0.74065087890625,0.1508349609375,-0.5443798828124999,0.9314850329858064,0.87548828125,0.19775390625,0.10205078125,28.341764705882355,210.90967668057667
-0.73332666015625,0.1532763671875,-0.5473095703124999,0.9277981466837336,0.87060546875,0.22900390625,0.1015625,28.48294117647059,210.90967668057667
-0.73674462890625,0.1562060546875,-0.5443798828124999,0.9292698405491236,0.873046875,0.19482421875,0.00341796875,28.43588235294117,210.90967668057667
-0.73674462890625,0.1620654296875,-0.5502392578124999,0.93371360307112,0.75048828125,0.1337890625,0.1376953125,28.43588235294117,210.90967668057667
-0.73527978515625,0.1581591796875,-0.5468212890624999,0.9298732229453746,0.87890625,0.13916015625,0.09033203125,28.48294117647059,210.90967668057667
-0.73235009765625,0.1518115234375,-0.5526806640624999,0.9299673761020328,0.876953125,0.17041015625,0.0966796875,28.341764705882355,210.90967668057667
-0.72356103515625,0.1493701171875,-0.5399853515624999,0.915115393492574,0.84326171875,0.1796875,0.20361328125,28.48294117647059,210.90967668057667
-0.71086572265625,0.1527880859375,-0.5380322265624999,0.9045180770287782,0.83056640625,0.162109375,0.27880859375,28.43588235294117,210.90967668057667
-0.73674462890625,0.1566943359375,-0.5429150390624999,0.9284947510768912,0.85400390625,0.06103515625,0.220703125,28.388823529411766,210.90967668057667
-0.71281884765625,0.1640185546875,-0.5556103515624999,0.9185399602734576,0.900390625,-0.14892578125,0.2060546875,28.388823529411766,210.88137546568217
-0.68596337890625,0.1562060546875,-0.5727001953124999,0.9071557762768692,0.87939453125,-0.15673828125,0.1826171875,28.388823529411766,210.88137546568217
-0.75090478515625,0.1503466796875,-0.5687939453124999,0.9539332642736434,0.86865234375,-0.02490234375,0.00048828125,28.388823529411766,210.88137546568217
-0.71281884765625,0.1542529296875,-0.5643994140624999,0.922199205424324,0.94482421875,-0.03955078125,-0.1884765625,28.341764705882355,210.88137546568217
-0.73332666015625,0.1708544921875,-0.5795361328124999,0.9501691308561,0.94189453125,-0.1328125,-0.1708984375,28.43588235294117,210.88137546568217
-0.73869775390625,0.1693896484375,-0.5770947265624999,0.952578368455932,0.89990234375,-0.46240234375,-0.0458984375,28.388823529411766,210.88137546568217
-0.73430322265625,0.1645068359375,-0.5673291015624999,0.9424043884412016,0.8935546875,-0.4931640625,0.10205078125,28.43588235294117,210.88137546568217
-0.72649072265625,0.1557177734375,-0.5385205078124999,0.9176279923828424,0.869140625,-0.31591796875,0.1650390625,28.43588235294117,210.88137546568217
-0.74065087890625,0.1483935546875,-0.5238720703124999,0.9192531302915958,0.83251953125,-0.0166015625,0.1416015625,28.43588235294117,211.0215297613367
-0.72649072265625,0.1479052734375,-0.5277783203124999,0.910063017273038,0.81103515625,0.13818359375,0.08740234375,28.43588235294117,211.0215297613367
-0.72600244140625,0.1464404296875,-0.5385205078124999,0.915712117266954,0.8193359375,0.18115234375,0.1181640625,28.388823529411766,211.0215297613367
-0.74846337890625,0.1400927734375,-0.5360791015624999,0.9312380028033804,0.81884765625,0.12744140625,0.19873046875,28.388823529411766,211.0215297613367
-0.74699853515625,0.1479052734375,-0.5399853515624999,0.9335239479190032,0.8330078125,0.3310546875,0.21826171875,28.341764705882355,211.0215297613367
-0.73918603515625,0.1606005859375,-0.5580517578124999,0.9400054825218342,0.80224609375,0.3203125,0.19140625,28.341764705882355,211.0215297613367
-0.73820947265625,0.1610888671875,-0.5619580078124999,0.9416473072205772,0.79736328125,0.2236328125,0.17919921875,28.388823529411766,211.0215297613367
-0.73869775390625,0.1684130859375,-0.5766064453124999,0.9521094117364072,0.771484375,0.0986328125,0.19384765625,28.341764705882355,211.0215297613367
-0.74065087890625,0.1640185546875,-0.5658642578124999,0.9463974688132194,0.7685546875,0.0244140625,0.18310546875,28.388823529411766,211.0215297613367
-0.72942041015625,0.1713427734375,-0.5717236328124999,0.9424862827002252,0.7783203125,-0.02197265625,0.13525390625,28.341764705882355,210.7129242479068
-0.72649072265625,0.1615771484375,-0.5619580078124999,0.9325731861614872,0.77685546875,-0.08203125,0.0947265625,28.48294117647059,210.7129242479068
-0.71428369140625,0.1576708984375,-0.5575634765624999,0.9197490605700496,0.81591796875,-0.1240234375,0.06396484375,28.294705882352943,210.7129242479068
-0.71965478515625,0.1527880859375,-0.5521923828124999,0.9198715326820804,0.83349609375,-0.07763671875,0.03759765625,28.48294117647059,210.7129242479068
-0.73039697265625,0.1503466796875,-0.5556103515624999,0.9299390972111428,0.83251953125,0.00146484375,0.0390625,28.341764705882355,210.7129242479068
-0.74162744140625,0.1508349609375,-0.5497509765624999,0.9354082443079174,0.82763671875,0.02587890625,0.1357421875,28.341764705882355,210.7129242479068
-0.72209619140625,0.1581591796875,-0.5443798828124999,0.9180341456469828,0.822265625,-0.00341796875,0.20166015625,28.388823529411766,210.7129242479068
-0.73332666015625,0.1606005859375,-0.5438916015624999,0.9270267595650136,0.82568359375,0.01513671875,0.1044921875,28.43588235294117,210.7129242479068
-0.73039697265625,0.1649951171875,-0.5360791015624999,0.920914724332926,0.75244140625,0.03662109375,-0.037109375,28.294705882352943,210.7129242479068
-0.73186181640625,0.1581591796875,-0.5502392578124999,0.9291928138287172,0.8798828125,-0.02783203125,-0.01318359375,28.388823529411766,210.82783781871416
-0.73430322265625,0.1508349609375,-0.5565869140624999,0.9336709276559854,0.84619140625,-0.04541015625,0.04150390625,28.388823529411766,210.82783781871416
-0.72551416015625,0.1449755859375,-0.5541455078124999,0.9243732800843628,0.8427734375,-0.0185546875,0.087890625,28.294705882352943,210.82783781871416
-0.72453759765625,0.1586474609375,-0.5551220703124999,0.9264363228130912,0.86328125,0.03369140625,0.1142578125,28.48294117647059,210.82783781871416
-0.73527978515625,0.1552294921875,-0.5531689453124999,0.9331283083061804,0.85302734375,0.07275390625,0.0966796875,28.341764705882355,210.82783781871416
-0.73430322265625,0.1562060546875,-0.5512158203124999,0.9313648237329832,0.8447265625,0.08837890625,0.0908203125,28.341764705882355,210.82783781871416
-0.73820947265625,0.1601123046875,-0.5502392578124999,0.934533261296682,0.82275390625,0.109375,0.103515625,28.48294117647059,210.82783781871416
-0.74162744140625,0.1586474609375,-0.5492626953124999,0.9364132566183846,0.82177734375,0.1552734375,0.123046875,28.43588235294117,210.82783781871416
-0.75383447265625,0.1566943359375,-0.5429150390624999,0.9421126613733924,0.828125,0.23828125,0.13427734375,28.388823529411766,210.82783781871416
-0.76701806640625,0.1630419921875,-0.5429150390624999,0.9537589554233749,0.84228515625,0.33203125,0.12744140625,28.43588235294117,210.8372710886132
-0.74113916015625,0.1596240234375,-0.5473095703124999,0.9350480465361876,0.8515625,0.27685546875,0.12548828125,28.341764705882355,210.8372710886132
-0.72600244140625,0.1679248046875,-0.5546337890624999,0.9289224536671488,0.859375,0.1796875,0.1005859375,28.43588235294117,210.8372710886132
-0.72453759765625,0.1718310546875,-0.5585400390624999,0.9308316802776148,0.9990234375,0.12109375,0.12109375,28.294705882352943,210.8372710886132
-0.73332666015625,0.1669482421875,-0.5507275390624999,0.9321697958780116,0.85546875,0.0986328125,0.12646484375,28.48294117647059,210.8372710886132
-0.73479150390625,0.1635302734375,-0.5560986328124999,0.9358987092411676,0.8447265625,0.1279296875,0.12255859375,28.388823529411766,210.8372710886132
-0.72502587890625,0.1625537109375,-0.5526806640624999,0.9260357176977022,0.84814453125,0.1328125,0.17236328125,28.294705882352943,210.8372710886132
-0.70988916015625,0.1620654296875,-0.5497509765624999,0.9123781888222462,0.81982421875,0.115234375,0.25634765625,28.53,210.84989007438267
-0.73381494140625,0.1713427734375,-0.5434033203124999,0.929047836640806,0.8447265625,0.07421875,0.2119140625,28.43588235294117,210.84989007438267
-0.71135400390625,0.1772021484375,-0.5448681640624999,0.9134037642210362,0.86083984375,-0.31787109375,0.259765625,28.388823529411766,210.84989007438267
-0.67277978515625,0.1674365234375,-0.5541455078124999,0.8875499267784882,0.85546875,-0.4384765625,0.28857421875,28.43588235294117,210.84989007438267
-0.74162744140625,0.1459521484375,-0.5556103515624999,0.938091762165998,0.833984375,-0.0703125,0.146484375,28.48294117647059,210.84989007438267
-0.72795556640625,0.1488818359375,-0.5521923828124999,0.9257437741460168,0.869140625,0.21142578125,-0.068359375,28.341764705882355,210.84989007438267
-0.73723291015625,0.1596240234375,-0.5707470703124999,0.9459093037633844,0.7509765625,-0.06884765625,-0.0419921875,28.388823529411766,210.84989007438267
-0.74113916015625,0.1728076171875,-0.5512158203124999,0.9396747351280204,0.751953125,-0.33447265625,0.05615234375,28.43588235294117,210.7490630088012
-0.71623681640625,0.1845263671875,-0.5458447265624999,0.919234258978236,0.88671875,-0.3740234375,0.068359375,28.341764705882355,210.7490630088012
-0.72453759765625,0.1659716796875,-0.5463330078124999,0.9224863599540284,0.88916015625,-0.224609375,0.0947265625,28.388823529411766,210.7490630088012
-0.72990869140625,0.1547412109375,-0.5448681640624999,0.923900890984324,0.8623046875,-0.10888671875,0.1201171875,28.388823529411766,210.7490630088012
-0.73381494140625,0.1591357421875,-0.5570751953124999,0.9349552534239725,0.84619140625,-0.11572265625,0.00341796875,28.341764705882355,210.7490630088012
-0.73283837890625,0.1620654296875,-0.5497509765624999,0.9303458654334724,0.845703125,-0.10107421875,0.00341796875,28.341764705882355,210.7490630088012
-0.74406884765625,0.1581591796875,-0.5370556640624999,0.9311721443823024,0.88671875,0.2119140625,0.134765625,28.388823529411766,210.95685196065264
-0.72844384765625,0.1610888671875,-0.5507275390624999,0.9272976246070253,0.8701171875,0.1259765625,0.20703125,28.43588235294117,210.95685196065264
-0.72746728515625,0.1679248046875,-0.5482861328124999,0.9262964290314556,0.85595703125,0.103515625,0.2080078125,28.48294117647059,210.95685196065264
-0.74113916015625,0.1742724609375,-0.5502392578124999,0.93937286856518,0.84765625,0.103515625,0.20703125,28.388823529411766,210.95685196065264
-0.72942041015625,0.1732958984375,-0.5560986328124999,0.9334512802410762,0.83154296875,0.0537109375,0.14697265625,28.48294117647059,210.8087533019556
-0.72502587890625,0.1723193359375,-0.5614697265624999,0.9330620196256464,0.86083984375,0.0419921875,0.07861328125,28.43588235294117,210.8087533019556
-0.73430322265625,0.1742724609375,-0.5639111328124999,0.9421082098965295,0.89208984375,0.06640625,-0.0048828125,28.43588235294117,210.8087533019556
-0.71623681640625,0.1737841796875,-0.5521923828124999,0.9209302611607264,0.912109375,0.06689453125,-0.03173828125,28.341764705882355,210.8087533019556
-0.72160791015625,0.1591357421875,-0.5624462890624999,0.9286484741396038,0.998046875,-0.06494140625,0.00244140625,28.43588235294117,210.8087533019556
-0.72600244140625,0.1596240234375,-0.5614697265624999,0.931561929037667,0.85107421875,-0.17236328125,0.22705078125,28.53,210.8087533019556
-0.72893212890625,0.1732958984375,-0.5526806640624999,0.9310367519038248,0.8759765625,-0.20947265625,0.140625,28.48294117647059,210.8087533019556
-0.72307275390625,0.1713427734375,-0.5463330078124999,0.9223189843412506,0.88623046875,-0.1953125,0.04052734375,28.43588235294117,210.8087533019556
-0.73088525390625,0.1669482421875,-0.5565869140624999,0.9337312048189866,0.89208984375,-0.1708984375,0.07861328125,28.294705882352943,210.87967211456728
-0.73967431640625,0.1689013671875,-0.5541455078124999,0.9395334001607571,0.89111328125,-0.1796875,0.1181640625,28.388823529411766,210.87967211456728
-0.72990869140625,0.1737841796875,-0.5424267578124999,0.9258479499847811,0.90283203125,-0.21875,0.07568359375,28.43588235294117,210.87967211456728
-0.72502587890625,0.1737841796875,-0.5468212890624999,0.9245955809787388,0.93798828125,-0.31591796875,0.1201171875,28.388823529411766,210.87967211456728
-0.72404931640625,0.1669482421875,-0.5424267578124999,0.9199706059156644,0.9658203125,-0.34130859375,-0.02490234375,28.43588235294117,210.87967211456728
-0.73967431640625,0.1596240234375,-0.5507275390624999,0.935894623069962,0.94580078125,-0.22314453125,-0.005859375,28.388823529411766,210.87967211456728
-0.73381494140625,0.1649951171875,-0.5429150390624999,0.9276122555071225,0.95458984375,-0.1005859375,-0.04296875,28.43588235294117,210.87967211456728
-0.73820947265625,0.1732958984375,-0.5595166015624999,0.9423606111031638,0.9482421875,-0.03271484375,-0.06689453125,28.388823529411766,210.87967211456728
-0.74016259765625,0.1723193359375,-0.5517041015624999,0.9391017198302184,0.9267578125,-0.125,-0.08740234375,28.388823529411766,210.87967211456728
-0.76018212890625,0.1659716796875,-0.5477978515624999,0.9515807657488772,0.93017578125,-0.140625,-0.06884765625,28.341764705882355,210.67347360251105
-0.76408837890625,0.1659716796875,-0.5458447265624999,0.9535848754851146,0.927734375,-0.07421875,-0.072265625,28.43588235294117,210.67347360251105
-0.75871728515625,0.1606005859375,-0.5365673828124999,0.943053033130478,0.91943359375,-0.00341796875,-0.05322265625,28.294705882352943,210.67347360251105
-0.75041650390625,0.1591357421875,-0.5443798828124999,0.9406373214939946,0.91552734375,0.01611328125,-0.02099609375,28.388823529411766,210.67347360251105
-0.74065087890625,0.1610888671875,-0.5507275390624999,0.9369173762067764,0.8876953125,0.0341796875,0.037109375,28.43588235294117,210.67347360251105
-0.74065087890625,0.1610888671875,-0.5419384765624999,0.931778224651787,0.87646484375,0.05029296875,0.05322265625,28.43588235294117,210.67347360251105
-0.72209619140625,0.1615771484375,-0.5443798828124999,0.9186291642178342,0.8681640625,-0.1220703125,0.1123046875,28.43588235294117,210.67347360251105
-0.73772119140625,0.1625537109375,-0.5399853515624999,0.9285690308703418,0.8671875,0.06298828125,0.07568359375,28.388823529411766,210.67347360251105
-0.76994775390625,0.1620654296875,-0.5487744140624999,0.959290417326637,0.84521484375,-0.17041015625,0.06201171875,28.48294117647059,210.6640399954688
-0.70695947265625,0.1781787109375,-0.5517041015624999,0.9142848378326296,0.8837890625,-0.43994140625,0.16357421875,28.341764705882355,210.6640399954688
-0.70891259765625,0.1640185546875,-0.5551220703124999,0.9152156414449792,0.87255859375,-0.3046875,0.1025390625,28.341764705882355,210.6640399954688
-0.80070947265625,0.1493701171875,-0.5551220703124999,0.9857015798192136,0.81982421875,0.0966796875,-0.0791015625,28.341764705882355,210.6640399954688
-0.71818994140625,0.1513232421875,-0.5526806640624999,0.9187771394586478,0.89892578125,0.16259765625,-0.330078125,28.24764705882353,210.6640399954688
-0.73527978515625,0.1620654296875,-0.5907666015624999,0.9570301685322782,0.9248046875,-0.19677734375,-0.38525390625,28.43588235294117,210.6640399954688
-0.74406884765625,0.1566943359375,-0.5639111328124999,0.9466717121987276,0.92431640625,-0.49609375,-0.19189453125,28.388823529411766,210.6640399954688
-0.72600244140625,0.1625537109375,-0.5302197265624999,0.9135842666680508,0.9111328125,-0.44921875,-0.01904296875,28.341764705882355,210.6640399954688
-0.73674462890625,0.1566943359375,-0.5233837890624999,0.9172111827657368,0.88623046875,-0.20068359375,0.0576171875,28.43588235294117,210.65460671783683
-0.75285791015625,0.1591357421875,-0.5238720703124999,0.930892670171974,0.8544921875,-0.0478515625,0.05517578125,28.43588235294117,210.65460671783683
-0.74992822265625,0.1601123046875,-0.5341259765624999,0.9345153011521796,0.8486328125,-0.0234375,0.0419921875,28.388823529411766,210.65460671783683
-0.75139306640625,0.1625537109375,-0.5199658203124999,0.9281054376934716,0.86181640625,-0.00537109375,0.0537109375,28.48294117647059,210.65460671783683
-0.75432275390625,0.1542529296875,-0.5268017578124999,0.9329077528953362,0.87353515625,0.07958984375,0.02099609375,28.43588235294117,210.65460671783683
-0.74943994140625,0.1518115234375,-0.5228955078124999,0.926351270584712,0.8916015625,0.20556640625,0.12255859375,28.388823529411766,210.65460671783683
-0.74846337890625,0.1552294921875,-0.5287548828124999,0.9294489501347616,0.8955078125,0.2685546875,0.02001953125,28.43588235294117,210.65460671783683
-0.74504541015625,0.1591357421875,-0.5438916015624999,0.9360742074679136,0.8828125,0.267578125,0.07080078125,28.48294117647059,210.65460671783683
-0.74455712890625,0.1654833984375,-0.5570751953124999,0.9445013745866137,0.865234375,0.1708984375,0.06591796875,28.48294117647059,210.65460671783683
-0.73918603515625,0.1679248046875,-0.5614697265624999,0.9433148935777068,0.85498046875,0.06591796875,0.0556640625,28.43588235294117,210.7097369550821
-0.73674462890625,0.1645068359375,-0.5609814453124999,0.940508016593839,0.86767578125,0.00634765625,0.03076171875,28.388823529411766,210.7097369550821
-0.73918603515625,0.1581591796875,-0.5639111328124999,0.9430832870957456,0.86572265625,-0.01708984375,-0.1240234375,28.341764705882355,210.7097369550821
-0.73869775390625,0.1542529296875,-0.5526806640624999,0.9353738580759468,0.85595703125,-0.013671875,-0.03271484375,28.388823529411766,210.7097369550821
-0.74358056640625,0.1630419921875,-0.5487744140624999,0.9384285308339408,0.87109375,0.015625,-0.0576171875,28.388823529411766,210.7097369550821
-0.73674462890625,0.1542529296875,-0.5414501953124999,0.927229706460772,0.89111328125,0.05126953125,-0.13427734375,28.48294117647059,210.7097369550821
-0.74113916015625,0.1552294921875,-0.5360791015624999,0.927773815697532,0.88623046875,0.03076171875,-0.13037109375,28.48294117647059,210.7097369550821
-0.73820947265625,0.1537646484375,-0.5282666015624999,0.9206858285837356,0.89990234375,-0.0498046875,-0.01318359375,28.48294117647059,210.7097369550821
-0.74309228515625,0.1518115234375,-0.5326611328124999,0.9268013623836814,0.91162109375,-0.00732421875,-0.01513671875,28.388823529411766,210.93172866772883
-0.74260400390625,0.1620654296875,-0.5341259765624999,0.9289867969762714,0.927734375,0.11279296875,-0.12158203125,28.43588235294117,210.93172866772883
-0.74943994140625,0.1571826171875,-0.5482861328124999,0.9417984308520596,0.90966796875,0.13916015625,-0.0966796875,28.43588235294117,210.93172866772883
-0.74162744140625,0.1581591796875,-0.5551220703124999,0.9397798151238618,0.92431640625,0.07861328125,-0.06640625,28.341764705882355,210.93172866772883
-0.73625634765625,0.1537646484375,-0.5517041015624999,0.9327885034958964,0.9345703125,0.0048828125,-0.1240234375,28.53,210.93172866772883
-0.73137353515625,0.1547412109375,-0.5419384765624999,0.9233360182881624,0.92822265625,-0.00439453125,0.00830078125,28.43588235294117,210.93172866772883
-0.74016259765625,0.1571826171875,-0.5292431640624999,0.9233879860719688,0.91357421875,0.021484375,-0.01513671875,28.43588235294117,210.93172866772883
-0.74260400390625,0.1562060546875,-0.5390087890624999,0.9308015432009396,0.9052734375,0.08056640625,-0.02490234375,28.48294117647059,210.93172866772883
-0.73869775390625,0.1581591796875,-0.5331494140624999,0.9246280308647088,0.8994140625,0.13037109375,-0.0400390625,28.48294117647059,211.00891106529
-0.74358056640625,0.1488818359375,-0.5394970703124999,0.9306637140691212,0.90087890625,0.14306640625,-0.03857421875,28.341764705882355,211.00891106529
-0.74504541015625,0.1508349609375,-0.5380322265624999,0.9313015223093504,0.88623046875,0.14990234375,-0.0283203125,28.341764705882355,211.00891106529
-0.74602197265625,0.1454638671875,-0.5385205078124999,0.9315110614897164,0.7578125,0.13330078125,-0.0390625,28.341764705882355,211.00891106529
-0.74602197265625,0.1542529296875,-0.5341259765624999,0.9303941685339304,0.89306640625,0.17578125,-0.07470703125,28.388823529411766,211.00891106529
-0.74162744140625,0.1542529296875,-0.5536572265624999,0.9382651824984432,0.892578125,0.16796875,-0.0888671875,28.341764705882355,211.00891106529
-0.73625634765625,0.1518115234375,-0.5541455078124999,0.933915088185917,0.8994140625,0.1298828125,-0.03564453125,28.388823529411766,211.00891106529
-0.74455712890625,0.1527880859375,-0.5512158203124999,0.9389080881387408,0.7548828125,0.0830078125,0.01806640625,28.388823529411766,211.00891106529
-0.72844384765625,0.1483935546875,-0.5590283203124999,0.9301417898215568,0.85009765625,0.03271484375,0.0380859375,28.43588235294117,211.00891106529
-0.74065087890625,0.1493701171875,-0.5468212890624999,0.9326782288148374,0.84619140625,0.04345703125,0.03271484375,28.43588235294117,210.6042565792356
-0.74943994140625,0.1498583984375,-0.5477978515624999,0.9403192285249444,0.8505859375,0.10302734375,0.01611328125,28.43588235294117,210.6042565792356
-0.74504541015625,0.1488818359375,-0.5492626953124999,0.9375222518580386,0.83984375,0.14697265625,0.08935546875,28.48294117647059,210.6042565792356
-0.73039697265625,0.1454638671875,-0.5429150390624999,0.9216269386052002,0.81396484375,0.1396484375,0.142578125,28.53,210.6042565792356
-0.75481103515625,0.1581591796875,-0.5473095703124999,0.9456753093259472,0.82861328125,0.1044921875,0.11474609375,28.341764705882355,210.6042565792356
-0.73527978515625,0.1645068359375,-0.5355908203124999,0.9244221916054404,0.8388671875,-0.1591796875,0.1611328125,28.43588235294117,210.6042565792356
-0.68986962890625,0.1557177734375,-0.5355908203124999,0.887144665009375,0.9951171875,-0.24462890625,0.15478515625,28.43588235294117,210.6042565792356
-0.73772119140625,0.1430224609375,-0.5531689453124999,0.9331044221525366,0.8505859375,-0.11279296875,-0.0712890625,28.388823529411766,210.6042565792356
-0.72942041015625,0.2626513671875,-0.5526806640624999,0.9521007256937372,0.88037109375,0.26513671875,-0.294921875,28.48294117647059,210.6042565792356
-0.74211572265625,0.1435107421875,-0.5639111328124999,0.9430412740949848,0.88525390625,0.10400390625,-0.26025390625,28.43588235294117,210.82783781871416
-0.75236962890625,0.1596240234375,-0.6977001953124999,1.0384245037064586,0.9169921875,-0.2666015625,-0.06640625,28.388823529411766,210.82783781871416
-0.73869775390625,0.1576708984375,-0.5556103515624999,0.9376765682278896,0.884765625,-0.49072265625,0.107421875,28.43588235294117,210.82783781871416
-0.74309228515625,0.1503466796875,-0.5380322265624999,0.929660661301528,0.83642578125,-0.3466796875,0.1630859375,28.43588235294117,210.82783781871416
-0.75139306640625,0.1405810546875,-0.5121533203124999,0.920138900757682,0.8427734375,-0.0771484375,0.10888671875,28.43588235294117,210.82783781871416
-0.73479150390625,0.1518115234375,-0.5077587890624999,0.9059714569076884,0.83056640625,0.13818359375,0.08740234375,28.43588235294117,210.82783781871416
-0.74895166015625,0.1459521484375,-0.5228955078124999,0.92501369231748,0.8701171875,0.22314453125,0.08984375,28.341764705882355,210.82783781871416
-0.75383447265625,0.1469287109375,-0.5272900390624999,0.9316057339654016,0.8837890625,0.240234375,0.08740234375,28.48294117647059,210.82783781871416
-0.75822900390625,0.1518115234375,-0.5482861328124999,0.9479322995064388,0.88330078125,0.26904296875,0.1044921875,28.341764705882355,210.859323249052
-0.74602197265625,0.1498583984375,-0.5556103515624999,0.942183201947254,0.857421875,0.25146484375,0.11669921875,28.43588235294117,210.859323249052
-0.74602197265625,0.1581591796875,-0.5653759765624999,0.9493224450519148,0.82958984375,0.1865234375,0.13623046875,28.388823529411766,210.859323249052
-0.73479150390625,0.1527880859375,-0.5575634765624999,0.9349544287363502,0.8251953125,0.1318359375,0.14208984375,28.48294117647059,210.859323249052
-0.73332666015625,0.1518115234375,-0.5639111328124999,0.9374489291978588,0.822265625,0.10498046875,0.12646484375,28.294705882352943,210.859323249052
-0.73039697265625,0.1537646484375,-0.5546337890624999,0.9299150201735364,0.8408203125,0.08935546875,0.09375,28.43588235294117,210.859323249052
-0.72746728515625,0.1483935546875,-0.5585400390624999,0.9290835663606024,0.8408203125,0.09033203125,0.0693359375,28.43588235294117,210.859323249052
-0.73235009765625,0.1469287109375,-0.5487744140624999,0.9268646444678504,0.82763671875,0.12158203125,0.08251953125,28.388823529411766,210.859323249052
-0.73723291015625,0.1479052734375,-0.5424267578124999,0.9271543136495972,0.8359375,0.177734375,0.06689453125,28.388823529411766,210.6373350236644
-0.73381494140625,0.1596240234375,-0.5316845703124999,0.920137315512104,0.85009765625,0.24658203125,0.03271484375,28.388823529411766,210.6373350236644
-0.74553369140625,0.1532763671875,-0.5429150390624999,0.934917573586176,0.8486328125,0.23046875,0.07373046875,28.388823529411766,210.6373350236644
-0.72502587890625,0.1483935546875,-0.5380322265624999,0.9149654905931556,0.84765625,0.224609375,0.04931640625,28.48294117647059,210.6373350236644
-0.73967431640625,0.1513232421875,-0.5360791015624999,0.9259576778175378,0.85302734375,0.21923828125,-0.029296875,28.341764705882355,210.6373350236644
-0.72453759765625,0.1469287109375,-0.5443798828124999,0.9180916257793644,0.86328125,0.193359375,-0.033203125,28.388823529411766,210.6373350236644
-0.74309228515625,0.1405810546875,-0.5526806640624999,0.936699041114249,0.8583984375,0.16748046875,-0.12109375,28.43588235294117,210.6373350236644
-0.71916650390625,0.1508349609375,-0.5546337890624999,0.920635805164877,0.8603515625,0.1025390625,0.06689453125,28.48294117647059,210.6373350236644
-0.71428369140625,0.1518115234375,-0.5453564453124999,0.9114063763773214,0.86181640625,0.03564453125,0.107421875,28.388823529411766,210.6373350236644
-0.71721337890625,0.1479052734375,-0.5394970703124999,0.909575774561148,0.85986328125,0.00830078125,0.0947265625,28.43588235294117,210.6876848180388
-0.72063134765625,0.1493701171875,-0.5414501953124999,0.913668038806992,0.85595703125,0.02001953125,0.06005859375,28.43588235294117,210.6876848180388
-0.72942041015625,0.1483935546875,-0.5394970703124999,0.9193105409496156,0.8564453125,0.0908203125,0.0615234375,28.388823529411766,210.6876848180388
-0.73869775390625,0.1469287109375,-0.5404736328124999,0.927024360785322,0.85302734375,0.140625,0.05224609375,28.43588235294117,210.6876848180388
-0.73869775390625,0.1527880859375,-0.5453564453124999,0.930823411434451,0.861328125,0.13134765625,0.03125,28.43588235294117,210.6876848180388
-0.73186181640625,0.1483935546875,-0.5497509765624999,0.9272909476629598,0.85546875,0.09619140625,0.0322265625,28.388823529411766,210.6876848180388
-0.74699853515625,0.1532763671875,-0.5477978515624999,0.9389264840445556,0.85009765625,0.10986328125,0.0556640625,28.341764705882355,210.6876848180388
-0.74553369140625,0.1527880859375,-0.5551220703124999,0.9419794037951736,0.849609375,0.11865234375,0.05224609375,28.388823529411766,210.6876848180388
-0.73283837890625,0.1542529296875,-0.5560986328124999,0.9327870846720856,0.85595703125,0.115234375,0.068359375,28.388823529411766,210.4436471745607
-0.73235009765625,0.1498583984375,-0.5492626953124999,0.9276226137720682,0.86181640625,0.119140625,0.064453125,28.43588235294117,210.4436471745607
-0.73186181640625,0.1483935546875,-0.5477978515624999,0.9261343593468164,0.85498046875,0.1015625,0.05517578125,28.341764705882355,210.4436471745607
-0.72990869140625,0.1532763671875,-0.5604931640624999,0.9329592324905596,0.8447265625,0.05908203125,0.06005859375,28.48294117647059,210.4436471745607
-0.72356103515625,0.1645068359375,-0.5585400390624999,0.9287464917309194,0.84716796875,-0.0107421875,0.10009765625,28.388823529411766,210.4436471745607
-0.73772119140625,0.1581591796875,-0.5429150390624999,0.9295179514186456,0.83642578125,-0.00390625,0.10205078125,28.388823529411766,210.4436471745607
-0.72844384765625,0.1532763671875,-0.5580517578124999,0.9303471654839716,0.833984375,0.05517578125,0.07373046875,28.43588235294117,210.4436471745607
-0.72942041015625,0.1474169921875,-0.5453564453124999,0.9226047673744198,0.84033203125,0.10986328125,0.078125,28.294705882352943,210.4436471745607
-0.73527978515625,0.1454638671875,-0.5477978515624999,0.928374162335992,0.8193359375,0.1240234375,0.13037109375,28.43588235294117,210.76327424686835
-0.74211572265625,0.1513232421875,-0.5502392578124999,0.9361611561466304,0.8232421875,0.11572265625,0.150390625,28.388823529411766,210.76327424686835
-0.73186181640625,0.1586474609375,-0.5438916015624999,0.9255316361019716,0.8310546875,-0.15234375,0.23681640625,28.43588235294117,210.76327424686835
-0.70256494140625,0.1596240234375,-0.5546337890624999,0.9092282253215463,0.83544921875,-0.32666015625,0.26416015625,28.388823529411766,210.76327424686835
-0.74943994140625,0.1391162109375,-0.5673291015624999,0.9501977980401364,0.822265625,0.03564453125,0.0576171875,28.43588235294117,210.76327424686835
-0.76262353515625,0.1347216796875,-0.5585400390624999,0.954835882541066,0.82958984375,0.3701171875,-0.109375,28.388823529411766,210.76327424686835
-0.73625634765625,0.2631396484375,-0.5614697265624999,0.9625820161888028,0.89404296875,0.1826171875,-0.0947265625,28.43588235294117,210.76327424686835
-0.73283837890625,0.1513232421875,-0.5692822265624999,0.9402303264115844,0.8994140625,-0.22412109375,0.0185546875,28.48294117647059,210.76327424686835
-0.74358056640625,0.1640185546875,-0.5551220703124999,0.9423240726877627,0.888671875,-0.38330078125,0.068359375,28.43588235294117,210.76327424686835
-0.73625634765625,0.1581591796875,-0.5385205078124999,0.9257926727503176,0.8779296875,-0.1865234375,0.1591796875,28.388823529411766,210.83886393952145
-0.74162744140625,0.1503466796875,-0.5380322265624999,0.9284902060655448,0.84130859375,-0.0048828125,0.19873046875,28.43588235294117,210.83886393952145
-0.73235009765625,0.1552294921875,-0.5355908203124999,0.9204837790992976,0.8291015625,0.03759765625,0.15087890625,28.43588235294117,210.83886393952145
-0.72551416015625,0.1444873046875,-0.5331494140624999,0.9118638470288613,0.828125,0.06494140625,0.12646484375,28.43588235294117,210.83886393952145
-0.73869775390625,0.1503466796875,-0.5443798828124999,0.929853726416228,0.84814453125,0.19775390625,0.12255859375,28.388823529411766,210.83886393952145
-0.74211572265625,0.1449755859375,-0.5448681640624999,0.9320058919021752,0.8515625,0.28466796875,0.109375,28.341764705882355,210.83886393952145
-0.74406884765625,0.1576708984375,-0.5429150390624999,0.9344813009936712,0.84765625,0.2548828125,0.15087890625,28.388823529411766,210.83886393952145
-0.73283837890625,0.1518115234375,-0.5526806640624999,0.930351946671216,0.83203125,0.16845703125,0.1337890625,28.48294117647059,210.83886393952145
-0.72990869140625,0.1562060546875,-0.6913525390624999,1.0174160223721582,0.81787109375,0.08984375,0.15625,28.388823529411766,210.55390889022976
-0.72502587890625,0.1527880859375,-0.5575634765624999,0.9272991721578784,0.8115234375,0.05078125,0.14892578125,28.294705882352943,210.55390889022976
-0.72844384765625,0.1591357421875,-0.5614697265624999,0.9333824925913154,0.822265625,0.03955078125,0.11962890625,28.43588235294117,210.55390889022976
-0.71867822265625,0.1522998046875,-0.5614697265624999,0.9246306679287496,0.8544921875,0.0185546875,0.09814453125,28.388823529411766,210.55390889022976
-0.73039697265625,0.1532763671875,-0.5531689453124999,0.9289613901889334,0.8544921875,0.01953125,0.08349609375,28.341764705882355,210.55390889022976
-0.72893212890625,0.1522998046875,-0.5570751953124999,0.9299838989424002,0.8525390625,0.03515625,0.05908203125,28.48294117647059,210.55390889022976
-0.72404931640625,0.1562060546875,-0.5580517578124999,0.9273993252677152,0.85546875,0.05859375,0.021484375,28.43588235294117,210.55390889022976
-0.71867822265625,0.1601123046875,-0.5507275390624999,0.9194754809751736,0.8671875,0.00927734375,0.041015625,28.388823529411766,210.55390889022976
-0.72649072265625,0.1606005859375,-0.5492626953124999,0.9248085351958106,0.84765625,-0.02490234375,0.11572265625,28.341764705882355,210.55390889022976
-0.74065087890625,0.1591357421875,-0.5375439453124999,0.9288925675277496,0.837890625,-0.03271484375,0.08544921875,28.48294117647059,210.69871087953592
-0.73039697265625,0.1591357421875,-0.5424267578124999,0.92359661633094,0.8681640625,0.03369140625,-0.02099609375,28.341764705882355,210.69871087953592
-0.73137353515625,0.1508349609375,-0.5463330078124999,0.9252773577654544,0.8818359375,0.02587890625,-0.0068359375,28.43588235294117,210.69871087953592
-0.73381494140625,0.1537646484375,-0.5585400390624999,0.9349304308749956,0.75146484375,-0.03125,0.04248046875,28.43588235294117,210.69871087953592
-0.72551416015625,0.1547412109375,-0.5570751953124999,0.9277113840964186,0.8603515625,-0.07568359375,0.06640625,28.43588235294117,210.69871087953592
-0.73137353515625,0.1542529296875,-0.5614697265624999,0.9348526451213024,0.85009765625,-0.06201171875,0.07421875,28.43588235294117,210.69871087953592
-0.73381494140625,0.1571826171875,-0.5531689453124999,0.9323017888190036,0.84375,-0.0419921875,0.1064453125,28.388823529411766,210.69871087953592
-0.73918603515625,0.1547412109375,-0.5556103515624999,0.9375733036386144,0.8388671875,-0.0244140625,0.10205078125,28.43588235294117,210.69871087953592
-0.73625634765625,0.1552294921875,-0.5517041015624999,0.933031092938384,0.84912109375,-0.0419921875,0.10498046875,28.43588235294117,210.6561998365924
-0.72453759765625,0.1498583984375,-0.5429150390624999,0.917697667884134,0.83642578125,-0.0283203125,0.08984375,28.341764705882355,210.6561998365924
-0.73332666015625,0.1552294921875,-0.5473095703124999,0.9281228105678488,0.84619140625,0.0224609375,0.09375,28.388823529411766,210.6561998365924
-0.73869775390625,0.1576708984375,-0.5375439453124999,0.9270857441371618,0.86669921875,0.0810546875,0.08349609375,28.43588235294117,210.6561998365924
-0.74699853515625,0.1601123046875,-0.5429150390624999,0.9372296950471436,0.85888671875,0.10595703125,0.08154296875,28.48294117647059,210.6561998365924
-0.74113916015625,0.1532763671875,-0.5434033203124999,0.931701705473355,0.85205078125,0.07275390625,0.10205078125,28.43588235294117,210.6561998365924
-0.74113916015625,0.1576708984375,-0.5595166015624999,0.941916235317796,0.849609375,0.04296875,0.2451171875,28.388823529411766,210.6561998365924
-0.73430322265625,0.1581591796875,-0.5502392578124999,0.9311169581533932,0.84912109375,0.03271484375,0.14111328125,28.341764705882355,210.6561998365924
-0.73674462890625,0.1576708984375,-0.5541455078124999,0.9352700167679224,0.8505859375,0.07470703125,0.1015625,28.43588235294117,210.6561998365924
-0.73039697265625,0.1518115234375,-0.5653759765624999,0.936042985758576,0.82763671875,0.09033203125,0.099609375,28.43588235294117,210.8184048782452
-0.72307275390625,0.1527880859375,-0.5570751953124999,0.9254788921841888,0.8330078125,0.0419921875,0.123046875,28.43588235294117,210.8184048782452
-0.72111962890625,0.1576708984375,-0.5536572265624999,0.9227187848596428,0.82763671875,-0.02734375,0.13232421875,28.388823529411766,210.8184048782452
-0.72453759765625,0.1606005859375,-0.5517041015624999,0.9247295249432904,0.82177734375,-0.10693359375,0.14013671875,28.388823529411766,210.8184048782452
-0.73332666015625,0.1586474609375,-0.5580517578124999,0.9350715329617608,0.82666015625,-0.0966796875,0.11572265625,28.388823529411766,210.8184048782452
-0.73576806640625,0.1615771484375,-0.5473095703124999,0.9311334964418578,0.84130859375,-0.005859375,0.0966796875,28.388823529411766,210.8184048782452
-0.73381494140625,0.1503466796875,-0.5541455078124999,0.9317541178620502,0.8203125,0.03662109375,0.11669921875,28.341764705882355,210.8184048782452
-0.72697900390625,0.1542529296875,-0.5463330078124999,0.9223731315813322,0.830078125,0.0234375,0.142578125,28.388823529411766,210.8184048782452
-0.75481103515625,0.1576708984375,-0.5517041015624999,0.9481440959519936,0.82421875,-0.0009765625,0.1484375,28.53,210.8184048782452
-0.70354150390625,0.1713427734375,-0.5438916015624999,0.9056197148793436,0.861328125,-0.43115234375,0.23291015625,28.43588235294117,210.859323249052
-0.70940087890625,0.1640185546875,-0.5448681640624999,0.9094135525070955,0.8369140625,-0.4541015625,0.25927734375,28.43588235294117,210.859323249052
-0.75481103515625,0.1469287109375,-0.5512158203124999,0.9461324566117512,0.81689453125,-0.03564453125,0.064453125,28.43588235294117,210.859323249052
-0.71672509765625,0.1400927734375,-0.5604931640624999,0.9205832052240386,0.814453125,0.2021484375,-0.05029296875,28.53,210.859323249052
-0.75236962890625,0.1522998046875,-0.5658642578124999,0.9536548889813706,0.865234375,0.09716796875,-0.017578125,28.43588235294117,210.859323249052
-0.74309228515625,0.1610888671875,-0.5624462890624999,0.9457703714277936,0.82568359375,-0.13525390625,0.0078125,28.43588235294117,210.859323249052
-0.72649072265625,0.1669482421875,-0.5477978515624999,0.9250637663705068,0.845703125,-0.42236328125,0.1103515625,28.43588235294117,210.859323249052
-0.71623681640625,0.1645068359375,-0.5311962890624999,0.9067674309103184,0.85498046875,-0.34228515625,0.16162109375,28.48294117647059,210.859323249052
-0.72893212890625,0.1557177734375,-0.5370556640624999,0.9187049906350476,0.8564453125,-0.1591796875,0.22216796875,28.43588235294117,210.99629294532892
-0.73820947265625,0.1620654296875,-0.5453564453124999,0.9320043355387884,0.8349609375,-0.123046875,0.2109375,28.388823529411766,210.99629294532892
-0.72697900390625,0.1659716796875,-0.5521923828124999,0.9278801098282904,0.83203125,-0.15234375,0.1533203125,28.388823529411766,210.99629294532892
-0.75383447265625,0.1581591796875,-0.5463330078124999,0.9443307120441452,0.83154296875,-0.0576171875,0.0830078125,28.388823529411766,210.99629294532892
-0.75920556640625,0.1571826171875,-0.5292431640624999,0.9387213611690284,0.86474609375,0.0986328125,0.06396484375,28.43588235294117,210.99629294532892
-0.74651025390625,0.1566943359375,-0.5282666015624999,0.927844963573366,0.87109375,0.15966796875,0.12060546875,28.388823529411766,210.99629294532892
-0.73918603515625,0.1542529296875,-0.5419384765624999,0.9294553637835852,0.85595703125,0.14501953125,0.16650390625,28.388823529411766,210.99629294532892
-0.73723291015625,0.1606005859375,-0.5424267578124999,0.9292640634458552,0.8369140625,0.11767578125,0.24755859375,28.43588235294117,210.99629294532892
-0.74260400390625,0.1630419921875,-0.5512158203124999,0.9390858738139154,0.83544921875,0.0869140625,0.2421875,28.48294117647059,210.9569655759508
-0.74162744140625,0.1679248046875,-0.5604931640624999,0.9446494528855178,0.8310546875,0.03271484375,0.18115234375,28.388823529411766,210.9569655759508
-0.74358056640625,0.1698779296875,-0.5560986328124999,0.9439365758078678,0.8662109375,-0.0166015625,0.0888671875,28.388823529411766,210.9569655759508
-0.74748681640625,0.1664599609375,-0.5556103515624999,0.9461227838181838,0.88720703125,-0.03662109375,0.01416015625,28.43588235294117,210.9569655759508
-0.74699853515625,0.1552294921875,-0.5521923828124999,0.9418170917999518,0.91064453125,-0.04931640625,-0.0576171875,28.341764705882355,210.9569655759508
-0.73283837890625,0.1654833984375,-0.5512158203124999,0.9318131386276688,0.92919921875,-0.02197265625,-0.1376953125,28.43588235294117,210.9569655759508
-0.72404931640625,0.1625537109375,-0.5570751953124999,0.927902955464832,0.91650390625,-0.0712890625,-0.08447265625,28.388823529411766,210.9569655759508
-0.72844384765625,0.1571826171875,-0.5487744140624999,0.9254675423070192,0.89111328125,-0.15869140625,0.02490234375,28.48294117647059,210.9569655759508
-0.73772119140625,0.1552294921875,-0.5316845703124999,0.9225059532615676,0.87939453125,-0.1416015625,-0.02197265625,28.43588235294117,210.9569655759508
-0.72746728515625,0.1654833984375,-0.5404736328124999,0.9212519491955335,0.9052734375,-0.08740234375,-0.11328125,28.48294117647059,210.93650625312367
-0.73137353515625,0.1557177734375,-0.5429150390624999,0.9240735969237076,0.8798828125,-0.09814453125,-0.06298828125,28.341764705882355,210.93650625312367
-0.74846337890625,0.1518115234375,-0.5526806640624999,0.9427089076914152,0.86376953125,-0.134765625,-0.01904296875,28.53,210.93650625312367
-0.74992822265625,0.1566943359375,-0.5477978515624999,0.9418216074330356,0.8701171875,-0.12841796875,-0.02490234375,28.388823529411766,210.93650625312367
-0.74016259765625,0.1591357421875,-0.5409619140624999,0.9304862427123668,0.8759765625,-0.10400390625,-0.06103515625,28.43588235294117,210.93650625312367
-0.73381494140625,0.1649951171875,-0.5394970703124999,0.925615927802966,0.75244140625,-0.0703125,-0.04150390625,28.341764705882355,210.93650625312367
-0.74504541015625,0.1542529296875,-0.5414501953124999,0.9338388209514616,0.8662109375,-0.04345703125,-0.01708984375,28.341764705882355,210.93650625312367
-0.74602197265625,0.1542529296875,-0.5394970703124999,0.9334879961086108,0.87744140625,0.0078125,-0.0224609375,28.294705882352943,210.93650625312367
-0.74113916015625,0.1581591796875,-0.5399853515624999,0.9305298279682448,0.873046875,0.046875,-0.02490234375,28.388823529411766,211.0419894464094
-0.74406884765625,0.1566943359375,-0.5365673828124999,0.93064285376596,0.88232421875,0.0859375,-0.03857421875,28.294705882352943,211.0419894464094
-0.75041650390625,0.1557177734375,-0.5429150390624999,0.9392175966938904,0.89013671875,0.1259765625,-0.044921875,28.53,211.0419894464094
-0.74602197265625,0.1537646484375,-0.5414501953124999,0.934537674360416,0.9033203125,0.09814453125,-0.033203125,28.48294117647059,211.0419894464094
-0.73576806640625,0.1557177734375,-0.5551220703124999,0.9347530077274748,0.908203125,0.04345703125,-0.03564453125,28.388823529411766,211.0419894464094
-0.73283837890625,0.1566943359375,-0.5453564453124999,0.926832701708739,0.91064453125,-0.02734375,-0.0400390625,28.341764705882355,211.0419894464094
-0.73527978515625,0.1586474609375,-0.5448681640624999,0.928809289106314,0.88525390625,0.00439453125,-0.01611328125,28.43588235294117,211.0419894464094
-0.74553369140625,0.1562060546875,-0.5390087890624999,0.9331405527729928,0.88037109375,0.056640625,0.01025390625,28.388823529411766,211.0419894464094
-0.74943994140625,0.1591357421875,-0.5297314453124999,0.9314503821296334,0.88134765625,0.095703125,-0.00830078125,28.43588235294117,211.0419894464094
-0.73527978515625,0.1571826171875,-0.5375439453124999,0.924281467274694,0.88623046875,0.05224609375,-0.125,28.43588235294117,211.18055266727123
-0.72893212890625,0.1557177734375,-0.5473095703124999,0.924736632383396,0.89208984375,-0.01904296875,0.04638671875,28.341764705882355,211.18055266727123
-0.73186181640625,0.1601123046875,-0.5380322265624999,0.9223536985590722,0.8720703125,-0.0390625,0.0498046875,28.43588235294117,211.18055266727123
-0.73186181640625,0.1596240234375,-0.5321728515624999,0.9188631514605392,0.8681640625,0.0048828125,0.0126953125,28.43588235294117,211.18055266727123
-0.75432275390625,0.1562060546875,-0.5424267578124999,0.9421411445068748,0.87158203125,0.08056640625,0.001953125,28.43588235294117,211.18055266727123
-0.75578759765625,0.1488818359375,-0.5375439453124999,0.9393264538940944,0.85595703125,0.10986328125,0.0419921875,28.43588235294117,211.18055266727123
-0.74895166015625,0.1469287109375,-0.5438916015624999,0.9371951288812695,0.85205078125,0.08154296875,0.11767578125,28.43588235294117,211.18055266727123
-0.75334619140625,0.1557177734375,-0.5438916015624999,0.9421234437805144,0.83984375,0.01318359375,0.18408203125,28.43588235294117,211.18055266727123
-0.72893212890625,0.1645068359375,-0.5263134765624999,0.9140078901373176,0.85107421875,-0.19189453125,0.2138671875,28.294705882352943,210.73178914832172
-0.70354150390625,0.1601123046875,-0.5546337890624999,0.9100688093769814,0.873046875,-0.3701171875,0.24609375,28.388823529411766,210.73178914832172
-0.75529931640625,0.1459521484375,-0.5468212890624999,0.943818101738489,0.86083984375,0.08447265625,-0.056640625,28.48294117647059,210.73178914832172
-0.73967431640625,0.1396044921875,-0.5560986328124999,0.935870289092412,0.88818359375,0.2822265625,-0.162109375,28.388823529411766,210.73178914832172
-0.72551416015625,0.1488818359375,-0.5512158203124999,0.9232418308450564,0.94677734375,0.05419921875,-0.3095703125,28.388823529411766,210.73178914832172
-0.73772119140625,0.1591357421875,-0.5727001953124999,0.9473870668329808,0.9482421875,-0.3701171875,-0.375,28.43588235294117,210.73178914832172
-0.74309228515625,0.1566943359375,-0.5560986328124999,0.941267734807458,0.93310546875,-0.37646484375,-0.09326171875,28.43588235294117,210.73178914832172
-0.72356103515625,0.1571826171875,-0.5360791015624999,0.9141267690393676,0.9052734375,-0.36279296875,0.05419921875,28.43588235294117,210.73178914832172
-0.74211572265625,0.1527880859375,-0.5331494140624999,0.9264600599773528,0.86669921875,-0.11474609375,0.1025390625,28.43588235294117,210.3602222027079
-0.75139306640625,0.1483935546875,-0.5307080078124999,0.9318064052540592,0.83740234375,0.0205078125,0.1005859375,28.43588235294117,210.3602222027079
-0.75334619140625,0.1518115234375,-0.5311962890624999,0.9342091416104256,0.833984375,0.0390625,0.09228515625,28.388823529411766,210.3602222027079
-0.73820947265625,0.1527880859375,-0.5228955078124999,0.9174514356707694,0.857421875,0.06494140625,0.05029296875,28.388823529411766,210.3602222027079
-0.75041650390625,0.1576708984375,-0.5214306640624999,0.927294440279692,0.884765625,0.00439453125,0.0068359375,28.43588235294117,210.3602222027079
-0.74943994140625,0.1576708984375,-0.5224072265624999,0.9270542855484868,0.88525390625,0.2353515625,-0.0009765625,28.388823529411766,210.3602222027079
-0.75969384765625,0.1513232421875,-0.5404736328124999,0.944534389823068,0.900390625,0.2802734375,0.0048828125,28.53,210.3602222027079
-0.74553369140625,0.1566943359375,-0.5492626953124999,0.9391821486797308,0.8720703125,0.228515625,0.04052734375,28.48294117647059,210.3602222027079
-0.74162744140625,0.1552294921875,-0.5639111328124999,0.9445121612776868,0.8515625,0.11376953125,0.05615234375,28.48294117647059,210.3602222027079
-0.72990869140625,0.1586474609375,-0.5619580078124999,0.9347366031117502,0.86279296875,0.03076171875,0.04638671875,28.43588235294117,210.79794606520863
-0.72990869140625,0.1610888671875,-0.5590283203124999,0.9333964772986618,0.8564453125,0.0048828125,0.0322265625,28.341764705882355,210.79794606520863
-0.74065087890625,0.1513232421875,-0.5448681640624999,0.931849646809815,0.87353515625,0.02001953125,0.0546875,28.48294117647059,210.79794606520863
-0.74651025390625,0.1464404296875,-0.5541455078124999,0.9411692740750768,0.87890625,0.02685546875,0.05908203125,28.388823529411766,210.79794606520863
-0.74162744140625,0.1454638671875,-0.5468212890624999,0.9328368135295142,0.89111328125,0.04541015625,0.02099609375,28.43588235294117,210.79794606520863
-0.74797509765625,0.1444873046875,-0.5429150390624999,0.9354678335303525,0.8857421875,0.08984375,-0.0380859375,28.43588235294117,210.79794606520863
-0.74504541015625,0.1513232421875,-0.5360791015624999,0.930253830926317,0.87548828125,0.1376953125,-0.015625,28.341764705882355,210.79794606520863
-0.73527978515625,0.1474169921875,-0.5321728515624999,0.9195521061827836,0.8662109375,0.13037109375,0.052734375,28.43588235294117,210.79794606520863
-0.74553369140625,0.1547412109375,-0.5204541015624999,0.9223002760584336,0.90283203125,0.17138671875,-0.07666015625,28.43588235294117,210.8609162232832
-0.73576806640625,0.1522998046875,-0.5346142578124999,0.9221509001825312,0.923828125,0.14453125,-0.119140625,28.388823529411766,210.8609162232832
-0.74260400390625,0.1479052734375,-0.5487744140624999,0.9351417187024946,0.91943359375,0.1015625,-0.06689453125,28.388823529411766,210.8609162232832
-0.73039697265625,0.1454638671875,-0.5468212890624999,0.9239334372640334,0.89453125,0.0615234375,-0.02783203125,28.341764705882355,210.8609162232832
-0.73137353515625,0.1439990234375,-0.5453564453124999,0.9236106425988118,0.89404296875,0.04296875,0.01953125,28.341764705882355,210.8609162232832
-0.73772119140625,0.1488818359375,-0.5468212890624999,0.9302751633220956,0.88818359375,0.02783203125,0.046875,28.43588235294117,210.8609162232832
-0.73674462890625,0.1503466796875,-0.5546337890624999,0.9343529377516236,0.87939453125,0.021484375,0.02783203125,28.341764705882355,210.8609162232832
-0.74162744140625,0.1469287109375,-0.5390087890624999,0.9285094413258052,0.88037109375,0.02880859375,0.03369140625,28.48294117647059,210.8609162232832
-0.74358056640625,0.1508349609375,-0.5463330078124999,0.9349561484922756,0.88916015625,0.05615234375,0.02978515625,28.48294117647059,210.72395046083
-0.73723291015625,0.1488818359375,-0.5414501953124999,0.926739703958732,0.88037109375,0.09326171875,0.02783203125,28.388823529411766,210.72395046083
-0.73820947265625,0.1503466796875,-0.5443798828124999,0.929465871575404,0.884765625,0.13525390625,0.03466796875,28.43588235294117,210.72395046083
-0.74406884765625,0.1518115234375,-0.5370556640624999,0.9301150332096172,0.859375,0.1640625,0.02783203125,28.43588235294117,210.72395046083
-0.74651025390625,0.1479052734375,-0.5434033203124999,0.9351153392092576,0.8623046875,0.17236328125,0.046875,28.43588235294117,210.72395046083
-0.74992822265625,0.1527880859375,-0.5453564453124999,0.9397607093216298,0.859375,0.146484375,0.056640625,28.43588235294117,210.72395046083
-0.74455712890625,0.1464404296875,-0.5556103515624999,0.9404855025015444,0.86376953125,0.12939453125,0.03857421875,28.388823529411766,210.72395046083
-0.74797509765625,0.1479052734375,-0.5580517578124999,0.9448621492165508,0.86474609375,0.24853515625,0.02587890625,28.43588235294117,210.72395046083
-0.73869775390625,0.1464404296875,-0.5502392578124999,0.9326748693468958,0.85791015625,0.14990234375,0.046875,28.48294117647059,210.72395046083
-0.74504541015625,0.1420458984375,-0.5468212890624999,0.9350311345777664,0.8525390625,0.16552734375,0.06201171875,28.43588235294117,210.73178914832172
-0.73430322265625,0.1425341796875,-0.5570751953124999,0.932657487191843,0.85009765625,0.173828125,0.076171875,28.43588235294117,210.73178914832172
-0.72746728515625,0.1444873046875,-0.5414501953124999,0.9182883785567624,0.85205078125,0.13818359375,0.0947265625,28.388823529411766,210.73178914832172
-0.72209619140625,0.1552294921875,-0.5570751953124999,0.9251226286934402,0.8359375,0.11669921875,0.0927734375,28.388823529411766,210.73178914832172
-0.71916650390625,0.1542529296875,-0.5438916015624999,0.9147745628886584,0.841796875,0.05615234375,0.09326171875,28.341764705882355,210.73178914832172
-0.72893212890625,0.1508349609375,-0.5546337890624999,0.9282843712799654,0.83740234375,0.02880859375,0.10693359375,28.388823529411766,210.73178914832172
-0.74065087890625,0.1464404296875,-0.5448681640624999,0.9310691918866716,0.8408203125,0.05322265625,0.12451171875,28.43588235294117,210.73178914832172
-0.74309228515625,0.1483935546875,-0.5463330078124999,0.9341769354661796,0.83349609375,0.0029296875,0.09912109375,28.294705882352943,210.73178914832172
-0.74162744140625,0.1454638671875,-0.5404736328124999,0.9291301019068668,0.8330078125,0.173828125,0.09326171875,28.48294117647059,210.73178914832172
-0.72893212890625,0.1503466796875,-0.5458447265624999,0.9229803021521878,0.82958984375,0.1806640625,0.181640625,28.294705882352943,211.11598786747945
-0.74113916015625,0.1547412109375,-0.5370556640624999,0.928256905916206,0.81689453125,0.19921875,0.20751953125,28.48294117647059,211.11598786747945
-0.74553369140625,0.1537646484375,-0.5399853515624999,0.9332996475050306,0.82421875,0.06982421875,0.28515625,28.388823529411766,211.11598786747945
-0.71037744140625,0.1596240234375,-0.5404736328124999,0.906767713299722,0.8603515625,-0.0869140625,0.22216796875,28.953529411764706,211.11598786747945
-0.72063134765625,0.1479052734375,-0.5521923828124999,0.9198379948510668,0.822265625,0.1181640625,0.017578125,28.43588235294117,211.11598786747945
-0.72942041015625,0.1410693359375,-0.5595166015624999,0.9300610301041586,0.84521484375,0.3193359375,-0.1015625,28.341764705882355,211.11598786747945
-0.71477197265625,0.1425341796875,-0.5556103515624999,0.9164703094140586,0.908203125,0.14892578125,-0.12744140625,28.388823529411766,211.11598786747945
-0.74162744140625,0.1527880859375,-0.5624462890624999,0.9432397834757624,0.9013671875,-0.19482421875,-0.0654296875,28.388823529411766,211.11598786747945
-0.76506494140625,0.1630419921875,-0.5668408203124999,0.9660308335441294,0.986328125,-0.3603515625,0.072265625,28.43588235294117,211.11598786747945
-0.73137353515625,0.1581591796875,-0.5238720703124999,0.913435011426581,0.8642578125,-0.3291015625,0.17822265625,28.388823529411766,210.80578561924688
-0.72942041015625,0.1552294921875,-0.5170361328124999,0.9074561656801976,0.8349609375,-0.244140625,0.17919921875,28.577058823529413,210.80578561924688
-0.74113916015625,0.1459521484375,-0.5194775390624999,0.9167585276074964,0.8154296875,0.12353515625,0.001953125,28.388823529411766,210.80578561924688
-0.73137353515625,0.1425341796875,-0.5390087890624999,0.9196486910732606,0.80517578125,0.177734375,0.10302734375,28.294705882352943,210.80578561924688
-0.74016259765625,0.1479052734375,-0.5321728515624999,0.9235391625805762,0.81884765625,0.1787109375,0.07080078125,28.388823529411766,210.80578561924688
-0.74797509765625,0.1522998046875,-0.5477978515624999,0.9395448171312628,0.84716796875,0.212890625,0.06787109375,28.341764705882355,210.80578561924688
-0.74602197265625,0.1527880859375,-0.5604931640624999,0.9455398298597262,0.8330078125,0.201171875,0.076171875,28.388823529411766,210.80578561924688
-0.73430322265625,0.1513232421875,-0.5619580078124999,0.936961444763916,0.81201171875,0.0693359375,0.00634765625,28.388823529411766,210.9663990285615
-0.73430322265625,0.1469287109375,-0.5687939453124999,0.940380678834518,0.81298828125,-0.0009765625,0.16845703125,28.341764705882355,210.9663990285615
-0.73186181640625,0.1576708984375,-0.5658642578124999,0.9384477549641403,0.82275390625,-0.04150390625,0.16943359375,28.43588235294117,210.9663990285615
-0.73283837890625,0.1581591796875,-0.5590283203124999,0.9351893276918736,0.826171875,-0.001953125,0.24365234375,28.388823529411766,210.9663990285615
-0.73137353515625,0.1547412109375,-0.5424267578124999,0.923622692380571,0.84130859375,0.0205078125,0.06689453125,28.341764705882355,210.9663990285615
-0.73430322265625,0.1503466796875,-0.5634228515624999,0.9376836655073122,0.861328125,0.0244140625,0.0439453125,28.388823529411766,210.9663990285615
-0.73479150390625,0.1469287109375,-0.5438916015624999,0.9259182871942778,0.86181640625,0.046875,0.03466796875,28.43588235294117,210.9663990285615
-0.73381494140625,0.1527880859375,-0.5370556640624999,0.9220940048265772,0.85009765625,0.12158203125,0.0234375,28.388823529411766,210.9663990285615
-0.73235009765625,0.1562060546875,-0.5414501953124999,0.9240699708691424,0.8623046875,0.18115234375,0.013671875,28.388823529411766,210.9663990285615
-0.72893212890625,0.1566943359375,-0.5487744140624999,0.9257691510286632,0.85107421875,0.12939453125,0.09716796875,28.388823529411766,210.92388716203047
-0.73430322265625,0.1493701171875,-0.5492626953124999,0.9290867360876024,0.84619140625,0.109375,0.0400390625,28.388823529411766,210.92388716203047
-0.74309228515625,0.1601123046875,-0.5521923828124999,0.9395416552805028,0.88232421875,0.1298828125,-0.0732421875,28.43588235294117,210.92388716203047
-0.72697900390625,0.1488818359375,-0.5536572265624999,0.9258512827217572,0.88232421875,0.078125,-0.0498046875,28.341764705882355,210.92388716203047
-0.73576806640625,0.1469287109375,-0.5565869140624999,0.9342010953464804,0.8671875,0.029296875,-0.02685546875,28.388823529411766,210.92388716203047
-0.72356103515625,0.1522998046875,-0.5619580078124999,0.9287263346372968,0.861328125,-0.04443359375,0.01953125,28.341764705882355,210.92388716203047
-0.72404931640625,0.1537646484375,-0.5512158203124999,0.9228921173464688,0.85009765625,-0.0634765625,0.05810546875,28.388823529411766,210.92388716203047
-0.73039697265625,0.1508349609375,-0.5473095703124999,0.9250830713303996,0.84326171875,-0.03271484375,0.072265625,28.43588235294117,210.92388716203047
-0.73869775390625,0.1488818359375,-0.5565869140624999,0.9368186407218188,0.85302734375,-0.01171875,0.05712890625,28.341764705882355,210.92388716203047
-0.74651025390625,0.1469287109375,-0.5595166015624999,0.944417509742899,0.84716796875,-0.00146484375,0.04345703125,28.341764705882355,210.8372710886132
-0.74162744140625,0.1532763671875,-0.5463330078124999,0.9338011897670891,0.84814453125,0.01513671875,0.029296875,28.388823529411766,210.8372710886132
-0.73967431640625,0.1483935546875,-0.5272900390624999,0.9204202989495496,0.85107421875,0.0712890625,0.0322265625,28.48294117647059,210.8372710886132
-0.74211572265625,0.1518115234375,-0.5409619140624999,0.9308180686515418,0.87451171875,0.13818359375,0.02734375,28.341764705882355,210.8372710886132
-0.74699853515625,0.1562060546875,-0.5419384765624999,0.9360045167762284,0.8466796875,0.15576171875,0.04150390625,28.43588235294117,210.8372710886132
-0.74846337890625,0.1503466796875,-0.5502392578124999,0.941044523120382,0.84912109375,0.09326171875,0.06591796875,28.43588235294117,210.8372710886132
-0.73039697265625,0.1513232421875,-0.5487744140624999,0.92603013926178,0.84765625,0.0224609375,0.06884765625,28.388823529411766,210.8372710886132
-0.73088525390625,0.1498583984375,-0.5492626953124999,0.926466568431807,0.84716796875,0.052734375,0.04736328125,28.341764705882355,210.8372710886132
-0.74113916015625,0.1503466796875,-0.5551220703124999,0.9381108099570132,0.8486328125,0.0810546875,0.04052734375,28.388823529411766,210.6782520126692
-0.73479150390625,0.1532763671875,-0.5565869140624999,0.9344523486281272,0.85400390625,0.0625,0.05126953125,28.388823529411766,210.6782520126692
-0.72893212890625,0.1503466796875,-0.5585400390624999,0.9305445437381236,0.8359375,0.0400390625,0.07373046875,28.43588235294117,210.6782520126692
-0.72697900390625,0.1562060546875,-0.5531689453124999,0.9267657124104782,0.8447265625,0.03662109375,0.11865234375,28.53,210.6782520126692
-0.73039697265625,0.1532763671875,-0.5541455078124999,0.9295432352679384,0.8369140625,-0.0078125,0.11279296875,28.388823529411766,210.6782520126692
-0.73381494140625,0.1518115234375,-0.5585400390624999,0.9346111930184722,0.86181640625,-0.01904296875,0.08203125,28.388823529411766,210.6782520126692
-0.73723291015625,0.1542529296875,-0.5585400390624999,0.9376957424295842,0.84228515625,-0.00927734375,0.099609375,28.43588235294117,210.6782520126692
-0.74016259765625,0.1498583984375,-0.5487744140624999,0.933515703178656,0.84619140625,0.0380859375,0.1015625,28.388823529411766,210.90183495633067
-0.73576806640625,0.1542529296875,-0.5546337890624999,0.9342201313556642,0.8623046875,0.0625,0.10400390625,28.341764705882355,210.90183495633067
-0.73869775390625,0.1513232421875,-0.5575634765624999,0.9377900221524736,0.8427734375,0.0732421875,0.16015625,28.388823529411766,210.90183495633067
-0.73576806640625,0.1483935546875,-0.5600048828124999,0.9364725107496886,0.83349609375,0.0625,0.16748046875,28.388823529411766,210.90183495633067
-0.73137353515625,0.1503466796875,-0.5351025390624999,0.9186109619045162,0.84423828125,-0.01708984375,0.21875,28.43588235294117,210.90183495633067
-0.71184228515625,0.1586474609375,-0.5482861328124999,0.9124177438174216,0.85302734375,-0.337890625,0.27490234375,28.388823529411766,210.90183495633067
-0.71672509765625,0.1483935546875,-0.5590283203124999,0.920993037755752,0.83642578125,-0.15576171875,0.1337890625,28.294705882352943,210.90183495633067
-0.75676416015625,0.1420458984375,-0.5565869140624999,0.9500831670256704,0.84130859375,0.189453125,-0.0703125,28.388823529411766,210.90183495633067
-0.73430322265625,0.1410693359375,-0.5648876953124999,0.9371231982299176,0.8955078125,0.13037109375,-0.1103515625,28.43588235294117,210.58845089674807
-0.73235009765625,0.1557177734375,-0.5687939453124999,0.940271898296238,0.89013671875,-0.31201171875,0.0244140625,28.48294117647059,210.58845089674807
-0.74699853515625,0.1610888671875,-0.5517041015624999,0.9425146419755084,0.89599609375,-0.45703125,0.02978515625,28.341764705882355,210.58845089674807
-0.73137353515625,0.1571826171875,-0.5307080078124999,0.9172047822755698,0.9951171875,-0.3642578125,0.134765625,28.43588235294117,210.58845089674807
-0.73576806640625,0.1488818359375,-0.5448681640624999,0.9275784413321344,0.99853515625,-0.06640625,0.162109375,28.43588235294117,210.58845089674807
-0.72453759765625,0.1503466796875,-0.5526806640624999,0.9235879876541876,0.85302734375,-0.1337890625,0.1123046875,28.388823529411766,210.58845089674807
-0.72893212890625,0.1532763671875,-0.5502392578124999,0.926066376739835,0.8330078125,-0.16259765625,0.08251953125,28.43588235294117,210.58845089674807
-0.74748681640625,0.1439990234375,-0.5268017578124999,0.9257388138597432,0.84423828125,0.037109375,0.07470703125,28.341764705882355,210.58845089674807
-0.74748681640625,0.1527880859375,-0.5287548828124999,0.9282577583859218,0.86767578125,0.2216796875,0.07373046875,28.43588235294117,210.97105843361504
-0.73381494140625,0.1581591796875,-0.5331494140624999,0.9207317698796256,0.85498046875,0.21240234375,0.10546875,28.43588235294117,210.97105843361504
-0.72697900390625,0.1581591796875,-0.5482861328124999,0.9241917991815513,0.8662109375,0.1103515625,0.11083984375,28.43588235294117,210.97105843361504
-0.72795556640625,0.1562060546875,-0.5556103515624999,0.9289900435129989,0.85595703125,0.05029296875,0.12890625,28.43588235294117,210.97105843361504
-0.73918603515625,0.1625537109375,-0.5595166015624999,0.9412112042116894,0.8291015625,0.06005859375,0.1435546875,28.388823529411766,210.97105843361504
-0.73527978515625,0.1488818359375,-0.5673291015624999,0.9405660386231556,0.82861328125,0.05859375,0.13671875,28.388823529411766,210.97105843361504
-0.73088525390625,0.1532763671875,-0.5619580078124999,0.934603499704765,0.830078125,0.02294921875,0.11083984375,28.294705882352943,210.97105843361504
-0.73381494140625,0.1513232421875,-0.5658642578124999,0.938927819444544,0.8212890625,-0.02685546875,0.1083984375,28.341764705882355,210.97105843361504
-0.74309228515625,0.1488818359375,-0.5604931640624999,0.9426051836753556,0.83544921875,-0.00634765625,0.068359375,28.388823529411766,210.97105843361504
-0.73235009765625,0.1562060546875,-0.5487744140624999,0.9283805009734928,0.853515625,0.02294921875,0.017578125,28.53,210.7727074254041
-0.72990869140625,0.1542529296875,-0.5477978515624999,0.925550187879648,0.865234375,0.02099609375,0.0263671875,28.341764705882355,210.7727074254041
-0.72893212890625,0.1566943359375,-0.5458447265624999,0.9240355128363748,0.8408203125,-0.0341796875,0.1328125,28.48294117647059,210.7727074254041
-0.73869775390625,0.1498583984375,-0.5399853515624999,0.9272087634996058,0.8525390625,-0.01025390625,0.13671875,28.48294117647059,210.7727074254041
-0.74504541015625,0.1601123046875,-0.5399853515624999,0.9339768697399922,0.86328125,0.0751953125,0.04248046875,28.43588235294117,210.7727074254041
-0.72844384765625,0.1562060546875,-0.5458447265624999,0.9235676673776356,0.8603515625,0.1123046875,0.01220703125,28.43588235294117,210.7727074254041
-0.72990869140625,0.1498583984375,-0.5380322265624999,0.9190772079604836,0.8486328125,0.04736328125,0.091796875,28.388823529411766,210.7727074254041
-0.72111962890625,0.1537646484375,-0.5551220703124999,0.9229396509257968,0.8349609375,-0.03369140625,0.11328125,28.388823529411766,210.7727074254041
-0.71526025390625,0.1542529296875,-0.5429150390624999,0.9111245451503576,0.84130859375,-0.0390625,0.083984375,28.388823529411766,210.7931669363195
-0.72600244140625,0.1576708984375,-0.5394970703124999,0.9181485424579698,0.849609375,-0.044921875,0.1005859375,28.48294117647059,210.7931669363195
-0.73283837890625,0.1532763671875,-0.5521923828124999,0.9303021885238604,0.84033203125,-0.052734375,0.1142578125,28.43588235294117,210.7931669363195
-0.74065087890625,0.1557177734375,-0.5580517578124999,0.9403369150397928,0.84375,-0.056640625,0.11328125,28.341764705882355,210.7931669363195
-0.73088525390625,0.1566943359375,-0.5434033203124999,0.9241393497839744,0.83203125,-0.04296875,0.1201171875,28.388823529411766,210.7931669363195
-0.73674462890625,0.1601123046875,-0.5463330078124999,0.93107913399453,0.8369140625,0.00537109375,0.11279296875,28.341764705882355,210.7931669363195
-0.74260400390625,0.1552294921875,-0.5482861328124999,0.9360419783839128,0.82861328125,0.0537109375,0.1572265625,28.43588235294117,210.7931669363195
-0.74553369140625,0.1513232421875,-0.5399853515624999,0.9329005244665924,0.84375,0.07763671875,0.1953125,28.43588235294117,210.7931669363195
-0.74406884765625,0.1591357421875,-0.5370556640624999,0.9313385103149548,0.83740234375,0.1103515625,0.2158203125,28.341764705882355,210.7931669363195
-0.73674462890625,0.1518115234375,-0.5404736328124999,0.9262565166497688,0.84375,0.10595703125,0.2294921875,28.341764705882355,210.76008896960835
-0.72795556640625,0.1576708984375,-0.5458447265624999,0.9234315807855084,0.84326171875,0.1083984375,0.23095703125,28.43588235294117,210.76008896960835
-0.73186181640625,0.1571826171875,-0.5487744140624999,0.928160250705129,0.75146484375,0.0947265625,0.20166015625,28.48294117647059,210.76008896960835
-0.73576806640625,0.1522998046875,-0.5585400390624999,0.9362247877977712,0.86865234375,0.0400390625,0.15771484375,28.388823529411766,210.76008896960835
-0.73235009765625,0.1635302734375,-0.5590283203124999,0.9357304519887538,0.85107421875,-0.009765625,0.16455078125,28.388823529411766,210.76008896960835
-0.73674462890625,0.1635302734375,-0.5414501953124999,0.9288181267377892,0.8408203125,-0.0234375,0.203125,28.388823529411766,210.76008896960835
-0.73918603515625,0.1659716796875,-0.5453564453124999,0.9334646460751432,0.82470703125,-0.0185546875,0.20263671875,28.388823529411766,210.76008896960835
-0.72844384765625,0.1728076171875,-0.5497509765624999,0.9288267050304304,0.830078125,-0.02490234375,0.1669921875,28.43588235294117,210.8372710886132
-0.72649072265625,0.1713427734375,-0.5497509765624999,0.927023868272159,0.83349609375,-0.04296875,0.12060546875,28.388823529411766,210.8372710886132
-0.72942041015625,0.1679248046875,-0.5492626953124999,0.9284085217423412,0.82666015625,-0.0185546875,0.111328125,28.43588235294117,210.8372710886132
-0.74113916015625,0.1625537109375,-0.5429150390624999,0.9329885869060242,0.80908203125,0.00537109375,0.13818359375,28.388823529411766,210.8372710886132
-0.73479150390625,0.1503466796875,-0.5458447265624999,0.9276147604592948,0.8076171875,0.08251953125,0.16259765625,28.341764705882355,210.8372710886132
-0.73576806640625,0.1498583984375,-0.5468212890624999,0.928884120489428,0.80908203125,0.24853515625,0.2255859375,28.388823529411766,210.8372710886132
-0.73137353515625,0.1552294921875,-0.5404736328124999,0.9225590446888918,0.78662109375,0.119140625,0.2861328125,28.43588235294117,210.8372710886132
-0.75725244140625,0.1576708984375,-0.5482861328124999,0.9481081455531858,0.783203125,-0.0302734375,0.30322265625,28.294705882352943,210.8372710886132
-0.71477197265625,0.1747607421875,-0.5463330078124999,0.9164715191048144,0.8203125,-0.3974609375,0.31640625,28.388823529411766,210.8372710886132
-0.72160791015625,0.1649951171875,-0.5595166015624999,0.927900960296861,0.7890625,-0.42041015625,0.35400390625,28.48294117647059,210.8797828068271
-0.76750634765625,0.1513232421875,-0.5419384765624999,0.9516627709948816,0.76171875,-0.09521484375,0.20263671875,28.388823529411766,210.8797828068271
-0.71574853515625,0.1571826171875,-0.5429150390624999,0.9120082677062012,0.822265625,0.13525390625,0.12060546875,28.43588235294117,210.8797828068271
-0.74260400390625,0.1742724609375,-0.5531689453124999,0.94224597601526,0.84326171875,0.0390625,-0.01904296875,28.388823529411766,210.8797828068271
-0.78606103515625,0.1654833984375,-0.5512158203124999,0.974225634394888,0.83935546875,-0.11767578125,0.03271484375,28.341764705882355,210.8797828068271
-0.75285791015625,0.1737841796875,-0.5385205078124999,0.9418069395205826,0.8544921875,-0.2978515625,-0.037109375,28.388823529411766,210.8797828068271
-0.71916650390625,0.1698779296875,-0.5355908203124999,0.912642590578955,0.8583984375,-0.3388671875,-0.1171875,28.43588235294117,210.8797828068271
-0.73869775390625,0.1542529296875,-0.5346142578124999,0.9248138961973515,0.85302734375,-0.36767578125,0.0791015625,28.388823529411766,210.8797828068271
-0.75139306640625,0.1645068359375,-0.5434033203124999,0.9417755612884656,0.8359375,-0.142578125,0.05712890625,28.43588235294117,210.8797828068271
-0.74455712890625,0.1640185546875,-0.5473095703124999,0.9385175385908076,0.84326171875,-0.14453125,0.00048828125,28.43588235294117,210.7947595405819
-0.75041650390625,0.1635302734375,-0.5424267578124999,0.940262658652572,0.85888671875,-0.099609375,-0.04052734375,28.48294117647059,210.7947595405819
-0.75725244140625,0.1576708984375,-0.5243603515624999,0.934475869415879,0.89501953125,0.0693359375,-0.08984375,28.43588235294117,210.7947595405819
-0.73430322265625,0.1562060546875,-0.5277783203124999,0.9176881331456088,0.88916015625,0.10986328125,-0.09130859375,28.341764705882355,210.7947595405819
-0.72844384765625,0.1566943359375,-0.5302197265624999,0.9145034240171812,0.89697265625,0.05126953125,-0.033203125,28.388823529411766,210.7947595405819
-0.74016259765625,0.1649951171875,-0.5321728515624999,0.9264297078597638,0.88232421875,0.080078125,-0.02587890625,28.388823529411766,210.7947595405819
-0.73772119140625,0.1615771484375,-0.5419384765624999,0.9295359291205124,0.7509765625,0.15625,-0.076171875,28.43588235294117,210.7947595405819
-0.73186181640625,0.1654833984375,-0.5526806640624999,0.931913295269708,0.8798828125,0.20654296875,-0.07568359375,28.294705882352943,210.7947595405819
-0.73186181640625,0.1591357421875,-0.5575634765624999,0.9337145887001465,0.89013671875,0.2294921875,-0.06494140625,28.43588235294117,210.74281526601524
-0.74260400390625,0.1669482421875,-0.5634228515624999,0.946983490801138,0.89501953125,0.16162109375,-0.10107421875,28.388823529411766,210.74281526601524
