AccX,AccY,AccZ,Magnitude,GyroX,GyroY,GyroZ,Temperature,Altitude
-0.13420556640625,0.1269091796875,0.9712451171875,0.9886526951381548,0.94775390625,0.15478515625,-0.94970703125,29.61235294117647,171.4024852882092
-0.18547509765625,0.1244677734375,0.9756396484375,1.0008825915552395,0.9384765625,0.3037109375,-0.96484375,29.659411764705883,171.4024852882092
-0.18010400390625,0.1093310546875,0.9824755859375,1.0048129222424331,0.97119140625,0.322265625,-0.82470703125,29.659411764705883,171.4024852882092
-0.14934228515625,0.1171435546875,0.9849169921875,1.003038988295164,1.01220703125,0.2421875,-0.54833984375,29.51823529411765,171.4024852882092
-0.14397119140625,0.1342333984375,0.9736865234375,0.9933839917850604,0.95361328125,-0.17919921875,-0.29052734375,29.56529411764706,171.3064662552689
-0.16350244140625,0.0194873046875,0.9707568359375,0.9846225865321058,0.89794921875,-0.35986328125,-0.087890625,29.51823529411765,171.3064662552689
-0.18547509765625,0.1444873046875,0.9790576171875,1.0068919558916534,0.84521484375,-0.40966796875,0.02685546875,29.51823529411765,171.3064662552689
-0.19035791015625,0.1313037109375,0.9780810546875,1.0050469382091691,0.89892578125,-0.39599609375,-0.01025390625,29.56529411764706,171.3064662552689
-0.19231103515625,0.1405810546875,0.9839404296875,1.0123662066433967,0.93994140625,-0.318359375,-0.0556640625,29.51823529411765,171.3064662552689
-0.18645166015625,0.1454638671875,0.9995654296875,1.027158705584741,0.98388671875,-0.2197265625,-0.10009765625,29.56529411764706,171.3064662552689
-0.18205712890625,0.1542529296875,0.9863818359375,1.014833922752978,0.9658203125,-0.07177734375,-0.1083984375,29.56529411764706,171.3064662552689
-0.17717431640625,0.1601123046875,0.9961474609375,1.024371247370109,0.89990234375,0.18115234375,-0.05517578125,29.61235294117647,171.3064662552689
-0.29240869140625,0.1562060546875,0.9961474609375,1.0498632950356812,0.86083984375,0.4658203125,-0.12255859375,29.56529411764706,171.3150892986502
-0.17326806640625,0.1459521484375,0.9932177734375,1.018727342296175,0.8232421875,0.60693359375,0.04443359375,29.56529411764706,171.3150892986502
-0.17522119140625,0.1439990234375,0.9766162109375,1.002605310246609,0.83740234375,0.63671875,0.07763671875,29.56529411764706,171.3150892986502
-0.16545556640625,0.1415576171875,0.9624560546875,0.9867805027680896,0.75244140625,0.53125,0.09375,29.56529411764706,171.3150892986502
-0.15471337890625,0.1537646484375,0.9468310546875,0.9716320511604898,0.8935546875,0.3369140625,0.06494140625,29.61235294117647,171.3150892986502
-0.14543603515625,0.1566943359375,0.9517138671875,0.9754301821421412,0.89794921875,0.14892578125,0.11865234375,29.47117647058824,171.3150892986502
-0.15324853515625,0.1645068359375,0.9512255859375,0.9774342576050036,0.91162109375,-0.025390625,-0.01171875,29.56529411764706,171.3150892986502
-0.16740869140625,0.1659716796875,0.9585498046875,0.9871119472902188,0.91845703125,-0.1728515625,0.009765625,29.61235294117647,171.3150892986502
-0.17375634765625,0.1566943359375,0.9634326171875,0.9914367307733206,0.9248046875,-0.275390625,0.0244140625,29.56529411764706,171.19061810663607
-0.15813134765625,0.1591357421875,0.9639208984375,0.9896833867443192,0.91015625,-0.3388671875,0.11865234375,29.61235294117647,171.19061810663607
-0.16936181640625,0.1654833984375,0.9824755859375,1.010606974534652,0.8955078125,-0.31103515625,-0.0537109375,29.47117647058824,171.19061810663607
-0.18254541015625,0.1566943359375,0.9868701171875,1.015769939445777,0.85693359375,-0.15478515625,-0.09619140625,29.51823529411765,171.19061810663607
-0.18205712890625,0.1620654296875,0.9956591796875,1.025059609867332,0.8251953125,0.0263671875,-0.1328125,29.51823529411765,171.19061810663607
-0.18156884765625,0.1474169921875,1.0059130859375005,1.0327439917448722,0.77197265625,0.15087890625,-0.17236328125,29.659411764705883,171.19061810663607
-0.18059228515625,0.1464404296875,0.9863818359375,1.0134137847752265,0.62548828125,0.21533203125,-0.16064453125,30.36529411764706,171.19061810663607
-0.18156884765625,0.1459521484375,0.9824755859375,1.0097165706454334,0.75244140625,0.1865234375,-0.076171875,29.61235294117647,171.19061810663607
-0.17131494140625,0.1425341796875,0.9644091796875,0.9898231495543696,0.74658203125,0.04541015625,0.01904296875,29.61235294117647,171.19061810663607
-0.15813134765625,0.1439990234375,0.9663623046875,0.98974610167632,0.7294921875,-0.169921875,0.0,29.56529411764706,171.18809364808078
-0.15178369140625,0.1420458984375,0.9556201171875,0.9779699047584622,0.70849609375,-0.375,0.1865234375,29.56529411764706,171.18809364808078
-0.14445947265625,0.1430224609375,0.9561083984375,0.9774800423207944,0.640625,-0.6015625,0.236328125,29.61235294117647,171.18809364808078
-0.14836572265625,0.1493701171875,0.9429248046875,0.9661423326109247,0.58154296875,-0.85595703125,0.2080078125,29.56529411764706,171.18809364808078
-0.14445947265625,0.1449755859375,0.9404833984375,0.9624944064744444,0.4619140625,-1.091796875,0.171875,29.659411764705883,171.18809364808078
-0.15227197265625,0.1479052734375,0.9365771484375,0.9603330039848502,0.333984375,-1.3310546875,0.22314453125,29.56529411764706,171.18809364808078
-0.14885400390625,0.1425341796875,0.9307177734375,0.9532623356928396,0.263671875,-1.5029296875,0.279296875,29.56529411764706,171.18809364808078
-0.13957666015625,0.0175341796875,0.9365771484375,0.947082808677787,0.25048828125,-1.974609375,0.25,29.659411764705883,171.18809364808078
-0.16643212890625,0.1376513671875,0.9253466796875,0.9502178855554844,0.18896484375,-2.1787109375,0.4482421875,29.61235294117647,171.26637262792636
-0.15422509765625,0.1303271484375,0.9023974609375,0.924711697705494,0.0380859375,-2.16162109375,0.490234375,29.51823529411765,171.26637262792636
-0.16154931640625,0.1254443359375,0.8784716796875001,0.9019683780837912,-0.166015625,-2.02197265625,0.47216796875,29.61235294117647,171.26637262792636
-0.14690087890625,0.0985888671875,0.8394091796875001,0.8578504554410314,-0.33447265625,-2.05322265625,0.3994140625,29.56529411764706,171.26637262792636
-0.13567041015625,0.0951708984375,0.7949755859375001,0.8120653559523627,-0.3564453125,-2.14453125,0.50830078125,29.47117647058824,171.26637262792636
-0.09758447265625,0.0810107421875,0.7295458984375001,0.7404881414177726,-0.494140625,-2.69287109375,0.53662109375,29.659411764705883,171.26637262792636
-0.08977197265625,0.0854052734375,0.6880419921875001,0.6991100419954448,-0.64892578125,-3.0439453125,0.53173828125,29.56529411764706,171.26637262792636
-0.07317041015625,0.0971240234375,0.6440966796875001,0.6554750320459078,-0.63916015625,-3.31396484375,0.43115234375,29.51823529411765,171.26637262792636
-0.05315087890625,0.1293505859375,0.5938037109375001,0.6100487170169507,-0.4794921875,-3.69189453125,0.46826171875,29.51823529411765,171.02510377919117
-0.03117822265625,0.1313037109375,0.5327685546875001,0.549595377471253,-0.3623046875,-4.08349609375,0.63916015625,29.56529411764706,171.02510377919117
-0.03020166015625,0.1327685546875,0.4688037109375,0.4881767597692176,-0.3408203125,-4.41943359375,0.85009765625,29.47117647058824,171.02510377919117
-0.01555322265625,0.1249560546875,0.4175341796875,0.4361085983391912,-0.333984375,-4.63671875,1.00537109375,29.56529411764706,171.02510377919117
0.0308334960937499,0.1078662109375,0.3550341796875,0.3723373372222461,-0.37451171875,-4.71923828125,0.94384765625,29.61235294117647,171.02510377919117
0.0391342773437499,0.0854052734375,0.2778857421875,0.2933360497880365,-0.49560546875,-4.58349609375,0.8173828125,29.56529411764706,171.02510377919117
0.0371811523437499,0.0448779296875,0.1851123046875,0.1940696576215952,-0.86767578125,-4.06884765625,0.666015625,29.56529411764706,171.02510377919117
0.07868505859375,0.0287646484375,0.1602099609375,0.1807926299084952,-0.93408203125,-3.64697265625,0.61328125,29.51823529411765,171.02510377919117
0.12360693359375,0.0258349609375,0.1108935546875,0.1680580248316677,-0.86865234375,-3.30322265625,0.69873046875,29.51823529411765,171.02510377919117
0.18708349609375,-0.0005322265624999,0.0669482421875,0.1987022518940592,-0.82470703125,-2.83935546875,0.814453125,29.61235294117647,170.94008041866076
0.22614599609375,-0.0107861328125,0.0039599609375,0.226437703355492,-0.8056640625,-2.33544921875,0.81982421875,29.51823529411765,170.94008041866076
0.2779038085937499,-0.0249462890625,-0.0595166015624999,0.285298212455758,-0.783203125,-1.96923828125,0.76025390625,29.61235294117647,170.94008041866076
0.21833349609375,-0.0229931640625,-0.0858837890624999,0.2357418637702191,-0.87451171875,-2.02587890625,0.67626953125,29.61235294117647,170.94008041866076
0.4155991210937499,-0.0342236328125,-0.1405712890624999,0.4400615568366262,-0.7099609375,-2.3662109375,0.46630859375,29.51823529411765,170.94008041866076
0.4507553710937499,-0.0205517578125,-0.1664501953124999,0.480945367831542,-0.55419921875,-3.0751953125,0.19091796875,29.51823529411765,170.94008041866076
0.51130224609375,-0.0005322265624999,-0.1806103515624999,0.5422641138939192,-0.4619140625,-4.693359375,-0.16455078125,29.56529411764706,170.94008041866076
0.58014990234375,-0.0195751953125,-0.1850048828124999,0.6092486390017231,-0.466796875,-6.98095703125,-0.8212890625,29.61235294117647,170.94008041866076
0.62995458984375,-0.0190869140625,-0.1312939453124999,0.6437741806172086,-0.517578125,-9.40625,-1.47900390625,29.47117647058824,170.94008041866076
0.64509130859375,-0.0381298828125,-0.0053173828124999,0.6462390880676179,-0.4599609375,-12.4384765625,-1.77685546875,29.424117647058825,171.01695044630108
0.63630224609375,-0.0478955078125,0.1401904296875,0.65332065988191,-0.255859375,-15.47509765625,-1.73583984375,29.56529411764706,171.01695044630108
0.60602880859375,-0.0361767578125,0.1904833984375,0.6362889278713592,0.23583984375,16.0,-1.34033203125,29.51823529411765,171.01695044630108
0.53473974609375,-0.0542431640625,0.4287646484375,0.6875522093991498,0.611328125,16.0,-0.31396484375,29.61235294117647,171.01695044630108
0.4224350585937499,-0.0908642578125,0.7715380859375001,0.8842956011023817,0.52978515625,16.0,0.5205078125,29.56529411764706,171.01695044630108
0.23981787109375,-0.1279736328125,0.9785693359375,1.0156218820153131,0.20654296875,16.0,1.6396484375,29.56529411764706,171.01695044630108
0.12848974609375,-0.1020947265625,1.0532763671875005,1.0659850157102613,0.15283203125,16.0,2.82177734375,29.61235294117647,171.01695044630108
0.16364599609375,-0.1284619140625,1.3413623046875005,1.3574002017970526,0.10693359375,-15.53662109375,3.20703125,29.61235294117647,171.01695044630108
0.3628647460937499,-0.1562939453125,1.4502490234375005,1.5031037393608109,-0.4169921875,-8.51904296875,2.83447265625,29.56529411764706,171.16786280757023
0.55036474609375,-0.1118603515625,1.5855029296875005,1.6820325894708967,0.07275390625,-3.23095703125,2.5,29.659411764705883,171.16786280757023
0.66462255859375,-0.0610791015625,1.5073779296875005,1.6485272290588224,1.18017578125,2.41796875,2.77001953125,29.56529411764706,171.16786280757023
0.60065771484375,-0.0786572265625,1.2564013671875005,1.3948193593302467,1.458984375,8.64208984375,3.6279296875,29.659411764705883,171.16786280757023
0.61677099609375,-0.0469189453125,1.1602099609375005,1.3147984645984,1.3251953125,13.1865234375,4.48486328125,29.659411764705883,171.16786280757023
0.71833349609375,-4.394531249999993e-05,1.0874560546875005,1.303289562767217,1.32275390625,15.71630859375,4.7734375,29.61235294117647,171.16786280757023
0.87604833984375,0.0277880859375,1.0127490234375005,1.3393630784580672,1.41455078125,15.984375,4.38134765625,29.659411764705883,171.16786280757023
1.02741552734375,0.0360888671875,0.9077685546875,1.3714695844390226,1.42578125,14.232421875,3.56005859375,29.51823529411765,171.16786280757023
1.13190771484375,0.0380419921875,0.8496630859375001,1.4158353109374089,1.37841796875,10.38818359375,2.48291015625,29.659411764705883,170.9127951898301
1.14313818359375,0.0312060546875,0.8115771484375001,1.402282493831083,1.25,5.9169921875,1.6748046875,29.56529411764706,170.9127951898301
1.06354833984375,0.0204638671875,0.8228076171875001,1.3448294374925156,1.564453125,0.99072265625,1.2822265625,29.51823529411765,170.9127951898301
0.90192724609375,-0.0117626953125,0.8740771484375001,1.2560342271084424,1.82373046875,-3.1142578125,1.2470703125,29.659411764705883,170.9127951898301
0.77253271484375,-0.0561962890625,0.9595263671875,1.2331486803043226,2.16845703125,-5.94775390625,1.14453125,29.61235294117647,170.9127951898301
0.61530615234375,0.0126513671875,1.0269091796875005,1.1972068248762358,2.35009765625,-6.88720703125,1.6103515625,29.61235294117647,170.9127951898301
0.51960302734375,-0.1533642578125,1.1484912109375005,1.269858245317112,2.4052734375,-5.87744140625,2.37841796875,29.51823529411765,170.9127951898301
0.4346420898437499,-0.1846142578125,1.2481005859375005,1.3344479169562724,2.4453125,-3.20263671875,3.60302734375,29.56529411764706,170.9127951898301
0.4092514648437499,-0.1562939453125,1.3345263671875005,1.4045907530440205,2.70263671875,1.41064453125,4.82275390625,29.61235294117647,170.9127951898301
0.4717514648437499,-0.0845166015625,1.4014208984375005,1.4811053423370226,3.15673828125,6.6953125,6.01171875,29.659411764705883,170.9772692265069
0.57770849609375,-0.0073681640625,1.4102099609375005,1.5239729427479678,3.931640625,10.9052734375,6.42919921875,29.659411764705883,170.9772692265069
0.67780615234375,0.0834521484375,1.3862841796875005,1.5453702689277151,4.51904296875,14.587890625,6.109375,29.56529411764706,170.9772692265069
0.74909521484375,0.2094287109375,1.3272021484375005,1.538333373714509,5.34765625,15.99951171875,5.23876953125,29.659411764705883,170.9772692265069
0.84723974609375,0.2899951171875,1.2939990234375005,1.5736409463441137,5.87255859375,15.99951171875,3.95166015625,29.659411764705883,170.9772692265069
0.91852880859375,0.3002490234375,1.2856982421875005,1.6083732832448612,6.17529296875,14.23828125,2.20849609375,29.51823529411765,170.9772692265069
0.83259130859375,0.2436083984375,1.3198779296875005,1.5794401185899067,6.11474609375,10.3271484375,0.130859375,29.47117647058824,170.9772692265069
0.94831396484375,0.2343310546875,1.5088427734375005,1.7974473383282186,5.4453125,4.40966796875,-1.994140625,29.56529411764706,170.89508041470043
1.00544287109375,0.0824755859375,1.7041552734375005,1.9803693557752853,4.44921875,-1.66015625,-2.80029296875,29.659411764705883,170.89508041470043
1.07770849609375,0.2543505859375,2.6856005859375003,2.90492690619011,3.67626953125,-7.58203125,-4.142578125,29.70647058823529,170.89508041470043
1.28083349609375,-0.0561962890625,3.3154833984375003,3.554732427755261,-0.3857421875,-11.56103515625,-0.4833984375,29.56529411764706,170.89508041470043
1.37507177734375,-0.4849072265625,2.9146044921875003,3.2589686646390743,-3.52099609375,2.54443359375,6.02734375,29.51823529411765,170.89508041470043
2.62409521484375,-0.4639111328125,3.2730029296875003,4.220620500999374,5.12744140625,15.99951171875,-1.2080078125,29.659411764705883,170.89508041470043
2.71686865234375,-0.1890087890625,2.2832568359375003,3.553921970905712,15.99951171875,15.99951171875,-8.634765625,29.47117647058824,170.89508041470043
1.35309912109375,-0.4145947265625,0.6079638671875001,1.5402552004793533,12.41943359375,15.99951171875,-7.5126953125,29.51823529411765,170.89508041470043
0.0220444335937499,-0.8096142578125,0.4912646484375,0.947260343469616,2.044921875,15.99951171875,-2.765625,29.51823529411765,170.89508041470043
-0.62297509765625,-0.8511181640625,1.0049365234375005,1.456845056152364,-2.466796875,15.99951171875,0.6865234375,29.56529411764706,170.7824322208644
-0.47209619140625,-0.5210400390625,0.9858935546875,1.210926767984296,-2.69677734375,15.99951171875,1.2412109375,29.47117647058824,170.7824322208644
0.3374741210937499,-0.2598095703125,1.1465380859375005,1.2230860058635251,-3.783203125,-0.05029296875,-2.60791015625,29.51823529411765,170.7824322208644
0.79108740234375,0.0731982421875,1.6289599609375005,1.8123707719845363,-6.21337890625,16.0,-6.30615234375,29.61235294117647,170.7824322208644
0.14216162109375,0.3793505859375,2.4443896484375003,2.4777323396508213,-8.29443359375,16.0,-2.89892578125,29.61235294117647,170.7824322208644
0.20124365234375,0.1825732421875,3.4321826171875003,3.4429216537841154,-4.41943359375,16.0,-1.3603515625,29.659411764705883,170.7824322208644
0.20612646484375,-0.2183056640625,3.4497607421875003,3.4628015624359425,2.470703125,-10.22900390625,-2.287109375,29.659411764705883,170.7824322208644
-0.07756494140625,-0.2319775390625,2.9180224609375003,2.928256303894964,8.84619140625,15.99951171875,1.69287109375,29.56529411764706,170.7824322208644
0.92780615234375,0.0116748046875,2.5332568359375003,2.6978418697572843,14.18701171875,15.99951171875,6.484375,29.61235294117647,170.6563171707298
0.89948583984375,-0.1890087890625,1.9116748046875005,2.1211552647789085,13.02099609375,15.99951171875,2.9658203125,29.56529411764706,170.6563171707298
0.10407568359375,0.1947802734375,1.1523974609375005,1.1733673810069425,10.54296875,15.99951171875,2.537109375,29.659411764705883,170.6563171707298
-0.42717431640625,-0.6670361328125,-0.5062939453124999,0.9400790701503244,2.59375,15.99951171875,12.38525390625,29.56529411764706,170.6563171707298
2.72272802734375,-0.7197705078125,0.1836474609375,2.8222409331431364,0.85498046875,15.99951171875,4.74462890625,29.56529411764706,170.6563171707298
3.48151708984375,0.0678271484375,-1.4501416015625,3.7720647440787,5.05126953125,15.99951171875,2.7197265625,29.56529411764706,170.6563171707298
2.60456396484375,-0.6313916015625,-2.2455517578125,3.496414091394362,2.0966796875,15.99951171875,4.14990234375,29.659411764705883,170.6563171707298
3.64948583984375,-0.3784619140625,-1.7289501953125,4.056013941480851,2.04736328125,-1.6337890625,3.37060546875,29.56529411764706,170.6563171707298
1.53620458984375,-0.3852978515625,-1.9267041015625,2.4941065877891915,1.0498046875,16.0,9.138671875,29.56529411764706,170.7207903212427
1.74860693359375,0.7323779296875,-0.3231884765624999,1.9231366127990688,6.6015625,16.0,8.5810546875,29.51823529411765,170.7207903212427
0.58014990234375,1.3217333984375,-0.5844189453124999,1.5572728050585036,7.81884765625,16.0,1.52587890625,29.56529411764706,170.7207903212427
-1.09026025390625,0.6127490234375,-0.2567822265624999,1.2767403412008749,5.79345703125,16.0,-6.369140625,29.659411764705883,170.7207903212427
-1.86613916015625,-0.0268994140625,0.7744677734375001,2.0206432826302665,7.4453125,-15.88232421875,-2.81689453125,29.61235294117647,170.7207903212427
-3.78606103515625,0.5297412109375,1.2236865234375005,4.014012035375143,11.42236328125,1.19775390625,10.69189453125,29.56529411764706,170.7207903212427
-2.28410791015625,2.4262255859375,0.9478076171875,3.4643987672170136,12.5986328125,15.99951171875,7.6044921875,29.61235294117647,170.7207903212427
-0.56242822265625,3.3358935546875,0.9277880859375,3.507891396017477,10.6318359375,15.99951171875,-9.8984375,29.51823529411765,170.7207903212427
0.57868505859375,3.0990771484375,0.7100146484375001,3.231605850038489,7.4775390625,6.06103515625,16.0,29.51823529411765,170.7207903212427
-0.42424462890625,0.9814013671875,-0.3617626953124999,1.1287180322795685,-4.67822265625,-0.12841796875,16.0,29.56529411764706,170.53020523878084
-1.65715478515625,-0.2598095703125,0.1152880859375,1.681354911240145,-15.2841796875,-0.33935546875,16.0,29.51823529411765,170.53020523878084
-1.73332666015625,-1.6899853515625,0.4736865234375,2.466749018808065,-15.349609375,13.26806640625,16.0,29.61235294117647,170.53020523878084
-3.53947900390625,-2.9731884765625,0.4590380859375,4.645263964577081,-7.896484375,15.99951171875,-8.00439453125,29.56529411764706,170.53020523878084
-3.76262353515625,-2.9087353515625,0.0796435546875,4.756513461406831,-1.56982421875,15.99951171875,8.83740234375,29.51823529411765,170.53020523878084
-2.22258447265625,-1.7451611328125,0.0713427734375,2.826757667168133,-2.32177734375,15.99951171875,15.99951171875,29.659411764705883,170.53020523878084
-0.93840478515625,-0.5796337890625,0.7681201171875001,1.344093517823532,-1.02880859375,15.99951171875,15.99951171875,29.61235294117647,170.53020523878084
0.54059912109375,0.1117724609375,0.5083544921875001,0.7504430574524432,5.41259765625,15.99951171875,15.99951171875,29.51823529411765,170.53020523878084
1.67927099609375,0.1610888671875,-0.6596142578124999,1.8113507861711884,11.1728515625,15.99951171875,14.2685546875,29.61235294117647,170.53020523878084
2.32575537109375,0.1679248046875,-1.4735791015625,2.758400289073815,11.833984375,15.99951171875,5.0556640625,29.56529411764706,170.35060626950113
1.84479833984375,0.3778857421875,-2.0062939453125,2.751598434335296,8.439453125,15.99951171875,3.80029296875,29.56529411764706,170.35060626950113
0.97272802734375,0.6322802734375,-2.4315869140625,2.6941776259182046,4.00244140625,7.32568359375,7.28857421875,29.56529411764706,170.35060626950113
0.69880224609375,0.7372607421875,-1.9643017578125,2.2114156951739785,4.0107421875,-10.0068359375,8.5673828125,29.56529411764706,170.35060626950113
0.63190771484375,0.6869677734375,-1.6796337890625,1.921562319359218,7.79150390625,16.0,6.37060546875,29.56529411764706,170.35060626950113
0.22809912109375,0.6293505859375,-1.4848095703125,1.6287328906715202,12.0654296875,16.0,3.01123046875,29.56529411764706,170.35060626950113
-0.66008447265625,0.6249560546875,-1.5629345703125,1.80805034565146,13.89990234375,16.0,1.19775390625,29.56529411764706,170.35060626950113
-1.86027978515625,0.7870654296875,-1.5292431640625,2.5335148557887,12.9921875,16.0,1.96875,29.659411764705883,170.35060626950113
-2.59758447265625,1.3314990234375,-1.0370556640625,3.0977119285634,11.640625,16.0,1.5576171875,29.659411764705883,170.35060626950113
-2.47258447265625,1.6991748046875,-0.7240673828124999,3.0862829692299005,7.39697265625,-11.38720703125,-4.91748046875,29.61235294117647,170.3396245709447
-1.41838525390625,2.0063037109375,-0.0751416015624999,2.458193964947774,3.728515625,5.70947265625,-11.73974609375,29.61235294117647,170.3396245709447
-0.65178369140625,1.3188037109375,0.1318896484375,1.4769766713562698,4.1572265625,15.74951171875,16.0,29.659411764705883,170.3396245709447
-0.85930322265625,-0.0718212890625,-0.5722119140624999,1.034884921440585,2.935546875,15.99951171875,16.0,29.56529411764706,170.3396245709447
-1.33781884765625,-1.0454541015625,-1.0185009765625,1.979918631377794,-0.54736328125,15.99951171875,-14.26123046875,29.51823529411765,170.3396245709447
-0.66936181640625,-0.8441194661458334,-0.7447379557291667,2.145717508259652,-5.0009765625,15.99951171875,-2.833984375,29.47117647058824,170.3396245709447
-0.00090478515625,-0.6427848307291668,-0.4709749348958333,1.4614638686333,-7.61083984375,15.99951171875,3.27392578125,29.61235294117647,170.3396245709447
0.66755224609375,-0.4414501953125,-0.1972119140624999,0.824255309509408,-3.52001953125,15.99951171875,1.66064453125,29.56529411764706,170.56456793016
1.52302099609375,0.2196826171875,-0.8632275390624999,1.7643738807386171,1.75390625,15.689453125,-1.4990234375,29.61235294117647,170.56456793016
1.16511083984375,0.1620654296875,-0.8903271484374999,2.3308274531905764,0.626953125,-1.63623046875,-1.5498046875,29.56529411764706,170.56456793016
0.80720068359375,0.1044482421875,-0.9174267578125,2.050083747398081,-1.57958984375,-15.5,0.08984375,29.61235294117647,170.56456793016
0.4492905273437499,0.0468310546875,-0.9445263671875,1.4945580027975258,-1.36865234375,16.0,1.8935546875,29.56529411764706,170.56456793016
0.09138037109375,-0.0107861328125,-0.9716259765625,0.9759732328364912,-0.11669921875,16.0,4.00146484375,29.61235294117647,170.56456793016
-0.22258447265625,0.0600146484375,-0.7582470703124999,0.7925176497291571,1.6357421875,16.0,4.61865234375,29.659411764705883,170.56456793016
-0.40227197265625,-0.0024853515625,-0.5761181640624999,0.70266710177714,3.36474609375,16.0,2.458984375,29.61235294117647,170.56456793016
-0.71574853515625,-0.1357861328125,-0.7470166015624999,1.0434402917524694,3.33740234375,16.0,0.47607421875,29.61235294117647,170.56456793016
-1.00139306640625,-0.1982861328125,-0.6713330078124999,1.2217992761868977,1.6494140625,16.0,0.4892578125,29.51823529411765,170.5000955309478
-0.97258447265625,-0.2280712890625,-0.5165478515624999,1.1246149351224626,0.0537109375,-13.39306640625,1.05517578125,29.61235294117647,170.5000955309478
-1.00383447265625,-0.1387158203125,-0.4442822265624999,1.1064865223478115,-1.02587890625,-8.34716796875,1.3046875,29.51823529411765,170.5000955309478
-1.24065087890625,0.0551318359375,-0.2548291015624999,1.2677507616514538,-1.328125,-2.9541015625,1.2890625,29.61235294117647,170.5000955309478
-1.22258447265625,0.1752490234375,-0.2255322265624999,1.2555038025486809,-1.13720703125,2.2421875,0.77490234375,29.56529411764706,170.5000955309478
-0.95354150390625,0.2348193359375,-0.2396923828124999,1.0108580308729094,-1.0185546875,6.51806640625,-0.3486328125,29.659411764705883,170.5000955309478
-0.74260400390625,0.2616748046875,-0.2743603515624999,0.8337913483212294,-0.9140625,8.83349609375,-1.61279296875,29.61235294117647,170.5000955309478
-0.78606103515625,0.2733935546875,-0.0790478515624999,0.8359931516299816,0.0810546875,8.65087890625,-3.26025390625,29.61235294117647,170.5000955309478
-0.24895166015625,0.2812060546875,-0.1386181640624999,0.4003358211495949,3.42333984375,7.88818359375,-3.96826171875,29.51823529411765,170.5000955309478
-1.17912744140625,0.0990771484375,-1.1356884765625,1.6401055210615592,0.2041015625,11.87060546875,-1.2021484375,29.56529411764706,170.47140587903556
-0.67912744140625,-0.0825634765625,-0.9701611328125,1.18711559376209,-3.78564453125,13.68017578125,-1.4482421875,29.51823529411765,170.47140587903556
-0.49406884765625,0.1029833984375,-0.6869580078124999,0.852420618636029,-3.05078125,12.763671875,-2.1337890625,29.61235294117647,170.47140587903556
-0.32707666015625,0.1249560546875,-0.6430126953124999,0.7321601488438704,-0.2880859375,10.7646484375,-2.86279296875,29.56529411764706,170.47140587903556
-0.31682275390625,0.0141162109375,-0.9061962890625,0.960087308068708,0.61767578125,8.21484375,-2.923828125,29.56529411764706,170.47140587903556
-0.33342431640625,-0.0498486328125,-1.0639111328125,1.116048188693762,0.1025390625,4.275390625,-2.0380859375,29.56529411764706,170.47140587903556
-0.38860009765625,-0.0102978515625,-1.0219189453125,1.0933592330217283,-0.28955078125,-0.046875,-0.2470703125,29.659411764705883,170.47140587903556
-0.33049462890625,0.0414599609375,-0.9232861328125,0.9815309017757312,0.29052734375,-4.5009765625,0.92431640625,29.61235294117647,170.47140587903556
-0.34856103515625,0.0478076171875,-0.8607861328124999,0.9299102805822946,1.1318359375,-7.80078125,0.89990234375,29.56529411764706,170.09839924340125
-0.51311181640625,0.0697802734375,-0.8441845703124999,0.9903537809542778,1.69970703125,-9.1533203125,0.92626953125,29.61235294117647,170.09839924340125
-0.63957666015625,0.1371630859375,-0.7621533203124999,1.0043653219938895,1.76220703125,-9.73681640625,1.0283203125,29.61235294117647,170.09839924340125
-0.70793603515625,0.1684130859375,-0.6425244140624999,0.9707595068059348,2.0185546875,-9.64404296875,1.16015625,29.61235294117647,170.09839924340125
-0.54387353515625,0.1606005859375,-0.5482861328124999,0.7888020371939409,2.19140625,-9.0166015625,1.21923828125,29.56529411764706,170.09839924340125
-0.69963525390625,0.1425341796875,-0.4774853515624999,0.858951536377004,2.09130859375,-9.125,1.2724609375,29.61235294117647,170.09839924340125
-0.83391259765625,0.2631396484375,-0.4101025390624999,0.965834762086722,1.4375,-9.6162109375,1.30126953125,29.61235294117647,170.09839924340125
-0.99211572265625,0.1166552734375,-0.4252392578124999,1.085693550845466,0.91943359375,-7.533203125,0.951171875,29.56529411764706,170.09839924340125
-0.92277978515625,0.0111865234375,-0.3573681640624999,0.9896260277928398,0.9345703125,-3.73779296875,0.3212890625,29.61235294117647,170.39879128909686
-0.93401025390625,0.0790576171875,-0.3471142578124999,0.999556686343554,1.08154296875,0.29248046875,0.34912109375,29.659411764705883,170.39879128909686
-0.88811181640625,0.1122607421875,-0.1991650390624999,0.9170669470991004,1.13720703125,3.49951171875,0.568359375,29.56529411764706,170.39879128909686
-0.83879541015625,0.1630419921875,-0.3598095703124999,0.9271587556638432,1.16259765625,5.201171875,0.783203125,29.61235294117647,170.39879128909686
-0.81389306640625,0.1869677734375,-0.3754345703124999,0.9156036197143808,1.2626953125,5.97998046875,0.82861328125,29.659411764705883,170.39879128909686
-0.76848291015625,0.1566943359375,-0.4872509765624999,0.9233269260008738,1.22021484375,5.693359375,0.4912109375,29.61235294117647,170.39879128909686
-0.74748681640625,0.1151904296875,-0.5736767578124999,0.9492683489124684,1.20947265625,5.1875,-0.22119140625,29.56529411764706,170.39879128909686
-0.73332666015625,0.0756396484375,-0.6156689453124999,0.9604882077016224,1.31103515625,4.392578125,-0.57470703125,29.61235294117647,170.39879128909686
-0.70305322265625,0.0399951171875,-0.6435009765624999,0.9539271199222044,1.44921875,3.15478515625,-0.4541015625,29.61235294117647,170.39879128909686
-0.67717431640625,0.0189990234375,-0.6488720703124999,0.938062354709686,1.56103515625,1.86376953125,-0.10302734375,29.659411764705883,170.675804802766
-0.65764306640625,0.0204638671875,-0.6581494140624999,0.9306308741296384,1.64306640625,0.61669921875,0.4052734375,29.56529411764706,170.675804802766
-0.66106103515625,0.0316943359375,-0.6601025390624999,0.9347414536700142,1.63916015625,-0.39208984375,0.54931640625,29.61235294117647,170.675804802766
-0.67033837890625,0.0531787109375,-0.6576611328124999,0.9405847559597456,1.662109375,-1.06591796875,0.44384765625,29.56529411764706,170.675804802766
-0.67033837890625,0.0639208984375,-0.6342236328124999,0.9250292103007348,1.6455078125,-1.31494140625,0.36376953125,29.70647058823529,170.675804802766
-0.69914697265625,0.0702685546875,-0.6161572265624999,0.9345554488618968,1.6044921875,-1.13232421875,0.4384765625,29.51823529411765,170.675804802766
-0.68303369140625,0.0619677734375,-0.6005322265624999,0.9115996838969196,1.60595703125,-0.9541015625,0.4853515625,29.47117647058824,170.675804802766
-0.71233056640625,0.0780810546875,-0.5888134765624999,0.9274765749706992,1.63623046875,-0.6845703125,0.6162109375,29.61235294117647,170.675804802766
-0.73088525390625,0.0917529296875,-0.5961376953124999,0.947624401467344,1.7373046875,-0.32470703125,0.8095703125,29.56529411764706,170.675804802766
-0.73918603515625,0.0956591796875,-0.5888134765624999,0.9498673504285322,1.8388671875,-0.17578125,0.99658203125,29.51823529411765,170.214939050395
-0.75432275390625,0.1156787109375,-0.5814892578124999,0.9594342802798964,1.97705078125,-0.28173828125,1.1376953125,29.659411764705883,170.214939050395
-0.73723291015625,0.1220263671875,-0.5995556640624999,0.9580552136572597,2.15185546875,-0.427734375,1.26806640625,29.659411764705883,170.214939050395
-0.74309228515625,0.1581591796875,-0.6024853515624999,0.969633471588904,2.2841796875,-0.42529296875,1.33544921875,29.659411764705883,170.214939050395
-0.72942041015625,0.1859912109375,-0.6161572265624999,0.972777771715463,2.32861328125,-0.380859375,1.13330078125,29.659411764705883,170.214939050395
-0.69475244140625,0.2060107421875,-0.6073681640624999,0.945524969238381,2.2275390625,-0.70166015625,0.55810546875,29.56529411764706,170.214939050395
-0.65227197265625,0.1991748046875,-0.5639111328124999,0.8849435546095901,2.21142578125,-1.064453125,-0.21484375,29.56529411764706,170.214939050395
-0.68596337890625,0.1718310546875,-0.6034619140624999,0.9296439911490172,2.04296875,-1.31201171875,-0.8662109375,29.56529411764706,170.214939050395
-0.71233056640625,0.1147021484375,-0.5741650390624999,0.922082919684813,1.6572265625,-1.38818359375,-1.20556640625,29.56529411764706,170.48096876755724
-0.77190087890625,0.0673388671875,-0.5634228515624999,0.9580244253426716,1.31884765625,-1.05224609375,-0.81640625,29.61235294117647,170.48096876755724
-0.79533837890625,0.0302294921875,-0.5521923828124999,0.9687070696527832,0.8984375,-0.482421875,-0.17919921875,29.56529411764706,170.48096876755724
-0.76506494140625,0.0116748046875,-0.5429150390624999,0.938199022208868,0.51416015625,0.1123046875,0.052734375,29.659411764705883,170.48096876755724
-0.72209619140625,0.0214404296875,-0.5429150390624999,0.903680995323478,0.39892578125,0.2294921875,-0.5732421875,29.51823529411765,170.48096876755724
-0.72063134765625,0.0346240234375,-0.5409619140624999,0.9017472787261558,0.57568359375,0.0869140625,-1.49755859375,29.56529411764706,170.48096876755724
-0.73674462890625,0.0282763671875,-0.5653759765624999,0.9291082800392702,0.7880859375,-0.1943359375,-1.52587890625,29.70647058823529,170.48096876755724
-0.76897119140625,0.0019091796875,-0.5897900390624999,0.9691091932064064,0.66162109375,-0.42919921875,-0.9404296875,29.56529411764706,170.48096876755724
-0.75676416015625,-0.0088330078125,-0.5853955078124999,0.9567956504348588,0.419921875,-0.31689453125,-0.333984375,29.51823529411765,170.48096876755724
-0.72014306640625,-0.1108837890625,-0.5604931640624999,0.9192680989410248,0.46728515625,-0.005859375,-0.12890625,29.51823529411765,170.54685989380843
-0.69524072265625,0.0336474609375,-0.5614697265624999,0.8942818727410803,0.7373046875,0.42822265625,-0.55712890625,29.56529411764706,170.54685989380843
-0.70549462890625,0.0473193359375,-0.5839306640624999,0.9170260690959694,0.99755859375,0.818359375,-0.9169921875,29.61235294117647,170.54685989380843
-0.71086572265625,0.0395068359375,-0.6054150390624999,0.9345684754240502,1.10302734375,1.23193359375,-1.033203125,29.659411764705883,170.54685989380843
-0.69914697265625,0.0155810546875,-0.6034619140624999,0.923696671187869,1.10595703125,1.73583984375,-0.76220703125,29.56529411764706,170.54685989380843
-0.68352197265625,0.0063037109375,-0.6220166015624999,0.9242005607522844,0.7578125,2.177734375,-0.31689453125,29.56529411764706,170.54685989380843
-0.65959619140625,0.0067919921875,-0.6283642578124999,0.9110186097834442,0.580078125,2.6005859375,-0.17529296875,29.61235294117647,170.54685989380843
-0.63713525390625,0.0282763671875,-0.6190869140624999,0.8888247813123423,0.64453125,2.86279296875,-0.7109375,29.70647058823529,170.54685989380843
-0.65617822265625,0.0341357421875,-0.6381298828124999,0.9159393299347406,0.88916015625,2.83349609375,-1.4169921875,29.659411764705883,170.3123559132503
-0.70988916015625,0.0321826171875,-0.6898876953124999,0.9904157574978176,1.1328125,2.830078125,-1.64599609375,29.56529411764706,170.3123559132503
-0.75090478515625,0.0023974609375,-0.7255322265624999,1.0441555228845172,1.125,2.6943359375,-1.22607421875,29.51823529411765,170.3123559132503
-0.74553369140625,-0.0229931640625,-0.7440869140624999,1.053572259645483,0.83642578125,2.29150390625,-0.13818359375,29.56529411764706,170.3123559132503
-0.67424462890625,-0.0225048828125,-0.7245556640624999,0.9899965654912048,0.5966796875,1.97900390625,0.6923828125,29.61235294117647,170.3123559132503
-0.60295556640625,0.0106982421875,-0.7206494140624999,0.9396836943540144,0.55029296875,1.43212890625,0.88818359375,29.47117647058824,170.3123559132503
-0.66252587890625,0.0429248046875,-0.6972119140624999,0.9627499842579348,0.8095703125,0.982421875,0.8720703125,29.659411764705883,170.3123559132503
-0.53117822265625,0.0605029296875,-0.6845166015624999,0.8685469973120036,1.19140625,0.126953125,0.76171875,29.56529411764706,170.3123559132503
-0.56535791015625,0.0556201171875,-0.5731884765624999,0.8070118919050904,1.43359375,-0.96337890625,0.97265625,29.51823529411765,170.3123559132503
-0.60979150390625,0.0644091796875,-0.6889111328124999,0.9222758641411282,1.60498046875,-1.87841796875,1.1171875,29.56529411764706,170.2067976753657
-0.61613916015625,0.0663623046875,-0.6737744140624999,0.9154252461051916,1.787109375,-2.8056640625,1.03857421875,29.659411764705883,170.2067976753657
-0.62443994140625,0.0644091796875,-0.6488720703124999,0.9028337313609232,1.8623046875,-3.330078125,0.8447265625,29.56529411764706,170.2067976753657
-0.66789697265625,0.0570849609375,-0.6254345703124999,0.9167952119151804,1.81884765625,-3.41552734375,0.7705078125,29.61235294117647,170.2067976753657
-0.71672509765625,0.0522021484375,-0.6107861328124999,0.9431222773044337,1.646484375,-3.359375,0.77587890625,29.56529411764706,170.2067976753657
-0.76262353515625,0.0536669921875,-0.5692822265624999,0.9531825931607368,1.47509765625,-2.98291015625,0.7509765625,29.56529411764706,170.2067976753657
-0.79192041015625,0.0644091796875,-0.5531689453124999,0.9681334414780864,1.265625,-2.4794921875,0.70263671875,29.56529411764706,170.2067976753657
-0.81145166015625,0.0673388671875,-0.5394970703124999,0.9767524807648048,0.94921875,-1.7509765625,0.5576171875,29.51823529411765,170.2067976753657
-0.78459619140625,0.0878466796875,-0.5038525390624999,0.9365765338833976,0.87353515625,-1.04248046875,0.1904296875,29.51823529411765,170.35344406299006
-0.77727197265625,0.0873583984375,-0.5048291015624999,0.9309326672960316,0.64111328125,-0.15625,-0.1318359375,29.659411764705883,170.35344406299006
-0.80119775390625,0.0805224609375,-0.5165478515624999,0.9566730844618164,0.47216796875,0.97509765625,-0.41552734375,29.51823529411765,170.35344406299006
-0.81779931640625,0.0600146484375,-0.5375439453124999,0.9804850703012944,0.26708984375,1.97265625,-0.30126953125,29.61235294117647,170.35344406299006
-0.76506494140625,0.0585498046875,-0.5556103515624999,0.947341177697506,0.208984375,2.3369140625,-0.49609375,29.61235294117647,170.35344406299006
-0.71818994140625,0.0385302734375,-0.5883251953124999,0.9291974544453792,0.29638671875,2.4716796875,-0.94140625,29.51823529411765,170.35344406299006
-0.70012353515625,0.0341357421875,-0.6361767578124999,0.9466039723956372,0.5546875,2.5791015625,-1.07177734375,29.51823529411765,170.35344406299006
-0.70647119140625,0.0102099609375,-0.6483837890624999,0.9589615870869678,0.81494140625,2.41455078125,-0.78759765625,29.51823529411765,170.35344406299006
-0.70744775390625,-0.0068798828125,-0.6684033203124999,0.973289605358696,1.0302734375,1.8798828125,-0.23974609375,29.61235294117647,169.98044011028088
-0.64397119140625,-0.0122509765625,-0.6664501953124999,0.9268251424189944,1.109375,1.28857421875,0.3388671875,29.56529411764706,169.98044011028088
-0.59807275390625,-0.0127392578125,-0.6898876953124999,0.9131255881850054,1.0400390625,0.3974609375,0.365234375,29.56529411764706,169.98044011028088
-0.58635400390625,0.0116748046875,-0.6835400390624999,0.9006521548094725,1.0703125,-0.6123046875,0.17578125,29.56529411764706,169.98044011028088
-0.63860009765625,0.0150927734375,-0.6952587890624999,0.9441518205803882,1.18701171875,-1.2314453125,-0.14404296875,29.61235294117647,169.98044011028088
-0.70891259765625,0.0336474609375,-0.6864697265624999,0.9873853899213144,1.36962890625,-1.62353515625,-0.0166015625,29.61235294117647,169.98044011028088
-0.74699853515625,0.0414599609375,-0.6796337890624999,1.0107560670715623,1.38037109375,-1.8740234375,0.3671875,29.51823529411765,169.98044011028088
-0.69963525390625,0.0336474609375,-0.6762158203124999,0.9735961564103008,1.4423828125,-2.04248046875,0.58837890625,29.47117647058824,169.98044011028088
-0.64055322265625,0.0229052734375,-0.6220166015624999,0.8931616512288891,1.41748046875,-2.45947265625,0.5986328125,29.61235294117647,169.98044011028088
-0.64787744140625,0.0482958984375,-0.6039501953124999,0.8870363641401637,1.439453125,-2.72119140625,0.56005859375,29.56529411764706,170.07785612969008
-0.65324853515625,0.0541552734375,-0.5746533203124999,0.8717183495092078,1.41357421875,-2.83740234375,0.4765625,29.51823529411765,170.07785612969008
-0.68401025390625,0.0561083984375,-0.5502392578124999,0.8796484642527177,1.36328125,-2.7333984375,0.3935546875,29.56529411764706,170.07785612969008
-0.70500634765625,0.0580615234375,-0.5311962890624999,0.8846324594164853,1.28564453125,-2.38623046875,0.2236328125,29.56529411764706,170.07785612969008
-0.72600244140625,0.0409716796875,-0.5189892578124999,0.8933689457268034,1.263671875,-1.873046875,-0.02978515625,29.51823529411765,170.07785612969008
-0.75139306640625,0.0297412109375,-0.5209423828124999,0.9147989101883438,1.259765625,-0.92236328125,-0.2353515625,29.56529411764706,170.07785612969008
-0.77824853515625,0.0199755859375,-0.5243603515624999,0.9386285659392344,1.2080078125,-0.0224609375,-0.2080078125,29.51823529411765,170.07785612969008
-0.77238916015625,0.0023974609375,-0.5321728515624999,0.9379758560250828,1.14208984375,0.662109375,0.05322265625,29.47117647058824,170.07785612969008
-0.76115869140625,-0.0039501953125,-0.5600048828124999,0.9449781089105312,1.05517578125,1.34228515625,0.3740234375,29.61235294117647,170.1299244396326
-0.73137353515625,0.0043505859375,-0.5844189453124999,0.9362006618055368,1.0107421875,1.599609375,0.58935546875,29.61235294117647,170.1299244396326
-0.70354150390625,0.0146044921875,-0.6073681640624999,0.929559049026674,0.9287109375,1.578125,0.6015625,29.56529411764706,170.1299244396326
-0.66887353515625,0.0282763671875,-0.6337353515624999,0.9218524040180114,0.8681640625,1.27734375,0.4951171875,29.70647058823529,170.1299244396326
-0.66740869140625,0.0463427734375,-0.6561962890624999,0.9371102303325252,0.89990234375,0.88818359375,0.439453125,29.659411764705883,170.1299244396326
-0.67326806640625,0.0487841796875,-0.6752392578124999,0.9547868038056292,0.96875,0.490234375,0.36474609375,29.51823529411765,170.1299244396326
-0.65666650390625,0.0478076171875,-0.6810986328124999,0.9473076655620708,1.02783203125,-0.2265625,0.31005859375,29.56529411764706,170.1299244396326
-0.65471337890625,0.0434130859375,-0.6649853515624999,0.9342054497497632,1.06787109375,-0.759765625,0.36669921875,29.51823529411765,170.1299244396326
-0.66740869140625,0.0316943359375,-0.6474072265624999,0.9303628374459452,1.09130859375,-1.56689453125,0.447265625,29.51823529411765,170.214939050395
-0.70598291015625,0.0224169921875,-0.6210400390624999,0.9405344869222892,1.150390625,-1.9296875,0.57080078125,29.659411764705883,170.214939050395
-0.71428369140625,0.0141162109375,-0.6029736328124999,0.9348677238450768,1.23388671875,-2.0771484375,0.57275390625,29.659411764705883,170.214939050395
-0.70891259765625,0.0277880859375,-0.5805126953124999,0.916692008394742,1.2314453125,-1.9560546875,0.5849609375,29.61235294117647,170.214939050395
-0.72649072265625,0.0316943359375,-0.5595166015624999,0.917525001545009,1.22314453125,-1.59521484375,0.69970703125,29.659411764705883,170.214939050395
-0.71428369140625,0.0141162109375,-0.5531689453124999,0.903546535203536,1.10986328125,-1.28515625,0.65576171875,29.56529411764706,170.214939050395
-0.72990869140625,0.0229052734375,-0.5219189453124999,0.8976027711731639,1.029296875,-1.0771484375,0.72265625,29.51823529411765,170.214939050395
-0.75383447265625,0.0165576171875,-0.5302197265624999,0.921777372952855,0.9375,-0.8232421875,0.8505859375,29.56529411764706,170.214939050395
-0.76457666015625,0.0336474609375,-0.5365673828124999,0.9346732997050264,0.87109375,-0.611328125,0.88720703125,29.61235294117647,170.09025911131636
-0.77727197265625,0.0482958984375,-0.5316845703124999,0.9429595408028976,0.84375,-0.21484375,0.89013671875,29.659411764705883,170.09025911131636
-0.78215478515625,0.0585498046875,-0.5434033203124999,0.9541914672110696,0.83203125,0.10693359375,0.9169921875,29.56529411764706,170.09025911131636
-0.76994775390625,0.0546435546875,-0.5565869140624999,0.9516272666962532,0.7880859375,0.2568359375,0.88134765625,29.61235294117647,170.09025911131636
-0.72795556640625,0.0751513671875,-0.5336376953124999,0.9057241437161933,0.87109375,0.36962890625,0.85595703125,29.51823529411765,170.09025911131636
-0.71330712890625,0.0810107421875,-0.5546337890624999,0.9071871033409112,0.900390625,0.3134765625,0.83837890625,29.56529411764706,170.09025911131636
-0.68303369140625,0.0829638671875,-0.5556103515624999,0.8843759888295013,0.90380859375,0.2431640625,0.833984375,29.47117647058824,170.09025911131636
-0.79192041015625,0.0956591796875,-0.5551220703124999,0.971827725282915,0.8876953125,0.24658203125,0.86474609375,29.61235294117647,170.09025911131636
-0.68401025390625,0.1010302734375,-0.5453564453124999,0.8806195523854977,0.8115234375,-0.083984375,0.8388671875,29.61235294117647,170.09025911131636
-0.71623681640625,0.0912646484375,-0.5424267578124999,0.903078734563693,0.6826171875,-0.2177734375,0.5703125,29.56529411764706,170.46042402623942
-0.71818994140625,0.1117724609375,-0.5214306640624999,0.8945277035317561,0.6591796875,-0.1494140625,0.3564453125,29.51823529411765,170.46042402623942
-0.70256494140625,0.1088427734375,-0.5380322265624999,0.8915845013472004,0.61962890625,-0.01513671875,-0.08056640625,29.56529411764706,170.46042402623942
-0.71623681640625,0.0624560546875,-0.5380322265624999,0.8979836372466313,0.552734375,0.2939453125,-0.095703125,29.659411764705883,170.46042402623942
-0.78459619140625,0.0556201171875,-0.5385205078124999,0.953251865112142,0.48291015625,0.6513671875,-0.14453125,29.56529411764706,170.46042402623942
-0.77141259765625,0.0580615234375,-0.5360791015624999,0.9411850718422514,0.6103515625,1.11865234375,-0.37353515625,29.70647058823529,170.46042402623942
-0.76945947265625,0.0526904296875,-0.5663525390624999,0.9568695626592102,0.64501953125,1.6689453125,0.08203125,29.56529411764706,170.46042402623942
-0.72307275390625,0.0424365234375,-0.5761181640624999,0.925498354901712,0.60888671875,2.4775390625,0.32080078125,29.61235294117647,170.46042402623942
-0.71477197265625,0.0819873046875,-0.5888134765624999,0.9296893035882716,0.76318359375,2.90380859375,0.435546875,29.61235294117647,170.27941028968317
-0.68156884765625,0.0785693359375,-0.5902783203124999,0.9050622796670263,0.8759765625,2.69482421875,0.44580078125,29.659411764705883,170.27941028968317
-0.69963525390625,0.0556201171875,-0.6268994140624999,0.9410557694931369,0.7529296875,2.0439453125,0.580078125,29.51823529411765,170.27941028968317
-0.72746728515625,0.0414599609375,-0.6342236328124999,0.9660057948850144,0.66162109375,1.37890625,0.8310546875,29.70647058823529,170.27941028968317
-0.73332666015625,0.0453662109375,-0.6400830078124999,0.9744395006777192,0.72265625,0.90234375,0.8564453125,29.659411764705883,170.27941028968317
-0.71037744140625,0.0502490234375,-0.6542431640624999,0.9670549060616072,0.861328125,0.5263671875,0.689453125,29.659411764705883,170.27941028968317
-0.69572900390625,0.0546435546875,-0.6478955078124999,0.9522569789657024,0.9599609375,0.16015625,0.5888671875,29.56529411764706,170.27941028968317
-0.69817041015625,0.0522021484375,-0.6352001953124999,0.945328659273734,0.96484375,-0.11865234375,0.6005859375,29.56529411764706,170.27941028968317
-0.69377587890625,0.0565966796875,-0.6259228515624999,0.9361130115599936,0.88427734375,-0.359375,0.712890625,29.659411764705883,170.27941028968317
-0.69231103515625,0.0736865234375,-0.6112744140624999,0.926488360651593,0.84033203125,-0.52978515625,0.79296875,29.47117647058824,170.26984838005615
-0.68938134765625,0.0658740234375,-0.5912548828124999,0.910586825025387,0.7998046875,-0.66015625,0.810546875,29.56529411764706,170.26984838005615
-0.69865869140625,0.0873583984375,-0.5819775390624999,0.9134841612355972,0.7890625,-0.54443359375,0.86279296875,29.56529411764706,170.26984838005615
-0.72356103515625,0.1073779296875,-0.5590283203124999,0.9206428483900654,0.77880859375,-0.40380859375,0.900390625,29.56529411764706,170.26984838005615
-0.71477197265625,0.1166552734375,-0.5766064453124999,0.925733448942838,0.7333984375,-0.1865234375,0.83837890625,29.56529411764706,170.26984838005615
-0.71086572265625,0.1142138671875,-0.5731884765624999,0.9202825179093408,0.6376953125,0.01806640625,0.64794921875,29.56529411764706,170.26984838005615
-0.71037744140625,0.1020068359375,-0.5722119140624999,0.9178605441089296,0.53662109375,0.18701171875,0.4150390625,29.61235294117647,170.26984838005615
-0.72649072265625,0.1107958984375,-0.4491650390624999,0.8612860927312076,0.4580078125,0.4326171875,0.25,29.61235294117647,170.26984838005615
-0.74455712890625,0.1078662109375,-0.5980908203124999,0.9610999256108652,0.29150390625,0.7841796875,0.43212890625,29.51823529411765,170.07785612969008
-0.73772119140625,0.1088427734375,-0.5966259765624999,0.95500882796369,0.1748046875,1.03857421875,0.513671875,29.61235294117647,170.07785612969008
-0.70158837890625,0.0985888671875,-0.5766064453124999,0.9134664804608494,0.17041015625,1.0458984375,0.509765625,29.56529411764706,170.07785612969008
-0.67717431640625,0.0971240234375,-0.5736767578124999,0.8928063357656137,0.1259765625,0.984375,0.490234375,29.56529411764706,170.07785612969008
-0.68742822265625,0.1059130859375,-0.6098095703124999,0.925009651366866,0.287109375,0.94677734375,0.52783203125,29.659411764705883,170.07785612969008
-0.68254541015625,0.0878466796875,-0.6039501953124999,0.9156096954901082,0.2802734375,0.99267578125,0.52783203125,29.56529411764706,170.07785612969008
-0.69475244140625,0.1161669921875,-0.6088330078124999,0.931049599278068,0.4443359375,0.99560546875,0.65234375,29.56529411764706,170.07785612969008
-0.70012353515625,0.1186083984375,-0.6308056640624999,0.9498192999054742,0.54150390625,0.81103515625,0.45166015625,29.51823529411765,170.07785612969008
-0.67131494140625,0.1142138671875,-0.6293408203124999,0.9272423772265864,0.607421875,0.61181640625,-0.1552734375,29.56529411764706,170.2574466107477
-0.68010400390625,0.1039599609375,-0.6435009765624999,0.9420417381646792,0.9404296875,0.6826171875,-0.43115234375,29.56529411764706,170.2574466107477
-0.69084619140625,0.0834521484375,-0.6635205078124999,0.9615051666772848,1.322265625,0.7392578125,-0.5087890625,29.56529411764706,170.2574466107477
-0.67082666015625,0.0512255859375,-0.6727978515624999,0.9514669819274576,1.67919921875,0.3359375,-0.79443359375,29.61235294117647,170.2574466107477
-0.63518212890625,0.0248583984375,-0.6776806640624999,0.9291530333044952,2.0859375,-0.05712890625,-1.34228515625,29.61235294117647,170.2574466107477
-0.63322900390625,0.0116748046875,-0.6864697265624999,0.9339999774836112,2.580078125,0.3388671875,-1.60302734375,29.51823529411765,170.2574466107477
-0.64445947265625,-0.0449658203125,-0.6757275390624999,0.9348570179124776,2.26904296875,1.1904296875,-0.67578125,29.61235294117647,170.2574466107477
-0.69084619140625,-0.0835400390625,-0.6630322265624999,0.9611759109380088,1.25146484375,1.6806640625,1.251953125,29.56529411764706,170.2574466107477
-0.75383447265625,-0.0410595703125,-0.6215283203124999,0.977880234706506,0.50927734375,0.69970703125,3.3408203125,29.51823529411765,170.2574466107477
-0.74309228515625,0.0487841796875,-0.6234814453124999,0.971233830287786,0.615234375,-1.037109375,3.48779296875,29.659411764705883,170.18483382361583
-0.61027978515625,0.1044482421875,-0.6908642578124999,0.9277091538781072,0.72705078125,-2.0419921875,2.11328125,29.70647058823529,170.18483382361583
-0.54045556640625,0.1195849609375,-0.6371533203124999,0.8440125210725058,0.619140625,-3.08642578125,0.7431640625,29.659411764705883,170.18483382361583
-0.61711572265625,0.2592333984375,-0.6923291015624999,0.9629918768532472,0.33642578125,-3.36279296875,0.44970703125,29.61235294117647,170.18483382361583
-0.74846337890625,0.1195849609375,-0.5551220703124999,0.9394990715238736,0.2353515625,-2.9248046875,0.8583984375,29.659411764705883,170.18483382361583
-0.86418603515625,0.1303271484375,-0.5497509765624999,1.0324867094594254,0.2470703125,-2.09423828125,1.30615234375,29.56529411764706,170.18483382361583
-0.86320947265625,0.1566943359375,-0.5463330078124999,1.033519938861282,0.333984375,-0.9189453125,1.3466796875,29.659411764705883,170.18483382361583
-0.91643212890625,0.1796435546875,-0.5487744140624999,1.0831772759627312,0.3818359375,-0.177734375,0.982421875,29.51823529411765,170.18483382361583
-0.74162744140625,0.1996630859375,-0.5473095703124999,0.9430929834796352,0.5185546875,0.42041015625,0.29541015625,29.51823529411765,170.2903921501827
-0.72404931640625,0.2167529296875,-0.5668408203124999,0.9447421662490884,0.7255859375,0.64501953125,0.0498046875,29.61235294117647,170.2903921501827
-0.72990869140625,0.2123583984375,-0.5951611328124999,0.9654426762827416,0.896484375,0.72900390625,-0.064453125,29.56529411764706,170.2903921501827
-0.72502587890625,0.2128466796875,-0.6059033203124999,0.9685479170921208,1.03271484375,0.60009765625,-0.1640625,29.61235294117647,170.2903921501827
-0.70256494140625,0.1938037109375,-0.6039501953124999,0.9465269217958464,1.009765625,0.37646484375,-0.1279296875,29.56529411764706,170.2903921501827
-0.66447900390625,0.1898974609375,-0.6112744140624999,0.9226319968385034,1.18115234375,0.02294921875,-0.478515625,29.51823529411765,170.2903921501827
-0.65178369140625,0.1840380859375,-0.6034619140624999,0.907115361562504,1.28173828125,-0.30126953125,-0.7333984375,29.56529411764706,170.2903921501827
-0.66203759765625,0.1767138671875,-0.6176220703124999,0.9224850097990314,1.2705078125,-0.16015625,-0.8955078125,29.70647058823529,170.2903921501827
-0.64543603515625,0.1898974609375,-0.6234814453124999,0.9172665009677904,1.17578125,0.01806640625,-1.294921875,29.56529411764706,170.2903921501827
-0.68254541015625,0.1615771484375,-0.6366650390624999,0.9472685911540676,1.099609375,0.2265625,-1.404296875,29.56529411764706,170.56598608721788
-0.71867822265625,0.1161669921875,-0.6547314453124999,0.9791151225853026,0.99853515625,0.42333984375,-1.275390625,29.61235294117647,170.56598608721788
-0.73186181640625,0.0810107421875,-0.6654736328124999,0.9924916194265276,0.734375,0.30419921875,-1.02685546875,29.61235294117647,170.56598608721788
-0.68938134765625,0.0624560546875,-0.6430126953124999,0.9447818412715824,0.53369140625,-0.1357421875,-0.78173828125,29.51823529411765,170.56598608721788
-0.68742822265625,0.0868701171875,-0.6190869140624999,0.9291784466548554,0.7412109375,-1.04931640625,-0.30810546875,29.61235294117647,170.56598608721788
-0.71867822265625,0.1137255859375,-0.6151806640624999,0.9528269234512386,0.912109375,-1.93994140625,0.13916015625,29.659411764705883,170.56598608721788
-0.71086572265625,0.1264208984375,-0.6029736328124999,0.9406856653933028,0.9580078125,-2.33251953125,0.4384765625,29.61235294117647,170.56598608721788
-0.69475244140625,0.0141162109375,-0.5683056640624999,0.8976923471082372,1.03271484375,-2.521484375,0.1884765625,29.659411764705883,170.56598608721788
-0.69670556640625,0.1205615234375,-0.5394970703124999,0.8893766446623135,1.06787109375,-2.6220703125,-0.1181640625,29.659411764705883,169.9584764783429
-0.75188134765625,0.0995654296875,-0.5302197265624999,0.925403584485303,1.0791015625,-2.1650390625,-0.17919921875,29.51823529411765,169.9584764783429
-0.80705712890625,0.0727099609375,-0.5199658203124999,0.9628044464122416,1.0419921875,-1.57958984375,0.02490234375,29.61235294117647,169.9584764783429
-0.82317041015625,0.0678271484375,-0.5150830078124999,0.973406673060722,0.95166015625,-0.67236328125,0.2060546875,29.659411764705883,169.9584764783429
-0.81096337890625,0.0731982421875,-0.5228955078124999,0.967697936691442,0.9453125,0.048828125,0.26806640625,29.56529411764706,169.9584764783429
-0.76018212890625,0.0722216796875,-0.5370556640624999,0.9335532263491648,0.9619140625,0.56689453125,0.19091796875,29.61235294117647,169.9584764783429
-0.71184228515625,0.0829638671875,-0.5443798828124999,0.8999732768288892,1.02392578125,0.8046875,-0.0888671875,29.56529411764706,169.9584764783429
-0.68693994140625,0.0854052734375,-0.5643994140624999,0.8931557772439529,1.02001953125,0.82470703125,-0.4375,29.61235294117647,169.9584764783429
-0.67717431640625,0.0868701171875,-0.5912548828124999,0.903157687510916,1.1240234375,0.79052734375,-0.83837890625,29.659411764705883,170.1409062883852
-0.68498681640625,0.0712451171875,-0.6181103515624999,0.925388141312686,0.95458984375,0.927734375,-1.02880859375,29.47117647058824,170.1409062883852
-0.70158837890625,0.0536669921875,-0.6254345703124999,0.9414216914904472,0.88232421875,1.26708984375,-0.9560546875,29.61235294117647,170.1409062883852
-0.73137353515625,0.0336474609375,-0.6234814453124999,0.9616488507784196,0.716796875,1.96240234375,-0.54833984375,29.56529411764706,170.1409062883852
-0.74553369140625,0.0268115234375,-0.6249462890624999,0.973189193848688,0.61376953125,2.251953125,-0.00244140625,29.51823529411765,170.1409062883852
-0.75334619140625,0.0238818359375,-0.6474072265624999,0.993597978661086,0.6142578125,1.65380859375,0.3876953125,29.659411764705883,170.1409062883852
-0.71379541015625,0.0380419921875,-0.6561962890624999,0.9703322371791628,0.28955078125,0.45947265625,0.748046875,29.659411764705883,170.1409062883852
-0.63322900390625,0.0712451171875,-0.6342236328124999,0.8990519754324813,0.19482421875,-1.001953125,0.26513671875,29.56529411764706,170.1409062883852
-0.61174462890625,0.1117724609375,-0.6078564453124999,0.8696056762278054,0.26318359375,-2.2568359375,-0.03076171875,29.51823529411765,170.1409062883852
-0.54631494140625,0.1107958984375,-0.5580517578124999,0.7887696182738712,0.30126953125,-2.8916015625,-0.29541015625,29.51823529411765,170.3615879820771
-0.74651025390625,0.1137255859375,-0.5209423828124999,0.9173832537682204,0.2568359375,-2.88818359375,-0.3134765625,29.47117647058824,170.3615879820771
-0.76311181640625,0.0136279296875,-0.4813916015624999,0.902365357746696,0.4326171875,-2.40966796875,-0.19189453125,29.61235294117647,170.3615879820771
-0.75969384765625,0.1361865234375,-0.4603955078124999,0.8986910119427478,0.447265625,-1.2392578125,-0.287109375,29.56529411764706,170.3615879820771
-0.80022119140625,0.1640185546875,-0.4613720703124999,0.9381472319001196,0.46533203125,0.796875,-0.796875,29.659411764705883,170.3615879820771
-0.84953759765625,0.1776904296875,-0.4467236328124999,0.9761403704115912,0.58203125,2.7568359375,-1.2333984375,29.56529411764706,170.3615879820771
-0.83293603515625,0.1684130859375,-0.4691845703124999,0.9707108566386444,0.69873046875,4.70703125,-1.4189453125,29.659411764705883,170.3615879820771
-0.79192041015625,0.1410693359375,-0.5009228515624999,0.9476086728082416,0.7900390625,6.3564453125,-1.32275390625,29.56529411764706,170.3615879820771
-0.69719384765625,0.0995654296875,-0.5619580078124999,0.9009935285800764,0.83349609375,7.03369140625,-1.1396484375,29.51823529411765,170.25886648608187
-0.61223291015625,0.0663623046875,-0.6244580078124999,0.8770295863213416,0.84033203125,6.91162109375,-0.9853515625,29.51823529411765,170.25886648608187
-0.57072900390625,0.0463427734375,-0.7177197265624999,0.9181507797996196,0.7548828125,5.94384765625,-0.59912109375,29.61235294117647,170.25886648608187
-0.54826806640625,0.0272998046875,-0.7445751953124999,0.9250596594012038,0.66357421875,4.5234375,-0.0478515625,29.61235294117647,170.25886648608187
-0.51848291015625,0.0185107421875,-0.7631298828124999,0.9227862123709076,0.77197265625,2.57275390625,0.42529296875,29.70647058823529,170.25886648608187
-0.50188134765625,0.0077685546875,-0.7792431640624999,0.926911617310584,0.6953125,0.41650390625,0.74267578125,29.56529411764706,170.25886648608187
-0.51457666015625,0.0170458984375,-0.7787548828124999,0.9335624614000998,0.4052734375,-1.56884765625,0.9541015625,29.56529411764706,170.25886648608187
-0.55510400390625,0.0150927734375,-0.7362744140624999,0.9222083602775804,0.19873046875,-3.087890625,0.99609375,29.659411764705883,170.25886648608187
-0.60783837890625,0.0302294921875,-0.6630322265624999,0.8999961391748957,0.1611328125,-3.841796875,0.923828125,29.61235294117647,170.0874173892179
-0.67131494140625,0.0365771484375,-0.6137158203124999,0.9103014591029396,0.20849609375,-3.65380859375,0.89404296875,29.753529411764703,170.0874173892179
-0.72014306640625,0.0458544921875,-0.5668408203124999,0.9176149443635484,0.30224609375,-2.916015625,0.9765625,29.56529411764706,170.0874173892179
-0.76750634765625,0.0497607421875,-0.5526806640624999,0.9470998055032286,0.3701171875,-1.64208984375,1.10400390625,29.56529411764706,170.0874173892179
-0.77776025390625,0.0536669921875,-0.5277783203124999,0.9414569103249768,0.38037109375,-0.62158203125,1.0498046875,29.61235294117647,170.0874173892179
-0.77385400390625,0.0692919921875,-0.5536572265624999,0.9540375904899798,0.416015625,0.7724609375,0.81201171875,29.56529411764706,170.0874173892179
-0.74943994140625,0.0819873046875,-0.5585400390624999,0.9382692146398408,0.470703125,1.9755859375,0.4736328125,29.61235294117647,170.0874173892179
-0.73527978515625,0.0868701171875,-0.5858837890624999,0.9441623769277312,0.5498046875,2.50830078125,0.220703125,29.61235294117647,170.0874173892179
-0.71233056640625,0.0751513671875,-0.6156689453124999,0.9445161798767692,0.60009765625,2.9921875,0.14208984375,29.56529411764706,170.0874173892179
-0.70500634765625,0.0702685546875,-0.6537548828124999,0.9640368596763615,0.59228515625,2.8271484375,0.22021484375,29.61235294117647,170.0874173892179
-0.70451806640625,0.0683154296875,-0.6972119140624999,0.993537697793538,0.5380859375,2.47119140625,0.40478515625,29.56529411764706,170.50293242021957
-0.68693994140625,0.0839404296875,-0.7055126953124999,0.98827154268574,0.59765625,1.59912109375,0.59423828125,29.659411764705883,170.50293242021957
-0.63567041015625,0.1020068359375,-0.7079541015624999,0.95691236529024,0.7646484375,0.30859375,0.64453125,29.659411764705883,170.50293242021957
-0.59856103515625,0.1249560546875,-0.6762158203124999,0.9116782129958432,0.9853515625,-1.21044921875,0.736328125,29.56529411764706,170.50293242021957
-0.62541650390625,0.1444873046875,-0.6703564453124999,0.928116451931645,1.193359375,-2.70361328125,1.208984375,29.56529411764706,170.50293242021957
-0.64152978515625,0.1464404296875,-0.6493603515624999,0.9244858738082792,1.16845703125,-3.84814453125,1.4228515625,29.659411764705883,170.50293242021957
-0.55266259765625,0.1601123046875,-0.6112744140624999,0.8394809743216041,1.25244140625,-4.37109375,1.4208984375,29.56529411764706,170.50293242021957
-0.74797509765625,0.1596240234375,-0.5683056640624999,0.9528472613056992,1.52734375,-3.9453125,1.34326171875,29.61235294117647,170.2067976753657
-0.76945947265625,0.1527880859375,-0.5326611328124999,0.948229909712816,1.5927734375,-3.02392578125,1.1826171875,29.51823529411765,170.2067976753657
-0.77434228515625,0.1469287109375,-0.5038525390624999,0.9354471667595592,1.61181640625,-1.546875,1.0205078125,29.56529411764706,170.2067976753657
-0.73674462890625,0.1410693359375,-0.4994580078124999,0.9011944891820448,1.58203125,0.43896484375,0.83251953125,29.61235294117647,170.2067976753657
-0.73479150390625,0.1464404296875,-0.5224072265624999,0.9133852768818816,1.62060546875,2.46044921875,0.9501953125,29.56529411764706,170.2067976753657
-0.74162744140625,0.1503466796875,-0.5517041015624999,0.936478938161837,1.42529296875,3.81201171875,1.330078125,29.61235294117647,170.2067976753657
-0.72307275390625,0.1654833984375,-0.6249462890624999,0.9699365065884378,1.2958984375,3.82666015625,1.48486328125,29.659411764705883,170.2067976753657
-0.79192041015625,0.1698779296875,-0.6659619140624999,1.048571274639327,1.06884765625,2.91455078125,1.34326171875,29.61235294117647,170.2067976753657
-0.58488916015625,0.1908740234375,-0.6923291015624999,0.9262007381566056,0.861328125,1.5498046875,0.62744140625,29.56529411764706,170.2067976753657
-0.52092431640625,0.2006396484375,-0.6781689453124999,0.87836867563382,0.84326171875,-0.17529296875,0.0703125,29.56529411764706,170.2067976753657
-0.58195947265625,0.1791552734375,-0.6840283203124999,0.9157882849241664,0.53173828125,-1.71337890625,-0.06103515625,29.61235294117647,170.43031720675984
-0.68303369140625,0.1581591796875,-0.6483837890624999,0.9549611969260928,0.34716796875,-2.73681640625,0.0380859375,29.56529411764706,170.43031720675984
-0.72063134765625,0.1674365234375,-0.5873486328124999,0.9446284693319446,0.37353515625,-3.1923828125,0.43359375,29.61235294117647,170.43031720675984
-0.71135400390625,0.1591357421875,-0.5497509765624999,0.913003197993546,0.384765625,-3.1240234375,0.5810546875,29.61235294117647,170.43031720675984
-0.70158837890625,0.1591357421875,-0.5194775390624999,0.8873597643843772,0.34716796875,-2.3017578125,0.1865234375,29.56529411764706,170.43031720675984
-0.73088525390625,0.1635302734375,-0.5121533203124999,0.9073237725394752,0.39697265625,-1.103515625,-0.74462890625,29.659411764705883,170.43031720675984
-0.79192041015625,0.1620654296875,-0.5160595703124999,0.9590206565204732,0.54150390625,0.54443359375,-1.06982421875,29.56529411764706,170.43031720675984
-0.79777978515625,0.1396044921875,-0.5399853515624999,0.973409564235404,0.78955078125,1.78955078125,-0.9619140625,29.659411764705883,170.43031720675984
-0.75285791015625,0.1107958984375,-0.5819775390624999,0.9580024112540912,0.955078125,2.8310546875,-0.89501953125,29.659411764705883,170.2082185564629
-0.69475244140625,0.1005419921875,-0.6308056640624999,0.9437719178097576,0.96630859375,3.6005859375,-0.82666015625,29.51823529411765,170.2082185564629
-0.65568994140625,0.0941943359375,-0.6640087890624999,0.9379283256924732,0.94091796875,3.80712890625,-0.595703125,29.56529411764706,170.2082185564629
-0.65178369140625,0.0819873046875,-0.6737744140624999,0.9410185224310644,0.79736328125,2.83642578125,0.0,29.61235294117647,170.2082185564629
-0.66692041015625,0.0961474609375,-0.7035595703124999,0.9741782366210088,0.69287109375,1.08154296875,0.59375,29.51823529411765,170.2082185564629
-0.65861962890625,0.1288623046875,-0.7074658203124999,0.975137526741956,0.65087890625,-0.84130859375,0.74853515625,29.659411764705883,170.2082185564629
-0.60100244140625,0.1581591796875,-0.6786572265624999,0.9202140467636866,0.69970703125,-2.0009765625,0.177734375,29.61235294117647,170.2082185564629
-0.59318994140625,0.1835498046875,-0.6400830078124999,0.8917797341701966,0.7900390625,-2.79296875,-0.32080078125,29.61235294117647,170.2082185564629
-0.65910791015625,0.1718310546875,-0.5990673828124999,0.907100257819044,0.85693359375,-2.8818359375,-0.52587890625,29.659411764705883,170.48096876755724
-0.74016259765625,0.1435107421875,-0.5727001953124999,0.9467953938435856,0.939453125,-2.74169921875,-0.31982421875,29.56529411764706,170.48096876755724
-0.79582666015625,0.1225146484375,-0.5595166015624999,0.9805145279501294,0.97021484375,-2.0068359375,0.03759765625,29.56529411764706,170.48096876755724
-0.79289697265625,0.1117724609375,-0.5380322265624999,0.9647058458884098,1.01123046875,-1.1591796875,0.16845703125,29.659411764705883,170.48096876755724
-0.76457666015625,0.1259326171875,-0.5326611328124999,0.9403001519389832,1.0185546875,-0.2646484375,0.244140625,29.61235294117647,170.48096876755724
-0.73918603515625,0.1303271484375,-0.5429150390624999,0.92635732837286,1.07080078125,0.701171875,-0.09423828125,29.659411764705883,170.48096876755724
-0.72697900390625,0.1239794921875,-0.5746533203124999,0.9349309199880892,1.14013671875,1.31494140625,-0.12939453125,29.70647058823529,170.48096876755724
-0.72990869140625,0.1132373046875,-0.6049267578124999,0.9547385858342676,1.1240234375,1.546875,-0.265625,29.61235294117647,170.48096876755724
-0.71770166015625,0.0981005859375,-0.6239697265624999,0.9560636054252872,1.10986328125,1.31396484375,-0.134765625,29.61235294117647,170.48096876755724
-0.68303369140625,0.0907763671875,-0.6395947265624999,0.9401365787386252,1.1015625,0.888671875,-0.0078125,29.56529411764706,170.2067976753657
-0.64104150390625,0.0844287109375,-0.6547314453124999,0.9201824180247904,1.0078125,0.3828125,0.11279296875,29.51823529411765,170.2067976753657
-0.63029931640625,0.0878466796875,-0.6776806640624999,0.929647970921518,0.884765625,-0.0703125,-0.1484375,29.61235294117647,170.2067976753657
-0.64738916015625,0.0981005859375,-0.6527783203124999,0.9245842228370028,0.8017578125,-0.29345703125,-0.3056640625,29.56529411764706,170.2067976753657
-0.64250634765625,0.1029833984375,-0.6620556640624999,0.9282982761211768,0.80517578125,-0.27783203125,-0.37646484375,29.61235294117647,170.2067976753657
-0.64348291015625,0.1127490234375,-0.6410595703124999,0.9152813614613342,0.8525390625,-0.3056640625,-0.314453125,29.51823529411765,170.2067976753657
-0.67766259765625,0.1161669921875,-0.6288525390624999,0.9317600990713544,0.869140625,-0.45361328125,-0.060546875,29.70647058823529,170.2067976753657
-0.69719384765625,0.1156787109375,-0.6215283203124999,0.9411473202025098,0.81884765625,-0.60693359375,0.232421875,29.61235294117647,170.2067976753657
-0.70207666015625,0.1117724609375,-0.6205517578124999,0.9436573551265116,0.72607421875,-0.71630859375,0.41357421875,29.56529411764706,170.2067976753657
-0.69914697265625,0.1259326171875,-0.6146923828124999,0.9394212255073874,0.6845703125,-0.8349609375,0.380859375,29.61235294117647,170.3754077482417
-0.69914697265625,0.1356982421875,-0.6049267578124999,0.93442864073439,0.6953125,-1.05322265625,0.31982421875,29.56529411764706,170.3754077482417
-0.71330712890625,0.1386279296875,-0.5951611328124999,0.9392771353804896,0.73095703125,-1.34375,0.30224609375,29.61235294117647,170.3754077482417
-0.72307275390625,0.1352099609375,-0.5800244140624999,0.936773324709257,0.783203125,-1.62109375,0.3046875,29.659411764705883,170.3754077482417
-0.72160791015625,0.1391162109375,-0.5756298828124999,0.9334993616132846,0.8173828125,-1.92626953125,0.32177734375,29.61235294117647,170.3754077482417
-0.74260400390625,0.1322802734375,-0.5585400390624999,0.9385764500530752,0.8125,-2.205078125,0.40234375,29.51823529411765,170.3754077482417
-0.74699853515625,0.1303271484375,-0.5541455078124999,0.9391854028753892,0.783203125,-2.22119140625,0.48486328125,29.56529411764706,170.3754077482417
-0.75139306640625,0.1264208984375,-0.5282666015624999,0.9271673991958114,0.7958984375,-1.93505859375,0.5234375,29.659411764705883,170.3754077482417
-0.73869775390625,0.1181201171875,-0.4965283203124999,0.8978680897453033,0.8408203125,-1.66064453125,0.37646484375,29.70647058823529,170.22734101684796
-0.75578759765625,0.1205615234375,-0.4970166015624999,0.9125653269401118,0.978515625,-1.384765625,0.25634765625,29.61235294117647,170.22734101684796
-0.78508447265625,0.1088427734375,-0.5165478515624999,0.9460581702460708,0.9169921875,-0.87255859375,0.16845703125,29.56529411764706,170.22734101684796
-0.77922509765625,0.0946826171875,-0.5165478515624999,0.9396692150798076,0.85107421875,-0.2099609375,0.044921875,29.61235294117647,170.22734101684796
-0.78313134765625,0.0971240234375,-0.5185009765624999,0.9442303989529508,0.86181640625,0.40771484375,0.0908203125,29.47117647058824,170.22734101684796
-0.78313134765625,0.0976123046875,-0.5302197265624999,0.9507659165874174,0.88623046875,1.05078125,0.0869140625,29.70647058823529,170.22734101684796
-0.75920556640625,0.0985888671875,-0.5590283203124999,0.9479586065366802,0.92626953125,1.4716796875,-0.099609375,29.61235294117647,170.22734101684796
-0.70744775390625,0.1137255859375,-0.5834423828124999,0.9240242677904912,1.041015625,1.6044921875,-0.20361328125,29.659411764705883,170.22734101684796
-0.79143212890625,0.1151904296875,-0.6146923828124999,1.0087023224144869,1.0517578125,1.5556640625,-0.310546875,29.61235294117647,170.22734101684796
-0.63860009765625,0.1088427734375,-0.6395947265624999,0.9103506183348798,1.064453125,1.26220703125,-0.4296875,29.659411764705883,170.20395722653328
-0.64006494140625,0.1088427734375,-0.6806103515624999,0.940616993893361,1.0068359375,0.89111328125,-0.57080078125,29.56529411764706,170.20395722653328
-0.65373681640625,0.1068896484375,-0.6879345703124999,0.955013714613102,0.9677734375,0.49169921875,-0.5498046875,29.61235294117647,170.20395722653328
-0.66594384765625,0.1254443359375,-0.6864697265624999,0.964602599590528,1.0,-0.35205078125,-0.21142578125,29.51823529411765,170.20395722653328
-0.66545556640625,0.1273974609375,-0.6830517578124999,0.962091953903124,0.94775390625,-0.8935546875,0.01123046875,29.61235294117647,170.20395722653328
-0.62639306640625,0.1420458984375,-0.6576611328124999,0.9192733415676548,0.869140625,-1.3837890625,0.2939453125,29.61235294117647,170.20395722653328
-0.60051416015625,0.1723193359375,-0.6190869140624999,0.8795338636172779,0.8251953125,-1.67236328125,0.26513671875,29.70647058823529,170.20395722653328
-0.61955712890625,0.1918505859375,-0.5878369140624999,0.8753341766649128,0.78271484375,-1.6884765625,0.20849609375,29.61235294117647,170.20395722653328
-0.69328759765625,0.2055224609375,-0.5702587890624999,0.920913818723994,0.67724609375,-1.4677734375,0.24560546875,29.659411764705883,170.19439536068663
-0.74016259765625,0.2021044921875,-0.5404736328124999,0.9385087343744628,0.6025390625,-1.08203125,-0.02685546875,29.659411764705883,170.19439536068663
-0.76506494140625,0.1913623046875,-0.5307080078124999,0.9505760810059196,0.5458984375,-0.18701171875,-0.23095703125,29.51823529411765,170.19439536068663
-0.77043603515625,0.1684130859375,-0.5194775390624999,0.9443471635858848,0.55224609375,0.61279296875,-0.40087890625,29.61235294117647,170.19439536068663
-0.76897119140625,0.1518115234375,-0.5448681640624999,0.954591403727271,0.587890625,1.07177734375,-0.466796875,29.61235294117647,170.19439536068663
-0.75041650390625,0.1376513671875,-0.5692822265624999,0.9519217833957916,0.6376953125,1.23291015625,-0.427734375,29.61235294117647,170.19439536068663
-0.72600244140625,0.1410693359375,-0.5873486328124999,0.9444355557349564,0.6416015625,1.1025390625,-0.37060546875,29.61235294117647,170.19439536068663
-0.70207666015625,0.1391162109375,-0.5883251953124999,0.9264941944347264,0.64453125,0.80126953125,-0.33740234375,29.56529411764706,170.19439536068663
-0.69182275390625,0.1361865234375,-0.5888134765624999,0.918622230391818,0.63916015625,0.326171875,-0.29638671875,29.61235294117647,170.2067976753657
-0.68547509765625,0.1352099609375,-0.5707470703124999,0.902169641095214,0.6484375,-0.0498046875,-0.26025390625,29.659411764705883,170.2067976753657
-0.69572900390625,0.1283740234375,-0.5575634765624999,0.900775092443378,0.7138671875,-0.26171875,-0.1962890625,29.70647058823529,170.2067976753657
-0.71672509765625,0.1239794921875,-0.5482861328124999,0.9108696193901288,0.81494140625,-0.333984375,-0.0634765625,29.659411764705883,170.2067976753657
-0.74260400390625,0.1122607421875,-0.5287548828124999,0.9185014463527766,0.8203125,-0.298828125,0.1220703125,29.56529411764706,170.2067976753657
-0.74455712890625,0.1049365234375,-0.5268017578124999,0.9180942675948952,0.75390625,-0.1875,0.314453125,29.70647058823529,170.2067976753657
-0.75529931640625,0.1103076171875,-0.5336376953124999,0.931350641612368,0.90478515625,-0.11865234375,0.45703125,29.56529411764706,170.2067976753657
-0.77531884765625,0.0888232421875,-0.5399853515624999,0.948995818634514,0.888671875,0.228515625,0.47119140625,29.659411764705883,170.2067976753657
-0.77092431640625,0.0893115234375,-0.5487744140624999,0.9505020817309192,0.87255859375,0.40576171875,0.41015625,29.659411764705883,170.2067976753657
-0.74992822265625,0.0834521484375,-0.5639111328124999,0.9419938247807538,0.8564453125,0.47216796875,0.32470703125,29.56529411764706,170.07785612969008
-0.74162744140625,0.0741748046875,-0.5624462890624999,0.9337338976268276,0.79541015625,0.51318359375,0.2373046875,29.56529411764706,170.07785612969008
-0.72844384765625,0.0722216796875,-0.5614697265624999,0.9225479196504072,0.7275390625,0.62158203125,0.166015625,29.659411764705883,170.07785612969008
-0.70110009765625,0.0707568359375,-0.5653759765624999,0.9034367004054518,0.705078125,0.73046875,0.0771484375,29.659411764705883,170.07785612969008
-0.71379541015625,0.0639208984375,-0.5575634765624999,0.9080015414158986,0.6826171875,0.8203125,0.04052734375,29.61235294117647,170.07785612969008
-0.73137353515625,0.0702685546875,-0.5619580078124999,0.9250090379285028,0.68310546875,0.84619140625,0.08642578125,29.56529411764706,170.07785612969008
-0.73186181640625,0.0800341796875,-0.5639111328124999,0.9273742254028756,0.6884765625,0.84765625,0.1572265625,29.61235294117647,170.07785612969008
-0.73283837890625,0.0907763671875,-0.5687939453124999,0.932104602854132,0.66552734375,0.87158203125,0.16015625,29.56529411764706,170.07785612969008
-0.72404931640625,0.1005419921875,-0.5775830078124999,0.93164276184336,0.6435546875,0.962890625,0.10791015625,29.51823529411765,170.07785612969008
-0.70891259765625,0.1161669921875,-0.5966259765624999,0.9338171111619123,0.65185546875,1.10595703125,0.01708984375,29.56529411764706,170.0654537229148
-0.70207666015625,0.1122607421875,-0.6054150390624999,0.9338316124953638,0.66748046875,1.27490234375,-0.037109375,29.56529411764706,170.0654537229148
-0.67961572265625,0.1186083984375,-0.6161572265624999,0.9249838974310188,0.68408203125,1.37158203125,-0.0166015625,29.51823529411765,170.0654537229148
-0.65715478515625,0.1293505859375,-0.6259228515624999,0.91671336951321,0.62646484375,1.3173828125,0.08935546875,29.70647058823529,170.0654537229148
-0.64690087890625,0.1347216796875,-0.6234814453124999,0.9084931429331012,0.86865234375,1.09130859375,0.13134765625,29.61235294117647,170.0654537229148
-0.64983056640625,0.1464404296875,-0.6361767578124999,0.921110976844675,0.876953125,0.68701171875,0.45751953125,29.51823529411765,170.0654537229148
-0.64445947265625,0.1566943359375,-0.6430126953124999,0.9237675319821064,1.0947265625,0.34228515625,0.5087890625,29.61235294117647,170.0654537229148
-0.64934228515625,0.1606005859375,-0.6405712890624999,0.926158478807273,1.14208984375,-0.2861328125,0.72216796875,29.61235294117647,170.0654537229148
-0.65080712890625,0.1684130859375,-0.6371533203124999,0.9262166270022534,1.140625,-0.66357421875,0.72802734375,29.61235294117647,170.0654537229148
-0.54338525390625,0.1835498046875,-0.6229931640624999,0.8468049051772103,1.14208984375,-0.8251953125,0.6416015625,29.659411764705883,169.9379335589231
-0.70451806640625,0.1772021484375,-0.6161572265624999,0.952573375204692,1.10107421875,-0.86328125,0.41943359375,29.51823529411765,169.9379335589231
-0.74113916015625,0.1752490234375,-0.6049267578124999,0.9725923386755893,1.07861328125,-0.78515625,0.080078125,29.51823529411765,169.9379335589231
-0.70988916015625,0.1786669921875,-0.5873486328124999,0.938532327771072,1.1103515625,-0.50048828125,-0.07373046875,29.51823529411765,169.9379335589231
-0.71135400390625,0.1435107421875,-0.6024853515624999,0.9431905697387192,1.0390625,-0.39013671875,-0.33154296875,29.659411764705883,169.9379335589231
-0.69768212890625,0.1347216796875,-0.5897900390624999,0.9234514465581414,0.96484375,-0.1875,-0.515625,30.31823529411765,169.9379335589231
-0.71916650390625,0.1293505859375,-0.6019970703124999,0.9467483863666976,0.8056640625,0.06103515625,-0.88671875,29.56529411764706,169.9379335589231
-0.73527978515625,0.1430224609375,-0.5932080078124999,0.9555038081163858,0.7373046875,0.16015625,-0.70703125,29.61235294117647,170.26842844320322
-0.72746728515625,0.1435107421875,-0.5917431640624999,0.9486643011679688,0.68310546875,0.17919921875,-0.39794921875,29.70647058823529,170.26842844320322
-0.69426416015625,0.1420458984375,-0.5902783203124999,0.9222842602860172,0.6025390625,0.1630859375,-0.14599609375,29.61235294117647,170.26842844320322
-0.64690087890625,0.1405810546875,-0.5761181640624999,0.8775852773545567,0.54248046875,0.076171875,-0.1982421875,29.56529411764706,170.26842844320322
-0.64934228515625,0.1234912109375,-0.5917431640624999,0.8871614591975068,0.4921875,0.0966796875,-0.31982421875,29.56529411764706,170.26842844320322
-0.68596337890625,0.1078662109375,-0.5805126953124999,0.9050833475882076,0.40380859375,0.064453125,-0.31884765625,29.659411764705883,170.26842844320322
-0.72453759765625,0.0937060546875,-0.5702587890624999,0.9267851108027232,0.38720703125,0.2001953125,-0.1923828125,29.61235294117647,170.26842844320322
-0.73967431640625,0.0868701171875,-0.5526806640624999,0.9274267777241442,0.4375,0.58837890625,-0.0078125,29.659411764705883,170.26842844320322
-0.73674462890625,0.0878466796875,-0.5648876953124999,0.9325276380192676,0.4873046875,1.06884765625,0.076171875,29.61235294117647,170.26842844320322
-0.71867822265625,0.0873583984375,-0.5839306640624999,0.9301101536540624,0.5576171875,1.5419921875,0.04541015625,29.61235294117647,170.21635911743803
-0.71477197265625,0.0966357421875,-0.6015087890624999,0.9391753099834296,0.5908203125,1.77294921875,0.01025390625,29.51823529411765,170.21635911743803
-0.71477197265625,0.0810107421875,-0.6195751953124999,0.949386715670279,0.611328125,1.8203125,0.03271484375,29.61235294117647,170.21635911743803
-0.69768212890625,0.0849169921875,-0.6371533203124999,0.9486493567923674,0.68701171875,1.74560546875,0.11328125,29.56529411764706,170.21635911743803
-0.68449853515625,0.0937060546875,-0.6405712890624999,0.9421521351073516,0.62744140625,1.2724609375,0.24853515625,29.61235294117647,170.21635911743803
-0.67180322265625,0.0937060546875,-0.6532666015624999,0.9417311969842764,0.814453125,0.791015625,0.373046875,29.61235294117647,170.21635911743803
-0.54533837890625,0.1064013671875,-0.6493603515624999,0.8546251018012748,0.841796875,0.494140625,0.46240234375,29.61235294117647,170.21635911743803
-0.66447900390625,0.1064013671875,-0.6430126953124999,0.930762549689585,0.86767578125,-0.091796875,0.37548828125,29.56529411764706,170.21635911743803
-0.67180322265625,0.1137255859375,-0.6298291015624999,0.92786732674622,0.86767578125,-0.25537109375,0.54833984375,29.56529411764706,170.21635911743803
-0.68010400390625,0.1195849609375,-0.6107861328124999,0.9219011438585945,0.9580078125,-0.39990234375,0.5703125,29.61235294117647,170.27799072910037
-0.68693994140625,0.1171435546875,-0.6117626953124999,0.9272878144783636,1.08154296875,-0.26318359375,0.60888671875,29.61235294117647,170.27799072910037
-0.68205712890625,0.1166552734375,-0.6122509765624999,0.9239381138444012,1.181640625,-0.08984375,0.673828125,29.56529411764706,170.27799072910037
-0.69768212890625,0.1068896484375,-0.6190869140624999,0.9388580068901148,1.1650390625,-0.05908203125,0.69677734375,29.70647058823529,170.27799072910037
-0.71428369140625,0.1068896484375,-0.6215283203124999,0.9528504823436408,1.13134765625,-0.00537109375,0.69873046875,29.61235294117647,170.27799072910037
-0.70451806640625,0.1200732421875,-0.6142041015624999,0.9423428079836006,1.18994140625,-0.029296875,0.62744140625,29.61235294117647,170.27799072910037
-0.69279931640625,0.1239794921875,-0.6312939453124999,0.9454490217268507,1.1669921875,-0.00537109375,0.39892578125,29.56529411764706,170.27799072910037
-0.67375634765625,0.1249560546875,-0.6044384765624999,0.913732730922643,1.04833984375,-0.431640625,0.12744140625,29.56529411764706,170.27799072910037
-0.68791650390625,0.0170458984375,-0.5951611328124999,0.9098002269788668,0.99169921875,-0.66357421875,0.03564453125,29.56529411764706,170.23690274019688
-0.71574853515625,0.1410693359375,-0.6010205078124999,0.9452101215768696,0.986328125,-0.55810546875,0.06494140625,29.659411764705883,170.23690274019688
-0.70647119140625,0.1381396484375,-0.5853955078124999,0.9278318852704176,0.9443359375,-0.27294921875,-0.01708984375,29.61235294117647,170.23690274019688
-0.71086572265625,0.1454638671875,-0.5722119140624999,0.924075909706451,0.93603515625,-0.0693359375,-0.01513671875,29.56529411764706,170.23690274019688
-0.72746728515625,0.1513232421875,-0.6019970703124999,0.9562990365275784,0.94189453125,0.3095703125,0.1591796875,29.61235294117647,170.23690274019688
-0.71037744140625,0.1454638671875,-0.6034619140624999,0.9433780406814698,0.8984375,0.54833984375,0.2158203125,29.659411764705883,170.23690274019688
-0.68938134765625,0.1596240234375,-0.6171337890624999,0.9389252286297144,0.88427734375,0.5947265625,0.23876953125,29.56529411764706,170.23690274019688
-0.68059228515625,0.1674365234375,-0.6293408203124999,0.941971717254108,0.8916015625,0.48876953125,0.22265625,29.61235294117647,170.23690274019688
-0.67473291015625,0.1669482421875,-0.6229931640624999,0.9334113230971772,0.89111328125,0.26513671875,0.17919921875,29.70647058823529,170.3123559132503
-0.66692041015625,0.1606005859375,-0.6229931640624999,0.9266584398552976,0.99658203125,0.0712890625,0.14208984375,29.659411764705883,170.3123559132503
-0.65813134765625,0.1566943359375,-0.6181103515624999,0.9163789567593984,0.8134765625,-0.15869140625,0.0712890625,29.659411764705883,170.3123559132503
-0.67717431640625,0.1630419921875,-0.5888134765624999,0.9120575947813594,0.79443359375,-0.36767578125,0.0498046875,29.61235294117647,170.3123559132503
-0.70744775390625,0.0155810546875,-0.5956494140624999,0.9249450352562428,0.771484375,-0.09423828125,0.2158203125,29.659411764705883,170.3123559132503
-0.70256494140625,0.1352099609375,-0.5932080078124999,0.9293949488579992,0.7236328125,0.10498046875,0.2216796875,29.56529411764706,170.3123559132503
-0.70451806640625,0.1454638671875,-0.5936962890624999,0.93272757340851,0.72412109375,0.22900390625,0.17041015625,29.56529411764706,170.3123559132503
-0.70598291015625,0.1479052734375,-0.6034619140624999,0.9404542099790322,0.7373046875,0.48681640625,0.15478515625,29.51823529411765,170.3123559132503
-0.68791650390625,0.1527880859375,-0.6044384765624999,0.9283960294509226,0.744140625,0.70361328125,0.11279296875,29.61235294117647,170.3123559132503
-0.67668603515625,0.1493701171875,-0.6146923828124999,0.9263164403009384,0.77734375,0.73095703125,0.095703125,29.61235294117647,170.24930485773146
-0.69377587890625,0.1444873046875,-0.6303173828124999,0.9484205577925848,0.77978515625,0.669921875,0.162109375,29.51823529411765,170.24930485773146
-0.72063134765625,0.0155810546875,-0.6464306640624999,0.9682070604629583,0.775390625,0.5361328125,0.15966796875,29.61235294117647,170.24930485773146
-0.67180322265625,0.1591357421875,-0.6371533203124999,0.939472249722222,0.8564453125,0.306640625,0.0,29.51823529411765,170.24930485773146
-0.64250634765625,0.1371630859375,-0.6415478515624999,0.9182656286537852,0.8935546875,0.06201171875,0.27734375,29.61235294117647,170.24930485773146
-0.63957666015625,0.1298388671875,-0.6405712890624999,0.9144659709471696,0.859375,-0.2587890625,0.32470703125,29.56529411764706,170.24930485773146
-0.61760400390625,0.1293505859375,-0.6234814453124999,0.8870712442483805,0.85791015625,-0.63818359375,0.14599609375,29.61235294117647,170.24930485773146
-0.54777978515625,0.1264208984375,-0.6185986328124999,0.8358882730993815,0.88720703125,-0.7041015625,-0.1220703125,29.56529411764706,170.24930485773146
-0.71281884765625,0.1503466796875,-0.6132275390624999,0.9522409612759208,0.9951171875,-0.634765625,-0.18408203125,29.61235294117647,170.24930485773146
-0.71867822265625,0.1503466796875,-0.6190869140624999,0.9604015404906592,1.0546875,-0.5390625,-0.00244140625,29.47117647058824,170.1299244396326
-0.69768212890625,0.1532763671875,-0.6264111328124999,0.9500762627519932,1.00830078125,-0.53759765625,-0.107421875,29.659411764705883,170.1299244396326
-0.67717431640625,0.1493701171875,-0.6244580078124999,0.933179666639836,0.93994140625,-0.58935546875,-0.10205078125,29.56529411764706,170.1299244396326
-0.67961572265625,0.0150927734375,-0.6229931640624999,0.9220768974224534,0.91552734375,-0.6181640625,-0.0732421875,29.56529411764706,170.1299244396326
-0.68938134765625,0.1352099609375,-0.6063916015624999,0.928029714221803,0.92919921875,-0.83984375,-0.0458984375,29.70647058823529,170.1299244396326
-0.71281884765625,0.1332568359375,-0.6010205078124999,0.941856541469694,0.9609375,-0.87939453125,0.03515625,29.56529411764706,170.1299244396326
-0.71184228515625,0.1356982421875,-0.5922314453124999,0.9358800867024484,0.912109375,-1.02783203125,-0.03076171875,29.659411764705883,170.1299244396326
-0.72160791015625,0.1513232421875,-0.5643994140624999,0.9285275430596018,0.9658203125,-0.80712890625,-0.05810546875,29.61235294117647,170.1299244396326
-0.72453759765625,0.1459521484375,-0.5663525390624999,0.9311347692754002,1.01904296875,-0.1943359375,-0.1689453125,29.61235294117647,170.214939050395
-0.72014306640625,0.1356982421875,-0.5687939453124999,0.9276565103797488,0.98291015625,0.30419921875,-0.27099609375,29.659411764705883,170.214939050395
-0.73186181640625,0.1288623046875,-0.5863720703124999,0.9466041499620615,1.0048828125,0.6171875,-0.31640625,29.61235294117647,170.214939050395
-0.71281884765625,0.1239794921875,-0.6039501953124999,0.942463507237846,0.99462890625,0.6943359375,-0.3349609375,29.61235294117647,170.214939050395
-0.69328759765625,0.1264208984375,-0.6151806640624999,0.935455603469292,0.9638671875,0.58642578125,-0.32275390625,29.659411764705883,170.214939050395
-0.66985009765625,0.1264208984375,-0.6322705078124999,0.9297566304906404,0.947265625,0.32080078125,-0.3603515625,29.659411764705883,170.214939050395
-0.67424462890625,0.1117724609375,-0.6195751953124999,0.9224816124343478,0.939453125,0.0078125,-0.3583984375,29.70647058823529,170.214939050395
-0.68791650390625,0.1137255859375,-0.6308056640624999,0.9402544395304692,0.89501953125,-0.24560546875,-0.29443359375,29.659411764705883,170.214939050395
-0.68938134765625,0.1073779296875,-0.6176220703124999,0.9317905794852296,0.87353515625,-0.4521484375,-0.15771484375,29.56529411764706,170.50293242021957
-0.70598291015625,0.1112841796875,-0.6176220703124999,0.9445914777397192,0.90625,-0.53076171875,-0.0947265625,29.659411764705883,170.50293242021957
-0.70793603515625,0.1078662109375,-0.6098095703124999,0.940572305237338,0.88330078125,-0.5517578125,-0.07373046875,29.51823529411765,170.50293242021957
-0.68742822265625,0.1186083984375,-0.5985791015624999,0.9191966352808354,0.9287109375,-0.59228515625,-0.033203125,29.659411764705883,170.50293242021957
-0.69572900390625,0.1142138671875,-0.5927197265624999,0.9210864935447872,0.88037109375,-0.57275390625,-0.005859375,29.61235294117647,170.50293242021957
-0.71916650390625,0.1230029296875,-0.5897900390624999,0.9381804044157986,0.849609375,-0.4453125,0.00732421875,29.51823529411765,170.50293242021957
-0.71184228515625,0.1205615234375,-0.5785595703124999,0.9251949504132776,0.84423828125,-0.30908203125,-0.13671875,29.56529411764706,170.50293242021957
-0.72356103515625,0.1337451171875,-0.5917431640624999,0.944239535384206,0.8759765625,-0.255859375,-0.154296875,29.51823529411765,170.50293242021957
-0.71184228515625,0.1234912109375,-0.5941845703124999,0.9354276143629352,0.81005859375,0.037109375,-0.140625,29.56529411764706,170.50293242021957
-0.67815087890625,0.1308154296875,-0.5873486328124999,0.9066309655379952,0.8056640625,0.0361328125,-0.18505859375,29.659411764705883,170.22592088828617
-0.70354150390625,0.1332568359375,-0.5888134765624999,0.927054120439772,0.84814453125,-0.01123046875,-0.24951171875,29.61235294117647,170.22592088828617
-0.74455712890625,0.1332568359375,-0.6098095703124999,0.9715916912849284,0.83935546875,-0.01318359375,0.1201171875,29.56529411764706,170.22592088828617
-0.68205712890625,0.1127490234375,-0.5785595703124999,0.9014684940574084,0.77734375,0.115234375,-0.0302734375,29.56529411764706,170.22592088828617
-0.68742822265625,0.1239794921875,-0.5805126953124999,0.9082529742348134,0.8369140625,-0.3310546875,-0.04248046875,29.61235294117647,170.22592088828617
-0.73235009765625,0.1186083984375,-0.5951611328124999,0.9511158666154644,0.82763671875,-0.36181640625,0.10400390625,29.61235294117647,170.22592088828617
-0.72697900390625,0.1176318359375,-0.5844189453124999,0.9401495756456656,0.85546875,-0.1513671875,0.12109375,29.56529411764706,170.22592088828617
-0.71184228515625,0.1161669921875,-0.5902783203124999,0.9320100345174986,0.9990234375,0.01904296875,0.07763671875,29.659411764705883,170.22592088828617
-0.70451806640625,0.1220263671875,-0.5770947265624999,0.918844091023078,0.89306640625,0.11181640625,0.07861328125,29.659411764705883,170.26700894414412
-0.69524072265625,0.1230029296875,-0.5819775390624999,0.9149793654091531,0.884765625,0.15380859375,0.02734375,29.659411764705883,170.26700894414412
-0.70500634765625,0.1308154296875,-0.5761181640624999,0.9198145279580424,0.90771484375,0.14697265625,-0.04150390625,29.56529411764706,170.26700894414412
-0.70012353515625,0.1239794921875,-0.5863720703124999,0.921616017550326,0.90869140625,0.0830078125,-0.04833984375,29.61235294117647,170.26700894414412
-0.69768212890625,0.1190966796875,-0.5951611328124999,0.9247492341810304,0.8935546875,0.0517578125,-0.0390625,29.61235294117647,170.26700894414412
-0.69035791015625,0.1186083984375,-0.5941845703124999,0.918540853687338,0.8623046875,-0.02490234375,-0.0546875,29.56529411764706,170.26700894414412
-0.71428369140625,0.1161669921875,-0.5946728515624999,0.9366598967972872,0.84619140625,-0.0546875,-0.00439453125,29.56529411764706,170.26700894414412
-0.71428369140625,0.1181201171875,-0.6039501953124999,0.9428199151011474,0.84423828125,0.0390625,0.076171875,29.61235294117647,170.26700894414412
-0.70207666015625,0.1190966796875,-0.5971142578124999,0.9293229216648614,0.84130859375,0.10205078125,0.03271484375,29.659411764705883,170.26700894414412
-0.70451806640625,0.1239794921875,-0.5927197265624999,0.9289958528606016,0.869140625,0.064453125,0.025390625,29.47117647058824,170.08883803137266
-0.70500634765625,0.1264208984375,-0.5990673828124999,0.9337547445379694,0.99755859375,0.07958984375,0.07275390625,29.56529411764706,170.08883803137266
-0.70988916015625,0.1264208984375,-0.5888134765624999,0.930927587651536,0.86474609375,0.1181640625,0.05419921875,29.659411764705883,170.08883803137266
-0.69670556640625,0.1317919921875,-0.5893017578124999,0.9219784906531746,0.884765625,0.13330078125,0.0048828125,29.61235294117647,170.08883803137266
-0.70305322265625,0.1283740234375,-0.5976025390624999,0.9316074916373404,0.91162109375,0.11669921875,-0.021484375,29.56529411764706,170.08883803137266
-0.70940087890625,0.1264208984375,-0.5976025390624999,0.9361413596506948,0.9267578125,0.14453125,-0.02294921875,29.61235294117647,170.08883803137266
-0.70256494140625,0.1264208984375,-0.6054150390624999,0.9360059347984716,0.9365234375,0.17822265625,-0.0361328125,29.659411764705883,170.08883803137266
-0.69914697265625,0.1283740234375,-0.5980908203124999,0.9289773994075476,0.94189453125,0.20458984375,-0.0380859375,29.61235294117647,170.08883803137266
-0.69817041015625,0.1269091796875,-0.6107861328124999,0.9362732301752248,0.9375,0.19189453125,-0.06298828125,29.61235294117647,170.0640336415866
-0.68889306640625,0.1205615234375,-0.5956494140624999,0.9186440890514544,0.92041015625,0.22998046875,-0.15478515625,29.61235294117647,170.0640336415866
-0.68010400390625,0.1278857421875,-0.5995556640624999,0.9156217633354864,0.9619140625,0.2421875,-0.19384765625,29.659411764705883,170.0640336415866
-0.69377587890625,0.1283740234375,-0.5980908203124999,0.9249418843299024,1.00537109375,0.189453125,-0.16650390625,29.56529411764706,170.0640336415866
-0.68449853515625,0.1195849609375,-0.5995556640624999,0.9177721949497604,0.9521484375,0.0146484375,-0.27099609375,29.659411764705883,170.0640336415866
-0.69914697265625,0.1200732421875,-0.6068798828124999,0.933556246311025,0.9736328125,-0.14892578125,-0.26904296875,29.56529411764706,170.0640336415866
-0.70647119140625,0.1132373046875,-0.5946728515624999,0.9303547881562878,0.94580078125,-0.1416015625,-0.150390625,29.61235294117647,170.0640336415866
-0.70012353515625,0.1049365234375,-0.5893017578124999,0.9211195363207406,0.87744140625,-0.05859375,-0.0751953125,29.659411764705883,170.0640336415866
-0.71379541015625,0.1078662109375,-0.5956494140624999,0.9359151839216746,0.84033203125,0.01513671875,0.0390625,29.56529411764706,170.11752265375645
-0.73674462890625,0.1068896484375,-0.5932080078124999,0.9519000922881432,0.837890625,0.0078125,0.12109375,29.61235294117647,170.11752265375645
-0.70500634765625,0.1088427734375,-0.5966259765624999,0.9299694916900924,0.82861328125,0.314453125,0.08935546875,29.659411764705883,170.11752265375645
-0.65324853515625,0.1054248046875,-0.5927197265624999,0.8883494314646172,0.8125,0.37451171875,-0.09375,29.70647058823529,170.11752265375645
-0.65276025390625,0.1103076171875,-0.5995556640624999,0.8931577205615822,0.802734375,0.22412109375,-0.2177734375,29.51823529411765,170.11752265375645
-0.70549462890625,0.0976123046875,-0.6127392578124999,0.9395212778359976,0.71923828125,0.18310546875,-0.3583984375,29.56529411764706,170.11752265375645
-0.73869775390625,0.1049365234375,-0.6137158203124999,0.966091690099409,0.78515625,0.0263671875,-0.28076171875,29.56529411764706,170.11752265375645
-0.76018212890625,0.1059130859375,-0.6127392578124999,0.982111933002474,0.88671875,-0.00830078125,-0.09375,29.659411764705883,170.11752265375645
-0.72404931640625,0.0981005859375,-0.6137158203124999,0.9542107972830132,0.90673828125,-0.2705078125,0.26025390625,29.56529411764706,170.23406367339763
-0.67180322265625,0.1127490234375,-0.5980908203124999,0.9065012639811992,0.904296875,-0.38720703125,0.30126953125,29.61235294117647,170.23406367339763
-0.66057275390625,0.1166552734375,-0.5917431640624999,0.8944969470259604,0.93408203125,-0.49609375,0.2255859375,29.659411764705883,170.23406367339763
-0.69279931640625,0.1190966796875,-0.6005322265624999,0.924550629801131,0.92578125,-0.533203125,0.1552734375,29.61235294117647,170.23406367339763
-0.72649072265625,0.1205615234375,-0.5829541015624999,0.9392333765192296,0.88232421875,-0.45263671875,0.1611328125,29.659411764705883,170.23406367339763
-0.73576806640625,0.1205615234375,-0.5775830078124999,0.9431287607694387,0.84765625,-0.369140625,0.21826171875,29.61235294117647,170.23406367339763
-0.73772119140625,0.1249560546875,-0.5604931640624999,0.9348792215113751,0.83251953125,0.08447265625,0.2314453125,29.56529411764706,170.23406367339763
-0.72356103515625,0.1278857421875,-0.6967236328124999,1.0125804438022092,0.8134765625,0.47705078125,0.177734375,29.61235294117647,170.23406367339763
-0.72209619140625,0.1264208984375,-0.4506298828124999,0.860507085670283,0.83935546875,0.78564453125,0.0966796875,29.61235294117647,170.23406367339763
-0.71281884765625,0.1215380859375,-0.5863720703124999,0.930974983954941,0.8671875,0.87109375,0.0478515625,29.51823529411765,170.0874173892179
-0.70940087890625,0.1220263671875,-0.6098095703124999,0.9434022224516192,0.89599609375,0.771484375,0.041015625,29.56529411764706,170.0874173892179
-0.70207666015625,0.1156787109375,-0.6156689453124999,0.9409258478342076,0.90380859375,0.5078125,0.0810546875,29.61235294117647,170.0874173892179
-0.69865869140625,0.1117724609375,-0.6166455078124999,0.9385460736729202,0.9052734375,0.1640625,0.12353515625,29.56529411764706,170.0874173892179
-0.68108056640625,0.1107958984375,-0.6127392578124999,0.9228195203350678,0.8984375,-0.07470703125,0.126953125,29.56529411764706,170.0874173892179
-0.68205712890625,0.1127490234375,-0.6059033203124999,0.9192568209938172,0.9970703125,-0.22705078125,0.09765625,29.70647058823529,170.0874173892179
-0.68938134765625,0.1151904296875,-0.5951611328124999,0.918004494323746,0.99658203125,-0.1689453125,0.08544921875,29.61235294117647,170.0874173892179
-0.69475244140625,0.1107958984375,-0.5971142578124999,0.9227687266230312,0.89990234375,0.046875,0.0986328125,29.56529411764706,170.0874173892179
-0.70207666015625,0.1166552734375,-0.5849072265624999,0.9212147161449216,0.87109375,0.3232421875,0.17236328125,29.56529411764706,170.0874173892179
-0.69475244140625,0.1142138671875,-0.5980908203124999,0.9238172934297928,0.88623046875,0.380859375,0.21875,29.61235294117647,170.1299244396326
-0.67326806640625,0.1200732421875,-0.6059033203124999,0.913688298216378,0.89111328125,0.53662109375,0.2568359375,29.61235294117647,170.1299244396326
-0.78850244140625,0.1283740234375,-0.6063916015624999,1.0029590043679164,0.83935546875,0.49462890625,0.2451171875,29.659411764705883,170.1299244396326
-0.68254541015625,0.1249560546875,-0.6161572265624999,0.9279719717607968,0.853515625,0.16845703125,0.185546875,29.61235294117647,170.1299244396326
-0.68010400390625,0.1122607421875,-0.6098095703124999,0.920332354321262,0.99462890625,-0.0478515625,0.18017578125,29.659411764705883,170.1299244396326
-0.69621728515625,0.1137255859375,-0.6137158203124999,0.9350396382769084,0.9970703125,-0.271484375,0.31640625,29.659411764705883,170.1299244396326
-0.68938134765625,0.1088427734375,-0.6102978515624999,0.9271228933899311,0.8623046875,-0.3603515625,0.3955078125,29.659411764705883,170.1299244396326
-0.68498681640625,0.1151904296875,-0.6019970703124999,0.9191714999970318,0.84814453125,-0.34033203125,0.36376953125,29.659411764705883,170.11894260490445
-0.70061181640625,0.1249560546875,-0.6010205078124999,0.9315023261926542,0.84716796875,-0.28271484375,0.3310546875,29.659411764705883,170.11894260490445
-0.72844384765625,0.1176318359375,-0.6068798828124999,0.9553904333709768,0.82861328125,-0.18017578125,0.35107421875,29.61235294117647,170.11894260490445
-0.72258447265625,0.1230029296875,-0.5897900390624999,0.9408030245555996,0.779296875,-0.02880859375,0.333984375,29.51823529411765,170.11894260490445
-0.71428369140625,0.1205615234375,-0.5907666015624999,0.9347413814869948,0.77392578125,0.1298828125,0.29931640625,29.56529411764706,170.11894260490445
-0.70793603515625,0.1249560546875,-0.5805126953124999,0.9240034820793698,0.7744140625,0.244140625,0.26611328125,29.70647058823529,170.11894260490445
-0.71330712890625,0.1273974609375,-0.5980908203124999,0.9395476584739482,0.814453125,0.2587890625,0.29052734375,29.659411764705883,170.11894260490445
-0.71330712890625,0.1230029296875,-0.6005322265624999,0.9405188653080274,0.8134765625,0.43798828125,0.29052734375,29.00058823529412,170.11894260490445
-0.69817041015625,0.1151904296875,-0.5966259765624999,0.9255664820089878,0.8271484375,0.38525390625,0.2421875,29.659411764705883,170.11894260490445
-0.69572900390625,0.1220263671875,-0.6049267578124999,0.929981539323714,0.8251953125,0.31787109375,0.26611328125,29.659411764705883,170.18199362086352
-0.70940087890625,0.1254443359375,-0.5995556640624999,0.937258172928455,0.83740234375,0.23193359375,0.2353515625,29.56529411764706,170.18199362086352
-0.69865869140625,0.1249560546875,-0.6098095703124999,0.9357380481338112,0.841796875,0.12646484375,0.15478515625,29.61235294117647,170.18199362086352
-0.69768212890625,0.1308154296875,-0.6049267578124999,0.9326357337980492,0.83935546875,0.0537109375,0.09130859375,29.56529411764706,170.18199362086352
-0.70256494140625,0.1269091796875,-0.6063916015624999,0.9367039079814152,0.83154296875,0.05517578125,0.10791015625,29.51823529411765,170.18199362086352
-0.70695947265625,0.1210498046875,-0.6107861328124999,0.9420745465351104,0.818359375,0.0947265625,0.11962890625,29.659411764705883,170.18199362086352
-0.69182275390625,0.1234912109375,-0.6068798828124999,0.9285321718517628,0.8046875,0.12255859375,0.13720703125,29.61235294117647,170.18199362086352
-0.69914697265625,0.1142138671875,-0.6078564453124999,0.9334563487063932,0.8115234375,0.107421875,0.12646484375,29.56529411764706,170.18199362086352
-0.69865869140625,0.1225146484375,-0.6024853515624999,0.9306569749411688,0.828125,0.06103515625,0.109375,29.659411764705883,170.18199362086352
-0.70207666015625,0.1283740234375,-0.6063916015624999,0.9365373997204918,0.84521484375,0.0224609375,0.09228515625,29.659411764705883,170.24788460612714
-0.70061181640625,0.1259326171875,-0.6161572265624999,0.9414699513021912,0.86181640625,-0.02587890625,0.08154296875,29.61235294117647,170.24788460612714
-0.69914697265625,0.1278857421875,-0.6068798828124999,0.934593197381492,0.8740234375,-0.0556640625,0.1025390625,29.56529411764706,170.24788460612714
-0.69084619140625,0.1308154296875,-0.6171337890624999,0.935540084885455,0.8583984375,-0.001953125,0.09130859375,29.56529411764706,170.24788460612714
-0.69670556640625,0.1337451171875,-0.6073681640624999,0.9339071095936704,0.87255859375,-0.1923828125,0.05712890625,29.51823529411765,170.24788460612714
-0.70402978515625,0.1288623046875,-0.6122509765624999,0.941867660692448,0.99755859375,-0.22509765625,0.0576171875,29.61235294117647,170.24788460612714
-0.68938134765625,0.1283740234375,-0.6054150390624999,0.92641993820995,0.86767578125,-0.29833984375,0.11279296875,29.56529411764706,170.24788460612714
-0.69328759765625,0.1332568359375,-0.6083447265624999,0.9319272416473569,0.89794921875,-0.38232421875,-0.08154296875,29.70647058823529,170.24788460612714
-0.70500634765625,0.1293505859375,-0.6112744140624999,0.9420307498194698,0.876953125,-0.38671875,-0.04150390625,29.51823529411765,170.24788460612714
-0.70744775390625,0.1273974609375,-0.6166455078124999,0.9470818971269886,0.84521484375,-0.38818359375,0.009765625,29.51823529411765,170.07501540620711
-0.69865869140625,0.1215380859375,-0.6005322265624999,0.9292655317781664,0.85693359375,-0.38818359375,0.02197265625,29.56529411764706,170.07501540620711
-0.69084619140625,0.1283740234375,-0.5971142578124999,0.9221137603121566,0.99560546875,-0.3955078125,0.01171875,29.659411764705883,170.07501540620711
-0.69377587890625,0.1239794921875,-0.5936962890624999,0.9215048389898955,0.90087890625,-0.3681640625,-0.02978515625,29.70647058823529,170.07501540620711
-0.70354150390625,0.1322802734375,-0.5912548828124999,0.9284670456774384,0.9013671875,-0.296875,-0.06494140625,29.56529411764706,170.07501540620711
-0.71428369140625,0.1308154296875,-0.5893017578124999,0.9351953968097612,0.91357421875,-0.22607421875,-0.1533203125,29.61235294117647,170.07501540620711
-0.70988916015625,0.0136279296875,-0.5829541015624999,0.9186750375967854,0.966796875,-0.12646484375,-0.30810546875,29.659411764705883,170.07501540620711
-0.70940087890625,0.1278857421875,-0.5912548828124999,0.9323018322932928,0.931640625,-0.05029296875,-0.28125,29.659411764705883,170.07501540620711
-0.70744775390625,0.1142138671875,-0.5897900390624999,0.928105286129902,0.9013671875,0.00341796875,-0.0625,29.56529411764706,170.07501540620711
-0.72551416015625,0.1161669921875,-0.6015087890624999,0.9495674752120328,0.884765625,0.01953125,0.11181640625,29.51823529411765,170.01196501406423
-0.73381494140625,0.1166552734375,-0.6039501953124999,0.9575221456811548,0.88671875,0.0068359375,0.201171875,29.659411764705883,170.01196501406423
-0.69963525390625,0.1254443359375,-0.6005322265624999,0.9305185248383704,0.9375,-0.08642578125,0.23876953125,29.61235294117647,170.01196501406423
-0.67033837890625,0.1352099609375,-0.5932080078124999,0.9052795238511996,0.94189453125,-0.16015625,0.16943359375,29.61235294117647,170.01196501406423
-0.65764306640625,0.1210498046875,-0.6029736328124999,0.9004024988160577,0.8740234375,-0.3310546875,0.001953125,29.61235294117647,170.01196501406423
-0.65715478515625,0.1254443359375,-0.5971142578124999,0.8967352619115243,0.865234375,-0.39453125,-0.16357421875,29.61235294117647,170.01196501406423
-0.69426416015625,0.1151904296875,-0.6000439453124999,0.9248374427299344,0.85498046875,-0.38623046875,-0.2509765625,29.61235294117647,170.01196501406423
-0.75188134765625,0.1181201171875,-0.5927197265624999,0.9646733111753908,0.91259765625,-0.32177734375,-0.2705078125,29.61235294117647,170.01196501406423
-0.73967431640625,0.1269091796875,-0.6049267578124999,0.9639296740725178,0.97119140625,-0.2919921875,-0.01171875,29.70647058823529,170.48096876755724
-0.69914697265625,0.1234912109375,-0.5961376953124999,0.9270580997573498,0.962890625,-0.333984375,0.12451171875,29.61235294117647,170.48096876755724
-0.67619775390625,0.1254443359375,-0.5912548828124999,0.9069520495904296,0.9599609375,-0.41162109375,0.09130859375,29.659411764705883,170.48096876755724
-0.68791650390625,0.1264208984375,-0.5927197265624999,0.9168031599883736,0.94287109375,-0.58984375,0.04541015625,29.56529411764706,170.48096876755724
-0.71623681640625,0.1244677734375,-0.5766064453124999,0.9278805939215272,0.8984375,-0.7236328125,0.07080078125,29.61235294117647,170.48096876755724
-0.73332666015625,0.1220263671875,-0.5624462890624999,0.9322039759972472,0.89599609375,-0.57080078125,0.0791015625,29.61235294117647,170.48096876755724
-0.73723291015625,0.1249560546875,-0.5565869140624999,0.9321563025191298,0.90234375,-0.158203125,0.06689453125,29.659411764705883,170.40693395804274
-0.72893212890625,0.1230029296875,-0.5668408203124999,0.9315472531418112,0.916015625,0.2265625,0.05615234375,29.659411764705883,170.40693395804274
-0.72795556640625,0.1166552734375,-0.5663525390624999,0.9296681977916436,0.89501953125,0.5244140625,0.01513671875,29.61235294117647,170.40693395804274
-0.72014306640625,0.1098193359375,-0.5844189453124999,0.9339228160179646,0.90087890625,0.6533203125,0.00927734375,29.51823529411765,170.40693395804274
-0.71330712890625,0.1142138671875,-0.6010205078124999,0.9397220431689344,0.86767578125,0.59033203125,-0.01318359375,29.659411764705883,170.40693395804274
-0.71135400390625,0.1127490234375,-0.6029736328124999,0.93931574192423,0.86572265625,0.41943359375,-0.0166015625,29.51823529411765,170.40693395804274
-0.69572900390625,0.1156787109375,-0.5990673828124999,0.9253659493359172,0.86669921875,0.23876953125,-0.00537109375,29.659411764705883,170.40693395804274
-0.68938134765625,0.1166552734375,-0.5995556640624999,0.9210440215465006,0.84814453125,0.01025390625,-0.01904296875,29.56529411764706,170.40693395804274
-0.69328759765625,0.1112841796875,-0.6019970703124999,0.9248958505569842,0.8359375,-0.16015625,-0.01123046875,29.61235294117647,170.40693395804274
-0.70354150390625,0.1195849609375,-0.5951611328124999,0.9292405418468082,0.828125,-0.24609375,0.015625,29.56529411764706,170.36973342027906
-0.70207666015625,0.1181201171875,-0.5912548828124999,0.9254438585188008,0.81787109375,-0.208984375,0.03125,29.56529411764706,170.36973342027906
-0.70842431640625,0.1195849609375,-0.5810009765624999,0.9239738685291184,0.83642578125,-0.24853515625,0.0234375,29.61235294117647,170.36973342027906
-0.71135400390625,0.1190966796875,-0.5814892578124999,0.926465485022174,0.8369140625,-0.00830078125,0.0205078125,29.659411764705883,170.36973342027906
-0.70988916015625,0.1190966796875,-0.5893017578124999,0.9302704986082464,0.859375,0.0,0.01953125,29.659411764705883,170.36973342027906
-0.70354150390625,0.1225146484375,-0.5853955078124999,0.92340044800048,0.8896484375,0.1806640625,0.076171875,29.659411764705883,170.36973342027906
-0.70061181640625,0.1181201171875,-0.5883251953124999,0.922461822956346,0.84716796875,0.16650390625,0.07421875,29.70647058823529,170.36973342027906
-0.71867822265625,0.1230029296875,-0.5907666015624999,0.9384206338064824,0.84521484375,0.1064453125,0.03173828125,29.659411764705883,170.36973342027906
-0.72111962890625,0.1205615234375,-0.6078564453124999,0.9508091597347004,0.89501953125,0.060546875,0.0185546875,29.659411764705883,170.36973342027906
-0.70793603515625,0.1195849609375,-0.5971142578124999,0.9338198057645528,0.91015625,-0.0556640625,-0.009765625,29.61235294117647,170.16959245589143
-0.70354150390625,0.1171435546875,-0.5927197265624999,0.9273672057927302,0.88134765625,-0.21142578125,0.00341796875,29.659411764705883,170.16959245589143
-0.70842431640625,0.1117724609375,-0.5927197265624999,0.930416449422522,0.8935546875,-0.2705078125,0.06787109375,29.70647058823529,170.16959245589143
-0.69817041015625,0.1137255859375,-0.5927197265624999,0.9228716621345022,0.890625,-0.3193359375,0.10009765625,29.659411764705883,170.16959245589143
-0.70988916015625,0.1195849609375,-0.5746533203124999,0.9211241073470774,0.99951171875,-0.302734375,0.00244140625,29.56529411764706,170.16959245589143
-0.72160791015625,0.1239794921875,-0.5795361328124999,0.933783175966674,0.84716796875,-0.22802734375,0.134765625,29.424117647058825,170.16959245589143
-0.72600244140625,0.1215380859375,-0.5643994140624999,0.9275762771089392,0.8486328125,-0.0966796875,0.12890625,29.51823529411765,170.16959245589143
-0.72844384765625,0.1151904296875,-0.5795361328124999,0.9379559709896303,0.830078125,0.1201171875,0.1220703125,29.56529411764706,170.16959245589143
-0.72502587890625,0.1195849609375,-0.6972119140624999,1.0129499203202983,0.84619140625,0.388671875,0.1044921875,29.659411764705883,170.13806657779804
-0.71965478515625,0.1181201171875,-0.5780712890624999,0.9306029159212096,0.845703125,0.5576171875,0.08349609375,29.51823529411765,170.13806657779804
-0.72160791015625,0.1171435546875,-0.5829541015624999,0.9350273113302282,0.85302734375,0.50390625,0.109375,29.659411764705883,170.13806657779804
-0.70500634765625,0.1205615234375,-0.5941845703124999,0.9298517810740732,0.8623046875,0.6025390625,0.1142578125,29.659411764705883,170.13806657779804
-0.68986962890625,0.1225146484375,-0.5961376953124999,0.9199511376923832,0.84765625,0.50390625,0.09521484375,29.61235294117647,170.13806657779804
-0.69133447265625,0.1215380859375,-0.5985791015624999,0.9225030082572176,0.83642578125,0.4912109375,0.064453125,29.61235294117647,170.13806657779804
-0.69035791015625,0.1249560546875,-0.6034619140624999,0.925404960783303,0.82470703125,0.2255859375,0.0712890625,29.659411764705883,170.13806657779804
-0.69475244140625,0.1239794921875,-0.6068798828124999,0.9307819623765432,0.82666015625,0.109375,0.10546875,29.659411764705883,170.13806657779804
-0.69426416015625,0.1210498046875,-0.5976025390624999,0.9240046395913236,0.82275390625,0.02001953125,0.1337890625,29.61235294117647,170.13806657779804
-0.70012353515625,0.1156787109375,-0.6010205078124999,0.9299355781208942,0.80712890625,0.00634765625,0.14501953125,29.56529411764706,170.33006144122268
-0.70793603515625,0.1215380859375,-0.5839306640624999,0.9256997119144926,0.81884765625,0.04833984375,0.17333984375,29.56529411764706,170.33006144122268
-0.71281884765625,0.1200732421875,-0.5936962890624999,0.9354162585234372,0.8251953125,0.11376953125,0.19970703125,29.51823529411765,170.33006144122268
-0.70793603515625,0.1220263671875,-0.5893017578124999,0.9291611409882746,0.82421875,0.20751953125,0.205078125,29.56529411764706,170.33006144122268
-0.71477197265625,0.1273974609375,-0.5829541015624999,0.931109322516304,0.82421875,0.29248046875,0.20654296875,29.56529411764706,170.33006144122268
-0.70988916015625,0.1293505859375,-0.5790478515624999,0.9251867963762062,0.82275390625,0.36962890625,0.18212890625,29.56529411764706,170.33006144122268
-0.70744775390625,0.1298388671875,-0.5868603515624999,0.9283024982060494,0.82421875,0.4326171875,0.16357421875,29.70647058823529,170.33006144122268
-0.70256494140625,0.1239794921875,-0.5819775390624999,0.920687931575885,0.8232421875,0.49169921875,0.1640625,29.51823529411765,170.0654537229148
-0.69817041015625,0.1147021484375,-0.5897900390624999,0.9211138879917457,0.8193359375,0.5458984375,0.17431640625,29.56529411764706,170.0654537229148
-0.69572900390625,0.1264208984375,-0.5941845703124999,0.9236213477586892,0.81494140625,0.5693359375,0.21484375,29.659411764705883,170.0654537229148
-0.70158837890625,0.1264208984375,-0.6010205078124999,0.9324345273472234,0.81298828125,0.5546875,0.22314453125,29.659411764705883,170.0654537229148
-0.70988916015625,0.1220263671875,-0.6010205078124999,0.93811444121041,0.80810546875,0.5029296875,0.20654296875,29.659411764705883,170.0654537229148
-0.70598291015625,0.1200732421875,-0.5985791015624999,0.9333415204251204,0.81884765625,0.42041015625,0.1904296875,29.61235294117647,170.0654537229148
-0.69865869140625,0.1259326171875,-0.5966259765624999,0.9273324900262816,0.82421875,0.3642578125,0.228515625,29.659411764705883,170.0654537229148
-0.68645166015625,0.1288623046875,-0.5971142578124999,0.9188943422307152,0.78662109375,0.30908203125,0.2900390625,29.51823529411765,170.2928624898383
-0.70842431640625,0.2621630859375,-0.6098095703124999,0.9708049277525592,0.71533203125,0.28173828125,0.32421875,29.04764705882353,170.2928624898383
-0.72258447265625,0.2626513671875,-0.6127392578124999,0.9831395927710302,0.697265625,0.23681640625,0.3603515625,29.56529411764706,170.2928624898383
-0.69670556640625,0.1498583984375,-0.5995556640624999,0.9313018738052294,0.72265625,0.2861328125,0.49853515625,29.61235294117647,170.2928624898383
-0.65617822265625,0.1405810546875,-0.6063916015624999,0.904457664720079,0.68798828125,0.38916015625,0.17041015625,29.659411764705883,170.2928624898383
-0.63225244140625,0.1239794921875,-0.6093212890624999,0.8867843579202447,0.6357421875,0.38818359375,-0.00146484375,29.61235294117647,170.2928624898383
-0.68596337890625,0.1293505859375,-0.6093212890624999,0.926579605100199,0.64697265625,0.619140625,-0.33154296875,29.56529411764706,170.2928624898383
-0.71916650390625,0.1112841796875,-0.6088330078124999,0.9488215113452444,0.63671875,0.62548828125,-0.30859375,29.61235294117647,170.4614826553837
-0.71233056640625,0.1190966796875,-0.6249462890624999,0.9550689604223488,0.7861328125,0.6240234375,-0.2470703125,29.659411764705883,170.4614826553837
-0.69475244140625,0.1176318359375,-0.6268994140624999,0.9431442514365856,0.7734375,0.34228515625,0.11962890625,29.56529411764706,170.4614826553837
-0.67473291015625,0.1161669921875,-0.6249462890624999,0.926993599942741,0.62646484375,0.18017578125,0.2158203125,29.659411764705883,170.4614826553837
-0.66496728515625,0.1230029296875,-0.6342236328124999,0.92711964031492,0.63232421875,-0.04833984375,0.23486328125,29.659411764705883,170.4614826553837
-0.69279931640625,0.1171435546875,-0.6249462890624999,0.9403464092720194,0.77490234375,-0.29345703125,0.29443359375,29.61235294117647,170.4614826553837
-0.70647119140625,0.1308154296875,-0.6098095703124999,0.9423809914127128,0.83251953125,-0.453125,0.357421875,29.61235294117647,170.4614826553837
-0.70500634765625,0.1254443359375,-0.6063916015624999,0.9383394940531594,0.837890625,-0.46142578125,0.34765625,29.56529411764706,170.4614826553837
-0.69621728515625,0.1347216796875,-0.5902783203124999,0.9226575391547542,0.87158203125,-0.333984375,0.2294921875,29.56529411764706,170.20784528202915
-0.69426416015625,0.1435107421875,-0.5814892578124999,0.9169121081935838,0.89794921875,-0.09521484375,0.11083984375,29.61235294117647,170.20784528202915
-0.69914697265625,0.1454638671875,-0.5912548828124999,0.9271184188015924,0.88720703125,0.18701171875,-0.01123046875,29.70647058823529,170.20784528202915
-0.70305322265625,0.1322802734375,-0.6112744140624999,0.9409773184915198,0.88623046875,0.42333984375,-0.07958984375,29.56529411764706,170.20784528202915
-0.70793603515625,0.1332568359375,-0.5976025390624999,0.9359805601030248,0.75732421875,0.57470703125,-0.08251953125,29.61235294117647,170.20784528202915
-0.72160791015625,0.1225146484375,-0.6039501953124999,0.948938171589615,0.884765625,0.62060546875,0.06103515625,29.659411764705883,170.20784528202915
-0.69963525390625,0.1230029296875,-0.6161572265624999,0.9403557502697386,0.8642578125,0.57958984375,0.083984375,29.61235294117647,170.20784528202915
-0.68010400390625,0.1225146484375,-0.6268994140624999,0.9330349246212504,0.85986328125,0.4794921875,0.013671875,29.659411764705883,170.20784528202915
-0.67912744140625,0.1220263671875,-0.6347119140624999,0.9375306553989904,0.88037109375,0.3056640625,0.0078125,29.61235294117647,170.20784528202915
-0.68010400390625,0.1234912109375,-0.6259228515624999,0.9325078827636012,0.88232421875,0.1396484375,0.0166015625,29.56529411764706,170.41365997472607
-0.68254541015625,0.1254443359375,-0.6327587890624999,0.939142270095434,0.8876953125,-0.01708984375,0.07470703125,29.56529411764706,170.41365997472607
-0.68254541015625,0.1176318359375,-0.6264111328124999,0.933861013782474,0.89990234375,-0.1142578125,0.10400390625,29.659411764705883,170.41365997472607
-0.68156884765625,0.1230029296875,-0.6190869140624999,0.9289426365339284,0.88232421875,-0.146484375,0.1181640625,29.61235294117647,170.41365997472607
-0.68205712890625,0.1322802734375,-0.6171337890624999,0.9292761222775364,0.9150390625,-0.173828125,0.09765625,29.56529411764706,170.41365997472607
-0.67473291015625,0.1347216796875,-0.6107861328124999,0.9200402877384188,0.92529296875,-0.158203125,0.130859375,29.70647058823529,170.41365997472607
-0.69084619140625,0.1454638671875,-0.6078564453124999,0.93162098245242,0.9013671875,-0.16162109375,0.12744140625,29.659411764705883,170.41365997472607
-0.71135400390625,0.1464404296875,-0.6161572265624999,0.952427974266666,0.8828125,-0.08984375,0.06201171875,29.659411764705883,170.41365997472607
