AccX,AccY,AccZ,Magnitude,GyroX,GyroY,GyroZ,Temperature,Altitude
0.21632763671875,0.0157524414062499,0.96753857421875,0.9915526604370684,0.0234375,0.19775390625,-0.16845703125,41.98882352941177,284.6495890469549
0.21095654296875,0.01477587890625,0.96412060546875,0.9870407952603616,-0.02294921875,-0.08544921875,-0.2265625,41.98882352941177,284.6495890469549
0.20851513671875,0.00647509765625,0.97242138671875,0.9945470539288292,-0.03076171875,-0.3251953125,-0.16796875,41.94176470588236,284.6495890469549
0.20949169921875,0.00891650390625,0.98999951171875,1.0119611204422987,-0.0205078125,-0.4697265625,-0.10498046875,41.94176470588236,284.58491796231755
0.21583935546875,0.00793994140625,0.98267529296875,1.0061314036694802,-0.01806640625,-0.4482421875,-0.13525390625,41.98882352941177,284.58491796231755
0.20753857421875,0.01086962890625,0.98853466796875,1.0101441473361106,-0.0068359375,-0.27734375,-0.14404296875,42.13,284.58491796231755
0.20265576171875,0.00696337890625,0.98951123046875,1.0100744139059152,0.0078125,-0.037109375,-0.07861328125,41.94176470588236,284.58491796231755
0.20705029296875,0.0035454101562499,0.98023388671875,1.001868687215729,0.0234375,0.14453125,-0.09521484375,42.13,284.58491796231755
0.20021435546875,0.00842822265625,0.98072216796875,1.0009859108989672,0.01953125,0.228515625,-0.25,41.98882352941177,284.4526419777376
0.20167919921875,0.00549853515625,0.97242138671875,0.9931304479444768,0.00341796875,0.17724609375,-0.1611328125,42.08294117647059,284.4526419777376
0.21388623046875,0.00745166015625,0.97193310546875,0.9952169654549422,-0.048828125,-0.01318359375,-0.14404296875,41.98882352941177,284.4526419777376
0.21925732421875,0.0025688476562499,0.96412060546875,0.9887410758592342,-0.04345703125,-0.3193359375,-0.06103515625,41.89470588235295,284.4526419777376
0.21974560546875,0.00647509765625,0.97242138671875,0.99696209123542,-0.0625,-0.53466796875,-0.01025390625,42.13,284.2001428377634
0.20851513671875,0.00940478515625,0.98267529296875,1.0045982996381653,-0.04638671875,-0.583984375,0.03076171875,42.27117647058824,284.2001428377634
0.20949169921875,0.00842822265625,0.98853466796875,1.010523921911198,-0.0166015625,-0.46728515625,-0.015625,41.94176470588236,284.2001428377634
0.21632763671875,0.00549853515625,0.98755810546875,1.0109890661991408,-0.00537109375,-0.26611328125,-0.09765625,41.98882352941177,284.2001428377634
0.20900341796875,0.0035454101562499,0.98560498046875,1.0075277545460477,-0.01123046875,-0.08203125,-0.13671875,41.94176470588236,284.2001428377634
0.19093701171875,0.0035454101562499,0.99048779296875,1.008729686485615,-0.0029296875,0.01220703125,-0.0888671875,41.98882352941177,284.65193844607404
0.18751904296875,0.0162407226562499,0.99683544921875,1.0144496366835862,0.02734375,-0.0185546875,0.0390625,41.94176470588236,284.65193844607404
0.28175732421875,-0.00280224609375,0.95826123046875,0.9988291286068716,0.1044921875,-0.2958984375,0.2255859375,41.14176470588235,284.65193844607404
0.23488232421875,-0.01452099609375,0.96021435546875,0.988631465211493,-0.01171875,-0.60107421875,0.2587890625,41.98882352941177,284.65193844607404
0.13869091796875,-0.00426708984375,1.00171826171875,1.0112827767956811,0.015625,-0.33935546875,-0.1005859375,41.94176470588236,284.41031166965195
0.17140576171875,-0.10924755859375,0.99146435546875,1.012085239678034,-0.02880859375,0.0400390625,-0.46142578125,42.13,284.41031166965195
0.23292919921875,0.0216118164062499,0.97583935546875,1.0034866865777197,-0.015625,0.166015625,-0.4150390625,41.94176470588236,284.41031166965195
0.25392529296875,0.00647509765625,0.96412060546875,0.997019820860324,0.021484375,-0.03125,0.1689453125,41.98882352941177,284.41031166965195
0.21486279296875,0.0030571289062499,0.97779248046875,1.0011261162814165,0.11474609375,-0.2578125,0.62939453125,41.94176470588236,284.41031166965195
0.19093701171875,0.00940478515625,0.97486279296875,0.9934298453050184,0.1064453125,-0.37451171875,0.44580078125,42.08294117647059,285.0602480111887
0.21242138671875,0.0191704101562499,0.97339794921875,0.9964908016155212,-0.01708984375,-0.46923828125,-0.14111328125,41.98882352941177,285.0602480111887
0.20997998046875,0.00940478515625,0.98267529296875,1.0049033653007189,-0.1015625,-0.5400390625,-0.3779296875,41.94176470588236,285.0602480111887
0.20802685546875,-0.00377880859375,0.99244091796875,1.0140159898390455,-0.0947265625,-0.64794921875,-0.08349609375,41.98882352941177,285.0602480111887
0.21925732421875,0.0006157226562499,0.99878857421875,1.0225716450830615,-0.04931640625,-0.64111328125,0.23779296875,41.89470588235295,284.52083685528214
0.21388623046875,0.01184619140625,1.00806591796875,1.0305748623002329,-0.005859375,-0.43017578125,0.32470703125,41.98882352941177,284.52083685528214
0.20558544921875,0.0201469726562499,1.01441357421875,1.0352324265578947,0.01953125,-0.060546875,0.2021484375,42.13,284.52083685528214
0.21193310546875,0.01184619140625,0.99830029296875,1.020617189932618,0.0703125,0.2861328125,0.04150390625,41.98882352941177,284.52083685528214
0.22658154296875,0.01282275390625,0.97730419921875,1.003308086503065,0.08056640625,0.4521484375,-0.0341796875,42.224117647058826,284.52083685528214
0.22951123046875,0.0006157226562499,0.96216748046875,0.9891622943163833,0.05615234375,0.36376953125,0.00244140625,41.94176470588236,284.69720922295994
0.23097607421875,0.0030571289062499,0.96216748046875,0.9895077328501466,-0.0107421875,0.05419921875,0.0703125,41.94176470588236,284.69720922295994
0.22853466796875,0.00501025390625,0.96558544921875,0.9922743858685292,-0.06201171875,-0.32568359375,0.08349609375,41.98882352941177,284.69720922295994
0.22023388671875,0.01038134765625,0.97339794921875,0.9980552613867004,-0.09033203125,-0.58203125,0.0078125,41.94176470588236,284.69720922295994
0.20851513671875,0.00598681640625,0.97779248046875,0.999796248779096,-0.1103515625,-0.59619140625,-0.06640625,42.224117647058826,284.4332401134415
0.20460888671875,0.01135791015625,0.98804638671875,1.0090735656806105,-0.10693359375,-0.49853515625,-0.06103515625,42.224117647058826,284.4332401134415
0.21632763671875,0.00696337890625,0.98560498046875,1.0090903391564685,-0.07470703125,-0.35205078125,-0.03662109375,41.89470588235295,284.4332401134415
0.23830029296875,0.0015922851562499,0.98365185546875,1.0121069794088593,-0.0869140625,-0.2333984375,-0.064453125,42.27117647058824,284.4332401134415
0.22218701171875,0.00989306640625,0.99292919921875,1.0175329653630951,-0.08740234375,-0.08837890625,-0.041015625,41.98882352941177,284.4332401134415
0.19923779296875,0.0162407226562499,1.00513623046875,1.0248211068378636,-0.04638671875,0.18798828125,-0.0380859375,42.224117647058826,284.47733277087394
0.21388623046875,0.0196586914062499,0.99878857421875,1.021622435012985,0.001953125,0.4072265625,-0.09228515625,42.08294117647059,284.47733277087394
0.24025341796875,0.00842822265625,0.97681591796875,1.0059632584642153,0.02001953125,0.46923828125,-0.13525390625,41.98882352941177,284.47733277087394
0.22365185546875,0.0011040039062499,0.97339794921875,0.9987617027211784,0.02099609375,0.392578125,-0.0126953125,42.224117647058826,284.47733277087394
0.20167919921875,0.0001274414062499,0.97095654296875,0.9916809587627736,0.0556640625,0.33251953125,0.10986328125,42.08294117647059,284.6096118453939
0.21632763671875,-0.00133740234375,0.96997998046875,0.9938111478361996,0.03369140625,0.16748046875,0.0107421875,41.18882352941176,284.6096118453939
0.22169873046875,0.0015922851562499,0.97290966796875,0.997850732570026,-0.03076171875,-0.04541015625,-0.1201171875,41.98882352941177,284.6096118453939
0.21339794921875,0.0006157226562499,0.97095654296875,0.9941306112272088,-0.0830078125,-0.185546875,-0.1630859375,42.08294117647059,284.6096118453939
0.21046826171875,0.00598681640625,0.98218701171875,1.0045018950457991,-0.09619140625,-0.236328125,-0.11962890625,42.27117647058824,284.6096118453939
0.21144482421875,0.00842822265625,0.99146435546875,1.0137955991180396,-0.09619140625,-0.17236328125,-0.10498046875,41.94176470588236,284.7642346430566
0.21388623046875,0.01184619140625,0.98365185546875,1.006706821573232,-0.07861328125,0.0126953125,-0.130859375,41.98882352941177,284.7642346430566
0.20851513671875,0.01233447265625,0.98902294921875,1.0108397971676326,-0.04833984375,0.2001953125,-0.13525390625,42.31823529411765,284.7642346430566
0.20851513671875,0.00940478515625,1.10035107421875,1.119972990191742,-0.03125,0.33154296875,-0.07958984375,42.45941176470589,284.7642346430566
0.21388623046875,0.0030571289062499,0.97095654296875,0.9942400484566624,-0.01611328125,0.328125,-0.04150390625,42.08294117647059,285.1466670279584
0.22072216796875,0.0006157226562499,0.96167919921875,0.9866841119412184,-0.03759765625,0.17919921875,-0.02587890625,41.94176470588236,285.1466670279584
0.22316357421875,0.0035454101562499,0.96363232421875,0.9891419549642476,-0.0419921875,-0.05859375,-0.03515625,42.224117647058826,285.1466670279584
0.21974560546875,0.0020805664062499,0.96607373046875,0.9907527000120692,-0.06787109375,-0.28271484375,-0.01953125,42.13,285.1466670279584
0.22316357421875,0.0015922851562499,0.96851513671875,0.9938944039904064,-0.08447265625,-0.43896484375,-0.0009765625,41.98882352941177,285.1466670279584
0.22023388671875,0.00452197265625,0.97974560546875,1.0042035971511347,-0.0927734375,-0.4736328125,0.04345703125,41.98882352941177,284.8977004769387
0.21242138671875,0.00403369140625,0.98414013671875,1.0068122590148956,-0.0908203125,-0.40625,0.03125,41.98882352941177,284.8977004769387
0.21681591796875,0.00793994140625,0.99195263671875,1.015402490861356,-0.09033203125,-0.31787109375,-0.03271484375,41.98882352941177,284.8977004769387
0.21974560546875,0.01086962890625,0.98853466796875,1.0127226025578149,-0.08544921875,-0.2373046875,-0.0498046875,42.224117647058826,284.8977004769387
0.22414013671875,0.00745166015625,0.98560498046875,1.010797460252146,-0.09814453125,-0.1640625,-0.11279296875,41.94176470588236,284.4126664183832
0.21339794921875,0.01086962890625,0.98902294921875,1.01184150322305,-0.16259765625,-0.08642578125,-0.18994140625,41.80058823529412,284.4126664183832
0.20656201171875,0.0201469726562499,0.99439404296875,1.0158214793379026,-0.1474609375,-0.07373046875,-0.111328125,42.08294117647059,284.4126664183832
0.29005810546875,-0.00182568359375,0.95435498046875,0.9974620125168742,-0.10400390625,-0.29345703125,0.13525390625,41.94176470588236,284.4126664183832
0.27003857421875,-0.00426708984375,0.95826123046875,0.995592097920284,-0.119140625,-0.6455078125,0.27001953125,42.224117647058826,284.4126664183832
0.17824169921875,-0.01061474609375,0.99195263671875,1.0078952374469792,-0.103515625,-0.4072265625,-0.09228515625,42.45941176470589,284.6107915476947
0.17433544921875,0.00842822265625,0.99683544921875,1.0120003935822326,-0.14453125,-0.029296875,-0.50634765625,42.08294117647059,284.6107915476947
0.22609326171875,0.0216118164062499,0.97632763671875,1.002397569741577,-0.1279296875,0.0693359375,-0.7412109375,41.98882352941177,284.6107915476947
0.27003857421875,-0.00182568359375,0.95337841796875,0.9908857515048222,-0.095703125,-0.12255859375,-0.015625,42.224117647058826,284.6107915476947
0.24415966796875,-0.00963818359375,0.97290966796875,1.0031251467651785,-0.01904296875,-0.384765625,0.544921875,41.89470588235295,284.9406123032796
0.21535107421875,0.0011040039062499,0.97681591796875,1.0002732834525403,0.037109375,-0.4443359375,0.6162109375,41.94176470588236,284.9406123032796
0.22218701171875,0.00696337890625,0.97583935546875,1.0008386505845812,-0.0625,-0.49658203125,-0.0546875,42.08294117647059,284.9406123032796
0.23439404296875,0.0020805664062499,0.97144482421875,0.9993247433328192,-0.18603515625,-0.65185546875,-0.34619140625,41.94176470588236,284.9406123032796
0.23732373046875,-0.01159130859375,0.99048779296875,1.0185887195029328,-0.212890625,-0.75634765625,-0.17236328125,42.224117647058826,284.9406123032796
0.23390576171875,-0.00963818359375,0.99195263671875,1.0192030383792503,-0.15869140625,-1.0498046875,0.2294921875,42.13,284.6005062902785
0.23341748046875,-0.00573193359375,1.00367138671875,1.0304721382788773,-0.10107421875,-0.98095703125,0.46728515625,42.224117647058826,284.6005062902785
0.22755810546875,0.00452197265625,1.00025341796875,1.0258216412999863,-0.02099609375,-0.60498046875,0.369140625,42.13,284.6005062902785
0.22218701171875,0.0015922851562499,1.00122998046875,1.0255881616604106,0.03857421875,-0.15234375,0.21875,42.506470588235295,284.6005062902785
0.23585888671875,-0.01403271484375,0.98121044921875,1.0092572898850694,0.06494140625,0.21044921875,0.1435546875,41.98882352941177,284.80951081285787
0.23732373046875,-0.01989208984375,0.96607373046875,0.994995829631342,0.03076171875,0.3525390625,0.17236328125,41.98882352941177,284.80951081285787
0.24269482421875,-0.01793896484375,0.94947216796875,0.9801632424803092,0.02294921875,0.24755859375,0.24658203125,41.98882352941177,284.80951081285787
0.24269482421875,-0.01793896484375,0.94556591796875,0.9763797874732556,-0.0224609375,0.021484375,0.25390625,41.98882352941177,284.80951081285787
0.24318310546875,-0.01061474609375,0.93775341796875,0.9688303094619476,-0.0556640625,-0.32470703125,0.21728515625,42.08294117647059,284.80951081285787
0.24367138671875,-0.01207958984375,0.94751904296875,0.9784242423328684,-0.06298828125,-0.68359375,0.21630859375,41.94176470588236,284.4905672377432
0.24269482421875,-0.01354443359375,0.95484326171875,0.985296850615918,-0.07080078125,-1.02099609375,0.2607421875,41.89470588235295,284.4905672377432
0.25001904296875,-0.00866162109375,0.96021435546875,0.992268186517762,-0.076171875,-1.1748046875,0.29052734375,41.98882352941177,284.4905672377432
0.25148388671875,-0.00133740234375,0.97925732421875,1.0110345399442415,-0.09228515625,-1.1611328125,0.29833984375,42.08294117647059,284.4905672377432
0.22804638671875,0.00549853515625,1.01148388671875,1.0368871884038358,-0.072265625,-0.91796875,0.3623046875,41.94176470588236,284.5787547591733
0.22951123046875,0.00696337890625,1.01783154296875,1.043410246939917,-0.01171875,-0.48681640625,0.27734375,41.94176470588236,284.5787547591733
0.26320263671875,0.00501025390625,1.01441357421875,1.048015090625687,0.0107421875,-0.1044921875,0.13525390625,42.08294117647059,284.5787547591733
0.26808544921875,-0.00133740234375,1.00318310546875,1.0383871820403858,0.01513671875,0.16259765625,0.11083984375,41.94176470588236,284.5787547591733
0.23781201171875,-0.01110302734375,1.00171826171875,1.0296199813497935,0.056640625,0.40380859375,0.267578125,42.224117647058826,284.5787547591733
0.23048779296875,-0.00914990234375,0.98804638671875,1.014615200816784,0.06884765625,0.62158203125,0.2861328125,41.94176470588236,284.6005062902785
0.24513623046875,-0.00475537109375,0.97388623046875,1.0042752485943771,0.02978515625,0.6337890625,0.1640625,41.89470588235295,284.6005062902785
0.25343701171875,-0.00524365234375,0.95826123046875,0.9912226796327426,-0.01953125,0.4833984375,0.00830078125,42.27117647058824,284.6005062902785
0.25246044921875,-0.00670849609375,0.94996044921875,0.9829578512934632,-0.0537109375,0.16455078125,-0.00732421875,41.94176470588236,284.6005062902785
0.24757763671875,-0.00036083984375,0.95289013671875,0.984527515646217,-0.07373046875,-0.216796875,0.06201171875,41.94176470588236,284.75513200658673
0.25099560546875,-0.00084912109375,0.96363232421875,0.9957845004068332,-0.103515625,-0.517578125,0.0693359375,41.98882352941177,284.75513200658673
0.24904248046875,0.0006157226562499,0.96509716796875,0.99671213487833,-0.1279296875,-0.671875,0.06005859375,41.89470588235295,284.75513200658673
0.24904248046875,0.00598681640625,0.97828076171875,1.0095004942038055,-0.24951171875,-0.67578125,0.02197265625,41.98882352941177,284.75513200658673
0.25099560546875,0.0006157226562499,0.98560498046875,1.017062608989151,-0.09814453125,-0.603515625,0.01220703125,42.08294117647059,284.75513200658673
0.25343701171875,-0.00231396484375,0.98414013671875,1.0162516824306014,-0.07861328125,-0.46044921875,0.0419921875,42.08294117647059,284.67722769462546
0.25392529296875,-0.00329052734375,0.98706982421875,1.019213284775419,-0.04296875,-0.29931640625,0.06494140625,42.08294117647059,284.67722769462546
0.24757763671875,-0.00377880859375,0.99341748046875,1.0238101660456926,-0.0576171875,-0.14013671875,-0.01123046875,41.94176470588236,284.67722769462546
0.24757763671875,0.0011040039062499,0.98902294921875,1.0195402390829018,-0.02734375,-0.02197265625,-0.05615234375,41.80058823529412,284.67722769462546
0.25392529296875,-0.00182568359375,0.98169873046875,1.0140087696533029,-0.0205078125,0.0537109375,-0.0830078125,42.08294117647059,284.56847023751334
0.25831982421875,-0.00036083984375,0.96753857421875,1.001429056094864,-0.0302734375,0.1025390625,-0.06884765625,41.94176470588236,284.56847023751334
0.25587841796875,-0.00084912109375,0.96070263671875,0.9941951729852548,0.00439453125,0.10205078125,-0.068359375,41.94176470588236,284.56847023751334
0.26027294921875,-0.00182568359375,0.95923779296875,0.9939227760118836,0.005859375,0.0283203125,-0.09375,42.45941176470589,284.56847023751334
0.25783154296875,-0.00426708984375,0.95874951171875,0.9928222090718573,-0.02001953125,-0.16015625,-0.0009765625,41.94176470588236,284.56847023751334
0.25539013671875,-0.00084912109375,0.95923779296875,0.9926540114256388,-0.0625,-0.34130859375,-0.1650390625,42.13,284.66812662630457
0.25148388671875,-0.00475537109375,0.96607373046875,0.9982811285080044,-0.1025390625,-0.4609375,-0.29150390625,41.98882352941177,284.66812662630457
0.24025341796875,0.00842822265625,0.97339794921875,1.002644656558882,-0.05615234375,-0.5869140625,-0.10400390625,41.80058823529412,284.66812662630457
0.32228466796875,-0.01305615234375,0.95093701171875,1.0041509202198324,0.02587890625,-0.892578125,0.17822265625,41.80058823529412,284.66812662630457
0.29249951171875,-0.02086865234375,0.95533154296875,0.999324682972158,-0.04150390625,-1.1572265625,0.29296875,41.98882352941177,284.5135004934236
0.19533154296875,-0.01793896484375,0.99585888671875,1.0149931725853756,-0.04638671875,-0.69580078125,-0.11083984375,41.98882352941177,284.5135004934236
0.20021435546875,-0.00524365234375,1.00025341796875,1.0201079277134533,-0.0888671875,-0.07568359375,-0.66162109375,42.08294117647059,284.5135004934236
0.25099560546875,0.0196586914062499,0.98414013671875,1.0158331884779264,-0.1015625,0.16845703125,-0.67919921875,41.98882352941177,284.5135004934236
0.29738232421875,-0.00377880859375,0.95581982421875,1.0010205105399668,-0.08056640625,-0.017578125,-0.099609375,41.94176470588236,284.5135004934236
0.28566357421875,-0.01256787109375,0.95874951171875,1.0004810119338603,-0.125,-0.28955078125,0.43798828125,42.08294117647059,284.3594680254898
0.25197216796875,-0.01256787109375,0.96802685546875,1.0003618933782998,0.0400390625,-0.322265625,0.41796875,42.13,284.3594680254898
0.24171826171875,-0.00377880859375,0.97095654296875,1.0005991234138416,-0.00244140625,-0.2373046875,-0.03515625,41.94176470588236,284.3594680254898
0.25392529296875,-0.01159130859375,0.95679638671875,0.9899857264032832,-0.1396484375,-0.25244140625,-0.3984375,41.98882352941177,284.3594680254898
0.27296826171875,-0.01891552734375,0.96656201171875,1.004545465162351,-0.2099609375,-0.65185546875,-0.38671875,41.89470588235295,284.78894332948664
0.27931591796875,-0.01940380859375,0.97046826171875,1.0100507595275003,-0.2060546875,-0.87744140625,-0.107421875,42.224117647058826,284.78894332948664
0.27101513671875,-0.00719677734375,0.98853466796875,1.0250374567355598,-0.2021484375,-1.130859375,0.158203125,42.13,284.78894332948664
0.26613232421875,0.00501025390625,0.99390576171875,1.028931571979404,-0.16357421875,-1.001953125,0.173828125,42.13,284.78894332948664
0.27785107421875,0.00940478515625,0.99683544921875,1.0348770855746567,-0.11083984375,-0.640625,0.0126953125,42.08294117647059,284.78894332948664
0.28273388671875,0.0011040039062499,0.98560498046875,1.0253569364121553,-0.0849609375,-0.2197265625,-0.18408203125,41.94176470588236,284.8445070114031
0.27931591796875,-0.00573193359375,0.97681591796875,1.0159820740006096,-0.03759765625,0.115234375,-0.25439453125,42.08294117647059,284.8445070114031
0.28175732421875,-0.01354443359375,0.96851513671875,1.0087577565925447,-0.03466796875,0.28955078125,-0.2314453125,42.08294117647059,284.8445070114031
0.27882763671875,-0.01403271484375,0.96705029296875,1.006542615697415,-0.02001953125,0.30322265625,-0.16357421875,41.80058823529412,284.8445070114031
0.28371044921875,-0.01305615234375,0.95923779296875,1.0003995329714457,-0.0400390625,0.1767578125,-0.162109375,41.94176470588236,284.70075354154176
0.28029248046875,-0.01549755859375,0.95972607421875,0.9999390913775822,-0.083984375,-0.03271484375,-0.16796875,42.506470588235295,284.70075354154176
0.27150341796875,-0.00719677734375,0.96216748046875,0.999766052656536,-0.0849609375,-0.234375,-0.17578125,42.08294117647059,284.70075354154176
0.28273388671875,-0.01061474609375,0.95923779296875,1.0000941290665015,-0.10107421875,-0.37890625,-0.22802734375,41.98882352941177,284.70075354154176
0.26710888671875,-0.00768505859375,0.97193310546875,1.0079981046588566,-0.109375,-0.38232421875,-0.18310546875,41.80058823529412,284.70075354154176
0.25734326171875,-0.00231396484375,0.98658154296875,1.0195950420200868,-0.08740234375,-0.21826171875,-0.16064453125,41.98882352941177,284.75572400317213
0.27150341796875,-0.00084912109375,0.98902294921875,1.0256126076919587,-0.0419921875,0.0068359375,-0.16943359375,42.08294117647059,284.75572400317213
0.29201123046875,-0.01207958984375,0.98218701171875,1.0247476768452195,-0.03759765625,0.185546875,-0.1689453125,41.94176470588236,284.75572400317213
0.27540966796875,-0.01842724609375,0.98999951171875,1.0277592528469983,-0.00732421875,0.26708984375,-0.0654296875,41.98882352941177,284.75572400317213
0.26515576171875,-0.01354443359375,0.98755810546875,1.0226250736858806,0.04931640625,0.3955078125,0.01171875,42.08294117647059,284.3268411030312
0.27785107421875,-0.01305615234375,0.97242138671875,1.0114222836711444,0.06884765625,0.439453125,0.00244140625,41.98882352941177,284.3268411030312
0.27931591796875,-0.01696240234375,0.96607373046875,1.0057850455369697,0.0263671875,0.3388671875,-0.09375,42.224117647058826,284.3268411030312
0.26173779296875,-0.01403271484375,0.96216748046875,0.9972310914856296,0.00390625,0.212890625,-0.0830078125,41.89470588235295,284.3268411030312
0.25539013671875,-0.01207958984375,0.95874951171875,0.99225534246229,0.02880859375,0.06298828125,-0.125,42.13,284.3268411030312
0.27394482421875,-0.00377880859375,0.96021435546875,0.9985347538062442,0.03125,-0.03271484375,0.0224609375,41.18882352941176,284.8668514203433
0.29591748046875,-0.00914990234375,0.95874951171875,1.0034199032213853,0.0185546875,-0.18798828125,-0.07763671875,41.98882352941177,284.8668514203433
0.29201123046875,-0.00817333984375,0.97144482421875,1.01441727543722,0.00439453125,-0.333984375,-0.158203125,41.94176470588236,284.8668514203433
0.28029248046875,-0.00817333984375,0.97388623046875,1.0134520551008603,-0.0087890625,-0.416015625,-0.10546875,42.224117647058826,284.8668514203433
0.27003857421875,-0.01012646484375,0.98023388671875,1.01679980798979,-0.005859375,-0.4130859375,0.00927734375,42.45941176470589,284.4156200161151
0.27540966796875,-0.00670849609375,0.98755810546875,1.025264112708293,0.02880859375,-0.31982421875,0.07275390625,41.94176470588236,284.4156200161151
0.26955029296875,-0.00768505859375,0.98218701171875,1.01853215293094,0.05224609375,-0.04150390625,-0.0361328125,42.08294117647059,284.4156200161151
0.26222607421875,-0.01110302734375,0.97925732421875,1.0138198549310615,0.06640625,0.2333984375,-0.1123046875,42.224117647058826,284.4156200161151
0.26271435546875,-0.01989208984375,0.97290966796875,1.0079522557317762,0.07470703125,0.42578125,-0.12158203125,42.08294117647059,284.4156200161151
0.26857373046875,-0.01891552734375,0.96412060546875,1.0010085852588986,0.0576171875,0.46484375,-0.0703125,42.27117647058824,284.70193859425166
0.27540966796875,-0.01745068359375,0.94898388671875,0.9882942015515276,0.033203125,0.35888671875,0.00390625,41.98882352941177,284.70193859425166
0.28419873046875,-0.02038037109375,0.94996044921875,0.9917707058619232,-0.01904296875,0.24755859375,0.02685546875,42.27117647058824,284.70193859425166
0.28664013671875,-0.01403271484375,0.94947216796875,0.9918956007621508,-0.04541015625,-0.13525390625,0.03271484375,41.94176470588236,284.70193859425166
0.28761669921875,-0.01403271484375,0.94898388671875,0.9917109962116988,-0.0791015625,-0.416015625,0.01123046875,41.98882352941177,284.60287316434767
0.28712841796875,-0.01696240234375,0.96070263671875,1.0028359824502044,-0.1201171875,-0.57080078125,-0.16064453125,42.224117647058826,284.60287316434767
0.26564404296875,-0.01110302734375,0.98609326171875,1.0213079631473077,-0.13525390625,-0.6025390625,-0.25927734375,41.94176470588236,284.60287316434767
0.27199169921875,0.0030571289062499,0.97535107421875,1.0125702684064557,-0.03369140625,-0.65234375,0.130859375,42.08294117647059,284.60287316434767
0.34816357421875,-0.02184521484375,0.96021435546875,1.0216196436407297,0.01123046875,-0.9560546875,0.43896484375,42.45941176470589,284.60287316434767
0.27687451171875,-0.03258740234375,0.97388623046875,1.013003368171913,-0.06103515625,-0.9990234375,0.42529296875,42.08294117647059,284.604059311252
0.20753857421875,-0.00719677734375,1.00757763671875,1.0287549501259416,-0.01904296875,-0.1513671875,-0.1279296875,42.224117647058826,284.604059311252
0.24171826171875,0.01379931640625,0.99683544921875,1.0258162856967912,-0.1005859375,0.443359375,-0.74853515625,42.224117647058826,284.604059311252
0.28761669921875,0.00501025390625,0.97242138671875,1.0140768322280669,-0.0810546875,0.4599609375,-0.4140625,41.98882352941177,284.604059311252
0.32472607421875,-0.01598583984375,0.93921826171875,0.9938981404042476,-0.064453125,0.1162109375,0.28955078125,41.98882352941177,284.27305468172653
0.31593701171875,-0.02672802734375,0.94751904296875,0.9991611079339896,-0.0234375,-0.2705078125,0.62060546875,42.08294117647059,284.27305468172653
0.28468701171875,-0.01500927734375,0.95435498046875,0.9960247997882588,-0.0126953125,-0.45068359375,0.41552734375,41.89470588235295,284.27305468172653
0.27589794921875,-0.00475537109375,0.96314404296875,1.0018925787945234,-0.099609375,-0.63720703125,-0.0380859375,42.31823529411765,284.27305468172653
0.29054638671875,-0.00231396484375,0.96070263671875,1.0036792881528331,-0.20751953125,-0.8828125,-0.33203125,42.08294117647059,284.27305468172653
0.29738232421875,-0.00963818359375,0.97486279296875,1.0192578704408244,-0.234375,-1.208984375,-0.32177734375,41.98882352941177,284.6143414940564
0.29054638671875,-0.00426708984375,0.97681591796875,1.0191195947915963,-0.18212890625,-1.36572265625,-0.0654296875,41.98882352941177,284.6143414940564
0.28224560546875,0.0006157226562499,0.99390576171875,1.0332045412688329,-0.08349609375,-1.1728515625,0.11279296875,41.94176470588236,284.6143414940564
0.28664013671875,0.00452197265625,1.00708935546875,1.047096932529797,0.0244140625,-0.69482421875,0.083984375,41.89470588235295,284.6143414940564
0.28810498046875,-0.00084912109375,0.99634716796875,1.0371657919044954,0.13671875,-0.1005859375,-0.10107421875,41.98882352941177,284.7907228370055
0.29152294921875,-0.01110302734375,0.99488232421875,1.0367737198541906,0.21240234375,0.46875,-0.244140625,41.98882352941177,284.7907228370055
0.29152294921875,-0.02477490234375,0.97925732421875,1.0220295165715156,0.22216796875,0.802734375,-0.2158203125,42.13,284.7907228370055
0.28517529296875,-0.02282177734375,0.97095654296875,1.0122264517264732,0.25634765625,0.86083984375,-0.05078125,42.08294117647059,284.7907228370055
0.29201123046875,-0.01647412109375,0.96656201171875,1.0098435908018042,0.2646484375,0.7392578125,0.0576171875,41.98882352941177,284.7907228370055
0.29542919921875,-0.01403271484375,0.95581982421875,1.0005332904039124,0.2734375,0.50732421875,0.044921875,42.224117647058826,284.5140920207916
0.29884716796875,-0.01159130859375,0.95581982421875,1.0015166122473556,0.24365234375,0.30126953125,-0.0322265625,42.08294117647059,284.5140920207916
0.30031201171875,-0.01647412109375,0.94165966796875,0.9885249775940872,0.21142578125,0.1533203125,-0.080078125,41.98882352941177,284.5140920207916
0.27540966796875,-0.01012646484375,0.95289013671875,0.9919438709709169,0.18359375,0.0615234375,0.013671875,42.08294117647059,284.5140920207916
0.27345654296875,-0.00866162109375,0.96656201171875,1.0045375189957757,0.20654296875,0.064453125,0.044921875,42.13,284.3835856928616
0.29201123046875,-0.00133740234375,0.96949169921875,1.0125149392571753,0.20849609375,0.10400390625,-0.021484375,41.98882352941177,284.3835856928616
0.30519482421875,-0.00963818359375,0.97242138671875,1.019235070364495,0.203125,0.158203125,-0.10009765625,41.80058823529412,284.3835856928616
0.28419873046875,-0.01598583984375,0.98121044921875,1.0216645296434737,0.21484375,0.1943359375,-0.0224609375,42.31823529411765,284.3835856928616
0.26906201171875,-0.01012646484375,0.98609326171875,1.0221921699208498,0.28271484375,0.37060546875,0.13916015625,41.94176470588236,284.3835856928616
0.27003857421875,-0.00280224609375,0.98267529296875,1.0191071658861417,0.26953125,0.5263671875,0.10498046875,42.506470588235295,284.6143414940564
0.27394482421875,0.0011040039062499,0.98951123046875,1.0267324192625098,0.24462890625,0.63671875,-0.05419921875,41.98882352941177,284.6143414940564
0.28126904296875,0.0001274414062499,0.98121044921875,1.0207282872684236,0.208984375,0.681640625,-0.2265625,42.506470588235295,284.6143414940564
0.27833935546875,0.0011040039062499,0.97193310546875,1.0110034506041572,0.20068359375,0.68310546875,-0.2568359375,41.94176470588236,284.6143414940564
0.26906201171875,-0.00329052734375,0.96997998046875,1.006611323317246,0.19580078125,0.6796875,-0.16943359375,42.45941176470589,284.7254702978798
0.26808544921875,-0.00963818359375,0.96558544921875,1.002156655622653,0.1748046875,0.6748046875,-0.078125,42.13,284.7254702978798
0.26759716796875,-0.00719677734375,0.96216748046875,0.9987123201305834,0.1826171875,0.60986328125,-0.0322265625,41.80058823529412,284.7254702978798
0.27150341796875,-0.01305615234375,0.95337841796875,0.9913702521920524,0.16455078125,0.46923828125,-0.0322265625,42.13,284.7254702978798
0.26320263671875,-0.01012646484375,0.96802685546875,1.0032218927907477,0.14306640625,0.32373046875,-0.02734375,42.08294117647059,284.7254702978798
0.25783154296875,-0.00329052734375,0.96705029296875,1.0008367505496545,0.13232421875,0.17578125,-0.00390625,42.08294117647059,284.7031254535659
0.26417919921875,-0.00524365234375,0.98121044921875,1.0161653855774773,0.064453125,0.0390625,0.00439453125,41.94176470588236,284.7031254535659
0.26808544921875,-0.00377880859375,0.97388623046875,1.0101180512068073,0.04052734375,-0.00146484375,0.0302734375,42.31823529411765,284.7031254535659
0.27003857421875,0.0025688476562499,0.97730419921875,1.01392846313484,0.05859375,0.01171875,0.02490234375,41.235882352941175,284.7031254535659
0.26857373046875,0.00549853515625,0.98218701171875,1.0182599906584628,0.0654296875,0.087890625,0.06396484375,41.94176470588236,284.52615192491004
0.27638623046875,0.0020805664062499,0.97486279296875,1.01328729502749,0.0947265625,0.22119140625,0.03857421875,41.98882352941177,284.52615192491004
0.27052685546875,0.0015922851562499,0.96997998046875,1.0069997405223028,0.1171875,0.38720703125,0.01025390625,41.89470588235295,284.52615192491004
0.26662060546875,-0.00084912109375,0.96705029296875,1.003131864411703,0.1171875,0.4921875,-0.0078125,42.224117647058826,284.52615192491004
0.26320263671875,-0.00329052734375,0.95972607421875,0.9951686254505996,0.10546875,0.47607421875,0.05126953125,41.98882352941177,284.52615192491004
0.25099560546875,-0.00329052734375,0.95777294921875,0.9901205198307964,0.08349609375,0.4365234375,0.01025390625,41.98882352941177,284.6155284226863
0.23781201171875,0.00549853515625,0.97486279296875,1.0034651224240008,0.05078125,0.32666015625,-0.01123046875,41.98882352941177,284.6155284226863
0.25734326171875,0.0196586914062499,0.95777294921875,0.991938022638024,0.09228515625,0.06494140625,0.205078125,41.98882352941177,284.6155284226863
0.34328076171875,-0.00622021484375,0.94507763671875,1.0055108710823593,0.0859375,-0.4150390625,0.259765625,41.94176470588236,284.6155284226863
0.25294873046875,-0.00963818359375,0.97242138671875,1.0048279992997586,0.033203125,-0.5380859375,0.181640625,41.98882352941177,284.43974165915296
0.19044873046875,0.00891650390625,0.99976513671875,1.0177821729512309,0.07666015625,-0.02294921875,-0.19873046875,41.98882352941177,284.43974165915296
0.22609326171875,0.01135791015625,0.98365185546875,1.0093652153134935,0.0205078125,0.4609375,-0.4765625,41.98882352941177,284.43974165915296
0.30031201171875,0.0225883789062499,0.97242138671875,1.0179886505222893,0.04296875,0.5947265625,-0.29248046875,41.98882352941177,284.43974165915296
0.31056591796875,-0.00329052734375,0.95484326171875,1.0040854900971696,0.1201171875,0.36181640625,0.216796875,41.89470588235295,284.43974165915296
0.26564404296875,-0.01159130859375,0.95923779296875,0.9954085892030754,0.21826171875,0.11669921875,0.5048828125,41.98882352941177,284.39505379280195
0.24513623046875,0.0001274414062499,0.95777294921875,0.9886459477411124,0.1962890625,-0.12158203125,0.5322265625,41.89470588235295,284.39505379280195
0.25539013671875,0.0162407226562499,0.96753857421875,1.0008090605139777,0.1044921875,-0.40185546875,0.03271484375,41.18882352941176,284.39505379280195
0.25148388671875,0.01526416015625,0.97632763671875,1.008311853587601,-0.0068359375,-0.6796875,-0.23974609375,42.506470588235295,284.39505379280195
0.25880810546875,0.00598681640625,0.99048779296875,1.023759515436663,-0.0341796875,-0.89208984375,-0.10693359375,42.08294117647059,284.5714331292671
0.26808544921875,0.0030571289062499,0.99244091796875,1.0280165999528526,0.0068359375,-0.87646484375,0.142578125,42.13,284.5714331292671
0.26466748046875,0.01086962890625,1.00806591796875,1.0422878292585087,0.06787109375,-0.5126953125,0.220703125,42.08294117647059,284.5714331292671
0.26076123046875,0.01526416015625,1.00611279296875,1.0394673472871725,0.14599609375,0.109375,0.1279296875,42.13,284.5714331292671
0.26027294921875,0.01526416015625,0.99976513671875,1.0332014959718951,0.15576171875,0.68310546875,-0.056640625,42.224117647058826,284.5714331292671
0.26076123046875,0.00501025390625,0.97681591796875,1.011034549141083,0.18603515625,1.080078125,-0.13818359375,41.94176470588236,284.47236771450923
0.25636669921875,0.0011040039062499,0.96167919921875,0.9952647816048542,0.20361328125,1.154296875,-0.12841796875,42.08294117647059,284.47236771450923
0.26417919921875,0.0001274414062499,0.94410107421875,0.9803660050624816,0.18310546875,1.0,-0.0830078125,42.13,284.47236771450923
0.26710888671875,0.13293994140625,0.93042919921875,0.977097067923178,0.1689453125,0.58544921875,-0.041015625,42.224117647058826,284.47236771450923
0.26173779296875,0.0030571289062499,0.92994091796875,0.966077703509331,0.001953125,0.08154296875,0.0283203125,42.13,284.50558728744005
0.26173779296875,0.00745166015625,0.93628857421875,0.9722131935536648,0.091796875,-0.42919921875,0.00537109375,41.98882352941177,284.50558728744005
0.25978466796875,-0.00182568359375,0.95972607421875,0.9942663347250332,0.03662109375,-0.75537109375,-0.0185546875,42.08294117647059,284.50558728744005
0.24122998046875,0.00989306640625,0.97974560546875,1.0090546207590545,0.0390625,-0.80908203125,-0.01171875,42.224117647058826,284.50558728744005
0.24708935546875,0.00842822265625,0.99537060546875,1.0256153405416335,0.06689453125,-0.6171875,0.00341796875,42.13,284.50558728744005
0.26222607421875,0.00745166015625,1.00953076171875,1.043058195929499,0.12451171875,-0.3525390625,0.02783203125,41.94176470588236,284.462680076485
0.24904248046875,0.00696337890625,1.01001904296875,1.0402928015147128,0.1767578125,0.06005859375,0.11181640625,41.80058823529412,284.462680076485
0.23878857421875,0.00403369140625,1.01197216796875,1.039771091436551,0.2470703125,0.53759765625,0.19140625,42.08294117647059,284.462680076485
0.23830029296875,-0.00182568359375,1.00269482421875,1.030624700492205,0.2734375,0.919921875,0.21875,42.13,284.462680076485
0.24269482421875,0.00549853515625,0.99244091796875,1.021699558211752,0.244140625,1.044921875,0.1416015625,42.13,284.66021825011256
0.24367138671875,0.01428759765625,0.98267529296875,1.0125367210938296,0.22607421875,0.97216796875,0.06689453125,42.224117647058826,284.66021825011256
0.24953076171875,0.0181938476562499,0.97632763671875,1.0078751268670627,0.16845703125,0.744140625,0.03271484375,42.224117647058826,284.66021825011256
0.25490185546875,0.01428759765625,0.97144482421875,1.004432246530146,0.14892578125,0.4541015625,0.02197265625,42.224117647058826,284.66021825011256
0.25294873046875,0.01331103515625,0.96997998046875,1.0025075592796493,0.09521484375,0.166015625,0.08642578125,42.13,284.66021825011256
0.24415966796875,0.0162407226562499,0.97095654296875,1.001316290124571,0.0673828125,-0.046875,0.1259765625,42.08294117647059,284.5726214475008
0.23927685546875,0.01477587890625,0.96949169921875,0.99869209219585,0.08837890625,-0.11083984375,0.12939453125,41.98882352941177,284.5726214475008
0.23927685546875,0.01233447265625,0.98218701171875,1.0109880705368035,0.08203125,-0.10986328125,0.10546875,42.08294117647059,284.5726214475008
0.23927685546875,0.01282275390625,0.97974560546875,1.0086224705091993,0.07763671875,-0.01708984375,0.07568359375,42.13,284.5726214475008
0.24367138671875,0.01477587890625,0.98121044921875,1.0111221572881053,0.07958984375,0.0498046875,0.07177734375,42.224117647058826,284.82632325796715
0.25441357421875,0.01477587890625,0.98365185546875,1.016127731198852,0.08447265625,0.08740234375,0.09619140625,42.506470588235295,284.82632325796715
0.25734326171875,0.01428759765625,0.97388623046875,1.007414552056631,0.07421875,0.0791015625,0.0029296875,42.224117647058826,284.82632325796715
0.25636669921875,0.01331103515625,0.97730419921875,1.0104576022455618,0.0771484375,-0.01123046875,0.2041015625,42.08294117647059,284.82632325796715
0.25685498046875,0.0172172851562499,0.97290966796875,1.006391642417015,0.0869140625,-0.099609375,0.20849609375,41.94176470588236,284.82632325796715
0.20412060546875,0.00501025390625,0.98121044921875,1.0022296492706626,0.0830078125,0.02099609375,0.16650390625,41.80058823529412,284.176361281429
0.19874951171875,-0.11071240234375,0.97046826171875,0.9967784364865534,0.1064453125,-0.0185546875,0.220703125,41.94176470588236,284.176361281429
0.22755810546875,0.01233447265625,0.97730419921875,1.0035229585768513,0.087890625,-0.05322265625,0.2451171875,41.89470588235295,284.176361281429
0.23390576171875,0.01038134765625,0.97535107421875,1.003060016013029,0.08203125,-0.068359375,0.21533203125,42.224117647058826,284.176361281429
0.23537060546875,0.0216118164062499,0.98072216796875,1.0088024401598306,0.064453125,-0.1611328125,0.130859375,42.224117647058826,284.6722834912403
0.23585888671875,0.0289360351562499,0.98462841796875,1.012896751918188,0.04052734375,-0.23388671875,0.0615234375,41.94176470588236,284.6722834912403
0.27247998046875,0.01379931640625,0.96558544921875,1.0033897650626626,0.0927734375,-0.33544921875,0.15087890625,42.224117647058826,284.6722834912403
0.29982373046875,0.0020805664062499,0.95728466796875,1.003141332832422,0.0751953125,-0.48681640625,0.162109375,41.98882352941177,284.6722834912403
0.21632763671875,0.00598681640625,0.99048779296875,1.0138538141167623,0.10107421875,-0.2734375,0.1328125,41.98882352941177,284.6722834912403
0.21242138671875,0.0167290039062499,0.99097607421875,1.0136253177487318,0.146484375,0.1982421875,-0.03173828125,41.80058823529412,284.5176506695007
0.26124951171875,0.0221000976562499,0.96265576171875,0.9977203201599172,0.056640625,0.58837890625,-0.392578125,42.13,284.5176506695007
0.26662060546875,0.0299125976562499,0.95923779296875,0.9960514315127638,0.111328125,0.62548828125,-0.16552734375,41.94176470588236,284.5176506695007
0.24464794921875,0.00793994140625,0.94214794921875,0.9734261245433938,0.1708984375,0.30224609375,0.40869140625,41.89470588235295,284.5176506695007
0.23537060546875,0.00452197265625,0.94898388671875,0.9777475069808436,0.193359375,-0.27001953125,0.5859375,41.98882352941177,284.3533336911717
0.24122998046875,0.00891650390625,0.95777294921875,0.9877248755468528,0.078125,-0.8076171875,0.25244140625,42.08294117647059,284.3533336911717
0.24415966796875,0.0172172851562499,0.97339794921875,1.0037001274853112,-0.03564453125,-1.17333984375,-0.1064453125,41.98882352941177,284.3533336911717
0.25050732421875,0.01428759765625,0.98511669921875,1.0165692135873827,-0.0634765625,-1.2841796875,-0.07275390625,41.98882352941177,284.3533336911717
0.26417919921875,0.01086962890625,0.99292919921875,1.0275296554326827,-0.0546875,-1.24462890625,0.1806640625,41.98882352941177,284.3533336911717
0.27736279296875,0.01526416015625,1.01050732421875,1.0479924454920653,0.01318359375,-0.7802734375,0.32080078125,41.80058823529412,284.64993781932
0.26222607421875,0.0221000976562499,1.01343701171875,1.047046085441335,0.068359375,-0.2587890625,0.27490234375,42.08294117647059,284.64993781932
0.24660107421875,0.0230766601562499,1.00953076171875,1.0394695670899885,0.0849609375,0.2958984375,0.06201171875,41.94176470588236,284.64993781932
0.24415966796875,0.0255180664062499,0.99390576171875,1.0237742809591637,0.11767578125,0.6953125,-0.06396484375,42.08294117647059,284.64993781932
0.24904248046875,0.0177055664062499,0.96558544921875,0.9973419192547603,0.0927734375,0.86474609375,-0.09423828125,42.13,284.7055045920175
0.25246044921875,0.0191704101562499,0.95142529296875,0.9845373894098504,0.08056640625,0.7841796875,-0.05859375,41.89470588235295,284.7055045920175
0.25294873046875,0.0216118164062499,0.95240185546875,0.98565684959546,0.05615234375,0.43017578125,-0.04052734375,41.235882352941175,284.7055045920175
0.24757763671875,0.0167290039062499,0.94898388671875,0.9808898832319364,0.02587890625,-0.03662109375,-0.046875,41.89470588235295,284.7055045920175
0.24464794921875,0.0206352539062499,0.95191357421875,0.9830655550585784,-0.0087890625,-0.4599609375,-0.04736328125,41.94176470588236,284.7055045920175
0.27199169921875,0.01233447265625,0.95581982421875,0.9938426233711114,-0.0302734375,-0.73095703125,-0.1171875,41.89470588235295,284.5188404989049
0.26662060546875,0.01331103515625,0.96802685546875,1.0041612041032904,-0.05810546875,-0.744140625,-0.138671875,41.7064705882353,284.5188404989049
0.24025341796875,0.01233447265625,0.98951123046875,1.0183350722061744,-0.0439453125,-0.47216796875,-0.07568359375,42.08294117647059,284.5188404989049
0.24562451171875,0.01428759765625,0.99634716796875,1.02627638349677,-0.01806640625,-0.0703125,-0.0517578125,42.224117647058826,284.5188404989049
0.23976513671875,0.0167290039062499,0.99830029296875,1.0268255232993324,0.0009765625,0.34326171875,-0.115234375,41.98882352941177,284.77194742287304
0.23244091796875,0.0181938476562499,1.00757763671875,1.0342013780954054,0.0517578125,0.61376953125,-0.07470703125,41.80058823529412,284.77194742287304
0.25441357421875,0.0167290039062499,0.98902294921875,1.0213581743931992,0.064453125,0.634765625,-0.02880859375,41.94176470588236,284.77194742287304
0.24220654296875,0.0177055664062499,0.98121044921875,1.010817215026881,0.01953125,0.59521484375,0.03662109375,41.98882352941177,284.77194742287304
0.22658154296875,0.0225883789062499,0.98023388671875,1.0063338924767755,0.0361328125,0.58642578125,-0.0107421875,41.98882352941177,284.77194742287304
0.24611279296875,0.0294243164062499,0.97144482421875,1.002567874889402,-0.0498046875,0.4970703125,-0.21923828125,42.31823529411765,284.78341895414684
0.26906201171875,0.03772509765625,0.96558544921875,1.0030816561408595,-0.107421875,0.3466796875,-0.3515625,41.94176470588236,284.78341895414684
0.26124951171875,0.03674853515625,0.97437451171875,1.0094589894079735,-0.11181640625,0.20068359375,-0.2373046875,41.37705882352941,284.78341895414684
0.25050732421875,0.03918994140625,0.98121044921875,1.0134415210808785,-0.0625,0.04931640625,-0.08740234375,41.98882352941177,284.78341895414684
0.23732373046875,0.04065478515625,0.98560498046875,1.0145898393560373,-0.056640625,-0.0361328125,-0.07958984375,42.08294117647059,284.83779455354016
0.24415966796875,0.03967822265625,0.98902294921875,1.019487468729814,-0.06884765625,-0.0283203125,-0.21728515625,42.08294117647059,284.83779455354016
0.24269482421875,0.04114306640625,0.99097607421875,1.021091136622919,-0.1005859375,-0.00390625,-0.27392578125,42.08294117647059,284.83779455354016
0.24757763671875,0.04358447265625,0.97876904296875,1.010536061669215,-0.17431640625,0.08056640625,-0.2939453125,41.94176470588236,284.83779455354016
0.25099560546875,0.05481494140625,0.97535107421875,1.008619447435783,-0.24658203125,0.302734375,-0.38671875,41.94176470588236,284.83779455354016
0.26222607421875,0.07092822265625,0.95240185546875,0.9903850872613488,-0.32958984375,0.63330078125,-0.56103515625,41.94176470588236,284.6179076997348
0.27394482421875,0.08948291015625,0.93091748046875,0.9745051633360178,-0.361328125,0.92626953125,-0.6728515625,42.13,284.6179076997348
0.28712841796875,0.09387744140625,0.91382763671875,0.962463844537132,-0.29736328125,0.98828125,-0.6787109375,41.94176470588236,284.6179076997348
0.30568310546875,0.08557666015625,0.9006440429687499,0.9549477566168804,-0.232421875,0.64990234375,-0.6826171875,41.89470588235295,284.6179076997348
0.30128857421875,0.07092822265625,0.8977143554687499,0.949577106789446,-0.1884765625,0.01806640625,-0.69384765625,41.89470588235295,284.59615747868094
0.28273388671875,0.06116259765625,0.90601513671875,0.951074519695826,-0.22998046875,-0.72119140625,-0.71826171875,42.08294117647059,284.59615747868094
0.25343701171875,0.05237353515625,0.93384716796875,0.9690427437512482,-0.2783203125,-1.3662109375,-0.74365234375,42.224117647058826,284.59615747868094
0.23390576171875,0.04456103515625,0.94996044921875,0.9793479699776348,-0.3203125,-1.62548828125,-0.74169921875,41.94176470588236,284.59615747868094
0.23488232421875,0.0299125976562499,0.98609326171875,1.0141224731441807,-0.40087890625,-1.8857421875,-0.7578125,42.08294117647059,284.59615747868094
0.24562451171875,0.0284477539062499,0.99292919921875,1.0232541571479554,-0.36376953125,-1.73681640625,-0.69189453125,41.94176470588236,284.68494679645545
0.30177685546875,0.0177055664062499,0.99292919921875,1.0379263712997957,-0.3193359375,-1.45751953125,-0.56494140625,42.13,284.68494679645545
0.27394482421875,0.0211235351562499,1.01392529296875,1.050493441281527,-0.26806640625,-0.96435546875,-0.42236328125,41.80058823529412,284.68494679645545
0.23683544921875,0.0255180664062499,1.01734326171875,1.0448586095182,-0.201171875,-0.0830078125,-0.517578125,41.98882352941177,284.68494679645545
0.26613232421875,0.03821337890625,1.00025341796875,1.0357574892221024,-0.3095703125,0.7275390625,-0.9326171875,41.89470588235295,284.8498631229944
0.24904248046875,0.05383837890625,0.96265576171875,0.995804621244342,-0.37255859375,1.38818359375,-0.91845703125,42.224117647058826,284.8498631229944
0.26759716796875,0.03479541015625,0.93726513671875,0.9753383522559,-0.12451171875,1.5146484375,-0.50341796875,41.98882352941177,284.8498631229944
0.17482373046875,0.00989306640625,0.90845654296875,0.9251780909428524,-0.1337890625,0.9306640625,-0.3125,42.31823529411765,284.8498631229944
0.29835888671875,0.01428759765625,0.8894135742187499,0.9382316700769648,-0.29443359375,-0.1162109375,-0.34716796875,42.224117647058826,284.8498631229944
0.26369091796875,0.0245415039062499,0.8781831054687499,0.9172462877351536,-0.5029296875,-1.24755859375,-0.27587890625,41.94176470588236,284.78341895414684
0.23439404296875,0.06604541015625,0.8772065429687499,0.9103811743490354,-0.61181640625,-2.03076171875,0.05126953125,41.94176470588236,284.78341895414684
0.21730419921875,0.07971728515625,0.8610932617187499,0.8916600057915688,-0.541015625,-2.26220703125,0.42431640625,42.31823529411765,284.78341895414684
0.23292919921875,0.06360400390625,0.8191010742187499,0.8539485060282642,-0.5634765625,-2.0341796875,0.501953125,41.98882352941177,284.78341895414684
0.24513623046875,0.04407275390625,0.7990815429687499,0.8369979040825771,-0.560546875,-1.5595703125,0.41845703125,41.98882352941177,284.564128501788
0.22658154296875,0.04358447265625,0.7756440429687499,0.8092357402288475,-0.40380859375,-1.1201171875,0.63720703125,42.08294117647059,284.564128501788
0.23537060546875,0.0299125976562499,0.7141206054687499,0.7525040362498561,-0.189453125,-0.39990234375,0.978515625,41.37705882352941,284.564128501788
0.21242138671875,0.04651416015625,0.6325776367187499,0.6689102175234257,-0.11474609375,0.40869140625,1.12548828125,41.89470588235295,284.564128501788
0.16408154296875,0.07532275390625,0.5378510742187499,0.5673447347400788,-0.1259765625,1.8330078125,1.3955078125,41.80058823529412,284.564128501788
0.11622998046875,0.11096728515625,0.4455659179687499,0.4736582459854882,-0.111328125,3.466796875,1.341796875,41.98882352941177,284.62997505760904
0.11281201171875,0.11487353515625,0.3669526367187499,0.4007202473823458,-0.02734375,4.78662109375,0.9658203125,41.89470588235295,284.62997505760904
0.09376904296875,0.11438525390625,0.2722260742187499,0.3098122902904675,0.1103515625,5.591796875,0.630859375,42.224117647058826,284.62997505760904
0.10792919921875,0.07239306640625,0.1862885742187499,0.2271407074748052,0.1455078125,5.72900390625,0.51220703125,42.08294117647059,284.62997505760904
0.14796826171875,0.0201469726562499,0.0832612304687498,0.1709764296107813,0.09326171875,5.23681640625,0.5830078125,42.13,284.6970160343376
0.16896435546875,-0.04918896484375,-0.0134184570312501,0.1764895539981595,-0.24267578125,4.35546875,0.86669921875,41.89470588235295,284.6970160343376
0.17287060546875,-0.11315380859375,-0.0754301757812501,0.2199494079391747,-0.759765625,2.630859375,1.29345703125,42.224117647058826,284.6970160343376
0.16310498046875,-0.15319287109375,-0.0993559570312501,0.2448323847150397,-1.2275390625,0.0205078125,1.75537109375,41.14176470588235,284.6970160343376
0.12599560546875,-0.16491162109375,-0.1027739257812501,0.2315884608301877,-1.45947265625,-3.3388671875,2.60888671875,41.98882352941177,284.6970160343376
0.12160107421875,-0.17321240234375,-0.0920317382812501,0.2307795450812649,-1.623046875,-7.26123046875,3.3154296875,41.98882352941177,284.6408500806858
0.16945263671875,-0.18932568359375,-0.0783598632812501,0.2658922314258797,-1.91259765625,-10.58740234375,3.46240234375,42.08294117647059,284.6408500806858
0.21535107421875,-0.18346630859375,-0.0344145507812501,0.2849918119203811,-2.03759765625,-12.6435546875,3.263671875,42.506470588235295,284.6408500806858
0.26906201171875,-0.17321240234375,0.0144135742187498,0.3203196116343695,-1.9677734375,-13.28466796875,3.2783203125,41.94176470588236,284.6408500806858
0.32228466796875,-0.16393505859375,0.0324799804687498,0.3630386477706114,-1.7939453125,-12.59033203125,3.63330078125,42.08294117647059,284.59615747868094
0.36720654296875,-0.11608349609375,0.0520112304687498,0.3886144507854559,-1.4267578125,-10.6611328125,4.828125,41.98882352941177,284.59615747868094
0.46779248046875,-0.07604443359375,0.0905854492187498,0.4825124705889608,-1.11083984375,-9.166015625,6.06689453125,42.08294117647059,284.59615747868094
0.57179638671875,-0.03600537109375,0.1804291992187499,0.6006681201320212,-0.685546875,-9.103515625,6.99169921875,41.94176470588236,284.59615747868094
0.55714794921875,-0.03209912109375,0.2800385742187499,0.6243923397545171,-0.1171875,-11.02734375,7.14453125,41.98882352941177,284.59615747868094
0.76076123046875,-0.04674755859375,0.3713471679687499,0.8478453297490136,0.3330078125,-14.59326171875,6.697265625,41.94176470588236,284.62997505760904
0.80128857421875,-0.11022412109375,0.4621674804687499,0.9315640160757817,0.4658203125,16.0,5.93798828125,42.224117647058826,284.62997505760904
0.83595654296875,-0.15270458984375,0.5500581054687499,1.012277606629467,0.42578125,16.0,5.42431640625,41.94176470588236,284.62997505760904
0.87599560546875,-0.22448193359375,0.5861909179687499,1.07767352738183,0.02734375,16.0,4.83056640625,41.98882352941177,284.62997505760904
0.86134716796875,-0.23375927734375,0.6081635742187499,1.0800117020285396,-0.60791015625,16.0,4.40869140625,42.13,284.7519882610843
0.77101513671875,-0.12731396484375,0.7224213867187499,1.0642207697100776,-0.77587890625,16.0,4.6630859375,41.94176470588236,284.7519882610843
0.56886669921875,-0.06090771484375,0.8913666992187499,1.0591759361332058,-0.60888671875,16.0,5.794921875,41.80058823529412,284.7519882610843
0.46437451171875,-0.01500927734375,0.94898388671875,1.056616951781597,0.1513671875,-12.04443359375,6.6318359375,42.224117647058826,284.7519882610843
0.59425732421875,-0.00622021484375,0.91968701171875,1.0949907113690485,0.66259765625,-5.34912109375,6.00341796875,41.89470588235295,284.7519882610843
0.74074169921875,0.0225883789062499,0.8415620117187499,1.1213541453935072,1.1845703125,0.78076171875,4.36328125,42.08294117647059,284.38834000662786
0.83449169921875,0.0294243164062499,0.7243745117187499,1.1054232762560905,1.564453125,5.27099609375,2.916015625,41.94176470588236,284.38834000662786
0.86085888671875,-0.05065380859375,0.6115815429687499,1.057201879901722,1.49462890625,8.35888671875,2.173828125,42.08294117647059,284.38834000662786
0.89113232421875,-0.10827099609375,0.5393159179687499,1.0472349723138163,1.63671875,9.673828125,1.66455078125,41.80058823529412,284.38834000662786
0.96242138671875,-0.19762646484375,0.4514252929687499,1.081247400159742,1.95361328125,9.572265625,1.37353515625,41.98882352941177,284.2113627111334
0.95851513671875,-0.28551708984375,0.4133393554687499,1.0821833017983271,2.5634765625,9.142578125,0.63037109375,42.08294117647059,284.2113627111334
0.87843701171875,-0.36217724609375,0.3928315429687499,1.0281734106154607,3.76220703125,9.10546875,0.56640625,41.98882352941177,284.2113627111334
0.91212841796875,-0.51549755859375,0.3928315429687499,1.1189426280795187,4.5166015625,6.92138671875,1.408203125,41.98882352941177,284.2113627111334
1.06251904296875,-0.56676708984375,0.5183198242187499,1.3110404612289197,3.650390625,-0.71728515625,4.220703125,42.08294117647059,284.2113627111334
1.20021435546875,-0.57848583984375,0.6071870117187499,1.4641845625374357,2.47021484375,-11.76953125,7.4716796875,42.224117647058826,284.3774650543227
1.20997998046875,-0.51354443359375,0.6560151367187499,1.4690593241984484,1.87158203125,16.0,10.2783203125,42.224117647058826,284.3774650543227
1.24513623046875,-0.42272412109375,0.7160737304687499,1.4972713523098755,1.19921875,16.0,11.6650390625,42.506470588235295,284.3774650543227
1.14699169921875,-0.33629833984375,0.8010346679687499,1.4388686773803172,1.82861328125,16.0,11.6142578125,42.13,284.3774650543227
1.12990185546875,-0.36364208984375,0.8073823242187499,1.435541706102099,2.4091796875,16.0,9.53857421875,41.98882352941177,284.1569876583011
1.13771435546875,-0.39782177734375,0.8581635742187499,1.4795610299289832,2.98681640625,-12.4619140625,6.3388671875,42.08294117647059,284.1569876583011
1.06740185546875,-0.36754833984375,0.92945263671875,1.462299800685025,4.26123046875,-1.48193359375,3.46728515625,41.98882352941177,284.1569876583011
1.10402294921875,-0.47887646484375,0.91382763671875,1.5110494004544952,5.3251953125,7.8662109375,2.27392578125,42.31823529411765,284.1569876583011
1.14357373046875,-0.60875927734375,0.8903901367187499,1.571987064303117,5.4296875,13.88232421875,2.99365234375,42.08294117647059,284.1569876583011
1.20314404296875,-0.75182568359375,0.8244721679687499,1.6408996929725748,5.04443359375,15.99951171875,4.7138671875,41.89470588235295,283.83804594839256
1.19386669921875,-0.74059521484375,0.8293549804687499,1.631449861743,5.05859375,15.99951171875,6.5869140625,41.89470588235295,283.83804594839256
1.11622998046875,-0.67418896484375,0.8381440429687499,1.550156626402105,5.7021484375,15.99951171875,8.2724609375,41.94176470588236,283.83804594839256
1.07960888671875,-0.61120068359375,0.8747651367187499,1.518003843317315,6.29833984375,15.82470703125,9.6787109375,42.13,283.83804594839256
1.07374951171875,-0.54821240234375,0.91724560546875,1.5148644667928195,6.794921875,13.4970703125,9.71435546875,42.224117647058826,283.8495152327445
1.07912060546875,-0.61510693359375,0.92408154296875,1.548155198601824,7.7724609375,11.44580078125,8.43896484375,42.27117647058824,283.8495152327445
0.99904248046875,-0.48180615234375,0.92701123046875,1.44553549511336,9.08056640625,10.57421875,6.96630859375,42.224117647058826,283.8495152327445
0.79054638671875,-0.54284130859375,0.92261669921875,1.3307373330402763,10.126953125,11.27685546875,6.23876953125,41.80058823529412,283.8495152327445
0.60792919921875,-0.61950146484375,0.93580029296875,1.2763550307522984,10.9912109375,13.19580078125,5.99462890625,42.31823529411765,283.8495152327445
0.52638623046875,-0.68737255859375,0.92164013671875,1.2645094066655946,11.47900390625,15.2783203125,5.060546875,41.98882352941177,284.14611268867566
0.53224560546875,-0.77819287109375,0.8361909179687499,1.2601923585133148,12.0791015625,15.99951171875,3.7802734375,42.13,284.14611268867566
0.59328076171875,-0.95348583984375,0.7082612304687499,1.3276864387321388,12.6650390625,15.99951171875,2.484375,41.98882352941177,284.14611268867566
0.68507763671875,-1.10338818359375,0.5583588867187499,1.413704883773224,12.93408203125,15.99951171875,1.75634765625,42.08294117647059,284.14611268867566
0.77101513671875,-1.04430615234375,0.4143159179687499,1.3626068254469916,12.88330078125,15.99951171875,2.0771484375,42.27117647058824,283.8168905995076
1.21925732421875,-0.97301708984375,0.2839448242187499,1.585552062528911,12.13720703125,15.99951171875,2.3740234375,41.98882352941177,283.8168905995076
1.64796826171875,-0.40123974609375,0.2248627929687499,1.7109517822368352,10.1474609375,15.99951171875,3.4033203125,41.98882352941177,283.8168905995076
2.27345654296875,-0.01989208984375,0.4533784179687499,2.318308076569121,8.72265625,14.1669921875,5.80712890625,42.41235294117647,283.8168905995076
2.80568310546875,0.23352587890625,0.8581635742187499,2.9432697369673075,8.46142578125,-4.578125,10.65283203125,41.98882352941177,283.8168905995076
1.05958935546875,1.98743212890625,5.83033154296875,6.250230553361042,15.99951171875,16.0,15.99951171875,42.08294117647059,284.06879798593644
2.78273388671875,2.04016650390625,4.60035107421875,5.750575384604527,15.99951171875,16.0,15.99951171875,42.224117647058826,284.06879798593644
1.76369091796875,0.07922900390625,2.34400341796875,2.9344905712294618,-8.37841796875,16.0,-12.78759765625,42.13,284.06879798593644
0.60304638671875,2.84094775390625,6.13843701171875,6.790806876343792,-9.80517578125,16.0,16.0,42.13,284.06879798593644
-0.75193408203125,-0.00182568359375,3.17017529296875,3.2581313026012726,8.30517578125,15.99951171875,-15.25830078125,42.224117647058826,284.06998828349055
0.73292919921875,-0.22204052734375,2.70533154296875,2.811637594753671,14.2919921875,15.99951171875,-7.93994140625,42.13,284.06998828349055
1.48146435546875,0.13245166015625,2.53003857421875,2.9348552376288395,15.99951171875,15.99951171875,-6.4033203125,41.98882352941177,284.06998828349055
0.70656201171875,-0.01159130859375,1.61988232421875,1.7673095312240306,15.99951171875,15.99951171875,-7.44775390625,42.224117647058826,284.06998828349055
-0.01951220703125,-0.40905224609375,0.7483002929687499,0.8530286013462204,15.99951171875,15.99951171875,-11.96875,42.13,284.06998828349055
0.70363232421875,-0.55309521484375,0.7751557617187499,1.18400980540463,15.99951171875,15.99951171875,16.0,42.224117647058826,283.9479841062096
3.18214794921875,-0.96715771484375,1.05103466796875,3.48799849331548,13.58935546875,15.99951171875,-15.22509765625,42.13,283.9479841062096
4.78712841796875,-1.73620068359375,-0.3278715820312501,5.102792478451292,0.75048828125,15.99951171875,-5.70263671875,42.08294117647059,283.9479841062096
3.86037060546875,-1.45934521484375,-1.85228564453125,4.523617112067628,-7.78662109375,15.99951171875,8.21484375,42.31823529411765,283.9479841062096
2.78175732421875,0.01428759765625,-1.95824267578125,3.4019247968675552,1.82275390625,16.0,15.99951171875,41.94176470588236,284.1140834447864
2.59572216796875,0.45618212890625,-1.17992236328125,2.887575538646398,6.7080078125,16.0,15.99951171875,42.08294117647059,284.1140834447864
0.97511669921875,1.06506884765625,-0.5475981445312501,1.5443729974449665,4.4970703125,16.0,15.99951171875,42.27117647058824,284.1140834447864
-0.01853564453125,1.64465869140625,0.2238862304687499,1.6599309701098457,2.8603515625,16.0,15.99951171875,42.27117647058824,284.1140834447864
-0.47263720703125,2.02161181640625,0.8674409179687499,2.250056446374212,1.15185546875,16.0,15.99951171875,41.94176470588236,284.1140834447864
-1.84617236328125,2.60266650390625,1.85816357421875,3.692559707581241,-1.99365234375,16.0,1.89453125,42.27117647058824,283.6628591934592
-0.77097705078125,2.35168994140625,2.60914013671875,3.5961734449800145,-1.56298828125,16.0,-13.1806640625,42.08294117647059,283.6628591934592
0.28468701171875,1.90833056640625,3.00708935546875,3.5728642063609435,5.064453125,16.0,-15.81689453125,41.89470588235295,283.6628591934592
0.05177685546875,1.14026416015625,2.52124951171875,2.7675950386646355,12.771484375,-8.634765625,-11.85693359375,41.94176470588236,283.6628591934592
0.38136669921875,0.60803759765625,2.16138623046875,2.2774417043464585,14.4794921875,14.96728515625,-8.3505859375,42.08294117647059,283.86039013779146
0.25734326171875,0.53674853515625,1.99537060546875,2.08226520825594,13.6845703125,15.99951171875,-6.28271484375,41.98882352941177,283.86039013779146
-0.20798876953125,0.68616259765625,1.93433544921875,2.0629425752496844,15.99951171875,15.99951171875,-5.35595703125,41.94176470588236,283.86039013779146
-0.81443408203125,0.73645556640625,1.68384716796875,2.010226594277674,15.99951171875,15.99951171875,-1.8046875,41.98882352941177,283.86039013779146
-1.10300830078125,0.49036181640625,1.31812451171875,1.7873260057905973,15.99951171875,15.99951171875,-2.68212890625,41.94176470588236,283.86039013779146
-2.13669970703125,1.88098681640625,0.1794526367187499,2.8523324298452417,15.99951171875,15.99951171875,0.767578125,42.13,283.6948899722293
-1.28123095703125,3.65979541015625,-0.6257231445312501,3.9277454936716616,15.99951171875,15.99951171875,2.40185546875,41.89470588235295,283.6948899722293
-0.45212939453125,3.75061572265625,-1.59740283203125,4.10161371855236,15.99951171875,15.99951171875,7.6689453125,41.98882352941177,283.6948899722293
0.46730419921875,2.89124072265625,-1.58519580078125,3.330239009105476,11.41357421875,15.99951171875,14.54052734375,41.98882352941177,283.6948899722293
1.32277294921875,2.00256884765625,-1.00853564453125,2.60329683499178,6.6044921875,15.99951171875,14.490234375,42.224117647058826,283.8597958664026
1.39894482421875,1.00647509765625,-0.8205473632812501,1.9087526604561416,10.19091796875,15.98583984375,6.623046875,41.89470588235295,283.8597958664026
0.87746044921875,-0.44274365234375,-1.37767626953125,1.6923210940195113,10.35693359375,9.9873046875,-1.2939453125,42.224117647058826,283.8597958664026
0.59901806640625,-0.28161083984375,-1.22850634765625,2.044438355332301,3.7685546875,-0.6533203125,-7.0126953125,42.224117647058826,283.8597958664026
0.32057568359375,-0.12047802734375,-1.07933642578125,2.040515858008518,-3.30908203125,-13.123046875,-10.7412109375,41.94176470588236,283.8597958664026
0.0421333007812499,0.0406547851562499,-0.93016650390625,1.2199318292796644,-7.1201171875,16.0,-8.529296875,41.98882352941177,283.79454627614564
-0.23630908203125,0.20178759765625,-0.7809965820312501,0.8405449886608258,-5.44140625,-11.5302734375,-0.025390625,42.224117647058826,283.79454627614564
-0.15769580078125,0.46643603515625,-0.7834379882812501,0.9253137964812232,-2.62548828125,-7.77294921875,9.4228515625,41.94176470588236,283.79454627614564
0.00880810546875,0.88001025390625,-0.7438872070312501,1.1523297299327329,-1.5654296875,-10.759765625,15.99951171875,41.80058823529412,283.79454627614564
0.16066357421875,1.29700244140625,-0.7741606445312501,1.5189973076459211,-0.84375,16.0,15.99951171875,41.89470588235295,284.0808631575714
0.06959912109375,1.34082568359375,-0.5395415039062501,2.1285018194616816,-0.8935546875,16.0,15.99951171875,42.36529411764706,284.0808631575714
-0.02146533203125,1.38464892578125,-0.3049223632812501,2.3552353088700486,-1.39111328125,16.0,6.23486328125,42.08294117647059,284.0808631575714
-0.11252978515625,1.42847216796875,-0.0703032226562501,1.8232765258107384,-3.43505859375,16.0,-1.3818359375,42.13,284.0808631575714
-0.20359423828125,1.47229541015625,0.1643159179687499,1.4953608626436616,-5.06689453125,16.0,-7.36181640625,41.94176470588236,284.0808631575714
-0.76755908203125,1.04407275390625,0.3513276367187499,1.3426339665673657,-3.50634765625,16.0,-10.6123046875,41.98882352941177,283.5746722994609
-1.11179736328125,0.84094775390625,0.3234956054687499,1.431061112795921,0.8671875,-9.46630859375,-10.45361328125,42.224117647058826,283.5746722994609
-1.09812548828125,0.64612353515625,0.1809174804687499,1.2868901839064997,4.43994140625,7.71533203125,-6.89501953125,41.94176470588236,283.5746722994609
-0.78513720703125,0.50647509765625,0.1081635742187498,0.9405619688242316,4.69970703125,15.99951171875,-0.931640625,41.98882352941177,283.5746722994609
-0.44968798828125,0.47961962890625,0.1530854492187499,0.6750477242381556,2.732421875,15.99951171875,4.23583984375,41.94176470588236,283.6628591934592
-0.17429736328125,0.72620166015625,0.0598237304687498,0.7492177926262077,1.3486328125,15.99951171875,5.9326171875,41.98882352941177,283.6628591934592
-0.18308642578125,0.95715869140625,-0.0309965820312501,0.9750047117514348,1.72998046875,15.99951171875,3.7314453125,42.13,283.6628591934592
-0.21531298828125,1.07922900390625,-0.3220122070312501,1.1466415251822233,0.78271484375,11.86328125,0.197265625,42.31823529411765,283.6628591934592
-0.24119189453125,1.03821337890625,-0.3864653320312501,1.1337618810797665,-0.017578125,6.62939453125,-2.14990234375,42.08294117647059,283.6628591934592
-0.24168017578125,0.90588916015625,-0.4001372070312501,1.019389161363324,-0.23876953125,3.41748046875,-2.625,42.08294117647059,283.8724548325697
-0.27390673828125,0.80335009765625,-0.4094145507812501,0.9423463031559004,-0.2939453125,1.85888671875,-1.4140625,42.224117647058826,283.8724548325697
-0.27683642578125,0.79846728515625,-0.4011137695312501,0.9354574646726052,-0.23486328125,0.4033203125,0.3681640625,42.08294117647059,283.8724548325697
-0.13084033203125,0.78626025390625,-0.3596098632812501,0.8744390391147504,-0.59326171875,-1.72021484375,1.458984375,42.08294117647059,283.8724548325697
-0.22068408203125,0.76184619140625,-0.3425200195312501,0.8639624107574774,-0.92041015625,-4.46142578125,1.3603515625,41.98882352941177,283.5202981653769
-0.56834033203125,0.90442431640625,-0.3464262695312501,1.122944895060146,-1.3486328125,-6.6884765625,1.19140625,41.98882352941177,283.5202981653769
-0.71140673828125,1.11780322265625,-0.2907622070312501,1.356512533259589,-1.12255859375,-6.541015625,1.2275390625,42.224117647058826,283.5202981653769
-0.53513720703125,1.17737353515625,-0.2409575195312501,1.3155382160371416,0.0732421875,-3.50634765625,1.044921875,41.80058823529412,283.5202981653769
-0.43552783203125,1.04846728515625,-0.2448637695312501,1.1614329107382015,1.0009765625,0.7626953125,0.703125,42.08294117647059,283.5202981653769
-0.21726611328125,0.86389697265625,-0.2795317382812501,0.9336276217269452,1.4716796875,4.466796875,0.419921875,42.13,283.54264200577734
-0.16941455078125,0.70276416015625,-0.2585356445312501,0.767736565697975,1.1162109375,5.4794921875,0.55029296875,41.80058823529412,283.54264200577734
-0.14011767578125,0.64172900390625,-0.2321684570312501,0.6966715653456217,-0.048828125,3.1826171875,1.3974609375,42.41235294117647,283.54264200577734
-0.12498095703125,0.66663134765625,-0.2092192382812501,0.7097818559004039,-1.30322265625,-1.28857421875,2.1591796875,41.94176470588236,283.54264200577734
-0.20896533203125,0.76086962890625,-0.2160551757812501,0.8180885900467821,-2.67529296875,-6.3486328125,2.314453125,41.89470588235295,283.4653301709082
-0.34763720703125,0.89124072265625,-0.1574614257812501,0.9695131531043748,-3.90869140625,-9.58837890625,1.2724609375,41.18882352941176,283.4653301709082
-0.40720751953125,0.94690478515625,-0.0222075195312501,1.030989723536723,-4.60791015625,-11.177734375,-0.2548828125,42.224117647058826,283.4653301709082
-0.45359423828125,0.98743212890625,0.1110932617187498,1.092296505074326,-4.87646484375,-11.63330078125,-1.171875,41.98882352941177,283.4653301709082
-0.46238330078125,1.00061572265625,0.2375581054687499,1.127592122508026,-4.5361328125,-11.36767578125,-0.859375,42.08294117647059,283.4653301709082
-0.50486376953125,0.97717822265625,0.2971284179687499,1.139319973222423,-3.71923828125,-9.478515625,-0.23291015625,42.224117647058826,283.2345852940573
-0.52488330078125,0.95227587890625,0.3230073242187499,1.1343128142116037,-2.61669921875,-5.59716796875,0.76904296875,42.224117647058826,283.2345852940573
-0.49558642578125,0.96057666015625,0.3400971679687499,1.1331281962408024,-1.5693359375,-2.27392578125,0.99951171875,41.98882352941177,283.2345852940573
-0.42771533203125,0.98889697265625,0.3410737304687499,1.130127832326577,-0.8076171875,0.748046875,1.34765625,42.08294117647059,283.2345852940573
-0.39597705078125,1.01917041015625,0.3015229492187499,1.1342055539403113,-0.38232421875,2.99072265625,1.72998046875,42.08294117647059,283.7745821498448
-0.34226611328125,1.04260791015625,0.2541596679687499,1.1263989006755208,0.04443359375,4.595703125,1.56787109375,42.224117647058826,283.7745821498448
-0.34177783203125,1.03479541015625,0.1716401367187499,1.1032107522505634,0.4189453125,6.0400390625,0.82275390625,41.94176470588236,283.7745821498448
-0.33738330078125,1.01477587890625,0.0627534179687498,1.0712308656507077,0.490234375,6.9326171875,-0.06591796875,41.98882352941177,283.7745821498448
-0.32664111328125,0.97083056640625,-0.0065825195312501,1.0243289193992688,0.421875,7.02685546875,-0.6123046875,41.98882352941177,283.7745821498448
-0.30222705078125,0.90393603515625,-0.0588286132812501,0.9549357840287108,0.08349609375,5.87841796875,-0.68115234375,42.08294117647059,283.6525788748182
-0.28464892578125,0.85950244140625,-0.0978911132812501,0.910687722433528,-0.32080078125,3.7900390625,-0.478515625,41.80058823529412,283.6525788748182
-0.24460986328125,0.86047900390625,-0.1086333007812501,0.9011433267891372,-0.66064453125,1.251953125,-0.2275390625,42.224117647058826,283.6525788748182
-0.20554736328125,0.90491259765625,-0.0930083007812501,0.9326130344162428,-0.83447265625,-1.56201171875,-0.10107421875,42.224117647058826,283.6525788748182
-0.18210986328125,0.93860400390625,-0.0334379882812501,0.9566919972036226,-0.9755859375,-4.28369140625,-0.07080078125,42.27117647058824,283.6640485696874
-0.27000048828125,0.97864306640625,0.0232026367187498,1.0154707664171547,-1.21435546875,-6.5,0.09375,42.224117647058826,283.6640485696874
-0.38621142578125,1.04553759765625,0.1008393554687498,1.119141058637445,-1.07568359375,-6.8515625,0.4130859375,41.94176470588236,283.6640485696874
-0.41453173828125,1.06848681640625,0.2058198242187499,1.164415062989944,-0.1044921875,-5.9951171875,0.58056640625,42.224117647058826,283.6640485696874
-0.37986376953125,1.00110400390625,0.2331635742187499,1.0958425810225108,0.9716796875,-4.1083984375,0.36669921875,42.224117647058826,283.6640485696874
-0.39597705078125,0.94592822265625,0.2233979492187499,1.049516398575159,1.40966796875,-1.84619140625,0.169921875,41.98882352941177,283.7969275303452
-0.47605517578125,0.90588916015625,0.1975190429687499,1.0422463591742614,1.6904296875,0.85302734375,0.306640625,41.80058823529412,283.7969275303452
-0.52585986328125,0.91028369140625,0.1140229492187498,1.0574243365834293,1.78955078125,3.572265625,0.83349609375,41.18882352941176,283.7969275303452
-0.46140673828125,0.92688525390625,0.0476166992187498,1.036474699201425,1.87255859375,5.95068359375,1.208984375,42.224117647058826,283.7969275303452
-0.35691455078125,0.93762744140625,-0.0202543945312501,1.0034657223519097,1.70751953125,6.685546875,1.17529296875,41.98882352941177,283.7969275303452
-0.27830126953125,0.94446337890625,-0.0832426757812501,0.9881255050796628,1.43212890625,6.04541015625,0.73681640625,42.224117647058826,283.7969275303452
-0.25339892578125,0.92786181640625,-0.1437895507812501,0.9725296914982444,1.09521484375,4.64013671875,0.2001953125,41.98882352941177,283.7969275303452
-0.28123095703125,0.88586962890625,-0.1696684570312501,0.94479798683241,0.75927734375,2.92236328125,-0.03271484375,41.94176470588236,283.7969275303452
-0.30466845703125,0.84778369140625,-0.1804106445312501,0.9187535342976328,0.42431640625,1.18798828125,0.0,42.08294117647059,283.7969275303452
-0.32761767578125,0.83264697265625,-0.1638090820312501,0.9096525369138742,0.2177734375,-0.31982421875,0.37841796875,42.13,283.5764557903836
-0.33640673828125,0.84387744140625,-0.1393950195312501,0.919091726187058,0.162109375,-1.44580078125,1.03662109375,41.94176470588236,283.5764557903836
-0.34812548828125,0.88684619140625,-0.1061918945312501,0.958626226047966,0.13525390625,-2.27587890625,1.47314453125,41.98882352941177,283.5764557903836
-0.34324267578125,0.91418994140625,-0.0808012695312501,0.9798406138774288,0.1513671875,-2.59716796875,1.375,42.224117647058826,283.5764557903836
-0.32859423828125,0.93323291015625,-0.0417387695312501,0.9902726709913392,0.201171875,-2.46923828125,0.75,41.98882352941177,283.49914307814595
-0.34666064453125,0.92297900390625,-0.0173247070312501,0.9860851837403874,0.15576171875,-2.11669921875,0.10205078125,42.08294117647059,283.49914307814595
-0.38084033203125,0.89661181640625,0.0036713867187498,0.974148647230712,0.09130859375,-1.259765625,-0.13427734375,42.224117647058826,283.49914307814595
-0.41404345703125,0.87756884765625,0.0109956054687498,0.9704019631197844,0.048828125,-0.38037109375,0.048828125,42.08294117647059,283.49914307814595
-0.41746142578125,0.89514697265625,-0.0016997070312501,0.9877069573891616,0.1376953125,0.87109375,0.42333984375,41.80058823529412,283.49914307814595
-0.39793017578125,0.94104541015625,-0.0109770507812501,1.021780497179945,0.28662109375,2.21435546875,0.63037109375,42.08294117647059,283.87364641517115
-0.29050830078125,0.94251025390625,-0.0554106445312501,0.9878213356010294,0.33642578125,3.015625,0.3017578125,42.224117647058826,283.87364641517115
-0.26365283203125,0.95325244140625,-0.0749418945312501,0.991876665942398,0.18359375,3.0126953125,-0.23681640625,42.08294117647059,283.87364641517115
-0.30369189453125,0.96594775390625,-0.0915434570312501,1.01669269428168,0.0107421875,2.416015625,-0.40869140625,42.224117647058826,283.87364641517115
-0.31443408203125,0.96594775390625,-0.1110747070312501,1.0218911124779595,-0.1611328125,1.7021484375,-0.3173828125,41.80058823529412,283.6422991430211
-0.33103564453125,0.96252978515625,-0.1130278320312501,1.024120830799199,-0.2939453125,1.04052734375,0.04833984375,42.224117647058826,283.6422991430211
-0.32517626953125,0.96204150390625,-0.1149809570312501,1.022000040109726,-0.337890625,0.5302734375,0.3662109375,41.98882352941177,283.6422991430211
-0.32566455078125,0.97473681640625,-0.1120512695312501,1.0337914431339184,-0.3271484375,0.255859375,0.59619140625,41.80058823529412,283.6422991430211
-0.29734423828125,0.97668994140625,-0.1052153320312501,1.02635622654985,-0.26220703125,0.11572265625,0.6162109375,41.89470588235295,283.6422991430211
-0.27097705078125,0.98206103515625,-0.0905668945312501,1.022777982363379,-0.26318359375,-0.16650390625,0.451171875,41.98882352941177,283.8078021847864
-0.27878955078125,0.97278369140625,-0.0739653320312501,1.0146440726842465,-0.30712890625,-0.646484375,0.22119140625,42.224117647058826,283.8078021847864
-0.29539111328125,0.97180712890625,-0.0539458007812501,1.0171406761212902,-0.33935546875,-1.10693359375,0.08837890625,41.98882352941177,283.8078021847864
-0.32224658203125,0.96008837890625,-0.0324614257812501,1.013245428859862,-0.34619140625,-1.33740234375,0.1298828125,41.98882352941177,283.8078021847864
-0.33005908203125,0.94397509765625,-0.1457426757812501,1.0105785027252048,-0.28125,-1.205078125,0.2802734375,42.506470588235295,283.6875851377477
-0.32664111328125,0.94153369140625,-0.0065825195312501,0.9966059594955636,-0.19384765625,-0.78271484375,0.4169921875,42.08294117647059,283.6875851377477
-0.31638720703125,0.95032275390625,-0.0051176757812501,1.0016188855899213,-0.1005859375,-0.29296875,0.552734375,41.80058823529412,283.6875851377477
-0.30369189453125,0.96106494140625,-0.0041411132812501,1.007914548572143,0.02294921875,0.16552734375,0.46044921875,41.98882352941177,283.6875851377477
-0.29294970703125,0.97424853515625,-0.0129301757812501,1.0174217063487137,0.134765625,0.48583984375,0.244140625,42.224117647058826,283.6875851377477
-0.29783251953125,0.96741259765625,-0.0231840820312501,1.01248646680041,0.22021484375,0.5966796875,0.1220703125,41.98882352941177,283.6767105726529
-0.29978564453125,0.94690478515625,-0.0412504882812501,0.9940833504300646,0.21728515625,0.5205078125,0.0966796875,41.98882352941177,283.6767105726529
-0.31052783203125,0.94543994140625,-0.0495512695312501,0.9963631594877644,0.16650390625,0.287109375,0.17431640625,41.89470588235295,283.6767105726529
-0.31150439453125,0.94983447265625,-0.0568754882812501,1.0012269145531836,0.11376953125,0.06982421875,0.2109375,42.13,283.6767105726529
-0.28611376953125,0.95960009765625,-0.0558989257812501,1.0029048441605832,0.12353515625,-0.14501953125,0.103515625,42.13,283.764900273893
-0.26609423828125,0.95618212890625,-0.0407622070312501,0.9933538970619816,0.09814453125,-0.482421875,-0.0107421875,41.94176470588236,283.764900273893
-0.28025439453125,0.94788134765625,-0.0388090820312501,0.989205600336358,0.04443359375,-0.74169921875,-0.12353515625,42.224117647058826,283.764900273893
-0.28806689453125,0.94348681640625,-0.0207426757812501,0.9867016606126926,0.0615234375,-0.8251953125,-0.109375,42.08294117647059,283.764900273893
-0.33152392578125,0.95471728515625,-0.0187895507812501,1.0108146492607304,0.10888671875,-0.6044921875,0.01220703125,42.08294117647059,283.764900273893
-0.35056689453125,0.97376025390625,-0.0158598632812501,1.0350641114888242,0.19970703125,-0.03515625,0.08056640625,41.94176470588236,283.4671141305711
-0.32810595703125,0.98303759765625,-0.0309965820312501,1.036811084789695,0.28076171875,0.548828125,0.00439453125,42.13,283.4671141305711
-0.28953173828125,0.97571337890625,-0.0446684570312501,1.0187445687228798,0.29541015625,0.9326171875,-0.21875,41.94176470588236,283.4671141305711
-0.27830126953125,0.95667041015625,-0.0593168945312501,0.9980923625937956,0.236328125,0.98974609375,-0.35546875,42.13,283.4671141305711
-0.28806689453125,0.95032275390625,-0.0656645507812501,0.9951922957630552,0.162109375,0.79150390625,-0.33642578125,41.94176470588236,283.7425544628691
-0.29734423828125,0.95129931640625,-0.0681059570312501,0.9990107140652684,0.111328125,0.48779296875,-0.2685546875,42.08294117647059,283.7425544628691
-0.29832080078125,0.95911181640625,-0.0666411132812501,1.0066438369792103,0.0361328125,0.109375,-0.32080078125,42.224117647058826,283.7425544628691
-0.29783251953125,0.96106494140625,-0.0637114257812501,1.0081712042434117,0.0224609375,-0.21484375,-0.38134765625,41.98882352941177,283.7425544628691
-0.31394580078125,0.96204150390625,-0.0617583007812501,1.0138539879005095,0.00439453125,-0.37451171875,-0.7626953125,41.94176470588236,283.7425544628691
-0.32029345703125,0.96106494140625,-0.0515043945312501,1.014340388071607,0.0224609375,-0.4072265625,-0.97216796875,41.235882352941175,283.6773072322906
-0.31931689453125,0.95911181640625,-0.0490629882812501,1.012060241449225,0.01171875,-0.44873046875,-1.14306640625,42.31823529411765,283.6773072322906
-0.32419970703125,0.96643603515625,-0.0344145507812501,1.0199453031379455,0.0439453125,-0.50537109375,-1.33544921875,41.98882352941177,283.6773072322906
-0.32566455078125,0.97034228515625,-0.0241606445312501,1.0238189716653878,0.1337890625,-0.5166015625,-1.3466796875,42.13,283.6773072322906
-0.31931689453125,0.96155322265625,-0.0207426757812501,1.0133992982690818,0.2255859375,-0.3056640625,-1.2314453125,42.08294117647059,283.49005468501497
-0.30955126953125,0.95618212890625,-0.0266020507812501,1.0053924215021044,0.28662109375,0.05615234375,-1.04638671875,41.94176470588236,283.49005468501497
-0.30320361328125,0.94983447265625,-0.0349028320312501,0.9976653568390474,0.31591796875,0.49365234375,-0.89111328125,41.94176470588236,283.49005468501497
-0.31394580078125,0.96057666015625,-0.0490629882812501,1.0117690757698627,0.298828125,0.8095703125,-0.939453125,42.224117647058826,283.49005468501497
-0.33103564453125,0.97913134765625,-0.0568754882812501,1.0351413502901885,0.34716796875,0.98046875,-1.16943359375,42.27117647058824,283.49005468501497
-0.31638720703125,0.97376025390625,-0.0676176757812501,1.0261004078250129,0.36279296875,0.79296875,-1.41259765625,42.08294117647059,283.5667724922584
-0.30271533203125,0.95618212890625,-0.0671293945312501,1.005200075356449,0.33251953125,0.275390625,-1.64794921875,42.27117647058824,283.5667724922584
-0.34763720703125,0.94251025390625,-0.0734770507812501,1.0072616757439063,0.228515625,-0.32177734375,-1.50341796875,41.94176470588236,283.5667724922584
-0.34031298828125,0.90442431640625,-0.0690825195312501,0.9687975374682846,0.11279296875,-0.791015625,-1.33251953125,41.94176470588236,283.5667724922584
-0.36472705078125,0.90784228515625,-0.0705473632812501,0.980907929805467,0.0517578125,-0.83837890625,-1.1357421875,41.98882352941177,283.57824334590055
-0.40671923828125,0.90833056640625,-0.0690825195312501,0.9976258573036108,0.04541015625,-0.50048828125,-0.65625,42.27117647058824,283.57824334590055
-0.40769580078125,0.91858447265625,-0.0602934570312501,1.0068011721986645,0.0693359375,-0.046875,-0.39892578125,41.98882352941177,283.57824334590055
-0.33689501953125,0.92102587890625,-0.0622465820312501,0.9826808030965928,0.140625,0.29443359375,-0.583984375,41.98882352941177,283.57824334590055
-0.32419970703125,0.92200244140625,-0.0666411132812501,0.9796096110071596,0.1572265625,0.4453125,-0.8427734375,41.98882352941177,283.57824334590055
-0.35593798828125,0.92297900390625,-0.0666411132812501,0.9914752297121906,0.14599609375,0.2294921875,-0.76171875,41.98882352941177,283.7099307861644
-0.37742236328125,0.91516650390625,-0.0685942382812501,0.9923117149878746,0.126953125,-0.20068359375,-0.55029296875,42.27117647058824,283.7099307861644
-0.37009814453125,0.91663134765625,-0.0598051757812501,0.9903344501438962,0.09375,-0.37548828125,-0.5224609375,42.08294117647059,283.7099307861644
-0.36765673828125,0.90930712890625,-0.0549223632812501,0.9823580802699864,0.06884765625,-0.54736328125,-0.58447265625,42.08294117647059,283.7099307861644
-0.39255908203125,0.90051806640625,-0.0568754882812501,0.9840072367500656,0.03466796875,-0.39990234375,-0.5537109375,42.13,283.3915882267606
-0.40134814453125,0.90686572265625,-0.0632231445312501,0.9937217608827628,0.033203125,-0.12841796875,-0.3525390625,41.98882352941177,283.3915882267606
-0.40818408203125,0.90930712890625,-0.0544340820312501,0.998206776569868,0.04541015625,0.0625,-0.2998046875,41.94176470588236,283.3915882267606
-0.40769580078125,0.92249072265625,-0.0563872070312501,1.0101408399219884,0.080078125,0.1533203125,-0.36083984375,41.89470588235295,283.3915882267606
-0.39060595703125,0.92590869140625,-0.0505278320312501,1.00619728696698,0.103515625,0.13232421875,-0.4521484375,41.94176470588236,283.3915882267606
-0.38132861328125,0.91565478515625,-0.0583403320312501,0.993598908628656,0.119140625,0.06494140625,-0.51708984375,42.08294117647059,283.8107886102805
-0.39255908203125,0.91077197265625,-0.0617583007812501,0.9936912532455752,0.07470703125,-0.005859375,-0.39306640625,41.89470588235295,283.8107886102805
-0.40378955078125,0.90686572265625,-0.0715239257812501,0.995272380912948,0.05517578125,0.04931640625,-0.2646484375,42.08294117647059,283.8107886102805
-0.39451220703125,0.90735400390625,-0.0764067382812501,0.9923553595139952,0.05322265625,0.21240234375,-0.3134765625,42.224117647058826,283.8107886102805
-0.37644580078125,0.90149462890625,-0.0681059570312501,0.9793071164123114,0.0849609375,0.30126953125,-0.43408203125,41.94176470588236,283.64408695926244
-0.39060595703125,0.90051806640625,-0.0725004882812501,0.9842571424142014,0.091796875,0.267578125,-0.38037109375,41.98882352941177,283.64408695926244
-0.40085986328125,0.90247119140625,-0.0681059570312501,0.989839028676492,0.08984375,0.09765625,-0.22265625,42.08294117647059,283.64408695926244
-0.39207080078125,0.90442431640625,-0.0637114257812501,0.9878066626153332,0.0771484375,-0.00244140625,-0.1220703125,42.224117647058826,283.64408695926244
-0.38865283203125,0.91077197265625,-0.0593168945312501,0.9920055967578508,0.07080078125,-0.2734375,-0.216796875,41.98882352941177,283.64408695926244
-0.37595751953125,0.90247119140625,-0.0549223632812501,0.9791908771014486,0.05810546875,-0.212890625,-0.3330078125,42.08294117647059,283.66643274163226
-0.41355517578125,0.90637744140625,-0.0563872070312501,0.9978614467060974,0.056640625,-0.033203125,-0.3564453125,42.08294117647059,283.66643274163226
-0.42820361328125,0.92639697265625,-0.0558989257812501,1.0221029181434131,0.00048828125,0.23095703125,-0.31640625,42.13,283.66643274163226
-0.39500048828125,0.92542041015625,-0.0568754882812501,1.007801142311031,0.146484375,0.41796875,-0.41259765625,41.98882352941177,283.66643274163226
-0.38132861328125,0.91223681640625,-0.0612700195312501,0.990626839837974,0.1162109375,0.58740234375,-0.47021484375,41.98882352941177,283.65735131801665
-0.38084033203125,0.90002978515625,-0.0695708007812501,0.9797617409306318,0.11376953125,0.67236328125,-0.4697265625,42.224117647058826,283.65735131801665
-0.39744189453125,0.90686572265625,-0.0793364257812501,0.9933074886021828,0.107421875,0.57177734375,-0.45458984375,42.224117647058826,283.65735131801665
-0.40183642578125,0.91565478515625,-0.0778715820312501,1.0029756636889242,0.0869140625,0.32080078125,-0.546875,41.84764705882353,283.65735131801665
-0.39988330078125,0.92004931640625,-0.0710356445312501,1.0057054547218514,0.0341796875,-0.13818359375,-0.6865234375,42.224117647058826,283.65735131801665
-0.40964892578125,0.92639697265625,-0.0534575195312501,1.014337862713815,-0.12353515625,-0.6064453125,-0.83447265625,42.08294117647059,283.60178362105154
-0.42234423828125,0.92395556640625,-0.0383208007812501,1.016630231733731,-0.00048828125,-0.841796875,-0.64306640625,41.89470588235295,283.60178362105154
-0.44285205078125,0.92200244140625,-0.0275786132812501,1.0232140639918712,0.09228515625,-0.5556640625,-0.3076171875,42.08294117647059,283.60178362105154
-0.43406298828125,0.92835009765625,-0.0314848632812501,1.025297946077069,0.1943359375,0.10546875,-0.17333984375,42.224117647058826,283.60178362105154
-0.41257861328125,0.93079150390625,-0.0471098632812501,1.019221896889738,0.27880859375,0.73583984375,-0.216796875,42.08294117647059,283.5909092867186
-0.39695361328125,0.90686572265625,-0.0583403320312501,0.99165578925724,0.318359375,1.1357421875,-0.3603515625,41.94176470588236,283.5909092867186
-0.41062548828125,0.88391650390625,-0.0783598632812501,0.977784201998334,0.3369140625,1.34033203125,-0.38330078125,42.27117647058824,283.5909092867186
-0.40476611328125,0.86780322265625,-0.0920317382812501,0.9619708314519996,0.25732421875,1.22998046875,-0.15869140625,41.94176470588236,283.5909092867186
-0.38035205078125,0.86438525390625,-0.1047270507812501,0.9501564633624366,0.158203125,0.80322265625,0.01171875,42.224117647058826,283.5909092867186
-0.37253955078125,0.87561572265625,-0.1091215820312501,0.9578079819693116,0.0478515625,0.3720703125,0.00048828125,42.08294117647059,283.74434605741067
-0.38767626953125,0.89905322265625,-0.1091215820312501,0.9851381155915436,-0.03466796875,-0.3154296875,0.140625,42.224117647058826,283.74434605741067
-0.39402392578125,0.91614306640625,-0.1022856445312501,1.0025145012863843,-0.07373046875,-0.705078125,0.126953125,42.224117647058826,283.74434605741067
-0.37888720703125,0.91321337890625,-0.0778715820312501,0.9917550979719544,-0.05810546875,-0.80615234375,0.0703125,41.98882352941177,283.74434605741067
-0.39695361328125,0.90442431640625,-0.0666411132812501,0.9899477527543143,-0.05615234375,-0.68701171875,-0.0322265625,42.224117647058826,283.55828636559914
-0.42918017578125,0.90540087890625,-0.0622465820312501,1.0039028896175206,0.005859375,-0.32763671875,0.19775390625,41.235882352941175,283.55828636559914
-0.39011767578125,0.89612353515625,-0.0715239257812501,0.979971868564124,0.0078125,0.09326171875,0.1962890625,41.98882352941177,283.55828636559914
-0.41209033203125,0.91614306640625,-0.0822661132812501,1.0079207673583654,0.06103515625,0.53125,-0.05224609375,41.98882352941177,283.55828636559914
-0.38035205078125,0.90442431640625,-0.0856840820312501,0.9848821191157616,0.0712890625,0.6669921875,-0.21484375,42.08294117647059,283.55828636559914
-0.39109423828125,0.90393603515625,-0.0930083007812501,0.989295508371997,0.03173828125,0.505859375,-0.236328125,41.94176470588236,283.7002506855705
-0.39988330078125,0.89563525390625,-0.1105864257812501,0.9870656107121212,-0.00439453125,0.3203125,-0.08251953125,42.224117647058826,283.7002506855705
-0.41013720703125,0.90149462890625,-0.1149809570312501,0.9970585313902258,-0.0859375,-0.08056640625,0.197265625,42.13,283.7002506855705
-0.39060595703125,0.90979541015625,-0.1032622070312501,0.9954716396817354,-0.1640625,-0.6865234375,0.24462890625,41.94176470588236,283.7002506855705
-0.36326220703125,0.90979541015625,-0.0847075195312501,0.983291657273533,-0.267578125,-1.2685546875,0.05078125,41.94176470588236,283.71232121157453
-0.38279345703125,0.91028369140625,-0.0607817382812501,0.9893642652201536,-0.30126953125,-1.47216796875,-0.01708984375,41.94176470588236,283.71232121157453
-0.42869189453125,0.91467822265625,-0.0368559570312501,1.0108270638477574,-0.25146484375,-1.25244140625,0.107421875,42.224117647058826,283.71232121157453
-0.44041064453125,0.91663134765625,-0.1447661132812501,1.027196082000464,-0.162109375,-0.67431640625,0.1904296875,41.80058823529412,283.71232121157453
-0.43357470703125,0.92883837890625,-0.0124418945312501,1.025125632030509,-0.0380859375,-0.0361328125,0.09033203125,42.08294117647059,283.71232121157453
-0.42136767578125,0.91858447265625,-0.0178129882812501,1.0107746802081865,0.07275390625,0.484375,-0.00537109375,42.13,283.723195513687
-0.39939501953125,0.90637744140625,-0.0261137695312501,0.9908170249221796,0.1142578125,0.75439453125,-0.05029296875,42.13,283.723195513687
-0.38767626953125,0.90149462890625,-0.0602934570312501,0.9831687326523678,0.11865234375,0.85791015625,-0.0595703125,41.98882352941177,283.723195513687
-0.39353564453125,0.90930712890625,-0.0681059570312501,0.99315063287474,0.1357421875,0.912109375,-0.01708984375,42.27117647058824,283.723195513687
-0.38132861328125,0.91174853515625,-0.0891020507812501,0.9922883039318732,0.1328125,0.8583984375,-0.03173828125,41.80058823529412,283.71232121157453
-0.38377001953125,0.91174853515625,-0.0949614257812501,0.9937718508978766,0.0732421875,0.60986328125,-0.04736328125,41.98882352941177,283.71232121157453
-0.39158251953125,0.91370166015625,-0.1003325195312501,0.9991267226184164,0.01513671875,0.20458984375,-0.00146484375,42.224117647058826,283.71232121157453
-0.39109423828125,0.92004931640625,-0.1003325195312501,1.004744774712408,-0.04541015625,-0.2822265625,0.01318359375,41.98882352941177,283.71232121157453
-0.38035205078125,0.91663134765625,-0.0871489257812501,0.9962307189122616,-0.08154296875,-0.72509765625,-0.0029296875,42.27117647058824,283.71232121157453
-0.39402392578125,0.91907275390625,-0.0700590820312501,1.002425985315598,-0.0966796875,-0.88330078125,-0.03466796875,42.224117647058826,283.5141913054704
-0.41160205078125,0.91272509765625,-0.0573637695312501,1.0028828217462775,-0.0634765625,-0.67529296875,-0.01220703125,42.224117647058826,283.5141913054704
-0.41648486328125,0.90491259765625,-0.0480864257812501,0.9973157750100012,-0.00732421875,-0.25048828125,0.017578125,42.08294117647059,283.5141913054704
-0.39207080078125,0.89856494140625,-0.0500395507812501,0.9816529037251698,0.009765625,0.18017578125,-0.0107421875,41.94176470588236,283.5141913054704
-0.40378955078125,0.89661181640625,-0.0554106445312501,0.9849005483635428,0.06298828125,0.49755859375,-0.0029296875,42.08294117647059,283.6247285159355
-0.42234423828125,0.90979541015625,-0.0622465820312501,1.0049761096291403,0.11279296875,0.7509765625,0.06005859375,41.89470588235295,283.6247285159355
-0.39353564453125,0.91223681640625,-0.0773833007812501,0.9965111579723722,0.1201171875,0.72509765625,-0.0087890625,42.31823529411765,283.6247285159355
-0.38328173828125,0.89807666015625,-0.0851958007812501,0.9801555503531364,0.08349609375,0.60888671875,-0.07177734375,41.89470588235295,283.6247285159355
-0.40574267578125,0.89270556640625,-0.0954497070312501,0.9852212917995548,0.0576171875,0.44921875,-0.0263671875,41.98882352941177,283.6247285159355
-0.41111376953125,0.89368212890625,-0.0983793945312501,0.9886155897480762,0.02294921875,0.2138671875,0.06787109375,42.27117647058824,283.59270478912566
-0.39304736328125,0.88684619140625,-0.1071684570312501,0.9759444016830944,-0.056640625,0.01513671875,0.09814453125,42.08294117647059,283.59270478912566
-0.38572314453125,0.88928759765625,-0.0930083007812501,0.973789155611478,-0.12744140625,-0.2392578125,0.13232421875,42.13,283.59270478912566
-0.39744189453125,0.88586962890625,-0.0739653320312501,0.9737535259446198,-0.1162109375,-0.39453125,0.1611328125,41.94176470588236,283.59270478912566
-0.40427783203125,0.90295947265625,-0.0754301757812501,0.9922026436922706,-0.0986328125,-0.41796875,-0.02197265625,42.224117647058826,283.635004511988
-0.42185595703125,0.93713916015625,-0.0666411132812501,1.029870521939762,-0.072265625,-0.4169921875,-0.1416015625,41.04764705882353,283.635004511988
-0.43552783203125,0.97766650390625,-0.0558989257812501,1.0717466935977027,-0.05078125,-0.3876953125,-0.17333984375,41.98882352941177,283.635004511988
-0.42380908203125,0.97913134765625,-0.0568754882812501,1.06843210132537,0.01171875,-0.27294921875,-0.23095703125,42.27117647058824,283.635004511988
-0.39646533203125,0.94788134765625,-0.0602934570312501,1.0292225753927366,0.04931640625,0.0693359375,-0.36376953125,42.08294117647059,283.635004511988
-0.39548876953125,0.91565478515625,-0.0558989257812501,0.9989793502912752,0.103515625,0.40234375,-0.44189453125,42.08294117647059,283.33781290210266
-0.39841845703125,0.88586962890625,-0.0583403320312501,0.9730908799609498,0.14794921875,0.7333984375,-0.30078125,41.80058823529412,283.33781290210266
-0.39060595703125,0.87268603515625,-0.0593168945312501,0.9579522031927614,0.14208984375,0.87451171875,-0.0478515625,41.94176470588236,283.33781290210266
-0.38767626953125,0.88245166015625,-0.0827543945312501,0.9673996652286077,0.15087890625,0.72412109375,0.04052734375,41.98882352941177,283.33781290210266
-0.40330126953125,0.90637744140625,-0.0871489257812501,0.9958749497605028,0.12548828125,0.435546875,0.0546875,41.89470588235295,283.6035789411059
-0.40183642578125,0.91565478515625,-0.0881254882812501,1.0038238393009986,0.09619140625,0.0400390625,0.02392578125,42.41235294117647,283.6035789411059
-0.40183642578125,0.91907275390625,-0.0998442382812501,1.0080357691944426,0.05224609375,-0.17431640625,-0.02197265625,41.98882352941177,283.6035789411059
-0.41062548828125,0.90491259765625,-0.0876372070312501,0.9975772556947332,0.02001953125,-0.18994140625,-0.0498046875,41.80058823529412,283.6035789411059
-0.41990283203125,0.90051806640625,-0.0886137695312501,0.9975487839812412,-0.00830078125,-0.14453125,-0.0888671875,42.08294117647059,283.6035789411059
-0.44968798828125,0.90881884765625,-0.0827543945312501,1.0173589703118096,0.00390625,-0.12158203125,0.1572265625,42.08294117647059,283.65854894508874
-0.38132861328125,0.88342822265625,-0.0881254882812501,0.9662417076370646,-0.0224609375,-0.18505859375,0.46728515625,42.08294117647059,283.65854894508874
-0.39353564453125,0.88342822265625,-0.0832426757812501,0.9706930880424716,-0.03125,-0.1904296875,0.19580078125,41.47117647058823,283.65854894508874
-0.40525439453125,0.91711962890625,-0.0832426757812501,1.0061157394073756,-0.01708984375,-0.2177734375,-0.2607421875,42.27117647058824,283.65854894508874
-0.39841845703125,0.90002978515625,-0.0700590820312501,0.98676195510702,-0.04345703125,-0.2265625,-0.51416015625,41.94176470588236,283.61505238923195
-0.40281298828125,0.88196337890625,-0.0641997070312501,0.971719768062119,0.01611328125,-0.0556640625,-0.2548828125,41.94176470588236,283.61505238923195
-0.42918017578125,0.87463916015625,-0.0812895507812501,0.9776488504717183,0.0400390625,0.271484375,0.26318359375,42.506470588235295,283.61505238923195
-0.43845751953125,0.92004931640625,-0.0969145507812501,1.023781310244642,0.0439453125,0.38818359375,0.505859375,41.98882352941177,283.61505238923195
-0.38669970703125,0.94006884765625,-0.0998442382812501,1.0213887475735022,0.00830078125,0.24267578125,0.181640625,41.98882352941177,283.61505238923195
-0.34910205078125,0.93567431640625,-0.0891020507812501,1.0026454227170252,-0.05126953125,-0.365234375,-0.30078125,42.224117647058826,283.7358670259165
-0.38279345703125,0.90540087890625,-0.0803129882812501,0.9862716453172572,-0.0986328125,-0.76416015625,-0.296875,42.27117647058824,283.7358670259165
-0.41892626953125,0.89368212890625,-0.0632231445312501,0.9890218060458504,-0.0888671875,-0.82275390625,-0.02587890625,41.98882352941177,283.7358670259165
-0.43113330078125,0.89905322265625,-0.0544340820312501,0.998566817743164,-0.06884765625,-0.56201171875,0.1337890625,42.224117647058826,283.7358670259165
-0.43015673828125,0.91516650390625,-0.0485747070312501,1.012385327592179,-0.01953125,-0.1328125,0.04052734375,42.224117647058826,283.63620147894056
-0.41648486328125,0.92200244140625,-0.0495512695312501,1.0129182946386377,0.04345703125,0.1552734375,-0.09423828125,41.89470588235295,283.63620147894056
-0.40525439453125,0.92249072265625,-0.0563872070312501,1.0091579533405686,0.10546875,0.38232421875,-0.12744140625,42.27117647058824,283.63620147894056
-0.39011767578125,0.91858447265625,-0.0656645507812501,1.0001505224672078,0.14501953125,0.4853515625,-0.02734375,42.224117647058826,283.63620147894056
-0.38328173828125,0.91467822265625,-0.0837309570312501,0.995264796457135,0.162109375,0.49609375,0.07373046875,42.08294117647059,283.63620147894056
-0.38084033203125,0.90784228515625,-0.0959379882812501,0.9891516925198318,0.142578125,0.43115234375,0.10107421875,41.94176470588236,283.73646699467145
-0.38328173828125,0.90930712890625,-0.1057036132812501,0.992430148393496,0.10888671875,0.2587890625,0.05908203125,42.13,283.73646699467145
-0.38669970703125,0.91418994140625,-0.1008208007812501,0.997719773411648,0.05615234375,-0.0322265625,0.0283203125,42.08294117647059,283.73646699467145
-0.38914111328125,0.90686572265625,-0.0974028320312501,0.9916267224426342,0.0234375,-0.36865234375,0.0556640625,42.224117647058826,283.73646699467145
-0.39011767578125,0.90637744140625,-0.0910551757812501,0.9909606007726336,-0.0244140625,-0.6826171875,0.05517578125,42.08294117647059,283.58243011563394
-0.40427783203125,0.90881884765625,-0.0671293945312501,0.9969446418619512,-0.05810546875,-0.8095703125,0.03857421875,42.224117647058826,283.58243011563394
-0.42332080078125,0.91809619140625,-0.0598051757812501,1.01275751100595,-0.052734375,-0.6640625,0.0517578125,42.27117647058824,283.58243011563394
-0.42478564453125,0.91467822265625,-0.0539458007812501,1.0099451689192618,0.01513671875,-0.27685546875,-0.00146484375,42.08294117647059,283.58243011563394
-0.40916064453125,0.90637744140625,-0.0544340820312501,0.9959395406398688,0.08154296875,0.23681640625,-0.0751953125,41.94176470588236,283.58243011563394
-0.41062548828125,0.90393603515625,-0.0588286132812501,0.9945724976193596,0.09521484375,0.501953125,-0.11572265625,42.224117647058826,283.8125858851728
-0.41892626953125,0.90588916015625,-0.0646879882812501,1.0001594500977535,0.1591796875,0.86865234375,-0.0888671875,42.224117647058826,283.8125858851728
-0.38669970703125,0.89710009765625,-0.0812895507812501,0.9802720233175716,0.16357421875,0.79833984375,-0.14111328125,42.13,283.8125858851728
-0.39207080078125,0.89270556640625,-0.0910551757812501,0.9792516459799844,0.09912109375,0.5986328125,-0.17529296875,41.94176470588236,283.8125858851728
-0.40574267578125,0.89710009765625,-0.0993559570312501,0.9895894655677058,0.0595703125,0.3583984375,-0.05029296875,42.08294117647059,283.8687573585357
-0.39109423828125,0.89465869140625,-0.1061918945312501,0.9821637316606996,0.123046875,0.1396484375,0.07275390625,42.08294117647059,283.8687573585357
-0.38816455078125,0.88782275390625,-0.0905668945312501,0.9731923361915268,-0.07763671875,-0.02001953125,0.119140625,42.31823529411765,283.8687573585357
-0.40085986328125,0.88293994140625,-0.0910551757812501,0.973941792489104,-0.248046875,-0.1533203125,0.134765625,41.89470588235295,283.8687573585357
-0.43015673828125,0.89270556640625,-0.0925200195312501,0.9952477087617586,-0.11376953125,-0.22314453125,0.07763671875,42.27117647058824,283.8687573585357
-0.44334033203125,0.90930712890625,-0.0837309570312501,1.0150866848947806,-0.07275390625,-0.21875,0.04541015625,41.94176470588236,283.5721560289911
-0.43210986328125,0.91321337890625,-0.0837309570312501,1.0137497139450544,-0.0263671875,-0.1611328125,0.0244140625,42.224117647058826,283.5721560289911
-0.42771533203125,0.90784228515625,-0.0690825195312501,1.0059276387877558,0.013671875,-0.10009765625,0.064453125,42.08294117647059,283.5721560289911
-0.41941455078125,0.90442431640625,-0.0739653320312501,0.9996813391558548,0.03955078125,-0.00439453125,0.119140625,42.224117647058826,283.5721560289911
-0.40867236328125,0.90393603515625,-0.0681059570312501,0.9943600341662095,0.0390625,0.025390625,0.13671875,42.224117647058826,283.49423853597006
-0.41550830078125,0.90833056640625,-0.0700590820312501,1.0013090636067776,0.0361328125,0.10009765625,0.10107421875,42.224117647058826,283.49423853597006
-0.42136767578125,0.90442431640625,-0.0739653320312501,1.000502340148537,0.0302734375,0.21337890625,0.24853515625,41.80058823529412,283.49423853597006
-0.41257861328125,0.89319384765625,-0.0812895507812501,0.98723064817411,0.05419921875,0.25048828125,0.12109375,42.08294117647059,283.49423853597006
-0.40916064453125,0.89221728515625,-0.0891020507812501,0.9855979364924836,0.06201171875,0.43115234375,0.14599609375,42.08294117647059,283.49423853597006
-0.40574267578125,0.89954150390625,-0.0920317382812501,0.9910963005940012,0.08154296875,0.34423828125,0.197265625,42.31823529411765,283.42899428298807
-0.40232470703125,0.91418994140625,-0.0974028320312501,1.0035415938285028,0.09326171875,0.107421875,0.28369140625,41.89470588235295,283.42899428298807
-0.38328173828125,0.91565478515625,-0.1003325195312501,0.9976949388239492,0.04736328125,-0.2138671875,0.29736328125,42.224117647058826,283.42899428298807
-0.38865283203125,0.91858447265625,-0.0974028320312501,1.0021655396883191,0.03515625,-0.41259765625,0.20947265625,42.08294117647059,283.42899428298807
-0.39304736328125,0.91126025390625,-0.0847075195312501,0.9960205038033922,-0.01318359375,-0.49951171875,0.07421875,41.94176470588236,283.90318354810984
-0.39793017578125,0.90051806640625,-0.0734770507812501,0.9872588767455364,-0.05322265625,-0.47021484375,0.03857421875,42.506470588235295,283.90318354810984
-0.40818408203125,0.89319384765625,-0.0744536132812501,0.9848618354090612,-0.0771484375,-0.2978515625,0.19873046875,42.08294117647059,283.90318354810984
-0.40037158203125,0.89710009765625,-0.0661528320312501,0.98461270868236,-0.06591796875,-0.13525390625,0.36474609375,42.27117647058824,283.90318354810984
-0.40134814453125,0.91126025390625,-0.0681059570312501,0.9980551111291917,-0.03173828125,0.02001953125,0.59130859375,42.224117647058826,283.90318354810984
-0.36375048828125,0.92053759765625,-0.0788481445312501,0.9929355046122628,-0.0068359375,0.05908203125,0.45849609375,41.98882352941177,283.6162523090968
-0.39744189453125,0.93713916015625,-0.0842192382812501,1.0214121328453196,0.03564453125,0.1025390625,0.12060546875,42.08294117647059,283.6162523090968
-0.39744189453125,0.94690478515625,-0.0827543945312501,1.030260657064331,0.07958984375,0.11962890625,-0.29931640625,41.94176470588236,283.6162523090968
-0.36082080078125,0.91321337890625,-0.0759184570312501,0.9848420877520409,0.06591796875,0.10595703125,-0.4033203125,42.224117647058826,283.6162523090968
-0.35642626953125,0.88733447265625,-0.0827543945312501,0.9598179211654376,0.0556640625,0.1650390625,-0.10986328125,41.94176470588236,283.77149295639714
-0.40281298828125,0.89075244140625,-0.0954497070312501,0.9822468437066196,0.02978515625,0.29150390625,0.37060546875,41.94176470588236,283.77149295639714
-0.42087939453125,0.92542041015625,-0.1125395507812501,1.0228428768705382,-0.0029296875,0.30078125,0.61328125,41.94176470588236,283.77149295639714
-0.37839892578125,0.95129931640625,-0.1110747070312501,1.02980276119725,-0.03857421875,0.0693359375,0.26318359375,41.98882352941177,283.77149295639714
-0.34324267578125,0.94202197265625,-0.0993559570312501,1.0075180085945068,-0.0693359375,-0.34521484375,-0.2177734375,42.13,283.77149295639714
-0.36472705078125,0.92151416015625,-0.0939848632812501,0.9955135978308194,-0.08935546875,-0.6923828125,-0.33056640625,42.224117647058826,283.39517360252074
-0.39255908203125,0.90344775390625,-0.0734770507812501,0.987785074758156,-0.107421875,-0.88916015625,-0.12841796875,42.224117647058826,283.39517360252074
-0.39939501953125,0.90002978515625,-0.0666411132812501,0.9869199733383338,-0.09814453125,-0.8359375,0.04833984375,41.98882352941177,283.39517360252074
-0.39646533203125,0.91272509765625,-0.0515043945312501,0.9964459674514676,-0.08935546875,-0.564453125,0.05126953125,42.31823529411765,283.39517360252074
-0.40281298828125,0.92444384765625,-0.0495512695312501,1.0096088645162151,-0.0556640625,-0.21484375,-0.06591796875,42.27117647058824,283.782968824279
-0.40916064453125,0.93713916015625,-0.0529692382812501,1.023937487708935,0.00390625,0.169921875,-0.14208984375,42.13,283.782968824279
-0.39988330078125,0.93323291015625,-0.0593168945312501,1.0170294060740046,0.0751953125,0.48779296875,-0.1591796875,41.94176470588236,283.782968824279
-0.38181689453125,0.92639697265625,-0.0690825195312501,1.004374375619439,0.10205078125,0.685546875,-0.18017578125,41.47117647058823,283.782968824279
-0.37400439453125,0.91418994140625,-0.0842192382812501,0.99132003721993,0.13720703125,0.6357421875,-0.16748046875,42.27117647058824,283.782968824279
-0.37546923828125,0.90637744140625,-0.1027739257812501,0.9864378819804784,0.1064453125,0.48779296875,-0.15478515625,41.94176470588236,283.5957063257249
-0.38132861328125,0.90833056640625,-0.1061918945312501,0.9908343189651012,0.0888671875,0.23974609375,-0.0947265625,42.224117647058826,283.5957063257249
-0.38572314453125,0.90930712890625,-0.1120512695312501,0.9940710668309224,0.0283203125,-0.0224609375,-0.05029296875,41.98882352941177,283.5957063257249
-0.39060595703125,0.91467822265625,-0.0978911132812501,0.999395784826681,-0.041015625,-0.26953125,-0.0068359375,41.98882352941177,283.5957063257249
-0.38962939453125,0.91663134765625,-0.0944731445312501,1.000474521228064,-0.07177734375,-0.484375,-0.05419921875,42.31823529411765,283.6947741315601
-0.39402392578125,0.91174853515625,-0.0812895507812501,0.996568229733345,-0.087890625,-0.5771484375,-0.02685546875,41.98882352941177,283.6947741315601
-0.39841845703125,0.90784228515625,-0.0768950195312501,0.9943981725896298,-0.0498046875,-0.53076171875,-0.03564453125,41.98882352941177,283.6947741315601
-0.38718798828125,0.89856494140625,-0.0666411132812501,0.9807010401611,0.01171875,-0.35546875,-0.08544921875,42.224117647058826,283.6947741315601
-0.40867236328125,0.90100634765625,-0.0690825195312501,0.9917650596444316,0.0205078125,-0.16455078125,-0.07470703125,41.98882352941177,283.6947741315601
-0.42722705078125,0.91418994140625,-0.0632231445312501,1.0110704069905454,0.083984375,0.10986328125,-0.08056640625,42.27117647058824,283.605979023984
-0.39793017578125,0.91614306640625,-0.0744536132812501,1.001603655870014,0.13037109375,0.373046875,-0.1328125,41.89470588235295,283.605979023984
-0.39548876953125,0.91370166015625,-0.0871489257812501,0.9994283495391028,0.140625,0.5302734375,-0.18359375,41.80058823529412,283.605979023984
-0.39988330078125,0.91467822265625,-0.0988676757812501,1.0031538877757942,0.12109375,0.55126953125,-0.18505859375,41.94176470588236,283.605979023984
-0.38962939453125,0.91321337890625,-0.1057036132812501,0.9984703272290422,0.07568359375,0.34423828125,-0.24462890625,41.98882352941177,283.2864334664928
-0.37888720703125,0.90833056640625,-0.1076567382812501,0.9900555069374636,0.00439453125,-0.015625,-0.3984375,42.08294117647059,283.2864334664928
-0.38621142578125,0.89563525390625,-0.1032622070312501,0.9808082671168018,-0.0263671875,-0.3994140625,-0.42431640625,42.08294117647059,283.2864334664928
-0.39793017578125,0.89026416015625,-0.0895903320312501,0.9792574366577356,-0.05419921875,-0.6875,-0.27099609375,42.13,283.2864334664928
-0.41111376953125,0.89270556640625,-0.0817778320312501,0.986217711057061,-0.099609375,-0.80810546875,-0.15185546875,41.98882352941177,283.2864334664928
-0.41306689453125,0.90540087890625,-0.0676176757812501,0.9974703809938212,-0.140625,-0.72314453125,-0.11962890625,42.224117647058826,283.92613605977004
-0.41502001953125,0.92444384765625,-0.0500395507812501,1.0145649317434544,-0.1337890625,-0.55322265625,-0.1171875,42.08294117647059,283.92613605977004
-0.41794970703125,0.92249072265625,-0.0544340820312501,1.014216032352547,-0.06982421875,-0.2548828125,-0.14453125,41.89470588235295,283.92613605977004
-0.41746142578125,0.91907275390625,-0.0495512695312501,1.0106552811420375,0.0029296875,0.11083984375,-0.158203125,41.98882352941177,283.92613605977004
-0.41111376953125,0.91126025390625,-0.0563872070312501,1.0012938125067297,0.099609375,0.484375,-0.2470703125,41.98882352941177,283.37522461560513
-0.41794970703125,0.90198291015625,-0.0671293945312501,0.9963741683883508,0.13720703125,0.7236328125,-0.27783203125,42.08294117647059,283.37522461560513
-0.41843798828125,0.89514697265625,-0.0842192382812501,0.9917012316162478,0.1435546875,0.79052734375,-0.283203125,42.31823529411765,283.37522461560513
-0.41306689453125,0.89954150390625,-0.0925200195312501,0.9941625272668808,0.1171875,0.61376953125,-0.26806640625,41.94176470588236,283.37522461560513
-0.40525439453125,0.89710009765625,-0.1008208007812501,0.9895375401529322,0.06494140625,0.26318359375,-0.2392578125,42.224117647058826,283.37522461560513
-0.40378955078125,0.89612353515625,-0.0949614257812501,0.9874720573097076,0.0185546875,-0.13232421875,-0.21728515625,42.224117647058826,283.52986194868083
-0.40183642578125,0.89270556640625,-0.0895903320312501,0.9830677336637712,-0.009765625,-0.36767578125,-0.13720703125,41.98882352941177,283.52986194868083
-0.41306689453125,0.89563525390625,-0.0812895507812501,0.9896437533090487,-0.00439453125,-0.3798828125,-0.09423828125,42.45941176470589,283.52986194868083
-0.42332080078125,0.89758837890625,-0.0778715820312501,0.9954543593805184,0.0078125,-0.27392578125,-0.154296875,42.27117647058824,283.52986194868083
-0.42966845703125,0.89612353515625,-0.0671293945312501,0.9960716484463766,0.04345703125,-0.0791015625,-0.20849609375,42.224117647058826,283.2217901558232
-0.43162158203125,0.89514697265625,-0.0695708007812501,0.996205495393472,0.12109375,0.18701171875,-0.18798828125,42.27117647058824,283.2217901558232
-0.41990283203125,0.89710009765625,-0.0768950195312501,0.9934887103492565,0.1591796875,0.45068359375,-0.05615234375,41.98882352941177,283.2217901558232
-0.40916064453125,0.90540087890625,-0.0900786132812501,0.997635876022966,0.14599609375,0.583984375,-0.0263671875,41.98882352941177,283.2217901558232
-0.41453173828125,0.91663134765625,-0.0959379882812501,1.0105709708595636,0.13134765625,0.5615234375,-0.15234375,42.224117647058826,283.2217901558232
-0.41111376953125,0.90930712890625,-0.1081450195312501,1.003767568427739,0.07275390625,0.38818359375,-0.2041015625,41.98882352941177,283.5304635239639
-0.40525439453125,0.89758837890625,-0.1003325195312501,0.9899306221700228,0.02490234375,0.10546875,-0.2470703125,42.506470588235295,283.5304635239639
-0.40525439453125,0.88635791015625,-0.0988676757812501,0.9796102727604644,-0.0458984375,-0.158203125,0.07080078125,41.94176470588236,283.5304635239639
-0.41062548828125,0.89368212890625,-0.0959379882812501,0.9881726249740354,-0.0546875,-0.37060546875,0.232421875,42.224117647058826,283.5304635239639
-0.39109423828125,0.89417041015625,-0.0930083007812501,0.9803805228736456,-0.056640625,-0.43505859375,0.34033203125,41.94176470588236,283.34260306043325
-0.38718798828125,0.89417041015625,-0.0866606445312501,0.978246046748388,-0.0576171875,-0.3984375,0.146484375,41.518235294117645,283.34260306043325
-0.43503955078125,0.91174853515625,-0.0832426757812501,1.0136439933106405,-0.0380859375,-0.30322265625,-0.236328125,42.31823529411765,283.34260306043325
-0.42820361328125,0.91467822265625,-0.0739653320312501,1.0126526826959024,-0.125,-0.03369140625,-0.384765625,42.224117647058826,283.34260306043325
-0.39500048828125,0.88489306640625,-0.0685942382812501,0.9714763477520524,0.01513671875,0.23779296875,-0.39501953125,41.98882352941177,283.34260306043325
-0.40427783203125,0.87756884765625,-0.0764067382812501,0.9692294039614076,0.0849609375,0.560546875,-0.08740234375,41.94176470588236,283.507513090489
-0.44529345703125,0.89221728515625,-0.0988676757812501,1.002054272043594,0.0849609375,0.6376953125,0.322265625,42.224117647058826,283.507513090489
-0.42869189453125,0.93176806640625,-0.1052153320312501,1.0310376986830698,0.033203125,0.36279296875,0.29345703125,41.98882352941177,283.507513090489
-0.37546923828125,0.93567431640625,-0.1086333007812501,1.0140339093523625,-0.0166015625,-0.06689453125,-0.07958984375,41.89470588235295,283.507513090489
-0.35935595703125,0.92395556640625,-0.0969145507812501,0.9961039216367292,-0.06689453125,-0.552734375,-0.345703125,41.94176470588236,283.4863667773316
-0.39402392578125,0.89856494140625,-0.0803129882812501,0.9844409500316156,-0.0947265625,-0.85400390625,-0.23046875,42.224117647058826,283.4863667773316
-0.42673876953125,0.89124072265625,-0.0641997070312501,0.9902209882267586,-0.11474609375,-0.85595703125,0.03076171875,42.224117647058826,283.4863667773316
-0.43455126953125,0.90686572265625,-0.0573637695312501,1.007239220262445,-0.0947265625,-0.544921875,0.08642578125,41.94176470588236,283.4863667773316
-0.42527392578125,0.91272509765625,-0.0436918945312501,1.0078859049955688,-0.0205078125,-0.12890625,0.02294921875,41.80058823529412,283.4863667773316
-0.41599658203125,0.91809619140625,-0.0505278320312501,1.0092109961480416,0.064453125,0.27392578125,-0.00927734375,42.08294117647059,283.51958977143767
-0.41453173828125,0.91272509765625,-0.0554106445312501,1.0039790861673634,0.130859375,0.66796875,-0.0390625,42.224117647058826,283.51958977143767
-0.41453173828125,0.91956103515625,-0.0773833007812501,1.0116408624901974,0.17919921875,0.96826171875,-0.03515625,41.89470588235295,283.51958977143767
-0.39939501953125,0.91272509765625,-0.0974028320312501,1.0010348631319923,0.19580078125,1.03076171875,-0.041015625,42.224117647058826,283.51958977143767
-0.39255908203125,0.89905322265625,-0.1110747070312501,0.9872876584845394,0.17724609375,0.83544921875,-0.03662109375,41.94176470588236,283.6404050896449
-0.39011767578125,0.89954150390625,-0.1237700195312501,0.988274119838038,0.1435546875,0.41845703125,0.04931640625,41.89470588235295,283.6404050896449
-0.38865283203125,0.90100634765625,-0.1237700195312501,0.9890310814618176,0.08984375,-0.08056640625,0.10986328125,42.224117647058826,283.6404050896449
-0.39207080078125,0.89807666015625,-0.1213286132812501,0.9874116835157494,0.12353515625,-0.5087890625,0.08056640625,42.08294117647059,283.6404050896449
-0.40623095703125,0.89954150390625,-0.1022856445312501,0.9923007914829136,-0.09130859375,-0.7607421875,0.02392578125,41.94176470588236,283.6404050896449
-0.42429736328125,0.89954150390625,-0.0895903320312501,0.99861383794278,-0.1162109375,-0.8193359375,-0.05029296875,42.45941176470589,283.27856310379394
-0.43699267578125,0.90149462890625,-0.0749418945312501,1.0046250306403912,-0.11572265625,-0.70751953125,-0.0966796875,42.08294117647059,283.27856310379394
-0.43406298828125,0.90442431640625,-0.0598051757812501,1.0049729752350494,-0.0595703125,-0.40234375,-0.14990234375,41.94176470588236,283.27856310379394
-0.41502001953125,0.89905322265625,-0.0612700195312501,0.9921150785436472,-0.03662109375,-0.02197265625,-0.265625,42.31823529411765,283.27856310379394
-0.42380908203125,0.89807666015625,-0.0558989257812501,0.9946258167939704,-0.00341796875,0.28515625,-0.36962890625,42.224117647058826,283.77209500098115
-0.44627001953125,0.90686572265625,-0.0588286132812501,1.0124342818187555,0.06103515625,0.52978515625,-0.45703125,42.224117647058826,283.77209500098115
-0.42478564453125,0.90247119140625,-0.0788481445312501,1.0005569074340883,0.10595703125,0.61083984375,-0.61669921875,42.224117647058826,283.77209500098115
-0.42429736328125,0.89514697265625,-0.0812895507812501,0.9939438345345716,0.11083984375,0.59033203125,-0.69873046875,42.13,283.77209500098115
-0.43943408203125,0.89026416015625,-0.0900786132812501,0.9968885313213476,0.1201171875,0.5439453125,-0.57470703125,41.94176470588236,283.77209500098115
-0.43113330078125,0.88538134765625,-0.1022856445312501,0.9900699000057048,0.1279296875,0.46337890625,-0.35791015625,42.224117647058826,283.49724054969664
-0.42332080078125,0.88293994140625,-0.1130278320312501,0.9856767884647762,0.08837890625,0.435546875,-0.18359375,41.98882352941177,283.49724054969664
-0.41648486328125,0.88928759765625,-0.1130278320312501,0.988467178767869,0.0556640625,0.388671875,-0.0693359375,42.31823529411765,283.49724054969664
-0.41599658203125,0.90002978515625,-0.1154692382812501,0.9982183706080248,0.029296875,0.17529296875,0.02099609375,42.224117647058826,283.49724054969664
-0.41062548828125,0.89368212890625,-0.1115629882812501,0.9898117697354708,-0.03125,-0.1611328125,0.09521484375,42.27117647058824,283.63013370534304
-0.41257861328125,0.89124072265625,-0.1042387695312501,0.9876218197930337,-0.05517578125,-0.42919921875,0.10693359375,42.224117647058826,283.63013370534304
-0.42771533203125,0.89075244140625,-0.0998442382812501,0.9931511410876795,-0.0849609375,-0.625,0.142578125,42.13,283.63013370534304
-0.44187548828125,0.88782275390625,-0.0954497070312501,0.9962900361189116,-0.09130859375,-0.39599609375,0.150390625,42.224117647058826,283.63013370534304
-0.44041064453125,0.88977587890625,-0.0812895507812501,0.99612782390918,-0.078125,-0.1611328125,0.11865234375,42.08294117647059,283.63013370534304
