AccX,AccY,AccZ,Magnitude,GyroX,GyroY,GyroZ,Temperature,Altitude
-0.13518212890625,-0.0957470703125,1.0103076171875005,1.023798413163518,1.39111328125,0.1025390625,-0.71923828125,23.353529411764708,280.47743366925727
-0.12053369140625,-0.1094189453125,1.0200732421875005,1.0329812659405957,1.4033203125,-0.0478515625,-0.13818359375,23.306470588235296,280.47743366925727
-0.10588525390625,-0.1157666015625,1.0278857421875005,1.0397897345254328,1.455078125,0.0771484375,0.0576171875,23.25941176470588,280.47743366925727
-0.08635400390625,-0.1069775390625,1.0249560546875005,1.034135446590569,1.4111328125,0.2509765625,0.0087890625,23.21235294117647,280.47743366925727
-0.11662744140625,-0.1089306640625,1.0015185546875005,1.0141534721359509,1.3583984375,0.63916015625,-0.07861328125,23.25941176470588,280.0830749049838
-0.12834619140625,-0.1152783203125,0.9893115234375,1.0042405719690817,1.306640625,0.91064453125,-0.00244140625,23.306470588235296,280.0830749049838
-0.13078759765625,-0.1064892578125,0.9731982421875,0.9877044984847392,1.2578125,0.80859375,-0.22412109375,23.21235294117647,280.0830749049838
-0.12248681640625,-0.1143017578125,0.9741748046875,0.9884758277875564,1.24365234375,0.53564453125,-0.279296875,23.25941176470588,280.0830749049838
-0.10637353515625,-0.1226025390625,0.9917529296875,1.0049480509508684,1.24755859375,0.40869140625,-0.34228515625,23.25941176470588,280.0830749049838
-0.11906884765625,-0.1201611328125,1.0171435546875005,1.0311144937218633,1.28515625,0.4501953125,-0.35595703125,23.25941176470588,280.0830749049838
-0.11809228515625,-0.1079541015625,1.0444873046875005,1.056671001547289,1.3525390625,0.66943359375,-0.365234375,23.353529411764708,280.0830749049838
-0.14152978515625,-0.1089306640625,1.0430224609375005,1.0582024492882214,1.466796875,0.9794921875,-0.361328125,23.25941176470588,280.0830749049838
-0.15373681640625,-0.0840283203125,1.0269091796875005,1.041747680899614,1.5849609375,1.29296875,-0.26806640625,23.21235294117647,280.3280082988532
-0.17180322265625,-0.0698681640625,1.0166552734375005,1.03343400982976,1.669921875,1.29345703125,-0.1669921875,23.21235294117647,280.3280082988532
-0.05070947265625,-0.0605908203125,0.9868701171875,0.99002794219198,1.73681640625,1.24609375,-0.0859375,23.306470588235296,280.3280082988532
-0.17277978515625,-0.0508251953125,0.9751513671875,0.9916432037607298,1.8017578125,0.88671875,-0.12109375,23.25941176470588,280.3280082988532
-0.16985009765625,-0.0478955078125,0.9585498046875,0.9746593063265232,1.8369140625,0.63330078125,0.06787109375,23.21235294117647,280.3280082988532
-0.15568994140625,-0.0483837890625,0.9663623046875,0.9800185982011068,1.84375,0.3935546875,0.1455078125,23.306470588235296,280.3280082988532
-0.13567041015625,-0.0513134765625,0.9727099609375,0.9834654041581372,1.8408203125,0.220703125,0.30126953125,23.165294117647058,280.3280082988532
-0.14543603515625,-0.0332470703125,0.9766162109375,0.9879454597660003,1.86962890625,0.22802734375,0.40576171875,23.306470588235296,280.3280082988532
-0.15813134765625,-0.0171337890625,1.0005419921875005,1.0131058029494016,1.95263671875,0.1025390625,0.4306640625,23.21235294117647,280.3280082988532
-0.20354150390625,-0.0034619140625,1.0156787109375005,1.035878551044019,2.046875,-0.208984375,0.56787109375,23.25941176470588,280.0036014514581
-0.24455712890625,0.0053271484375,1.0293505859375005,1.0580166334133023,2.12158203125,-0.39892578125,0.63330078125,23.306470588235296,280.0036014514581
-0.26018212890625,0.0048388671875,1.0410693359375005,1.0730999566989063,2.12255859375,-0.41357421875,1.01123046875,23.21235294117647,280.0036014514581
-0.23772119140625,0.0038623046875,1.0313037109375005,1.0583542065086553,2.09814453125,-0.27392578125,1.05322265625,23.25941176470588,280.0036014514581
-0.21330712890625,0.0121630859375,1.0151904296875005,1.0374292652662358,2.01416015625,-0.1953125,0.88720703125,23.353529411764708,280.0036014514581
-0.19914697265625,0.0194873046875,0.9834521484375,1.0036022120484127,1.88232421875,-0.232421875,0.69970703125,23.306470588235296,280.0036014514581
-0.20451806640625,0.0238818359375,0.9707568359375,0.992354178755591,1.87353515625,-0.302734375,0.6328125,23.25941176470588,280.0036014514581
-0.22697900390625,0.0326708984375,0.9595263671875,0.986548379526837,1.74267578125,-0.33935546875,0.74951171875,23.353529411764708,280.0036014514581
-0.24895166015625,0.0356005859375,0.9595263671875,0.9919350685108816,1.51318359375,-0.36328125,0.884765625,23.25941176470588,279.97951180453254
-0.25236962890625,0.0429248046875,0.9482958984375,0.9822413549861988,1.49365234375,-0.35498046875,1.05126953125,23.306470588235296,279.97951180453254
-0.25920556640625,0.0482958984375,0.9590380859375,0.994622576528672,1.2568359375,-0.36083984375,1.20751953125,23.306470588235296,279.97951180453254
-0.24895166015625,0.0448779296875,0.9614794921875,0.9942000661661224,1.1455078125,-0.03369140625,1.2587890625,23.25941176470588,279.97951180453254
-0.21916650390625,0.0546435546875,0.9663623046875,0.9924091789298962,1.04345703125,0.1240234375,1.244140625,23.21235294117647,279.97951180453254
-0.21721337890625,0.0448779296875,0.9590380859375,0.9843524423841138,0.9501953125,0.28759765625,1.17724609375,23.306470588235296,279.97951180453254
-0.21623681640625,0.0468310546875,0.9448779296875,0.9704358868380694,0.89990234375,0.3544921875,1.11572265625,23.25941176470588,279.97951180453254
-0.21965478515625,0.0453662109375,0.9365771484375,0.96305922596286,0.8330078125,0.31396484375,1.076171875,23.21235294117647,279.97951180453254
-0.22160791015625,0.0570849609375,0.8042529296875001,0.8361767358160495,0.77587890625,0.22265625,0.875,23.25941176470588,279.97951180453254
-0.22844384765625,0.0727099609375,0.9087451171875,0.9398356334826042,0.77099609375,0.2080078125,0.94775390625,23.306470588235296,280.2269165228945
-0.24211572265625,0.0741748046875,0.9170458984375,0.9513648641025316,0.7548828125,0.18896484375,0.99609375,23.306470588235296,280.2269165228945
-0.25481103515625,0.1064013671875,0.9023974609375,0.9437007428646096,0.72265625,0.244140625,0.95068359375,23.306470588235296,280.2269165228945
-0.21037744140625,0.1088427734375,0.9063037109375,0.936745340869807,0.72216796875,0.02294921875,0.86572265625,23.306470588235296,280.2269165228945
-0.22502587890625,0.1054248046875,0.9175341796875,0.950589294341011,0.76171875,0.01953125,0.88037109375,23.25941176470588,280.2269165228945
-0.20402978515625,0.0854052734375,0.8032763671875001,0.8331717326240654,0.75390625,0.05224609375,1.0009765625,23.25941176470588,280.2269165228945
-0.18059228515625,0.0775927734375,0.9565966796875,0.9765814966180904,0.734375,0.03564453125,1.20458984375,23.21235294117647,280.2269165228945
-0.19084619140625,0.0839404296875,0.9873583984375,1.0091307504359672,0.67138671875,0.02490234375,1.171875,23.25941176470588,280.2269165228945
-0.19084619140625,0.0712451171875,1.0230029296875005,1.043088265510901,0.626953125,0.01953125,0.810546875,23.21235294117647,280.00890380452125
-0.18840478515625,0.0697802734375,1.0689013671875005,1.0876193186984553,0.564453125,-0.07080078125,0.4326171875,23.21235294117647,280.00890380452125
-0.18449853515625,0.0585498046875,1.1216357421875005,1.1382155012370243,0.52392578125,-0.21728515625,0.2998046875,23.25941176470588,280.00890380452125
-0.19084619140625,0.0351123046875,1.1826708984375005,1.198484708590687,0.5400390625,-0.27294921875,0.23876953125,23.25941176470588,280.00890380452125
-0.17473291015625,0.0150927734375,1.2310107421875005,1.2434415262016658,0.572265625,-0.19677734375,0.091796875,23.353529411764708,280.00890380452125
-0.17863916015625,-0.0088330078125,1.2539599609375005,1.2666513155571757,0.60546875,0.2001953125,-0.052734375,23.21235294117647,280.00890380452125
-0.19328759765625,-0.0415478515625,1.2417529296875005,1.2573928016990847,0.64990234375,0.91650390625,-0.11279296875,23.353529411764708,280.00890380452125
-0.20647119140625,-0.0762158203125,1.1958544921875005,1.2159388021737143,0.6826171875,1.6240234375,-0.11181640625,23.25941176470588,280.00890380452125
-0.19328759765625,-0.0815869140625,1.0947802734375005,1.1147019184794893,0.6826171875,1.9267578125,-0.13720703125,23.25941176470588,280.00890380452125
-0.17961572265625,-0.0732861328125,1.0107958984375005,1.029242932152566,0.67626953125,1.83056640625,-0.203125,23.306470588235296,280.37853491535003
-0.16936181640625,-0.0659619140625,0.9224169921875,0.9401529165191412,0.7470703125,1.435546875,-0.3427734375,23.25941176470588,280.37853491535003
-0.14787744140625,-0.0591259765625,0.8564990234375001,0.8711797724526893,0.59228515625,0.88671875,-0.5244140625,23.306470588235296,280.37853491535003
-0.14250634765625,-0.0342236328125,0.8301318359375001,0.8429698578253989,0.55419921875,0.5234375,-0.6904296875,23.25941176470588,280.37853491535003
-0.14592431640625,-0.0151806640625,0.8296435546875001,0.8425157485261155,0.52978515625,0.3974609375,-0.86767578125,23.353529411764708,280.37853491535003
-0.14201806640625,0.0058154296875,0.8481982421875001,0.8600251208297263,0.50634765625,0.53466796875,-0.94677734375,23.306470588235296,280.37853491535003
-0.28899072265625,0.0077685546875,0.8706591796875001,0.9174003463033056,0.47412109375,0.50048828125,-0.9130859375,23.165294117647058,280.37853491535003
-0.17082666015625,-0.0034619140625,0.9146044921875,0.9304273801854016,0.4228515625,0.7041015625,-0.82421875,23.25941176470588,280.09117069498024
-0.16789697265625,-0.0151806640625,0.9487841796875,0.9636447818640406,0.35986328125,0.72412109375,-0.7607421875,23.25941176470588,280.09117069498024
-0.15910791015625,-0.0386181640625,0.9731982421875,0.9868746162845042,0.32568359375,0.71484375,-0.802734375,23.25941176470588,280.09117069498024
-0.15129541015625,-0.0737744140625,1.0166552734375005,1.0304954683611625,0.3056640625,0.68798828125,-0.9892578125,23.353529411764708,280.09117069498024
-0.16008447265625,-0.1074658203125,1.0332568359375005,1.0510925886584124,0.26513671875,0.69970703125,-1.11767578125,23.40058823529412,280.09117069498024
-0.18254541015625,-0.1250439453125,1.0698779296875005,1.0925189240744717,0.22216796875,0.85888671875,-1.287109375,23.306470588235296,280.09117069498024
-0.18791650390625,-0.1357861328125,1.0659716796875005,1.0908923449178256,0.18701171875,1.09423828125,-1.43408203125,23.21235294117647,280.09117069498024
-0.18840478515625,-0.1250439453125,1.0557177734375005,1.0796630810030143,0.15625,1.31005859375,-1.57958984375,23.25941176470588,280.09117069498024
-0.19279931640625,-0.1250439453125,1.0259326171875005,1.0513540315589354,0.1845703125,1.49072265625,-1.58984375,23.21235294117647,280.3180021057058
-0.19035791015625,-0.1362744140625,0.9897998046875,1.0171088944879727,0.3740234375,1.501953125,-1.5263671875,23.306470588235296,280.3180021057058
-0.18059228515625,-0.1431103515625,0.9590380859375,0.98633067297989,0.2685546875,1.34326171875,-1.49267578125,23.306470588235296,280.3180021057058
-0.18010400390625,-0.1465283203125,0.9434130859375,0.9715638175615549,0.3115234375,1.046875,-1.1884765625,23.306470588235296,280.3180021057058
-0.18352197265625,-0.1572705078125,0.9365771484375,0.96725957325351,0.32373046875,0.75146484375,-1.0400390625,23.25941176470588,280.3180021057058
-0.17668603515625,-0.1582470703125,1.0498583984375005,1.0763190730687058,0.32373046875,0.62255859375,-0.88427734375,23.306470588235296,280.3180021057058
-0.18010400390625,-0.1611767578125,0.9409716796875,0.9715158781285702,0.32275390625,0.34326171875,-0.732421875,23.21235294117647,280.3180021057058
-0.18254541015625,-0.1680126953125,0.9404833984375,0.9726562163949984,0.29541015625,0.28369140625,-0.57763671875,23.25941176470588,280.3180021057058
-0.18889306640625,-0.1743603515625,0.9448779296875,0.97922235715076,0.287109375,0.24951171875,-0.3974609375,23.25941176470588,280.3180021057058
-0.18303369140625,-0.1831494140625,0.9609912109375,0.995263355881426,0.27587890625,0.16357421875,-0.21484375,23.25941176470588,279.973052070591
-0.19182275390625,-0.1890087890625,0.9561083984375,0.99330939833557,0.27880859375,0.03857421875,-0.05224609375,23.25941176470588,279.973052070591
-0.19133447265625,-0.1860791015625,0.9580615234375,0.9945432092957732,0.28759765625,-0.072265625,0.115234375,23.353529411764708,279.973052070591
-0.17912744140625,-0.1807080078125,0.9526904296875,0.9860837079936294,0.30126953125,-0.216796875,0.26904296875,23.306470588235296,279.973052070591
-0.18254541015625,-0.1733837890625,0.9443896484375,0.9773722797146888,0.3115234375,-0.35107421875,0.4091796875,23.353529411764708,279.973052070591
-0.18986962890625,-0.1694775390625,0.9409716796875,0.9747824445493432,0.31689453125,-0.43310546875,0.54296875,23.21235294117647,279.973052070591
-0.18986962890625,-0.1626416015625,0.9331591796875,0.966068745573968,0.32568359375,-0.5244140625,0.51025390625,23.306470588235296,279.973052070591
-0.19231103515625,-0.1611767578125,0.9419482421875,0.9747963748711516,0.3408203125,-0.623046875,0.740234375,23.25941176470588,279.973052070591
-0.18742822265625,-0.1562939453125,0.9468310546875,0.9777761411028963,0.36865234375,-0.70751953125,0.85595703125,23.21235294117647,279.973052070591
-0.18303369140625,-0.1504345703125,0.9429248046875,0.9722340661743268,0.3994140625,-0.763671875,1.07470703125,23.21235294117647,279.8349561855533
-0.19963525390625,-0.1567822265625,0.9473193359375,0.980738918065952,0.40966796875,-0.84423828125,1.3408203125,23.353529411764708,279.8349561855533
-0.16106103515625,-0.1543408203125,0.9429248046875,0.9689524927236104,0.44140625,-0.98291015625,1.46533203125,23.25941176470588,279.8349561855533
-0.15617822265625,-0.1504345703125,0.9653857421875,0.9894401590778908,0.40283203125,-1.0517578125,1.64306640625,23.353529411764708,279.8349561855533
-0.12395166015625,-0.1641064453125,0.9736865234375,0.995168521091981,0.39013671875,-0.98291015625,1.73876953125,23.353529411764708,279.8349561855533
-0.15178369140625,-0.1401806640625,0.9858935546875,1.0073107806075867,0.3759765625,-0.7861328125,1.67724609375,23.25941176470588,279.8349561855533
-0.18742822265625,-0.1274853515625,1.0005419921875005,1.0258977198734904,0.33056640625,-0.62158203125,1.4326171875,23.165294117647058,279.8349561855533
-0.20793603515625,-0.1279736328125,0.9873583984375,1.017099430919512,0.32666015625,-0.6796875,1.30419921875,23.21235294117647,279.8349561855533
-0.17033837890625,-0.1269970703125,1.0005419921875005,1.022852725140281,0.32958984375,-1.08935546875,1.583984375,23.306470588235296,279.8549341818548
-0.15276025390625,-0.1201611328125,1.0230029296875005,1.0413017752608962,0.38720703125,-1.08642578125,1.79248046875,23.353529411764708,279.8549341818548
-0.14787744140625,-0.1269970703125,1.0347216796875005,1.052922099663664,0.42333984375,-0.97216796875,1.7587890625,23.25941176470588,279.8549341818548
-0.13908837890625,-0.1226025390625,1.0493701171875005,1.065624043730925,0.44384765625,-0.56494140625,1.60107421875,23.21235294117647,279.8549341818548
-0.14885400390625,-0.1250439453125,1.0342333984375005,1.0523460577119197,0.439453125,-0.3515625,1.6240234375,23.306470588235296,279.8549341818548
-0.15813134765625,-0.1240673828125,1.0195849609375005,1.0392072609251002,0.42724609375,-0.3701171875,1.486328125,23.25941176470588,279.8549341818548
-0.15422509765625,-0.1226025390625,1.0088427734375005,1.0279010189939104,0.4326171875,-0.29736328125,1.458984375,23.306470588235296,279.8549341818548
-0.14494775390625,-0.1182080078125,0.9907763671875,1.008276149797627,0.42578125,-0.3701171875,1.36328125,23.306470588235296,279.8549341818548
-0.13420556640625,-0.1143017578125,0.9712451171875,0.9871135211078867,0.41162109375,-0.40380859375,1.23193359375,23.306470588235296,280.1399418695464
-0.12981103515625,-0.1147900390625,0.9663623046875,0.9817758205605004,0.4091796875,-0.4208984375,1.15234375,23.306470588235296,280.1399418695464
-0.12541650390625,-0.1177197265625,0.9585498046875,0.9738608532744608,0.4296875,-0.46484375,1.09521484375,23.306470588235296,280.1399418695464
-0.13420556640625,-0.1191845703125,0.9448779296875,0.9617746086612674,0.4326171875,-0.53173828125,0.97900390625,23.25941176470588,280.1399418695464
-0.13957666015625,-0.1177197265625,0.9395068359375,0.9570855096884582,0.42138671875,-0.67919921875,0.91796875,23.21235294117647,280.1399418695464
-0.13371728515625,-0.1172314453125,0.9619677734375,0.9782665900724185,0.4541015625,-0.8017578125,0.8720703125,23.306470588235296,280.1399418695464
-0.14104150390625,-0.1255322265625,0.9751513671875,0.9932629232270408,0.466796875,-0.8046875,0.865234375,23.25941176470588,280.1399418695464
-0.15568994140625,-0.1191845703125,0.9922412109375,1.011428168649842,0.48046875,-0.6826171875,0.8134765625,23.353529411764708,280.1399418695464
-0.13762353515625,-0.1269970703125,0.9937060546875,1.0111974171344873,0.50244140625,-0.548828125,0.77685546875,23.353529411764708,280.1399418695464
-0.14543603515625,-0.1255322265625,0.9985888671875,1.016902013912119,0.53369140625,-0.42431640625,0.77880859375,23.353529411764708,280.15992140744805
-0.14836572265625,-0.1323681640625,0.9839404296875,1.0038289135555971,0.54345703125,-0.39111328125,0.7275390625,23.353529411764708,280.15992140744805
-0.14934228515625,-0.1240673828125,0.9854052734375,1.0043502310111092,0.5380859375,-0.44775390625,0.61083984375,23.353529411764708,280.15992140744805
-0.14934228515625,-0.1172314453125,0.9849169921875,1.0030492567194398,0.53857421875,-0.451171875,0.53076171875,23.353529411764708,280.15992140744805
-0.15373681640625,-0.1245556640625,0.9888232421875,1.0084247748141548,0.55029296875,-0.4140625,0.50927734375,23.306470588235296,280.15992140744805
-0.14934228515625,-0.1206494140625,0.9810107421875,0.9996206658210828,0.58740234375,-0.36572265625,0.623046875,23.40058823529412,280.15992140744805
-0.14738916015625,-0.1274853515625,0.9761279296875,0.9953902825076122,0.56103515625,-0.35302734375,0.43896484375,23.25941176470588,280.15992140744805
-0.13518212890625,-0.1182080078125,0.9722216796875,0.9886669487451324,0.537109375,-0.38232421875,0.35107421875,23.353529411764708,280.235730251266
-0.14055322265625,-0.1196728515625,0.9868701171875,1.0039867668439797,0.52294921875,-0.34423828125,0.30517578125,23.353529411764708,280.235730251266
-0.13811181640625,-0.1152783203125,0.9976123046875,1.0137032482087696,0.52197265625,-0.1767578125,0.3037109375,23.353529411764708,280.235730251266
-0.15422509765625,-0.1167431640625,0.9902880859375,1.0090019029972943,0.52099609375,0.0341796875,0.31103515625,23.353529411764708,280.235730251266
-0.15715478515625,0.0092333984375,0.9771044921875,0.9897050423218048,0.505859375,0.11865234375,0.20947265625,23.25941176470588,280.235730251266
-0.15080712890625,-0.1206494140625,0.9771044921875,0.9960081625647268,0.50341796875,0.09521484375,0.07177734375,23.165294117647058,280.235730251266
-0.15324853515625,-0.1162548828125,0.9922412109375,1.01071407034235,0.51318359375,0.0986328125,-0.1240234375,23.306470588235296,280.235730251266
-0.15471337890625,-0.1177197265625,0.9883349609375,1.007273626501691,0.52734375,0.20947265625,-0.01953125,23.306470588235296,280.235730251266
-0.14836572265625,-0.1250439453125,0.9897998046875,1.0086387010610092,0.54736328125,0.33642578125,-0.04736328125,23.306470588235296,280.1505170916978
-0.14152978515625,-0.1284619140625,0.9849169921875,1.003291894191639,0.54052734375,0.38720703125,-0.0263671875,23.25941176470588,280.1505170916978
-0.14738916015625,-0.1323681640625,0.9878466796875,1.007514743295829,0.54345703125,0.38818359375,0.00927734375,23.353529411764708,280.1505170916978
-0.14934228515625,-0.1245556640625,0.9824755859375,1.0015365737450506,0.56591796875,0.34130859375,0.0615234375,23.306470588235296,280.1505170916978
-0.15324853515625,-0.1333447265625,0.9854052734375,1.0061259774739932,0.5673828125,0.30712890625,0.0927734375,23.25941176470588,280.1505170916978
-0.14690087890625,-0.1318798828125,0.9937060546875,1.0131258040523223,0.58251953125,0.30859375,0.1083984375,23.353529411764708,280.1505170916978
-0.16154931640625,-0.1338330078125,0.9961474609375,1.0179976520325065,0.58154296875,0.328125,0.1201171875,23.353529411764708,280.1505170916978
-0.15715478515625,-0.1416455078125,0.9741748046875,0.9968839583767496,0.58935546875,0.3798828125,0.1552734375,23.306470588235296,280.1505170916978
-0.17277978515625,-0.1470166015625,0.9873583984375,1.0130860487928417,0.62353515625,0.41259765625,0.28857421875,23.25941176470588,280.1505170916978
-0.17424462890625,-0.1401806640625,0.9683154296875,0.9938040957103006,0.611328125,0.28515625,0.294921875,23.25941176470588,280.1129067900069
-0.14104150390625,-0.1435986328125,0.9448779296875,0.966078451876602,0.6103515625,0.02734375,0.20068359375,23.25941176470588,280.1129067900069
-0.14299462890625,-0.1504345703125,0.9668505859375,0.9888771811346594,0.6201171875,-0.2431640625,0.29345703125,23.353529411764708,280.1129067900069
-0.13225244140625,-0.1484814453125,0.9741748046875,0.9942605282057272,0.66015625,-0.25048828125,0.4345703125,23.40058823529412,280.1129067900069
-0.12639306640625,-0.1406689453125,0.9873583984375,1.0053057079197207,0.66650390625,-0.49560546875,0.4443359375,23.353529411764708,280.1129067900069
-0.16399072265625,-0.1289501953125,0.9966357421875,1.0182356861719588,0.74755859375,-0.21826171875,0.2744140625,23.25941176470588,280.1129067900069
-0.20647119140625,-0.1182080078125,0.9956591796875,1.0236897421033886,0.6357421875,0.05322265625,-0.04638671875,23.25941176470588,280.1129067900069
-0.22600244140625,-0.1167431640625,0.9912646484375,1.023382466685271,0.63623046875,0.1337890625,-0.220703125,23.40058823529412,280.1129067900069
-0.18840478515625,-0.1240673828125,0.9795458984375,1.0051861746430089,0.65380859375,-0.052734375,-0.0498046875,23.25941176470588,280.1129067900069
-0.16594384765625,-0.1416455078125,0.9644091796875,0.9887799938934536,0.71875,-0.3525390625,0.13720703125,23.165294117647058,280.2798038375013
-0.13176416015625,-0.1489697265625,0.9814990234375,1.00144600770214,0.763671875,-0.568359375,0.41845703125,23.306470588235296,280.2798038375013
-0.12395166015625,-0.1528759765625,0.9946826171875,1.013966758429685,0.81103515625,-0.6376953125,0.43603515625,23.25941176470588,280.2798038375013
-0.13029931640625,-0.1396923828125,1.0190966796875005,1.0368461391266584,0.845703125,-0.4814453125,0.29833984375,23.306470588235296,280.2798038375013
-0.14494775390625,-0.1230908203125,1.0298388671875005,1.047248439377068,0.8251953125,-0.26171875,0.13134765625,23.353529411764708,280.2798038375013
-0.15324853515625,-0.1191845703125,1.0303271484375005,1.0484579667947889,0.85009765625,-0.126953125,0.0576171875,23.25941176470588,280.2798038375013
-0.15031884765625,-0.1172314453125,1.0156787109375005,1.0334128950145836,0.87255859375,-0.0888671875,0.0703125,23.353529411764708,280.2798038375013
-0.13908837890625,-0.1245556640625,1.0098193359375005,1.0269346531450154,0.91259765625,-0.15185546875,0.12060546875,23.306470588235296,280.2798038375013
-0.13811181640625,-0.1226025390625,1.0073779296875005,1.0241662705035153,0.95458984375,-0.1787109375,0.1591796875,23.25941176470588,280.00595275971136
-0.12785791015625,-0.1152783203125,1.0015185546875005,1.016206746536813,0.96533203125,-0.1513671875,0.12890625,23.306470588235296,280.00595275971136
-0.12834619140625,-0.1157666015625,1.0029833984375005,1.0177673351149847,0.9765625,-0.10791015625,0.0849609375,23.306470588235296,280.00595275971136
-0.13762353515625,-0.1172314453125,0.9932177734375,1.009537019960688,0.99462890625,-0.0712890625,0.08935546875,23.40058823529412,280.00595275971136
-0.13518212890625,-0.1162548828125,0.9985888671875,1.0143811568755547,1.00830078125,-0.02392578125,0.12255859375,23.44764705882353,280.00595275971136
-0.13176416015625,-0.1186962890625,0.9937060546875,1.009406917977823,1.01123046875,-0.0146484375,0.1630859375,23.25941176470588,280.00595275971136
-0.13762353515625,-0.1138134765625,0.9961474609375,1.0120294011580764,1.0048828125,-0.01513671875,0.189453125,23.353529411764708,280.00595275971136
-0.14250634765625,-0.1172314453125,0.9966357421875,1.0135748978235457,1.0107421875,0.01611328125,0.1953125,23.21235294117647,280.00595275971136
-0.14397119140625,-0.1235791015625,0.9883349609375,1.0063823792720437,1.00439453125,0.07373046875,0.16357421875,23.25941176470588,280.3532633107605
-0.14104150390625,-0.1240673828125,0.9893115234375,1.006986947138992,1.015625,0.123046875,0.14794921875,23.21235294117647,280.3532633107605
-0.13762353515625,-0.1240673828125,0.9907763671875,1.0079537502703717,0.9814453125,0.14892578125,0.17529296875,23.25941176470588,280.3532633107605
-0.12883447265625,-0.1240673828125,0.9873583984375,1.0034279464852585,0.99072265625,0.1494140625,0.22021484375,23.21235294117647,280.3532633107605
-0.13567041015625,-0.1235791015625,0.9863818359375,1.003308218247211,0.97265625,0.1376953125,0.25830078125,23.306470588235296,280.3532633107605
-0.12736962890625,-0.1338330078125,0.9849169921875,1.0020956929592746,0.96533203125,0.11328125,0.26220703125,23.306470588235296,280.3532633107605
-0.13713525390625,-0.1313916015625,0.9756396484375,0.993952994073834,0.94189453125,0.05859375,0.27294921875,23.353529411764708,280.3532633107605
-0.13274072265625,-0.1269970703125,0.9751513671875,0.9923046630178216,0.9306640625,0.013671875,0.3115234375,23.21235294117647,280.3532633107605
-0.13371728515625,-0.1294384765625,0.9805224609375,0.9980275186423018,0.92138671875,-0.0224609375,0.35986328125,23.353529411764708,280.3532633107605
-0.13908837890625,-0.1221142578125,0.9883349609375,1.0055165160847417,0.90771484375,-0.05224609375,0.3779296875,23.21235294117647,280.2574726519107
-0.14152978515625,-0.1250439453125,0.9927294921875,1.0105337762809028,0.896484375,-0.05419921875,0.365234375,23.306470588235296,280.2574726519107
-0.13811181640625,-0.1177197265625,0.9966357421875,1.013023005888125,0.89404296875,-0.04443359375,0.34912109375,23.353529411764708,280.2574726519107
-0.13762353515625,-0.1240673828125,0.9932177734375,1.0103536501537431,0.89599609375,-0.03662109375,0.3515625,23.306470588235296,280.2574726519107
-0.14104150390625,-0.2358837890625,0.9932177734375,1.0305413204907234,0.876953125,-0.0244140625,0.3896484375,23.40058823529412,280.2574726519107
-0.14397119140625,-0.2353955078125,0.9907763671875,1.02848264877464,0.8876953125,-0.0185546875,0.43505859375,23.353529411764708,280.2574726519107
-0.14348291015625,-0.1182080078125,0.9873583984375,1.0047074626890018,0.890625,-0.01416015625,0.4521484375,23.25941176470588,280.2574726519107
-0.14348291015625,-0.1123486328125,0.9990771484375,1.0155612779796948,0.88037109375,-0.12158203125,0.45654296875,23.25941176470588,280.2574726519107
-0.13957666015625,-0.2358837890625,0.9902880859375,1.0275180286265604,0.888671875,0.12109375,0.44140625,23.353529411764708,280.15286751094385
-0.13322900390625,-0.1074658203125,0.9814990234375,0.9963128038051384,0.88427734375,0.0107421875,0.43701171875,23.353529411764708,280.15286751094385
-0.14494775390625,-0.1069775390625,0.9941943359375,1.0103842946307815,0.8896484375,0.0537109375,0.3876953125,23.21235294117647,280.15286751094385
-0.14104150390625,-0.1025830078125,0.9912646484375,1.0064897329619993,0.89501953125,0.07470703125,0.31884765625,23.25941176470588,280.15286751094385
-0.14250634765625,-0.0986767578125,0.9854052734375,1.0005342145939562,0.87939453125,0.0625,0.25244140625,23.40058823529412,280.15286751094385
-0.14738916015625,-0.0981884765625,1.0005419921875005,1.0160948871004918,0.89501953125,0.0869140625,0.2021484375,23.25941176470588,280.15286751094385
-0.17180322265625,-0.0972119140625,0.9990771484375,1.0183916987489512,0.896484375,0.2333984375,0.21435546875,23.306470588235296,280.15286751094385
-0.12639306640625,-0.1030712890625,0.9883349609375,1.001700999737901,0.8994140625,0.05859375,0.1640625,23.353529411764708,280.09468946084814
-0.13469384765625,-0.1177197265625,0.9829638671875,0.9991087682602932,0.890625,0.03173828125,0.23291015625,23.306470588235296,280.09468946084814
-0.13029931640625,-0.1216259765625,0.9785693359375,0.9946701640583564,0.91259765625,0.02880859375,0.26123046875,23.25941176470588,280.09468946084814
-0.12492822265625,-0.1177197265625,0.9844287109375,0.9992821832475888,0.90234375,0.04833984375,0.22412109375,23.306470588235296,280.09468946084814
-0.15373681640625,-0.0942822265625,0.9839404296875,1.0003314031549413,0.8564453125,0.0576171875,0.07373046875,23.21235294117647,280.09468946084814
-0.18108056640625,-0.0933056640625,0.9971240234375,1.0177192326925637,0.8232421875,0.11962890625,-0.18798828125,23.353529411764708,280.09468946084814
-0.18742822265625,-0.0923291015625,0.9883349609375,1.010178200445223,0.82080078125,0.04931640625,-0.30419921875,23.25941176470588,280.09468946084814
-0.16789697265625,-0.1040478515625,0.9902880859375,1.009794950468491,0.796875,-0.1708984375,-0.1689453125,23.40058823529412,280.3526859806439
-0.14934228515625,-0.1177197265625,0.9946826171875,1.0126966777335726,0.82763671875,-0.27978515625,-0.05224609375,23.25941176470588,280.3526859806439
-0.13811181640625,-0.1162548828125,1.0161669921875005,1.032078208092862,0.85791015625,-0.25146484375,-0.01171875,23.25941176470588,280.3526859806439
-0.14152978515625,-0.1186962890625,1.0205615234375005,1.0371428600943335,0.86376953125,-0.08642578125,-0.06591796875,23.353529411764708,280.3526859806439
-0.14934228515625,-0.1055126953125,1.0186083984375005,1.0348908717228154,0.75537109375,0.0107421875,-0.095703125,23.40058823529412,280.3526859806439
-0.16350244140625,-0.1025830078125,1.0225146484375005,1.040573172874896,0.857421875,0.2724609375,-0.15234375,23.306470588235296,280.3526859806439
-0.16594384765625,-0.1040478515625,1.0015185546875005,1.02049141660921,0.84033203125,0.30615234375,-0.23486328125,23.21235294117647,280.3526859806439
-0.15959619140625,-0.0962353515625,0.9961474609375,1.0134307826062747,0.84716796875,0.296875,-0.26416015625,23.353529411764708,280.3526859806439
-0.15080712890625,-0.1040478515625,0.9893115234375,1.006134203747167,0.8515625,0.2666015625,-0.294921875,23.21235294117647,280.43731362989536
-0.13664697265625,-0.1050244140625,0.9800341796875,0.9950726184761796,0.85693359375,0.22265625,-0.3056640625,23.306470588235296,280.43731362989536
-0.13371728515625,-0.1084423828125,0.9795458984375,0.994560319882781,0.8671875,0.1708984375,-0.31005859375,23.21235294117647,280.43731362989536
-0.14445947265625,-0.1060009765625,0.9678271484375,0.9842734048652276,0.88525390625,0.11279296875,-0.31884765625,23.25941176470588,280.43731362989536
-0.14055322265625,-0.1055126953125,0.9854052734375,1.0009553887110054,0.8955078125,0.1376953125,-0.30908203125,23.25941176470588,280.43731362989536
-0.14983056640625,-0.1084423828125,0.9824755859375,0.9997335775009784,0.87939453125,0.16162109375,-0.3330078125,23.165294117647058,280.43731362989536
-0.14690087890625,-0.1206494140625,0.9897998046875,1.0078887848847544,0.88330078125,0.15869140625,-0.3349609375,23.40058823529412,280.43731362989536
-0.13713525390625,-0.1123486328125,0.9858935546875,1.001705742388015,0.8720703125,0.16845703125,-0.35498046875,23.25941176470588,280.43731362989536
-0.14934228515625,-0.1147900390625,0.9961474609375,1.0137996030458334,0.86376953125,0.1943359375,-0.38232421875,23.306470588235296,280.43731362989536
-0.14641259765625,-0.1196728515625,0.9858935546875,1.0038647027004712,0.86669921875,0.20263671875,-0.42919921875,23.21235294117647,280.2504248070541
-0.14299462890625,-0.1167431640625,0.9849169921875,1.0020668200030536,0.849609375,0.16845703125,-0.451171875,23.306470588235296,280.2504248070541
-0.14690087890625,-0.1167431640625,0.9888232421875,1.0064691941976922,0.8466796875,0.16015625,-0.427734375,23.353529411764708,280.2504248070541
-0.15568994140625,-0.1167431640625,0.9937060546875,1.012580884341099,0.84765625,0.1806640625,-0.39453125,23.25941176470588,280.2504248070541
-0.15715478515625,-0.2358837890625,0.9888232421875,1.0286448331324998,0.845703125,0.1904296875,-0.49951171875,23.25941176470588,280.2504248070541
-0.15129541015625,-0.2363720703125,0.9897998046875,1.0288176272389478,0.8515625,0.18115234375,-0.384765625,23.353529411764708,280.2504248070541
-0.16301416015625,-0.1216259765625,0.9883349609375,1.0090453357493705,0.8515625,0.19091796875,-0.3828125,23.353529411764708,280.2504248070541
-0.16643212890625,-0.1255322265625,0.9834521484375,1.0053039946724274,0.8671875,0.14306640625,-0.33935546875,23.25941176470588,280.2504248070541
-0.16057275390625,-0.1255322265625,0.9810107421875,1.001960091765159,0.84814453125,0.1259765625,-0.3154296875,23.40058823529412,279.9072272125976
-0.15129541015625,-0.1289501953125,0.9858935546875,1.005735827730043,0.8486328125,0.1103515625,-0.31787109375,23.25941176470588,279.9072272125976
-0.15227197265625,-0.1250439453125,0.9824755859375,1.0020384318374098,0.8544921875,0.11767578125,-0.30615234375,23.353529411764708,279.9072272125976
-0.15178369140625,-0.1284619140625,0.9844287109375,1.0043110271522349,0.83544921875,0.11083984375,-0.2919921875,23.40058823529412,279.9072272125976
-0.15080712890625,-0.1235791015625,0.9790576171875,0.9982827266084524,0.8515625,0.09912109375,-0.2890625,23.353529411764708,279.9072272125976
-0.15324853515625,-0.1191845703125,0.9829638671875,1.0019521143868688,0.83349609375,0.060546875,-0.291015625,23.25941176470588,279.9072272125976
-0.15178369140625,-0.1196728515625,0.9790576171875,0.997954757567132,0.82861328125,0.01513671875,-0.2734375,23.306470588235296,279.9072272125976
-0.15276025390625,-0.1172314453125,0.9810107421875,0.9997304552882388,0.82470703125,-0.013671875,-0.275390625,23.306470588235296,279.9072272125976
-0.15227197265625,-0.1147900390625,0.9766162109375,0.9950591591410612,0.83251953125,-0.0029296875,-0.26318359375,23.306470588235296,279.94307289195825
-0.14543603515625,-0.1186962890625,0.9736865234375,0.9916178171467998,0.8349609375,-0.0048828125,-0.24853515625,23.353529411764708,279.94307289195825
-0.15227197265625,-0.1177197265625,0.9790576171875,0.9977968257373044,0.82373046875,0.00537109375,-0.23583984375,23.40058823529412,279.94307289195825
-0.15520166015625,-0.1147900390625,0.9858935546875,1.0046145577073733,0.83447265625,0.01513671875,-0.22119140625,23.25941176470588,279.94307289195825
-0.14885400390625,-0.1055126953125,0.9849169921875,1.0016745603491697,0.82421875,-0.0107421875,-0.23291015625,23.306470588235296,279.94307289195825
-0.14299462890625,-0.1157666015625,0.9893115234375,1.006273650822476,0.82958984375,-0.03076171875,-0.3671875,23.306470588235296,279.94307289195825
-0.15861962890625,-0.1094189453125,0.9844287109375,1.0031114490353126,0.83642578125,0.0087890625,-0.18115234375,23.353529411764708,279.94307289195825
-0.16057275390625,-0.1147900390625,0.9819873046875,1.0016283886414303,0.8251953125,0.107421875,-0.1572265625,23.21235294117647,279.94307289195825
-0.12102197265625,-0.1177197265625,0.9785693359375,0.9930267857035476,0.796875,-0.17236328125,-0.12939453125,23.353529411764708,279.94307289195825
-0.11369775390625,-0.1269970703125,0.9863818359375,1.0010017789088677,0.80859375,-0.26171875,0.029296875,23.353529411764708,280.2057633514386
-0.11174462890625,-0.1377392578125,0.9858935546875,1.001721052192919,0.82275390625,-0.1943359375,0.12060546875,23.21235294117647,280.2057633514386
-0.13713525390625,-0.1216259765625,1.0029833984375005,1.0195953381513427,0.81103515625,-0.00341796875,0.01806640625,23.40058823529412,280.2057633514386
-0.17180322265625,-0.0981884765625,1.0000537109375005,1.0194433525236226,0.78173828125,0.1123046875,-0.21826171875,23.40058823529412,280.2057633514386
-0.20256494140625,-0.0957470703125,0.9937060546875,1.0186519425608245,0.76318359375,0.11376953125,-0.45703125,23.353529411764708,280.2057633514386
-0.18108056640625,-0.0996533203125,0.9644091796875,0.986309293094631,0.7783203125,-0.07666015625,-0.3134765625,23.306470588235296,280.2057633514386
-0.14104150390625,-0.1196728515625,0.9897998046875,1.006934928674465,0.8125,-0.27587890625,0.0615234375,23.25941176470588,280.2057633514386
-0.12053369140625,-0.1352978515625,0.9907763671875,1.0072098535949223,0.83251953125,-0.2001953125,0.23583984375,23.40058823529412,280.2057633514386
-0.12248681640625,-0.1255322265625,1.0112841796875005,1.0263805591423183,0.83203125,0.0205078125,0.08203125,23.353529411764708,279.87843038882494
-0.13811181640625,-0.1196728515625,1.0034716796875005,1.019976410103188,0.8056640625,0.423828125,-0.08544921875,23.306470588235296,279.87843038882494
-0.14299462890625,0.0102099609375,0.9824755859375,0.992879642334163,0.80224609375,0.390625,-0.10009765625,23.353529411764708,279.87843038882494
-0.15227197265625,-0.1108837890625,0.9653857421875,0.9835911750073772,0.7880859375,0.23388671875,-0.0361328125,23.353529411764708,279.87843038882494
-0.13225244140625,-0.2305126953125,0.9644091796875,1.0003558750882926,0.80078125,-0.1103515625,-0.033203125,23.353529411764708,279.87843038882494
-0.12151025390625,-0.1123486328125,0.9844287109375,0.9982418765095298,0.80322265625,-0.07958984375,-0.046875,23.306470588235296,279.87843038882494
-0.12492822265625,-0.1196728515625,0.9976123046875,1.012501339594697,0.81201171875,0.109375,-0.0390625,23.25941176470588,279.87843038882494
-0.13176416015625,-0.1138134765625,0.9961474609375,1.0112492597184697,0.8251953125,0.27001953125,-0.0244140625,23.21235294117647,279.87843038882494
-0.12199853515625,-0.1118603515625,0.9897998046875,1.0035437380559804,0.8134765625,0.3525390625,0.0146484375,23.25941176470588,280.1699194412722
-0.13078759765625,-0.1123486328125,0.9951708984375,1.0099964000393429,0.818359375,0.40869140625,0.04638671875,23.353529411764708,280.1699194412722
-0.12932275390625,-0.2290478515625,0.9937060546875,1.0279294801229757,0.81103515625,0.3857421875,0.0166015625,23.353529411764708,280.1699194412722
-0.13615869140625,-0.1113720703125,0.9863818359375,1.0019441369450637,0.787109375,0.3408203125,0.0068359375,23.306470588235296,280.1699194412722
-0.14494775390625,-0.1133251953125,1.0098193359375005,1.0264441253611114,0.77001953125,0.36279296875,0.03662109375,23.21235294117647,280.1699194412722
-0.15568994140625,-0.1079541015625,0.9985888671875,1.0164020718052786,0.78857421875,0.44091796875,0.0869140625,23.306470588235296,280.1699194412722
-0.14397119140625,-0.1103955078125,0.9995654296875,1.0158966090732224,0.78125,0.53515625,0.0615234375,23.306470588235296,280.1699194412722
-0.14543603515625,-0.1172314453125,0.9971240234375,1.0144708818927313,0.76953125,0.58251953125,0.03857421875,23.306470588235296,280.1699194412722
-0.15324853515625,-0.1113720703125,0.9966357421875,1.0144809777314003,0.76708984375,0.583984375,0.05517578125,23.25941176470588,280.1699194412722
-0.15373681640625,-0.1123486328125,0.9912646484375,1.0093873524348755,0.7705078125,0.57275390625,0.099609375,23.40058823529412,280.2034151980235
-0.15471337890625,-0.1172314453125,0.9795458984375,0.998593815586886,0.78369140625,0.59130859375,0.1357421875,23.25941176470588,280.2034151980235
-0.15715478515625,-0.1103955078125,0.9868701171875,1.0053842165263769,0.79638671875,0.59912109375,0.17919921875,23.21235294117647,280.2034151980235
-0.16203759765625,-0.1084423828125,0.9771044921875,0.99636796521027,0.8134765625,0.615234375,0.18994140625,23.306470588235296,280.2034151980235
-0.15861962890625,-0.1128369140625,0.9834521484375,1.0025320364536183,0.783203125,0.5546875,0.17236328125,23.353529411764708,280.2034151980235
-0.16545556640625,-0.1133251953125,0.9736865234375,0.9941245345887176,0.78662109375,0.4677734375,0.1474609375,23.306470588235296,280.2034151980235
-0.29094384765625,-0.1235791015625,0.9741748046875,1.024176091753731,0.78759765625,0.40478515625,0.1494140625,23.40058823529412,280.2034151980235
-0.17522119140625,-0.1138134765625,0.9771044921875,0.999194256397654,0.7919921875,0.38330078125,0.17919921875,23.306470588235296,280.2034151980235
-0.17912744140625,-0.1162548828125,0.9761279296875,0.9992134772702492,0.802734375,0.3779296875,0.189453125,23.306470588235296,280.2034151980235
-0.17424462890625,-0.1143017578125,0.9883349609375,1.0100653828109516,0.80712890625,0.44091796875,0.189453125,23.25941176470588,280.0382849082494
-0.17229150390625,-0.1177197265625,0.9702685546875,0.9924532052220888,0.81298828125,0.509765625,0.154296875,23.21235294117647,280.0382849082494
-0.18352197265625,-0.1162548828125,0.9707568359375,0.9947684890188148,0.8212890625,0.56787109375,0.1279296875,23.353529411764708,280.0382849082494
-0.17131494140625,-0.1138134765625,0.9614794921875,0.983231982033438,0.8095703125,0.515625,0.09716796875,23.21235294117647,280.0382849082494
-0.18352197265625,-0.1133251953125,0.9439013671875,0.968231741536441,0.79443359375,0.3984375,0.0517578125,23.40058823529412,280.0382849082494
-0.18059228515625,-0.1108837890625,0.9526904296875,0.975975329069832,0.7890625,0.37109375,0.015625,23.353529411764708,280.0382849082494
-0.18791650390625,0.0116748046875,0.9531787109375,0.9715958874394812,0.78857421875,0.1337890625,0.02734375,23.306470588235296,280.0382849082494
-0.19133447265625,-0.1138134765625,0.9673388671875,0.9926262498269346,0.80126953125,0.0478515625,0.07177734375,23.25941176470588,280.0382849082494
-0.19231103515625,-0.1186962890625,0.9849169921875,1.0105116648410095,0.82373046875,0.05712890625,0.11328125,23.306470588235296,280.3568106125615
-0.18498681640625,-0.1138134765625,0.9868701171875,1.0104881285245426,0.8427734375,0.06982421875,0.12060546875,23.306470588235296,280.3568106125615
-0.18596337890625,-0.1162548828125,1.0010302734375005,1.024772747691084,0.861328125,0.11279296875,0.07275390625,23.25941176470588,280.3568106125615
-0.18254541015625,-0.1143017578125,1.0107958984375005,1.033487332726538,0.755859375,0.23388671875,0.06640625,23.25941176470588,280.3568106125615
-0.19328759765625,-0.1016064453125,1.0015185546875005,1.0250479893742075,0.87841796875,0.28955078125,0.05712890625,23.353529411764708,280.3568106125615
-0.16350244140625,-0.1196728515625,0.9878466796875,1.008412466363106,0.89306640625,0.18310546875,0.041015625,23.306470588235296,280.3568106125615
-0.16692041015625,-0.1201611328125,0.9849169921875,1.0061623142739875,0.91552734375,0.06591796875,0.1455078125,23.353529411764708,280.3568106125615
-0.15617822265625,-0.1240673828125,0.9917529296875,1.0116116973689795,0.9248046875,0.017578125,0.15966796875,23.25941176470588,280.0870694261136
-0.17668603515625,-0.1025830078125,0.9897998046875,1.010665563809566,0.888671875,0.0322265625,0.06005859375,23.25941176470588,280.0870694261136
-0.20549462890625,-0.0893994140625,0.9912646484375,1.016280424383918,0.89013671875,0.16064453125,-0.205078125,23.306470588235296,280.0870694261136
-0.22746728515625,-0.0957470703125,0.9805224609375,1.0111049221978463,0.9951171875,0.1865234375,-0.390625,23.25941176470588,280.0870694261136
-0.20061181640625,0.0121630859375,0.9771044921875,0.997560138635426,0.89599609375,-0.02734375,-0.232421875,23.306470588235296,280.0870694261136
-0.18059228515625,-0.1265087890625,0.9800341796875,1.0045322496185811,0.9267578125,-0.17431640625,0.0361328125,23.306470588235296,280.0870694261136
-0.16838525390625,-0.1304150390625,0.9854052734375,1.0081593272222302,0.95263671875,-0.20849609375,0.17138671875,23.306470588235296,280.0870694261136
-0.17229150390625,-0.1260205078125,0.9937060546875,1.0163745637461588,0.96630859375,-0.24951171875,0.12646484375,23.40058823529412,280.0870694261136
-0.17180322265625,-0.1172314453125,0.9971240234375,1.0185852331549476,0.947265625,0.0244140625,0.00390625,23.353529411764708,280.062393350728
-0.18205712890625,-0.1094189453125,1.0010302734375005,1.0233176008049718,0.93212890625,0.107421875,-0.0927734375,23.353529411764708,280.062393350728
-0.20012353515625,0.0131396484375,0.9893115234375,1.0094351737931084,0.92138671875,0.13818359375,-0.111328125,23.353529411764708,280.062393350728
-0.19768212890625,-0.1064892578125,0.9844287109375,1.009711876248087,0.935546875,0.115234375,-0.0615234375,23.306470588235296,280.062393350728
-0.18254541015625,-0.1103955078125,0.9888232421875,1.0115737240579614,0.93212890625,0.103515625,0.01123046875,23.353529411764708,280.062393350728
-0.17326806640625,-0.1211376953125,0.9878466796875,1.01021642563928,0.94287109375,0.1064453125,0.0693359375,23.306470588235296,280.062393350728
-0.16643212890625,-0.1182080078125,0.9795458984375,1.0005913020754258,0.943359375,0.1494140625,0.07861328125,23.40058823529412,280.062393350728
-0.15959619140625,-0.1162548828125,0.9712451171875,0.9911121126036596,0.90869140625,0.2412109375,0.07861328125,23.306470588235296,280.062393350728
-0.15813134765625,-0.1172314453125,0.9775927734375,0.9972143027247768,0.9072265625,0.33837890625,0.07666015625,23.306470588235296,280.062393350728
-0.17277978515625,-0.1230908203125,0.9766162109375,0.9993915287162304,0.8671875,0.40185546875,0.06884765625,23.21235294117647,280.3697589793513
-0.17619775390625,-0.1162548828125,0.9697802734375,0.9924891057376236,0.85107421875,0.40625,0.05859375,23.353529411764708,280.3697589793513
-0.18449853515625,-0.1245556640625,0.9780810546875,1.0030934016648023,0.81787109375,0.38720703125,0.0908203125,23.306470588235296,280.3697589793513
-0.18449853515625,-0.1299267578125,0.9893115234375,1.0147206326258953,0.7900390625,0.49560546875,0.16015625,23.40058823529412,280.3697589793513
-0.18889306640625,-0.1167431640625,0.9937060546875,1.0182147514224476,0.7724609375,0.4169921875,0.2197265625,23.353529411764708,280.3697589793513
-0.18742822265625,-0.1221142578125,0.9971240234375,1.021908777105553,0.765625,0.49072265625,0.1943359375,23.353529411764708,280.3697589793513
-0.19279931640625,-0.1284619140625,1.0015185546875005,1.0279656877321626,0.6259765625,0.56982421875,0.17138671875,23.353529411764708,280.3697589793513
-0.18938134765625,-0.1269970703125,0.9907763671875,1.0166766253265171,0.74462890625,0.6376953125,0.1826171875,23.353529411764708,280.3697589793513
-0.19572900390625,-0.1240673828125,0.9839404296875,1.0108616758101467,0.75390625,0.7109375,0.17724609375,23.25941176470588,279.9666011653304
-0.19328759765625,-0.1182080078125,0.9766162109375,1.0025529671716322,0.75927734375,0.6962890625,0.126953125,23.306470588235296,279.9666011653304
-0.19572900390625,-0.2363720703125,0.9624560546875,1.0101996118582597,0.75146484375,0.630859375,0.08447265625,23.40058823529412,279.9666011653304
-0.18303369140625,-0.1123486328125,0.9658740234375,0.9894625695982544,0.7666015625,0.50390625,0.0458984375,23.25941176470588,279.9666011653304
-0.18986962890625,-0.1133251953125,0.9585498046875,0.9837229304738492,0.7763671875,0.39306640625,0.0712890625,23.353529411764708,279.9666011653304
-0.18840478515625,0.0116748046875,0.9736865234375,0.9918155625206077,0.77490234375,0.306640625,0.07421875,23.306470588235296,279.9666011653304
-0.18254541015625,-0.1186962890625,0.9717333984375,0.9958300223658731,0.80908203125,0.2509765625,0.05029296875,23.353529411764708,279.9666011653304
-0.18938134765625,-0.1255322265625,0.9839404296875,1.0098328593977612,0.78076171875,0.2744140625,0.03369140625,23.353529411764708,279.9666011653304
-0.18547509765625,-0.1309033203125,0.9873583984375,1.0131205743071738,0.77783203125,0.32373046875,0.052734375,23.25941176470588,280.2093201434713
-0.18401025390625,-0.1279736328125,0.9810107421875,1.0062897696613735,0.75244140625,0.32177734375,0.0556640625,23.40058823529412,280.2093201434713
-0.18645166015625,-0.1250439453125,0.9751513671875,1.0006599815931423,0.7578125,0.2861328125,0.03955078125,23.40058823529412,280.2093201434713
-0.18352197265625,-0.1274853515625,0.9658740234375,0.9913856255070476,0.73876953125,0.19287109375,0.01416015625,23.306470588235296,280.2093201434713
-0.19475244140625,-0.1250439453125,0.9839404296875,1.010793386833646,0.7216796875,0.1591796875,0.025390625,23.306470588235296,280.2093201434713
-0.19817041015625,-0.1206494140625,0.9771044921875,1.0042713683203923,0.75146484375,0.15234375,0.0888671875,23.25941176470588,280.2093201434713
-0.19719384765625,-0.1226025390625,0.9819873046875,1.0090668276707293,0.7333984375,0.19384765625,0.1064453125,23.353529411764708,280.2093201434713
-0.20647119140625,-0.1211376953125,0.9712451171875,1.000310837573452,0.74658203125,0.2431640625,0.095703125,23.353529411764708,280.2093201434713
-0.20305322265625,-0.1221142578125,0.9653857421875,0.9940382962497456,0.74267578125,0.2265625,0.03662109375,23.306470588235296,280.2093201434713
-0.20647119140625,-0.1177197265625,0.9609912109375,0.9899456522465204,0.74755859375,0.16552734375,-0.0126953125,23.353529411764708,279.9954041015267
-0.19719384765625,-0.1186962890625,0.9756396484375,1.0024205435813522,0.765625,0.16064453125,-0.00927734375,23.353529411764708,279.9954041015267
-0.21721337890625,-0.1094189453125,0.9639208984375,0.9941316090004017,0.7646484375,0.14208984375,0.04833984375,23.306470588235296,279.9954041015267
-0.19768212890625,-0.1147900390625,0.9551318359375,0.982105799381216,0.775390625,-0.01904296875,0.08203125,23.353529411764708,279.9954041015267
-0.16203759765625,-0.1211376953125,0.9565966796875,0.977756478817186,0.80029296875,-0.15673828125,0.2255859375,23.306470588235296,279.9954041015267
-0.15715478515625,-0.1318798828125,0.9653857421875,0.9869445583248616,0.82275390625,-0.17041015625,0.39013671875,23.40058823529412,279.9954041015267
-0.16545556640625,-0.1367626953125,0.9702685546875,0.9937306715098024,0.8310546875,-0.044921875,0.41796875,23.306470588235296,279.9954041015267
-0.18742822265625,-0.1201611328125,0.9702685546875,0.9954843568345182,0.8125,0.07080078125,0.28515625,23.306470588235296,279.9954041015267
-0.22502587890625,0.0116748046875,0.9819873046875,1.0075078232001191,0.77197265625,0.13232421875,0.0634765625,23.306470588235296,280.3339201801154
-0.25041650390625,-0.1045361328125,0.9692919921875,1.0065600799807404,0.7919921875,0.0693359375,-0.076171875,23.25941176470588,280.3339201801154
-0.23723291015625,-0.1084423828125,0.9575732421875,0.9924644669733708,0.7802734375,-0.0986328125,0.0341796875,23.353529411764708,280.3339201801154
-0.21184228515625,-0.1191845703125,0.9580615234375,0.988414891769737,0.81982421875,-0.27880859375,0.2998046875,23.25941176470588,280.3339201801154
-0.19279931640625,-0.1201611328125,0.9702685546875,0.9965095797135474,0.8291015625,-0.3232421875,0.52294921875,23.306470588235296,280.3339201801154
-0.18254541015625,-0.1260205078125,0.9917529296875,1.016256792696695,0.83154296875,-0.267578125,0.52880859375,23.25941176470588,280.3339201801154
-0.20256494140625,-0.1147900390625,1.0000537109375005,1.0267992663197385,0.83740234375,-0.06884765625,0.3759765625,23.25941176470588,280.3339201801154
-0.21184228515625,-0.1030712890625,0.9951708984375,1.0226758829199645,0.82373046875,0.14990234375,0.2421875,23.353529411764708,280.3339201801154
-0.22111962890625,-0.1006298828125,0.9785693359375,1.008274867702084,0.8212890625,0.138671875,0.234375,23.25941176470588,280.3339201801154
-0.21526025390625,-0.1069775390625,0.9556201171875,0.9853887451910048,0.83251953125,-0.115234375,0.24462890625,23.306470588235296,280.282784607752
-0.20598291015625,-0.1011181640625,0.9429248046875,0.9704437282371238,0.82958984375,-0.36083984375,0.24072265625,23.25941176470588,280.282784607752
-0.19963525390625,-0.1055126953125,0.9517138671875,0.9781341669072336,0.83251953125,-0.478515625,0.23828125,23.40058823529412,280.282784607752
-0.19475244140625,-0.1050244140625,0.9648974609375,0.989942296856994,0.8515625,-0.41162109375,0.216796875,23.25941176470588,280.282784607752
-0.19231103515625,-0.1011181640625,0.9653857421875,0.9895342584090504,0.8505859375,-0.3564453125,0.2177734375,23.306470588235296,280.282784607752
-0.20647119140625,-0.1074658203125,0.9814990234375,1.0087217596666194,0.8603515625,-0.31640625,0.2421875,23.25941176470588,280.282784607752
-0.20988916015625,-0.1103955078125,0.9775927734375,1.0059464490585466,0.84521484375,-0.3125,0.2080078125,23.306470588235296,280.282784607752
-0.19572900390625,-0.1172314453125,0.9766162109375,1.002911899523637,0.81982421875,-0.35498046875,0.16455078125,23.353529411764708,280.282784607752
-0.19670556640625,-0.2358837890625,0.9790576171875,1.026103337666607,0.83544921875,-0.412109375,0.14697265625,23.25941176470588,280.2627995835794
-0.20500634765625,-0.1094189453125,0.9678271484375,0.9953338622921044,0.814453125,-0.435546875,0.08056640625,23.25941176470588,280.2627995835794
-0.19865869140625,-0.1074658203125,0.9785693359375,1.0042968303464082,0.8154296875,-0.44970703125,0.12451171875,23.25941176470588,280.2627995835794
-0.19328759765625,-0.1123486328125,0.9800341796875,1.0052110743810545,0.79931640625,-0.4755859375,-0.12158203125,23.306470588235296,280.2627995835794
-0.19084619140625,-0.1118603515625,0.9810107421875,1.0056426220647308,0.81494140625,-0.462890625,0.05078125,23.25941176470588,280.2627995835794
-0.19426416015625,-0.1118603515625,0.9712451171875,0.9967790025042964,0.83056640625,-0.43798828125,0.08447265625,23.306470588235296,280.2627995835794
-0.18840478515625,-0.1108837890625,0.9819873046875,1.006027158835213,0.8447265625,-0.43408203125,0.09765625,23.353529411764708,280.2627995835794
-0.17961572265625,-0.1128369140625,0.9839404296875,1.006544954869924,0.841796875,-0.41064453125,0.11083984375,23.306470588235296,280.21345187211824
-0.17766259765625,-0.2339306640625,0.9863818359375,1.0291922466002754,0.83837890625,-0.41064453125,0.24609375,23.306470588235296,280.21345187211824
-0.18645166015625,-0.1108837890625,0.9834521484375,1.0070936225188865,0.84033203125,-0.40771484375,0.1181640625,23.353529411764708,280.21345187211824
-0.18352197265625,0.0111865234375,0.9692919921875,0.9865761090119056,0.85595703125,-0.36181640625,0.08740234375,23.21235294117647,280.21345187211824
-0.18645166015625,-0.1133251953125,0.9717333984375,0.9959280190387916,0.84228515625,-0.37353515625,0.0791015625,23.306470588235296,280.21345187211824
-0.18205712890625,-0.1089306640625,0.9678271484375,0.9908077901446612,0.84619140625,-0.39599609375,0.0478515625,23.44764705882353,280.21345187211824
-0.28996728515625,-0.1133251953125,0.9741748046875,1.0227121669567794,0.84130859375,-0.40625,0.04248046875,23.306470588235296,280.21345187211824
-0.17375634765625,-0.1113720703125,0.9756396484375,0.9972300286291929,0.83349609375,-0.4072265625,0.05712890625,23.306470588235296,280.21345187211824
-0.17570947265625,-0.1103955078125,0.9761279296875,0.9979412417784538,0.8193359375,-0.3857421875,0.05126953125,23.306470588235296,280.21345187211824
-0.04338525390625,-0.1055126953125,0.9766162109375,0.9832570531628736,0.8291015625,-0.37353515625,0.0517578125,23.353529411764708,280.2581107627599
-0.29240869140625,-0.2305126953125,0.9707568359375,1.0397152398755802,0.8310546875,-0.37060546875,0.0537109375,23.353529411764708,280.2581107627599
-0.16643212890625,-0.1118603515625,0.9819873046875,1.0022531907414285,0.80908203125,-0.361328125,0.0517578125,23.306470588235296,280.2581107627599
-0.04338525390625,-0.1089306640625,0.9814990234375,0.9884778716988932,0.80908203125,-0.35595703125,0.060546875,23.306470588235296,280.2581107627599
-0.29192041015625,-0.1182080078125,0.9829638671875,1.0321863316150814,0.787109375,-0.3408203125,0.0546875,23.353529411764708,280.2581107627599
-0.16154931640625,-0.1084423828125,0.9897998046875,1.0087425763696072,0.78515625,-0.32861328125,0.02294921875,23.306470588235296,280.2581107627599
-0.15568994140625,-0.1133251953125,0.9824755859375,1.0011694335680308,0.8251953125,-0.27392578125,0.0546875,23.353529411764708,280.2581107627599
-0.18889306640625,-0.0962353515625,0.9829638671875,1.0055644174407323,0.8232421875,-0.23828125,0.046875,23.353529411764708,280.2581107627599
-0.14641259765625,-0.1040478515625,0.9775927734375,0.993956857637416,0.79052734375,-0.4208984375,-0.001953125,23.306470588235296,280.0618341201991
-0.11858056640625,-0.1343212890625,0.9683154296875,0.9847529288077932,0.798828125,-0.5322265625,0.2353515625,23.306470588235296,280.0618341201991
-0.13371728515625,-0.1333447265625,0.9946826171875,1.0124498196881466,0.85302734375,-0.33447265625,0.375,23.353529411764708,280.0618341201991
-0.14299462890625,-0.2353955078125,0.9917529296875,1.0292873177777333,0.849609375,-0.14990234375,0.37255859375,23.353529411764708,280.0618341201991
-0.18059228515625,-0.0918408203125,0.9854052734375,1.0060178242218492,0.810546875,-0.0986328125,0.0029296875,23.25941176470588,280.0618341201991
-0.21574853515625,-0.0835400390625,0.9873583984375,1.0141020537962129,0.787109375,-0.00146484375,-0.18798828125,23.306470588235296,280.0618341201991
-0.20549462890625,-0.0923291015625,0.9844287109375,1.0098775135741582,0.79345703125,-0.244140625,-0.13427734375,23.353529411764708,280.0618341201991
-0.16643212890625,-0.1069775390625,0.9805224609375,1.0002840315625692,0.84521484375,-0.3916015625,0.0986328125,23.353529411764708,280.0618341201991
-0.14445947265625,-0.1221142578125,0.9819873046875,1.0000397480943648,0.88525390625,-0.4453125,0.2568359375,23.25941176470588,280.0618341201991
-0.12785791015625,-0.1269970703125,1.0054248046875005,1.0214474724323224,0.91552734375,-0.34912109375,0.4140625,23.306470588235296,279.87024720846483
-0.14397119140625,-0.1216259765625,1.0127490234375005,1.0301364796003136,0.91796875,-0.23291015625,0.29736328125,23.353529411764708,279.87024720846483
-0.16643212890625,-0.0967236328125,1.0039599609375005,1.0222478749512474,0.87646484375,0.150390625,0.15185546875,23.353529411764708,279.87024720846483
-0.17424462890625,-0.0986767578125,0.9912646484375,1.0112882361013522,0.8603515625,0.1884765625,0.060546875,23.306470588235296,279.87024720846483
-0.18010400390625,-0.1040478515625,0.9800341796875,1.0018634642472923,0.85205078125,0.01318359375,0.056640625,23.353529411764708,279.87024720846483
-0.15764306640625,0.0106982421875,0.9717333984375,0.9844955999956329,0.75048828125,-0.23046875,0.0869140625,23.25941176470588,279.87024720846483
-0.13762353515625,-0.1133251953125,0.9692919921875,0.9855505078078608,0.75341796875,-0.3896484375,0.11328125,23.306470588235296,279.87024720846483
-0.13762353515625,-0.1201611328125,0.9951708984375,1.0118023781176777,0.8994140625,-0.3212890625,0.12841796875,23.353529411764708,279.87024720846483
-0.12785791015625,-0.1152783203125,0.9878466796875,1.002735158899504,0.90673828125,-0.10107421875,0.1298828125,23.306470588235296,279.8990528790356
-0.14006494140625,-0.1167431640625,0.9868701171875,1.003573506208753,0.91650390625,0.04248046875,0.14453125,23.306470588235296,279.8990528790356
-0.14250634765625,-0.1226025390625,0.9902880859375,1.0079731816157875,0.916015625,0.1025390625,0.15625,23.306470588235296,279.8990528790356
-0.15178369140625,-0.1147900390625,0.9849169921875,1.0031333528223203,0.92431640625,0.0625,0.1591796875,23.25941176470588,279.8990528790356
-0.14494775390625,-0.1143017578125,0.9805224609375,0.9977469817566104,0.9208984375,0.12353515625,0.1279296875,23.40058823529412,279.8990528790356
-0.15568994140625,-0.1084423828125,0.9863818359375,1.0044641529256122,0.90966796875,-0.0546875,0.10986328125,23.353529411764708,279.8990528790356
-0.15373681640625,-0.2334423828125,1.0034716796875005,1.0416745013423148,0.9013671875,-0.12109375,0.126953125,23.353529411764708,279.8990528790356
-0.15471337890625,-0.1108837890625,0.9961474609375,1.014170206731431,0.89404296875,0.1103515625,0.1298828125,23.44764705882353,279.8990528790356
-0.14885400390625,-0.1128369140625,1.0034716796875005,1.0207081343797173,0.8818359375,0.22265625,0.0625,23.25941176470588,279.8990528790356
-0.14494775390625,-0.1133251953125,0.9961474609375,1.0129966511234434,0.87939453125,0.298828125,0.06494140625,23.44764705882353,279.7944394087055
-0.14250634765625,-0.2310009765625,0.9932177734375,1.029636370650968,0.87890625,0.32275390625,0.11181640625,23.353529411764708,279.7944394087055
-0.14104150390625,-0.1064892578125,0.9863818359375,1.002088715693889,0.89794921875,0.3203125,0.13232421875,23.306470588235296,279.7944394087055
-0.14494775390625,-0.1084423828125,0.9839404296875,1.0004540823676726,0.75390625,0.298828125,0.14306640625,23.40058823529412,279.7944394087055
-0.16350244140625,-0.1020947265625,0.9834521484375,1.0021649114811446,0.75,0.2587890625,0.12548828125,23.306470588235296,279.7944394087055
-0.15617822265625,-0.1069775390625,0.9893115234375,1.007260205459424,0.8583984375,0.2236328125,0.1103515625,23.353529411764708,279.7944394087055
-0.16203759765625,-0.1030712890625,0.9912646484375,1.0096957348256623,0.8671875,0.19287109375,0.10107421875,23.353529411764708,279.7944394087055
-0.15520166015625,-0.1113720703125,0.9941943359375,1.0123802007996576,0.85888671875,0.1962890625,0.099609375,23.40058823529412,279.7944394087055
-0.28703759765625,-0.1162548828125,1.0000537109375005,1.0469064929619478,0.85205078125,0.232421875,0.11181640625,23.40058823529412,280.2040805024995
-0.15715478515625,-0.1123486328125,0.9946826171875,1.0132686468687957,0.8525390625,0.26416015625,0.10302734375,23.353529411764708,280.2040805024995
-0.15324853515625,-0.1133251953125,0.9902880859375,1.0084632896491126,0.849609375,0.27685546875,0.095703125,23.306470588235296,280.2040805024995
-0.16496728515625,-0.1152783203125,0.9902880859375,1.0105314391228273,0.8447265625,0.25341796875,0.08837890625,23.306470588235296,280.2040805024995
-0.15666650390625,-0.1167431640625,0.9863818359375,1.0055458647266986,0.8359375,0.248046875,0.10888671875,23.25941176470588,280.2040805024995
-0.15666650390625,-0.1040478515625,0.9844287109375,1.002232625581031,0.82666015625,0.2333984375,0.0068359375,23.353529411764708,280.2040805024995
-0.15764306640625,-0.1045361328125,0.9912646484375,1.0091505054704568,0.8330078125,0.2119140625,0.14892578125,23.353529411764708,280.2040805024995
-0.15568994140625,-0.1099072265625,0.9878466796875,1.0060616377118057,0.8076171875,0.208984375,0.15673828125,23.40058823529412,280.2040805024995
-0.15520166015625,-0.1084423828125,0.9888232421875,1.0067863278747424,0.82177734375,0.23388671875,0.13330078125,23.25941176470588,280.1705872288086
-0.16301416015625,0.0116748046875,0.9985888671875,1.0118743218141042,0.826171875,0.26171875,0.11865234375,23.306470588235296,280.1705872288086
-0.16838525390625,-0.2349072265625,0.9927294921875,1.033947215037213,0.80615234375,0.3076171875,0.06640625,23.306470588235296,280.1705872288086
-0.15080712890625,0.0126513671875,0.9844287109375,0.995993340408824,0.82177734375,0.35107421875,0.0234375,23.353529411764708,280.1705872288086
-0.17766259765625,-0.1055126953125,0.9893115234375,1.0106602880712698,0.82763671875,0.4228515625,0.0771484375,23.306470588235296,280.1705872288086
-0.17033837890625,-0.1040478515625,0.9658740234375,0.9862827930642032,0.7880859375,0.314453125,0.02783203125,23.40058823529412,280.1705872288086
-0.13615869140625,-0.1196728515625,0.9619677734375,0.9788987576756158,0.80126953125,0.107421875,0.0458984375,23.44764705882353,280.1705872288086
-0.13518212890625,-0.1294384765625,0.9683154296875,0.986236938347644,0.82275390625,-0.025390625,0.23681640625,23.353529411764708,280.1705872288086
-0.12688134765625,-0.1211376953125,0.9868701171875,1.002340184671033,0.830078125,-0.03125,0.36767578125,23.25941176470588,280.1705872288086
-0.14494775390625,-0.1133251953125,0.9897998046875,1.0067552357025495,0.81103515625,0.076171875,0.32666015625,23.306470588235296,280.128271476206
-0.04485009765625,-0.0991650390625,1.0112841796875005,1.0171238510222158,0.77587890625,0.23828125,0.1533203125,23.25941176470588,280.128271476206
-0.21037744140625,-0.0972119140625,1.0049365234375005,1.031312872132887,0.783203125,0.49072265625,-0.1005859375,23.40058823529412,280.128271476206
-0.21233056640625,-0.0957470703125,0.9824755859375,1.0097079022504776,0.76513671875,0.52734375,-0.22607421875,23.306470588235296,280.128271476206
-0.18938134765625,-0.1050244140625,0.9746630859375,0.9984305451449688,0.796875,0.33935546875,-0.11962890625,23.306470588235296,280.128271476206
-0.16106103515625,-0.1206494140625,0.9629443359375,0.9837472908594668,0.7998046875,0.10986328125,0.2841796875,23.353529411764708,280.128271476206
-0.14397119140625,0.0072802734375,0.9785693359375,0.989130250054774,0.796875,-0.21630859375,0.35302734375,23.306470588235296,280.128271476206
-0.16252587890625,-0.2353955078125,1.0093310546875005,1.0490828777409034,0.8212890625,-0.033203125,0.24853515625,23.44764705882353,280.128271476206
-0.17424462890625,-0.1025830078125,1.0142138671875005,1.0341732120829472,0.79931640625,0.2509765625,0.0537109375,23.40058823529412,280.128271476206
-0.18547509765625,-0.1025830078125,0.9985888671875,1.0208349577739144,0.80419921875,0.56884765625,-0.03076171875,23.353529411764708,280.128271476206
-0.18156884765625,-0.0952587890625,0.9668505859375,0.988352942455558,0.8056640625,0.42919921875,0.068359375,23.306470588235296,280.128271476206
-0.15764306640625,-0.1108837890625,0.9556201171875,0.9748622258741354,0.830078125,0.08740234375,0.162109375,23.40058823529412,280.128271476206
-0.14104150390625,-0.1108837890625,0.9536669921875,0.970396131736389,0.82666015625,-0.11328125,0.20458984375,23.494705882352942,280.128271476206
-0.15227197265625,-0.1089306640625,0.9673388671875,0.9852903770976956,0.82861328125,-0.1005859375,0.21337890625,23.306470588235296,280.128271476206
-0.15861962890625,-0.1060009765625,0.9824755859375,1.000826993375875,0.828125,0.0302734375,0.19140625,23.353529411764708,280.128271476206
-0.15227197265625,-0.1118603515625,0.9912646484375,1.009111042031665,0.8125,0.14501953125,0.1767578125,23.353529411764708,280.128271476206
-0.17375634765625,-0.1045361328125,1.0068896484375005,1.0271055620260388,0.8056640625,0.27197265625,0.197265625,23.353529411764708,280.22172612772766
-0.18401025390625,-0.1074658203125,1.0054248046875005,1.0277585873924768,0.80615234375,0.30810546875,0.17138671875,23.21235294117647,280.22172612772766
-0.17766259765625,-0.1099072265625,1.0005419921875005,1.0221193057501454,0.7861328125,0.2802734375,0.1650390625,23.40058823529412,280.22172612772766
-0.18449853515625,-0.1123486328125,0.9951708984375,1.0183452468915153,0.78759765625,0.2431640625,0.1943359375,23.44764705882353,280.22172612772766
-0.18254541015625,-0.1143017578125,0.9932177734375,1.0163017583770513,0.7763671875,0.26904296875,0.16650390625,23.40058823529412,280.22172612772766
-0.17326806640625,-0.1123486328125,0.9756396484375,0.9972546122902852,0.78271484375,0.25537109375,0.1005859375,23.306470588235296,280.22172612772766
-0.17424462890625,-0.2363720703125,0.9736865234375,1.017004617615033,0.7705078125,0.23681640625,0.0712890625,23.44764705882353,280.22172612772766
-0.17424462890625,-0.1084423828125,0.9722216796875,0.9936477925035176,0.7939453125,0.19970703125,0.09765625,23.40058823529412,280.22172612772766
-0.04729150390625,0.0131396484375,0.9697802734375,0.9710215834116604,0.7880859375,0.14892578125,0.13525390625,23.25941176470588,280.22172612772766
-0.29094384765625,-0.1016064453125,0.9854052734375,1.0324706994082202,0.77978515625,0.10791015625,0.10693359375,23.25941176470588,280.26170160732795
-0.17033837890625,-0.1084423828125,0.9966357421875,1.016886284853961,0.77197265625,0.10107421875,0.0712890625,23.353529411764708,280.26170160732795
-0.17522119140625,-0.1064892578125,0.9902880859375,1.0112926980340755,0.78515625,0.12158203125,0.07080078125,23.353529411764708,280.26170160732795
-0.17326806640625,-0.1064892578125,0.9971240234375,1.017653233170222,0.787109375,0.18701171875,0.0810546875,23.25941176470588,280.26170160732795
-0.18108056640625,-0.1089306640625,0.9858935546875,1.0082867460586102,0.7802734375,0.24755859375,0.07080078125,23.25941176470588,280.26170160732795
-0.18010400390625,-0.1133251953125,0.9775927734375,1.0004837244018026,0.78857421875,0.26708984375,0.04443359375,23.306470588235296,280.26170160732795
-0.18352197265625,-0.1123486328125,0.9727099609375,0.9962264791951236,0.7841796875,0.2392578125,0.013671875,23.353529411764708,280.26170160732795
-0.17912744140625,-0.2329541015625,0.9653857421875,1.0091203520484815,0.77392578125,0.14453125,-0.0283203125,23.353529411764708,280.26170160732795
-0.17717431640625,-0.1089306640625,0.9644091796875,0.9865808095805616,0.7529296875,0.1220703125,-0.0419921875,23.40058823529412,280.26170160732795
-0.18108056640625,-0.1025830078125,0.9658740234375,0.9880415346397196,0.76171875,-0.169921875,-0.009765625,23.44764705882353,280.01662809401046
-0.17717431640625,-0.1074658203125,0.9937060546875,1.0150819494267729,0.7705078125,-0.2470703125,-0.11865234375,23.353529411764708,280.01662809401046
-0.17717431640625,-0.1006298828125,0.9941943359375,1.0148593445985932,0.79296875,-0.16796875,0.00927734375,23.40058823529412,280.01662809401046
-0.17961572265625,-0.1069775390625,1.0156787109375005,1.0369711883851247,0.79931640625,0.02294921875,0.0078125,23.44764705882353,280.01662809401046
-0.18742822265625,-0.1089306640625,1.0239794921875005,1.046675321502207,0.7998046875,0.17041015625,0.02294921875,23.306470588235296,280.01662809401046
-0.18498681640625,-0.2344189453125,1.0073779296875005,1.0507057901177754,0.80224609375,0.234375,0.02392578125,23.353529411764708,280.01662809401046
-0.17815087890625,-0.1123486328125,0.9961474609375,1.0181697868637312,0.81005859375,0.1669921875,0.04443359375,23.44764705882353,280.01662809401046
-0.18449853515625,-0.2344189453125,0.9795458984375,1.0239639244338423,0.81103515625,0.10009765625,0.0009765625,23.306470588235296,280.01662809401046
-0.17326806640625,-0.0986767578125,0.9658740234375,0.9862411239245156,0.81982421875,0.09033203125,-0.0029296875,23.40058823529412,280.01662809401046
-0.20158837890625,-0.0918408203125,0.9736865234375,0.9985680030471276,0.8115234375,0.06884765625,-0.1484375,23.40058823529412,280.1324117821804
-0.17961572265625,-0.0986767578125,0.9663623046875,0.9878537413396026,0.77734375,-0.09619140625,-0.14013671875,23.306470588235296,280.1324117821804
-0.14299462890625,-0.1182080078125,0.9780810546875,0.9955215449932004,0.7861328125,-0.26171875,0.07666015625,23.353529411764708,280.1324117821804
-0.13615869140625,-0.1240673828125,0.9897998046875,1.006794695100654,0.8408203125,-0.20361328125,0.306640625,23.353529411764708,280.1324117821804
-0.14983056640625,-0.1162548828125,1.0039599609375005,1.0217142455564534,0.85546875,0.03564453125,0.23779296875,23.353529411764708,280.1324117821804
-0.18401025390625,-0.0942822265625,0.9941943359375,1.0154660454187685,0.8310546875,0.22412109375,0.03076171875,23.25941176470588,280.1324117821804
-0.21184228515625,-0.0923291015625,0.9839404296875,1.010712909756862,0.822265625,0.3076171875,-0.19384765625,23.25941176470588,280.1324117821804
-0.21281884765625,-0.1006298828125,0.9624560546875,0.9908278823474942,0.8056640625,0.03955078125,-0.1796875,23.44764705882353,280.1324117821804
-0.18547509765625,-0.1113720703125,0.9585498046875,0.9826609170831678,0.8125,-0.27392578125,0.05908203125,23.353529411764708,280.02545118027894
-0.16594384765625,-0.1260205078125,0.9805224609375,1.0024184881411615,0.83544921875,-0.42919921875,0.26806640625,23.306470588235296,280.02545118027894
-0.16252587890625,-0.1191845703125,0.9946826171875,1.0148956261851754,0.87890625,-0.3349609375,0.2626953125,23.353529411764708,280.02545118027894
-0.17570947265625,-0.0962353515625,0.9922412109375,1.0122636427108365,0.828125,0.31396484375,-0.02392578125,23.40058823529412,280.03427459618405
-0.17961572265625,-0.1011181640625,0.9741748046875,0.9957425576004204,0.84326171875,0.1337890625,0.02880859375,23.40058823529412,280.03427459618405
-0.17717431640625,-0.1113720703125,0.9717333984375,0.9940122102261156,0.849609375,-0.07177734375,0.076171875,23.40058823529412,280.03427459618405
-0.16594384765625,-0.1094189453125,0.9570849609375,0.9775077946599692,0.8798828125,-0.2041015625,0.10205078125,23.44764705882353,280.03427459618405
-0.15861962890625,-0.1069775390625,0.9746630859375,0.993263566042486,0.88134765625,-0.17578125,0.1005859375,23.40058823529412,280.03427459618405
-0.16106103515625,-0.0991650390625,0.9844287109375,1.0024341618959012,0.861328125,-0.04736328125,0.10986328125,23.25941176470588,280.03427459618405
-0.16301416015625,-0.1079541015625,0.9756396484375,0.9950379028252456,0.85888671875,-0.12353515625,0.0927734375,23.40058823529412,280.03427459618405
-0.04436181640625,-0.1064892578125,0.9771044921875,0.9838908076800552,0.84716796875,0.1240234375,0.07470703125,23.353529411764708,280.03427459618405
-0.17424462890625,-0.1001416015625,0.9800341796875,1.000428170545957,0.83544921875,-0.0810546875,0.0322265625,23.353529411764708,280.03427459618405
-0.04729150390625,-0.1001416015625,0.9946826171875,1.0008288243451986,0.83203125,-0.14453125,0.00634765625,23.353529411764708,279.8974380388061
-0.17570947265625,-0.1020947265625,0.9878466796875,1.0085327037546317,0.83154296875,-0.1015625,0.01904296875,23.44764705882353,279.8974380388061
-0.18254541015625,-0.1016064453125,1.0024951171875005,1.024032790726418,0.818359375,0.02734375,0.0029296875,23.353529411764708,279.8974380388061
-0.17229150390625,-0.1055126953125,0.9888232421875,1.0092515521318683,0.82373046875,0.119140625,-0.029296875,23.25941176470588,279.8974380388061
-0.17131494140625,-0.1020947265625,0.9810107421875,1.0010765298558189,0.8251953125,0.1064453125,0.01220703125,23.40058823529412,279.8974380388061
-0.29094384765625,-0.1011181640625,0.9878466796875,1.0347532402278392,0.8193359375,0.04541015625,0.06005859375,23.353529411764708,279.8974380388061
-0.16545556640625,-0.1001416015625,0.9688037109375,0.9879192857438236,0.8173828125,-0.03466796875,0.02587890625,23.40058823529412,279.8974380388061
-0.16447900390625,-0.0996533203125,0.9829638671875,1.0015997659601878,0.81640625,-0.107421875,-0.01708984375,23.306470588235296,280.15835524424267
-0.16203759765625,-0.0996533203125,0.9873583984375,1.0055165708572782,0.8095703125,-0.08837890625,-0.0302734375,23.40058823529412,280.15835524424267
-0.16545556640625,-0.1035595703125,0.9937060546875,1.0126953402582235,0.80419921875,-0.0439453125,-0.0048828125,23.40058823529412,280.15835524424267
-0.17326806640625,-0.1050244140625,0.9966357421875,1.0170224938470935,0.81494140625,0.02587890625,0.0107421875,23.25941176470588,280.15835524424267
-0.17033837890625,-0.1089306640625,0.9883349609375,1.0088047620391352,0.83642578125,0.0625,0.02685546875,23.353529411764708,280.15835524424267
-0.15959619140625,-0.1191845703125,0.9805224609375,1.000549950034923,0.8408203125,0.03271484375,0.02783203125,23.306470588235296,280.15835524424267
-0.16594384765625,-0.1138134765625,0.9810107421875,1.001435441908001,0.8525390625,-0.03076171875,-0.021484375,23.25941176470588,280.15835524424267
-0.15813134765625,-0.1138134765625,0.9873583984375,1.006397355682083,0.85107421875,-0.1220703125,-0.08154296875,23.353529411764708,280.15835524424267
-0.14641259765625,-0.1079541015625,1.0020068359375005,1.0183852100566355,0.8466796875,-0.22802734375,-0.13330078125,23.494705882352942,280.15835524424267
-0.12541650390625,-0.0986767578125,0.9951708984375,1.0078846754869102,0.84716796875,-0.37158203125,-0.18359375,23.306470588235296,280.04490488959595
-0.10295556640625,-0.0928173828125,1.0088427734375005,1.0183214898661723,0.8515625,-0.47216796875,-0.23193359375,23.306470588235296,280.04490488959595
-0.09367822265625,-0.0918408203125,1.0254443359375005,1.0338019306337205,0.75244140625,-0.56640625,-0.29248046875,23.353529411764708,280.04490488959595
-0.09123681640625,-0.0903759765625,1.0288623046875005,1.0368459942606945,0.9072265625,-0.677734375,-0.2607421875,23.353529411764708,280.04490488959595
-0.09904931640625,-0.0869580078125,1.0542529296875005,1.0624602119411068,0.951171875,-0.77001953125,-0.4296875,23.306470588235296,280.04490488959595
-0.10832666015625,-0.0884228515625,1.0503466796875005,1.059613803944441,1.0322265625,-0.8681640625,-0.4384765625,23.40058823529412,280.04490488959595
-0.10295556640625,-0.0903759765625,1.0376513671875005,1.0466556385075971,1.0947265625,-0.9189453125,-0.47265625,23.353529411764708,280.04490488959595
-0.07902978515625,-0.0913525390625,1.0342333984375005,1.0412635188935555,1.1826171875,-0.921875,-0.45361328125,23.353529411764708,280.04490488959595
-0.09172509765625,-0.0835400390625,1.0239794921875005,1.031468095525588,1.2421875,-0.90576171875,-0.251953125,23.40058823529412,280.04490488959595
-0.05217431640625,-0.0537548828125,0.9961474609375,0.9989602147487524,1.26171875,-0.880859375,-0.4658203125,23.44764705882353,279.7910056890575
0.0342514648437499,-0.0366650390625,0.9565966796875,0.9579116324184328,1.26416015625,-1.29833984375,-0.5517578125,23.40058823529412,279.7910056890575
0.0469467773437499,-0.0327587890625,0.9331591796875,0.9349134680807916,1.33203125,-1.42333984375,-0.54296875,23.306470588235296,279.7910056890575
0.0347397460937499,-0.0244580078125,0.8809130859375001,0.8819370210399061,1.3828125,-1.255859375,-0.51416015625,23.25941176470588,279.7910056890575
0.0337631835937499,-0.0054150390625,0.8189013671875001,0.8196149854632908,1.3447265625,-1.11962890625,-0.994140625,23.353529411764708,279.7910056890575
0.0386459960937499,0.0336474609375,0.7534716796875001,0.7552120475288523,1.33544921875,-0.73095703125,-1.40185546875,23.353529411764708,279.7910056890575
-0.01994775390625,0.0370654296875,0.6372607421875001,0.6386493658473221,1.37060546875,-0.08154296875,-1.7197265625,23.494705882352942,279.7910056890575
-0.09856103515625,-0.1099072265625,0.5371630859375001,0.5570799377069958,1.3876953125,0.53857421875,-1.42529296875,23.353529411764708,279.7910056890575
-0.11760400390625,0.0038623046875,0.4106982421875,0.4272220327513351,1.49755859375,1.7880859375,-1.0693359375,23.306470588235296,279.7910056890575
-0.13567041015625,0.0238818359375,0.2666552734375,0.3001363642275602,1.7294921875,2.828125,-0.81494140625,23.306470588235296,280.0560687857076
-0.11516259765625,0.0390185546875,0.1240771484375,0.1737239484734853,1.72021484375,3.162109375,-0.96630859375,23.44764705882353,280.0560687857076
-0.05363916015625,0.0692919921875,-0.0390087890624999,0.0959178049566555,1.68994140625,3.5615234375,-1.703125,23.40058823529412,280.0560687857076
0.06794287109375,0.1264208984375,-0.2045361328124999,0.2498669784507333,1.7744140625,3.927734375,-3.220703125,23.40058823529412,280.0560687857076
0.17438818359375,0.0194873046875,-0.3690869140624999,0.4086760865933925,1.90771484375,4.16357421875,-4.416015625,23.353529411764708,280.0560687857076
0.17731787109375,0.1132373046875,-0.5477978515624999,0.5868107026619404,1.89404296875,4.09814453125,-4.51171875,23.353529411764708,280.0560687857076
0.09479833984375,0.1010302734375,-0.6586376953124999,0.6730508562319408,1.85498046875,2.47607421875,-3.3896484375,23.44764705882353,280.0560687857076
0.50641943359375,0.1122607421875,-0.6366650390624999,0.8212219486365165,1.9140625,-2.04638671875,-2.7236328125,23.40058823529412,280.0560687857076
0.75153662109375,0.1322802734375,-0.4765087890624999,0.8996477030702188,1.87841796875,-9.0693359375,-3.13818359375,23.40058823529412,280.0648942754889
0.54694677734375,0.1083544921875,-0.2333447265624999,0.6044346405017275,1.61376953125,-13.68798828125,-3.587890625,23.353529411764708,280.0648942754889
0.2681381835937499,0.0326708984375,0.0396044921875,0.2730091370395847,1.5537109375,-15.62255859375,-3.56005859375,23.353529411764708,280.0648942754889
0.0410874023437499,-0.0693798828125,0.2251513671875,0.2391545126415847,1.52880859375,-14.34912109375,-3.35546875,23.25941176470588,280.0648942754889
0.06940771484375,-0.2021923828125,0.3130419921875,0.3790705467587091,1.4951171875,-10.64208984375,-2.83447265625,23.40058823529412,280.0648942754889
-0.11174462890625,-0.2935009765625,0.3433154296875,0.4652904142511959,1.31396484375,-6.2578125,-1.81591796875,23.40058823529412,280.0648942754889
-0.07121728515625,-0.3071728515625,0.3042529296875,0.4381745173620793,1.2470703125,-3.18017578125,-0.83837890625,23.353529411764708,280.0648942754889
0.0269272460937499,-0.2915478515625,0.2119677734375,0.3614630870627792,1.27880859375,-2.08251953125,-0.61328125,23.353529411764708,280.0648942754889
0.15436865234375,-0.2768994140625,0.1118701171875,0.3361813341845832,1.19287109375,-2.8798828125,-0.82177734375,23.306470588235296,280.21183686974393
0.18903662109375,-0.1992626953125,0.0479052734375,0.2788106545325445,1.08642578125,-4.625,-0.6279296875,23.40058823529412,280.21183686974393
-0.04045556640625,-0.0737744140625,0.0278857421875,0.0886393346142863,1.0712890625,-6.29150390625,-0.55615234375,23.306470588235296,280.21183686974393
0.3228256835937499,0.0395068359375,0.0996630859375,0.3401616421234911,1.14404296875,-7.85546875,-1.82177734375,23.306470588235296,280.21183686974393
0.3570053710937499,0.0736865234375,0.1563037109375,0.3966275189380144,1.37451171875,-8.76953125,-2.71875,23.353529411764708,280.21183686974393
0.3023178710937499,0.0014208984375,0.2500537109375,0.3923327318598866,1.2109375,-9.4736328125,-3.0166015625,23.353529411764708,280.21183686974393
0.3042709960937499,-0.0640087890625,0.3652880859375,0.4797013131824978,1.3173828125,-9.89697265625,-2.8642578125,23.353529411764708,280.21183686974393
0.3789780273437499,-0.0727978515625,0.4985888671875,0.6304876928892351,1.22998046875,-10.9189453125,-2.21923828125,23.306470588235296,280.21183686974393
0.51813818359375,-0.0654736328125,0.6856005859375001,0.8618596970095191,1.19970703125,-12.51611328125,-1.68017578125,23.44764705882353,280.21183686974393
0.70026708984375,-0.1553173828125,0.8555224609375001,1.1164300997780898,1.22509765625,-13.88671875,-1.62451171875,23.40058823529412,279.8398075353649
0.83161474609375,-0.3179150390625,1.0698779296875005,1.39186631628727,1.326171875,-14.6884765625,-1.07275390625,23.40058823529412,279.8398075353649
0.61823583984375,-0.4502392578125,1.1875537109375005,1.4125207111063136,1.49609375,-14.44580078125,0.92236328125,23.40058823529412,279.8398075353649
0.70417333984375,-0.4805126953125,1.5542529296875005,1.772697016510538,1.58935546875,-13.6875,3.08837890625,23.44764705882353,279.8398075353649
0.77888037109375,-0.3291455078125,1.7612841796875005,1.9537434221017245,1.921875,-11.21142578125,4.94140625,23.40058823529412,279.8398075353649
0.84662939453125,-0.1545849609375,1.6821826171875005,2.0245771223091973,2.216796875,-5.5625,5.05078125,23.306470588235296,279.8398075353649
0.91437841796875,0.0199755859374999,1.6030810546875005,2.008326333867937,1.771484375,2.78515625,1.83837890625,23.353529411764708,279.8398075353649
0.98212744140625,0.1945361328124999,1.5239794921875005,1.9146827567078355,0.64697265625,7.935546875,-1.716796875,23.40058823529412,279.8398075353649
1.04987646484375,0.3690966796875,1.4448779296875005,1.8237722396415577,-0.28515625,8.41650390625,-3.70166015625,23.353529411764708,279.628226783995
1.00348974609375,0.1068896484375,1.3525927734375005,1.6875794138984217,-1.2705078125,5.44873046875,-3.58447265625,23.353529411764708,279.628226783995
1.06647802734375,0.0619677734375,1.4673388671875005,1.8150203136358871,-1.3857421875,1.0439453125,-1.9287109375,23.306470588235296,279.628226783995
1.06208349609375,-0.0019970703125,1.5249560546875005,1.8583638797858244,-1.06591796875,-2.076171875,0.54052734375,23.353529411764708,279.628226783995
1.12653662109375,0.1161669921875,1.7007373046875005,2.043302940901059,-0.322265625,-3.0087890625,2.4169921875,23.40058823529412,279.628226783995
1.20124365234375,0.2587451171875,1.7905810546875005,2.171662004403615,0.1875,-1.1005859375,2.9638671875,23.306470588235296,279.628226783995
1.22370458984375,0.4384326171875,1.8599169921875005,2.2691336013655827,0.32373046875,3.4130859375,1.8046875,23.353529411764708,279.628226783995
1.23786474609375,0.5458544921875,1.8994677734375005,2.3320043050111705,-0.099609375,8.501953125,0.048828125,23.44764705882353,279.628226783995
1.18952490234375,0.5902880859375,1.8228076171875005,2.255224407231448,-0.81884765625,12.9873046875,-1.34375,23.353529411764708,279.628226783995
1.33503271484375,0.4301318359375,1.7930224609375005,2.2764567405106577,-1.8388671875,13.1923828125,-1.67236328125,23.40058823529412,279.57240778733313
1.24616552734375,0.3622607421875,1.8779833984375005,2.282757764563956,-1.8388671875,12.0283203125,-0.177734375,23.306470588235296,279.57240778733313
1.03034521484375,0.2699755859375,1.8765185546875005,2.1577349153313934,-1.44091796875,11.88427734375,2.44091796875,23.306470588235296,279.57240778733313
1.23932958984375,0.2816943359375,1.9668505859375005,2.3417495080738746,-0.67041015625,13.255859375,2.85302734375,23.40058823529412,279.57240778733313
1.46540380859375,0.2856005859375,2.0811083984375003,2.5612473880857367,-0.2666015625,13.72119140625,1.9716796875,23.353529411764708,279.57240778733313
1.46247412109375,0.2860888671875,2.1904833984375003,2.649319707703822,-1.49755859375,12.55322265625,0.7265625,23.40058823529412,279.57240778733313
1.45368505859375,0.2465380859375,2.3325732421875003,2.759507058799732,-3.126953125,12.29345703125,-0.3583984375,23.353529411764708,279.57240778733313
0.82966162109375,0.4940966796875,3.2022021484375003,3.3446327950691184,-1.8896484375,2.2685546875,2.39599609375,23.40058823529412,279.57240778733313
0.77106787109375,-1.4990673828125,3.3281787109375003,3.730753571596892,-0.234375,-6.73193359375,2.1796875,23.40058823529412,279.6705425965078
-0.09026025390625,-1.6587353515625,2.4609912109375003,2.9691796207488044,8.26171875,15.99951171875,10.181640625,23.353529411764708,279.6705425965078
0.4072983398437499,-0.8477001953125,1.9775927734375005,2.189831211834499,12.04833984375,15.99951171875,15.99951171875,23.353529411764708,279.6705425965078
1.77253271484375,-0.6279736328125,1.0195849609375005,2.1391064960092585,-0.1015625,15.99951171875,14.560546875,23.353529411764708,279.6705425965078
0.85163427734375,0.8656787109375,0.9180224609375,1.5223159368879269,-11.2578125,15.99951171875,9.8173828125,23.40058823529412,279.6705425965078
0.3836980794270833,0.5801969401041667,1.1945524088541668,2.289540345493204,-9.55224609375,15.99951171875,-0.828125,23.44764705882353,279.6705425965078
-0.0842381184895834,0.2947151692708334,1.4710823567708335,1.1464352409384415,-9.31005859375,15.9892578125,-12.0791015625,23.40058823529412,279.6705425965078
-0.55217431640625,0.0092333984375,1.7476123046875005,1.83279308675054,-9.998046875,2.208984375,-9.5146484375,23.353529411764708,279.6705425965078
-0.3399347330729166,0.0925667317708333,1.4748258463541668,3.2217346741676347,-6.7822265625,0.13916015625,2.80029296875,23.353529411764708,279.53243182682263
-0.1276951497395833,0.1759000651041666,1.202039388020833,1.8490568428287613,-5.43603515625,11.6064453125,5.732421875,23.40058823529412,279.53243182682263
0.08454443359375,0.2592333984375,0.9292529296875,0.9684320954253558,-6.10693359375,15.99951171875,3.97119140625,23.353529411764708,279.53243182682263
0.14020849609375,0.4428271484375,0.4009326171875,0.6135969925732827,-7.34814453125,15.99951171875,1.91845703125,23.353529411764708,279.53243182682263
-0.48332666015625,0.3773974609375,-0.0238720703124999,0.6136801933261916,-8.1005859375,15.99951171875,2.93408203125,23.40058823529412,279.53243182682263
-0.59270166015625,0.0453662109375,-0.6195751953124999,0.8586191086234473,-9.82177734375,15.99951171875,4.4072265625,23.353529411764708,279.53243182682263
1.13239599609375,-0.0308056640625,-1.1015087890625,1.5800605346914474,-12.37255859375,15.99951171875,1.18505859375,23.353529411764708,279.53243182682263
2.33356787109375,0.4496630859375,-1.5292431640625,2.8260078829840047,-12.4228515625,15.99951171875,-0.92529296875,23.353529411764708,279.53243182682263
2.58063818359375,0.6283740234375,-1.8685986328125,3.247492601762447,-7.375,15.99951171875,-0.72216796875,23.353529411764708,279.53243182682263
2.12848974609375,0.0414599609375,-2.1015087890625,2.9914088182817986,-2.07666015625,1.859375,1.7197265625,23.40058823529412,279.4254737153209
1.69196630859375,-0.2998486328125,-1.9379345703125,2.5900288783772623,-3.4658203125,16.0,3.7099609375,23.40058823529412,279.4254737153209
0.57819677734375,-0.0142041015625,-1.1205517578125,1.2610113051708058,-4.623046875,16.0,3.98486328125,23.40058823529412,279.4254737153209
-0.40764306640625,0.3769091796875,-0.3837353515624999,0.6748971916970687,-4.037109375,16.0,1.68994140625,23.44764705882353,279.4254737153209
-0.90617822265625,0.4901904296875,0.1978076171875,1.0490822093578047,-2.84228515625,16.0,-1.33642578125,23.353529411764708,279.4254737153209
-1.62736962890625,0.2045458984375,0.6289599609375001,1.7566335890323204,-1.509765625,-13.064453125,-1.5009765625,23.306470588235296,279.4254737153209
-1.54387353515625,-0.1631298828125,1.0635302734375005,1.8818218549427888,0.435546875,-0.59033203125,-0.4404296875,23.44764705882353,279.4254737153209
-1.49309228515625,-0.1406689453125,1.7505419921875005,2.3051051148657464,3.26904296875,2.8310546875,4.146484375,23.306470588235296,279.4254737153209
-1.97795556640625,-1.2568798828125,1.3262255859375005,2.692755014347109,2.81982421875,8.39697265625,7.5869140625,23.40058823529412,279.4254737153209
-2.10881494140625,-2.3071728515625,0.5576708984375001,3.175081708405214,-0.86083984375,15.99951171875,11.1689453125,23.306470588235296,279.5900573746898
-2.04192041015625,-0.6020947265625,0.6245654296875001,2.2185668791198907,1.04931640625,15.99951171875,15.56591796875,23.494705882352942,279.5900573746898
-1.32072900390625,0.2948779296875,-0.0131298828124999,1.3533109358158055,-1.11279296875,15.99951171875,9.9296875,23.353529411764708,279.5900573746898
-0.03215478515625,1.2470263671875,-0.6190869140624999,1.3926152727270829,-2.10107421875,15.99951171875,-4.02978515625,23.353529411764708,279.5900573746898
-0.61516259765625,1.0395068359375,-1.8314892578125,2.1939353648178788,-3.06787109375,15.99951171875,-7.1572265625,23.40058823529412,279.5900573746898
-2.49260400390625,0.1264208984375,-2.7587353515625,3.720171730419428,-6.62841796875,6.1240234375,-3.5244140625,23.40058823529412,279.5900573746898
-2.48527978515625,-0.4687939453125,-1.8344189453125,3.1243361279781308,-6.62158203125,-8.576171875,-1.16064453125,23.353529411764708,279.5900573746898
-2.74455712890625,-0.5727978515625,-1.8300244140625,3.348086105321894,0.9580078125,13.12451171875,-0.50439453125,23.306470588235296,279.5900573746898
-2.15617822265625,-1.3755322265625,-2.4374462890625,3.5330352172365345,0.33447265625,15.99951171875,6.3623046875,23.353529411764708,279.39846686458776
-0.93303369140625,-1.3599072265625,-2.2079541015625,2.7558956527348326,-1.92578125,15.99951171875,8.970703125,23.40058823529412,279.39846686458776
1.04011083984375,-0.3413525390625,-2.0546337890625,2.3280618811024354,-3.66259765625,2.43310546875,2.1337890625,23.306470588235296,279.39846686458776
1.14948583984375,0.5546435546875,-1.7885205078125,2.1972147768535417,-0.32861328125,-9.88916015625,-5.28076171875,23.353529411764708,279.39846686458776
0.84089208984375,0.5668505859375,-1.4242626953125,1.7484116559890304,2.14208984375,16.0,-10.1875,23.306470588235296,279.39846686458776
0.55524755859375,0.4682177734375,-0.8451611328124999,1.1143720541650344,4.1083984375,16.0,-11.3583984375,23.40058823529412,279.39846686458776
-0.26652978515625,0.1400927734375,-0.4257275390624999,0.5214480310261608,5.11474609375,16.0,-7.0302734375,23.353529411764708,279.39846686458776
-0.74211572265625,-0.1875439453125,0.1191943359375,0.7746713928864082,5.966796875,16.0,-1.19970703125,23.44764705882353,279.39846686458776
-0.97258447265625,-0.3003369140625,0.4082568359375,1.0967207769028178,6.21630859375,16.0,3.36474609375,23.306470588235296,279.4807595451979
-0.98186181640625,-0.2759228515625,0.5581591796875001,1.1626382568969529,4.8876953125,-14.1484375,5.03271484375,23.40058823529412,279.4807595451979
-1.16789697265625,-0.2690869140625,0.4531787109375,1.281312627779141,1.1328125,-2.49951171875,5.29443359375,23.353529411764708,279.4807595451979
-1.35344384765625,0.0473193359375,0.6201708984375001,1.4895171404119176,1.4775390625,12.8447265625,3.6904296875,23.44764705882353,279.4807595451979
-1.38713525390625,-0.0581494140625,0.2647021484375,1.4133622304182312,1.88916015625,15.99951171875,2.38232421875,23.40058823529412,279.4807595451979
-1.37688134765625,-0.2270947265625,-0.2826611328124999,1.4238228739415004,1.78173828125,15.99951171875,1.6513671875,23.44764705882353,279.4807595451979
-0.82365869140625,-0.3657666015625,-0.9643017578125,1.3198775423757745,2.091796875,15.99951171875,0.77392578125,23.353529411764708,279.4807595451979
-0.32756494140625,-0.3926220703125,-1.6356884765625,1.713746677106715,1.02001953125,15.99951171875,0.19775390625,23.40058823529412,279.4807595451979
-0.12492822265625,-0.2588330078125,-1.8285595703125,1.8510082898060587,0.5107421875,8.07421875,0.24658203125,23.40058823529412,279.4807595451979
0.17145849609375,-0.0801220703125,-1.7387158203125,1.7489854961773872,0.65185546875,-5.75048828125,-0.95703125,23.44764705882353,279.2356909109519
0.14802099609375,-0.0444775390625,-1.3764111328125,1.385061757935664,0.26611328125,-14.49365234375,-1.87939453125,23.306470588235296,279.2356909109519
-0.27434228515625,0.0185107421875,-0.8681103515624999,0.9106162306323408,0.9814453125,16.0,-2.06103515625,23.40058823529412,279.2356909109519
-0.70354150390625,-0.0308056640625,-0.6640087890624999,0.967898397875132,1.06884765625,-14.64208984375,-2.03125,23.353529411764708,279.2356909109519
-0.97795556640625,-0.0537548828125,-0.2880322265624999,1.0209060881539036,1.34912109375,-6.513671875,-1.70361328125,23.25941176470588,279.2356909109519
-1.32610009765625,-0.1470166015625,-0.3612744140624999,1.3822715190566237,1.63134765625,5.52197265625,-0.8515625,23.44764705882353,279.2356909109519
-1.08440087890625,-0.2432080078125,-0.6083447265624999,1.2669485812664911,1.78662109375,9.9169921875,-0.1298828125,23.40058823529412,279.2356909109519
-0.52336572265625,-0.2476025390625,-0.8456494140624999,1.0248617606808954,1.294921875,5.86083984375,0.2529296875,23.353529411764708,279.2356909109519
-0.25529931640625,-0.2197705078125,-0.8788525390624999,0.9412006175509372,0.90673828125,-2.09765625,0.31201171875,23.40058823529412,279.30033332502416
-0.51067041015625,-0.1987744140625,-0.8202587890624999,0.9864684569358118,0.755859375,-5.5,-0.02490234375,23.25941176470588,279.30033332502416
-0.82902978515625,-0.1758251953125,-0.4647900390624999,0.9665581536537868,0.830078125,-4.5439453125,-0.6669921875,23.353529411764708,279.30033332502416
-0.94084619140625,-0.1875439453125,-0.3334423828124999,1.015651569172569,0.9208984375,-1.55810546875,-0.884765625,23.44764705882353,279.30033332502416
-0.92766259765625,-0.2109814453125,-0.2880322265624999,0.9939988072905542,0.92626953125,0.97119140625,-0.63232421875,23.353529411764708,279.30033332502416
-0.83781884765625,-0.2012158203125,-0.4457470703124999,0.9701127143400686,0.9091796875,1.83349609375,-0.33349609375,23.353529411764708,279.30033332502416
-0.78801416015625,-0.1899853515625,-0.3705517578124999,0.891274007044422,0.791015625,1.1572265625,-0.17333984375,23.40058823529412,279.30033332502416
-0.66887353515625,-0.1860791015625,-0.3842236328124999,0.7935017568237397,0.6748046875,0.14599609375,-0.07958984375,23.353529411764708,279.3514736130403
-0.80705712890625,-0.1909619140625,-0.3480908203124999,0.8994303092105814,0.615234375,-0.537109375,-0.037109375,23.353529411764708,279.3514736130403
-0.82121728515625,-0.2026806640625,-0.3178173828124999,0.9035956893666574,0.5576171875,-0.5439453125,0.21533203125,23.353529411764708,279.3514736130403
-0.89494775390625,-0.2046337890625,-0.3168408203124999,0.9711820505261696,0.53662109375,0.19140625,0.35302734375,23.40058823529412,279.3514736130403
-0.91106103515625,-0.2143994140625,-0.3573681640624999,1.001853943055435,0.6064453125,0.9462890625,0.287109375,23.40058823529412,279.3514736130403
-0.88811181640625,-0.1855908203125,-0.3837353515624999,0.9851088117885612,0.6591796875,1.31494140625,0.14892578125,23.44764705882353,279.3514736130403
-0.79729150390625,-0.1621533203125,-0.4032666015624999,0.9080701478549036,0.74609375,0.97216796875,0.123046875,23.353529411764708,279.3514736130403
-0.74211572265625,-0.1470166015625,-0.3935009765624999,0.8527559120312425,0.595703125,0.00390625,-0.04052734375,23.353529411764708,279.3514736130403
-0.74943994140625,-0.1372509765625,-0.3598095703124999,0.8425918248065485,0.642578125,-0.66015625,-0.158203125,23.494705882352942,279.3514736130403
-0.79192041015625,-0.1445751953125,-0.3080517578124999,0.86193724169052,0.69091796875,-1.14794921875,-0.2275390625,23.44764705882353,278.9947721116307
-0.83635400390625,-0.1675244140625,-0.2582470703124999,0.8912036795716168,0.8134765625,-0.958984375,-0.18603515625,23.353529411764708,278.9947721116307
-0.90910791015625,-0.1748486328125,-0.2279736328124999,0.9534260401115512,0.87109375,-0.33837890625,0.01611328125,23.40058823529412,278.9947721116307
-0.95256494140625,-0.1450634765625,-0.2255322265624999,0.9895898974054508,0.8544921875,0.3583984375,0.27587890625,23.40058823529412,278.9947721116307
-0.87639306640625,-0.2183056640625,-0.2914501953124999,0.9490339225519884,0.966796875,1.58056640625,0.142578125,23.306470588235296,278.9947721116307
-0.87004541015625,-0.1885205078125,-0.3656689453124999,0.9624098789838954,1.0107421875,1.51171875,0.47900390625,23.353529411764708,278.9947721116307
-0.69719384765625,-0.1548291015625,-0.3788525390624999,0.8084432931594401,1.1181640625,0.328125,0.0322265625,23.353529411764708,278.9947721116307
-0.68205712890625,-0.1201611328125,-0.3656689453124999,0.7831694596296362,0.94091796875,-0.85986328125,-0.3310546875,23.353529411764708,279.20634874526485
-0.85246728515625,-0.1528759765625,-0.4428173828124999,0.9727069296517412,0.91796875,-0.544921875,-0.1298828125,23.353529411764708,279.20634874526485
-0.89543603515625,-0.1821728515625,-0.3026806640624999,0.9626049165156356,0.87939453125,0.0986328125,0.2998046875,23.44764705882353,279.20634874526485
-0.85686181640625,-0.1982861328125,-0.3178173828124999,0.9351670715431236,0.9375,0.5263671875,0.4189453125,23.40058823529412,279.20634874526485
-0.82707666015625,-0.2251416015625,-0.3461376953124999,0.9244218986185871,0.94921875,0.890625,0.3515625,23.40058823529412,279.20634874526485
-0.84270166015625,-0.2476025390625,-0.4071728515624999,0.9681130287470748,0.9326171875,0.7607421875,0.32958984375,23.44764705882353,279.20634874526485
-0.84416650390625,-0.2383251953125,-0.4520947265624999,0.9868159032077176,0.8896484375,0.47265625,0.2529296875,23.44764705882353,279.20634874526485
-0.80559228515625,-0.2173291015625,-0.4603955078124999,0.95298210471297,0.8779296875,0.0771484375,-0.02783203125,23.40058823529412,279.20634874526485
-0.78508447265625,-0.1831494140625,-0.4555126953124999,0.9259552649389912,0.87060546875,-0.17578125,-0.2880859375,23.40058823529412,279.20634874526485
-0.78508447265625,-0.1733837890625,-0.4393994140624999,0.9162376398042597,0.88232421875,-0.2587890625,-0.328125,23.25941176470588,279.186359839131
-0.79924462890625,-0.1831494140625,-0.4154736328124999,0.9192138077016372,0.884765625,-0.1767578125,-0.1923828125,23.353529411764708,279.186359839131
-0.81096337890625,-0.1709423828125,-0.4061962890624999,0.9229725485716264,0.88623046875,-0.02197265625,-0.05517578125,23.44764705882353,279.186359839131
-0.80022119140625,-0.1689892578125,-0.3939892578124999,0.9078209403309124,0.87841796875,0.13916015625,-0.00244140625,23.353529411764708,279.186359839131
-0.80998681640625,-0.1597119140625,-0.4115673828124999,0.92248265503508,0.89794921875,0.24853515625,0.04052734375,23.44764705882353,279.186359839131
-0.79924462890625,-0.1606884765625,-0.4203564453124999,0.9172307803662212,0.9072265625,0.2509765625,0.0673828125,23.44764705882353,279.186359839131
-0.78117822265625,-0.1621533203125,-0.4267041015624999,0.9047704157027936,0.89599609375,0.0849609375,0.1064453125,23.353529411764708,279.186359839131
-0.78166650390625,-0.1636181640625,-0.4262158203124999,0.905225580960271,0.75341796875,-0.12158203125,0.1630859375,23.494705882352942,279.186359839131
-0.78508447265625,-0.1641064453125,-0.4125439453124999,0.9019318496499886,0.89990234375,-0.208984375,0.1923828125,23.40058823529412,279.186359839131
-0.80119775390625,-0.1645947265625,-0.3900830078124999,0.9061865248725844,0.90234375,-0.13671875,0.10107421875,23.353529411764708,279.1328809628748
-0.77971337890625,-0.1699658203125,-0.3754345703124999,0.8819254219635773,0.927734375,0.01416015625,0.03369140625,23.25941176470588,279.1328809628748
-0.80022119140625,-0.1792431640625,-0.3768994140624999,0.9025160582280132,0.9501953125,0.27490234375,0.14404296875,23.353529411764708,279.1328809628748
-0.82170556640625,-0.1851025390625,-0.3949658203124999,0.9303015570477814,0.9453125,0.34521484375,0.22509765625,23.353529411764708,279.1328809628748
-0.82414697265625,-0.1875439453125,-0.4184033203124999,0.9431077893912044,0.9365234375,0.20947265625,0.1884765625,23.44764705882353,279.1328809628748
-0.80754541015625,-0.1792431640625,-0.4379345703124999,0.9359724297234168,0.93994140625,0.02490234375,0.13720703125,23.44764705882353,279.1328809628748
-0.82072900390625,-0.1904736328125,-0.4345166015624999,0.9479878584049274,0.93603515625,-0.11767578125,0.19873046875,23.40058823529412,279.1328809628748
-0.80363916015625,-0.1987744140625,-0.4281689453124999,0.9320277963411562,0.904296875,-0.20703125,0.2880859375,23.353529411764708,279.1328809628748
-0.78557275390625,-0.1982861328125,-0.4027783203124999,0.9048051267866164,0.89013671875,-0.2646484375,0.322265625,23.44764705882353,278.8878158715382
-0.78410791015625,-0.1870556640625,-0.3783642578124999,0.8904911834585836,0.87060546875,-0.16357421875,0.25341796875,23.44764705882353,278.8878158715382
-0.80901025390625,-0.1919384765625,-0.3695751953124999,0.9099031787508278,0.8720703125,0.18603515625,0.203125,23.40058823529412,278.8878158715382
-0.82658837890625,-0.2100048828125,-0.3817822265624999,0.9344025189750798,0.8671875,0.51513671875,0.5322265625,23.353529411764708,278.8878158715382
-0.83830712890625,-0.2197705078125,-0.4047314453124999,0.9564859963972028,0.86865234375,0.5185546875,0.732421875,23.40058823529412,278.8878158715382
-0.78996728515625,-0.2109814453125,-0.4076611328124999,0.9136460370894508,0.82958984375,0.1572265625,0.5634765625,23.306470588235296,278.8878158715382
-0.74260400390625,-0.1953564453125,-0.4018017578124999,0.8666426598800364,0.7919921875,-0.30126953125,0.375,23.40058823529412,278.8878158715382
-0.75090478515625,-0.2017041015625,-0.3666455078124999,0.859634497537631,0.7841796875,-0.37060546875,0.39013671875,23.40058823529412,279.1616954206088
-0.76750634765625,-0.2017041015625,-0.3441845703124999,0.8649933853625541,0.75,-0.0859375,0.38525390625,23.494705882352942,279.1616954206088
-0.78264306640625,-0.1865673828125,-0.3412548828124999,0.8739522027929542,0.72265625,0.43994140625,0.65283203125,23.40058823529412,279.1616954206088
-0.80266259765625,-0.1763134765625,-0.3563916015624999,0.8957503342774247,0.73486328125,0.828125,0.669921875,23.353529411764708,279.1616954206088
-0.80901025390625,-0.1626416015625,-0.3827587890624999,0.9096450802861858,0.72265625,1.021484375,0.5107421875,23.40058823529412,279.1616954206088
-0.79387353515625,-0.1479931640625,-0.4203564453124999,0.9104046943785344,0.7353515625,0.8837890625,0.2763671875,23.494705882352942,279.1616954206088
-0.78264306640625,-0.1499462890625,-0.4325634765624999,0.906711211055223,0.63232421875,0.5556640625,0.12841796875,23.44764705882353,279.1616954206088
-0.77776025390625,-0.1553173828125,-0.3256298828124999,0.857361838747516,0.76806640625,0.34228515625,0.0849609375,23.306470588235296,279.1616954206088
-0.82707666015625,-0.1631298828125,-0.4359814453124999,0.9490769100017202,0.7294921875,0.1171875,0.07666015625,23.353529411764708,279.2346475085471
-0.80266259765625,-0.1602001953125,-0.4179150390624999,0.919012692039154,0.76513671875,-0.04833984375,-0.08056640625,23.44764705882353,279.2346475085471
-0.77434228515625,-0.1704541015625,-0.4193798828124999,0.8969615718793691,0.80029296875,-0.00244140625,-0.09765625,23.306470588235296,279.2346475085471
-0.77580712890625,-0.1670361328125,-0.3920361328124999,0.8851384639463444,0.8369140625,0.09375,-0.01220703125,23.54176470588236,279.2346475085471
-0.72453759765625,-0.1841259765625,-0.3690869140624999,0.8337159323143366,0.82275390625,0.08056640625,-0.33154296875,23.306470588235296,279.2346475085471
-0.75774072265625,-0.1738720703125,-0.3578564453124999,0.8558409519636632,0.828125,0.21923828125,-0.33740234375,23.40058823529412,279.2346475085471
-0.83147119140625,-0.1528759765625,-0.3637158203124999,0.9203285306313512,0.8095703125,0.61962890625,-0.20458984375,23.353529411764708,279.2346475085471
-0.87785791015625,-0.1352978515625,-0.3847119140624999,0.9679583027604852,0.859375,1.05322265625,-0.20556640625,23.353529411764708,279.2346475085471
-0.82365869140625,-0.1338330078125,-0.3886181640624999,0.9205156116810324,0.9931640625,1.07958984375,-0.36083984375,23.353529411764708,279.2346475085471
-0.78996728515625,-0.1450634765625,-0.4159619140624999,0.9044976715282764,0.85205078125,0.8173828125,-0.30517578125,23.306470588235296,278.8872899206784
-0.79192041015625,-0.1641064453125,-0.4262158203124999,0.9141820315997274,0.82958984375,0.61962890625,-0.099609375,23.353529411764708,278.8872899206784
-0.79973291015625,-0.1728955078125,-0.4286572265624999,0.9236950806911236,0.814453125,0.21923828125,0.099609375,23.306470588235296,278.8872899206784
-0.81291650390625,-0.1733837890625,-0.4149853515624999,0.9290360717670124,0.810546875,0.24951171875,0.17578125,23.40058823529412,278.8872899206784
-0.81975244140625,-0.1836376953125,-0.4267041015624999,0.9422278167308872,0.7998046875,0.18994140625,0.14697265625,23.44764705882353,278.8872899206784
-0.82414697265625,-0.1743603515625,-0.4257275390624999,0.943855763478548,0.81591796875,0.3271484375,0.0791015625,23.306470588235296,278.8872899206784
-0.81193994140625,-0.1777783203125,-0.4423291015624999,0.9415448123764514,0.82275390625,0.400390625,0.0361328125,23.40058823529412,278.8872899206784
-0.81047509765625,-0.1733837890625,-0.4418408203124999,0.9392311391372204,0.81591796875,0.41552734375,0.0390625,23.353529411764708,278.8872899206784
-0.80070947265625,-0.1772900390625,-0.3236767578124999,0.8816655040888493,0.7958984375,0.33251953125,0.03564453125,23.353529411764708,278.8872899206784
-0.78117822265625,-0.1821728515625,-0.5722119140624999,0.985318647947891,0.8056640625,0.15380859375,0.0146484375,23.353529411764708,279.03656340767634
-0.79533837890625,-0.1811962890625,-0.4437939453124999,0.9286271038620816,0.77099609375,0.009765625,0.052734375,23.353529411764708,279.03656340767634
-0.79680322265625,-0.1860791015625,-0.4511181640624999,0.9343598908454992,0.7978515625,-0.07958984375,0.099609375,23.44764705882353,279.03656340767634
-0.80559228515625,-0.1870556640625,-0.4398876953124999,0.936733652565378,0.78759765625,-0.1181640625,0.1328125,23.306470588235296,279.03656340767634
-0.81779931640625,-0.1894970703125,-0.4242626953124999,0.9405868892374472,0.7802734375,-0.1396484375,0.15283203125,23.44764705882353,279.03656340767634
-0.81291650390625,-0.1811962890625,-0.4276806640624999,0.936256422090723,0.75732421875,-0.126953125,0.16357421875,23.40058823529412,279.03656340767634
-0.80168603515625,-0.1821728515625,-0.4232861328124999,0.9246937855540732,0.6328125,-0.0458984375,0.2041015625,23.40058823529412,279.03656340767634
-0.78557275390625,-0.1860791015625,-0.4101025390624999,0.905502112788074,0.76025390625,-0.0234375,0.16455078125,23.44764705882353,279.03656340767634
-0.79045556640625,-0.1851025390625,-0.4154736328124999,0.9119765852215866,0.76416015625,0.03173828125,0.173828125,23.353529411764708,279.06771644338426
-0.80852197265625,-0.1841259765625,-0.4101025390624999,0.9250914809134054,0.771484375,0.1201171875,0.17626953125,23.353529411764708,279.06771644338426
-0.81047509765625,-0.1709423828125,-0.4218212890624999,0.9295291184620698,0.79248046875,0.18408203125,0.12646484375,23.40058823529412,279.06771644338426
-0.80266259765625,-0.1787548828125,-0.4242626953124999,0.925321235268821,0.78857421875,0.14453125,0.08935546875,23.353529411764708,279.06771644338426
-0.80119775390625,-0.1743603515625,-0.4247509765624999,0.9234353064249904,0.81103515625,0.05908203125,0.099609375,23.306470588235296,279.06771644338426
-0.80461572265625,-0.1748486328125,-0.4310986328124999,0.9294216140992454,0.80029296875,-0.03662109375,0.119140625,23.353529411764708,279.06771644338426
-0.80559228515625,-0.1777783203125,-0.4227978515624999,0.9270070573422128,0.79541015625,-0.0966796875,0.13671875,23.353529411764708,279.06771644338426
-0.80119775390625,-0.1782666015625,-0.4257275390624999,0.924630066358041,0.791015625,-0.1416015625,0.1494140625,23.40058823529412,279.06771644338426
-0.79924462890625,-0.1743603515625,-0.4135205078124999,0.9166202700213408,0.78076171875,-0.140625,0.12939453125,23.353529411764708,279.19700150797723
-0.79289697265625,-0.1665478515625,-0.4052197265624999,0.9058845527455018,0.787109375,-0.15576171875,0.11474609375,23.44764705882353,279.19700150797723
-0.79631494140625,-0.1626416015625,-0.4154736328124999,0.9127913869160196,0.7880859375,-0.0927734375,0.07275390625,23.44764705882353,279.19700150797723
-0.80461572265625,-0.1650830078125,-0.4022900390624999,0.9146016270174512,0.7900390625,-0.02392578125,0.05615234375,23.306470588235296,279.19700150797723
-0.80803369140625,-0.1587353515625,-0.4066845703124999,0.9184267515776878,0.7998046875,0.03173828125,0.01953125,23.353529411764708,279.19700150797723
-0.80608056640625,-0.1587353515625,-0.4135205078124999,0.9197619266717876,0.8193359375,0.1162109375,0.0078125,23.40058823529412,279.19700150797723
-0.81242822265625,-0.1592236328125,-0.4110791015624999,0.9243255973713134,0.80419921875,0.158203125,0.02734375,23.44764705882353,279.19700150797723
-0.81193994140625,-0.1694775390625,-0.4164501953124999,0.9281163019111804,0.8154296875,0.1875,0.02783203125,23.40058823529412,279.19700150797723
-0.80022119140625,-0.1621533203125,-0.4267041015624999,0.9212622019567864,0.8037109375,0.1640625,0.04931640625,23.40058823529412,279.19700150797723
-0.81438134765625,-0.1689892578125,-0.4310986328124999,0.936813951582296,0.80908203125,0.09912109375,0.06787109375,23.353529411764708,278.9296055334445
-0.79875634765625,-0.1636181640625,-0.4330517578124999,0.9232098523503912,0.8134765625,0.033203125,0.06982421875,23.44764705882353,278.9296055334445
-0.79289697265625,-0.1689892578125,-0.4208447265624999,0.9134293964937472,0.83203125,-0.01123046875,0.0048828125,23.44764705882353,278.9296055334445
-0.80949853515625,-0.1733837890625,-0.4286572265624999,0.9322536321270292,0.82275390625,-0.04931640625,-0.05029296875,23.494705882352942,278.9296055334445
-0.84026025390625,-0.1636181640625,-0.4218212890624999,0.95432772034146,0.8095703125,-0.06201171875,0.0078125,23.40058823529412,278.9296055334445
-0.78264306640625,-0.1650830078125,-0.4140087890624999,0.900658562543652,0.83056640625,-0.15869140625,0.0439453125,23.353529411764708,278.9296055334445
-0.75383447265625,-0.1733837890625,-0.4164501953124999,0.8784982160769682,0.82177734375,-0.17529296875,0.1826171875,23.40058823529412,278.9296055334445
-0.78166650390625,-0.1811962890625,-0.4047314453124999,0.8986891349759303,0.83251953125,-0.115234375,0.24072265625,23.353529411764708,278.9296055334445
-0.78606103515625,-0.1704541015625,-0.4110791015624999,0.903289864590446,0.85986328125,-0.0859375,0.07080078125,23.353529411764708,278.9296055334445
-0.80608056640625,-0.1665478515625,-0.4135205078124999,0.9211423759546692,0.876953125,-0.013671875,-0.08349609375,23.44764705882353,278.99424746831846
-0.81633447265625,-0.1709423828125,-0.4198681640624999,0.9337625740421316,0.876953125,0.1376953125,-0.1240234375,23.353529411764708,278.99424746831846
-0.82951806640625,-0.1826611328125,-0.4281689453124999,0.9512065799103412,0.8544921875,0.28515625,0.04931640625,23.40058823529412,278.99424746831846
-0.80705712890625,-0.1807080078125,-0.4442822265624999,0.9388201586274628,0.82177734375,0.18798828125,0.298828125,23.40058823529412,278.99424746831846
-0.77971337890625,-0.1768017578125,-0.4369580078124999,0.9111224480839336,0.81591796875,-0.16748046875,0.35107421875,23.40058823529412,278.99424746831846
-0.77483056640625,-0.1645947265625,-0.4179150390624999,0.8956041595058752,0.80029296875,-0.44775390625,0.365234375,23.40058823529412,278.99424746831846
-0.80510400390625,-0.1626416015625,-0.3964306640624999,0.912031808148008,0.814453125,-0.384765625,0.13525390625,23.306470588235296,278.99424746831846
-0.84026025390625,-0.1699658203125,-0.3983837890624999,0.945322864293936,0.822265625,-0.0107421875,0.109375,23.44764705882353,278.99424746831846
-0.85344384765625,-0.1821728515625,-0.4066845703124999,0.9627801871034634,0.80859375,0.36669921875,0.162109375,23.353529411764708,279.06304519576975
-0.84270166015625,-0.1782666015625,-0.4340283203124999,0.9645235363100442,0.79833984375,0.40234375,0.20751953125,23.44764705882353,279.06304519576975
-0.81438134765625,-0.1758251953125,-0.3256298828124999,0.8945201503027035,0.7900390625,0.23486328125,0.15087890625,23.40058823529412,279.06304519576975
-0.78508447265625,-0.1636181640625,-0.4530712890624999,0.9210874691308534,0.8076171875,-0.21533203125,0.04248046875,23.44764705882353,279.06304519576975
-0.77434228515625,-0.1689892578125,-0.4384228515624999,0.9057471725648482,0.82177734375,-0.400390625,0.02001953125,23.40058823529412,279.06304519576975
-0.78410791015625,-0.1758251953125,-0.4242626953124999,0.9087015729655736,0.833984375,-0.4453125,0.07666015625,23.44764705882353,279.06304519576975
-0.80803369140625,-0.1782666015625,-0.4101025390624999,0.9235158473062404,0.81689453125,-0.314453125,0.15673828125,23.353529411764708,279.06304519576975
-0.79777978515625,-0.1694775390625,-0.4101025390624999,0.912885159478531,0.83056640625,-0.2451171875,0.17919921875,23.353529411764708,279.06304519576975
-0.79533837890625,-0.1616650390625,-0.4071728515624999,0.9080134651346526,0.8427734375,0.048828125,0.12890625,23.44764705882353,279.0765436100719
-0.79289697265625,-0.1655712890625,-0.4071728515624999,0.9065810454994092,0.83056640625,0.060546875,0.076171875,23.353529411764708,279.0765436100719
-0.79533837890625,-0.1699658203125,-0.4144970703124999,0.9128303995449364,0.8125,-0.02978515625,0.080078125,23.44764705882353,279.0765436100719
-0.80559228515625,-0.1724072265625,-0.4169384765624999,0.9233314003717736,0.81396484375,-0.15185546875,0.10009765625,23.353529411764708,279.0765436100719
-0.80998681640625,-0.1660595703125,-0.4144970703124999,0.9249120201089128,0.798828125,-0.20654296875,0.10791015625,23.40058823529412,279.0765436100719
-0.81438134765625,-0.1645947265625,-0.4105908203124999,0.9267649244266238,0.8037109375,-0.2216796875,0.09716796875,23.353529411764708,279.0765436100719
-0.81047509765625,-0.1694775390625,-0.4193798828124999,0.9281551628232294,0.8193359375,-0.21533203125,0.06884765625,23.353529411764708,279.0765436100719
-0.81242822265625,-0.1626416015625,-0.3974072265624999,0.9189256832036564,0.82373046875,-0.19140625,0.029296875,23.40058823529412,279.0765436100719
-0.80510400390625,-0.1641064453125,-0.3969189453124999,0.9125064556741322,0.82861328125,-0.15869140625,0.02294921875,23.40058823529412,279.0765436100719
-0.81340478515625,-0.1645947265625,-0.4047314453124999,0.923323513916988,0.828125,-0.244140625,0.0390625,23.40058823529412,278.8268026978527
-0.82170556640625,-0.1631298828125,-0.4003369140624999,0.9284831938654148,0.83056640625,-0.087890625,0.05908203125,23.353529411764708,278.8268026978527
-0.80559228515625,-0.1689892578125,-0.4052197265624999,0.9174635284057212,0.84423828125,-0.0732421875,0.0458984375,23.25941176470588,278.8268026978527
-0.80266259765625,-0.1548291015625,-0.4076611328124999,0.9134697015078828,0.83642578125,-0.09423828125,0.0185546875,23.44764705882353,278.8268026978527
-0.80363916015625,-0.1616650390625,-0.4042431640624999,0.9139934465208072,0.8349609375,-0.09814453125,0.0048828125,23.40058823529412,278.8268026978527
-0.80901025390625,-0.1650830078125,-0.4037548828124999,0.9191126132247412,0.84619140625,-0.1240234375,-0.0400390625,23.40058823529412,278.8268026978527
-0.81047509765625,-0.1636181640625,-0.4061962890624999,0.9212145313553392,0.83251953125,0.02783203125,-0.0244140625,23.40058823529412,278.8268026978527
-0.80119775390625,-0.1748486328125,-0.4110791015624999,0.9173199621736424,0.83447265625,-0.04736328125,0.029296875,23.306470588235296,278.8268026978527
-0.80315087890625,-0.1650830078125,-0.4110791015624999,0.9172184916898132,0.83984375,-0.18408203125,0.02392578125,23.40058823529412,278.869118720895
-0.79826806640625,-0.1670361328125,-0.4135205078124999,0.9144026388251708,0.8349609375,-0.220703125,-0.015625,23.44764705882353,278.869118720895
-0.80705712890625,-0.1645947265625,-0.4037548828124999,0.9173061859191396,0.8310546875,-0.19921875,-0.04150390625,23.44764705882353,278.869118720895
-0.81242822265625,-0.1787548828125,-0.4037548828124999,0.9246680109599552,0.826171875,-0.09912109375,-0.0029296875,23.44764705882353,278.869118720895
-0.82072900390625,-0.1680126953125,-0.3974072265624999,0.9272307519507832,0.83740234375,0.0380859375,0.00244140625,23.40058823529412,278.869118720895
-0.79729150390625,-0.1680126953125,-0.3983837890624999,0.9069794106676596,0.8564453125,0.078125,-0.01318359375,23.44764705882353,278.869118720895
-0.80608056640625,-0.1758251953125,-0.4115673828124999,0.9219913716730924,0.8349609375,-0.03564453125,-0.04638671875,23.40058823529412,278.869118720895
-0.81242822265625,-0.1709423828125,-0.4154736328124999,0.9283745229014122,0.78271484375,-0.2060546875,-0.01025390625,23.494705882352942,278.869118720895
-0.75676416015625,-0.1670361328125,-0.4076611328124999,0.8756601298265899,0.822265625,-0.3193359375,-0.05322265625,23.40058823529412,279.07603339133937
-0.76799462890625,-0.1733837890625,-0.4042431640624999,0.8850368489671938,0.81640625,-0.34375,0.18896484375,23.306470588235296,279.07603339133937
-0.77971337890625,-0.1792431640625,-0.3925244140624999,0.8911545773566146,0.8232421875,-0.30322265625,0.294921875,23.353529411764708,279.07603339133937
-0.79387353515625,-0.1597119140625,-0.3900830078124999,0.8988369364345438,0.82861328125,-0.1474609375,0.0693359375,23.40058823529412,279.07603339133937
-0.82365869140625,-0.1553173828125,-0.3861767578124999,0.9228594787980212,0.84765625,0.1142578125,-0.1953125,23.40058823529412,279.07603339133937
-0.87199853515625,-0.1680126953125,-0.4149853515624999,0.9802155646143702,0.84912109375,0.2666015625,-0.212890625,23.44764705882353,279.07603339133937
-0.84660791015625,-0.1699658203125,-0.4232861328124999,0.9616675537029392,0.8203125,0.16552734375,-0.1181640625,23.353529411764708,279.07603339133937
-0.80461572265625,-0.1807080078125,-0.4159619140624999,0.9236266340809692,0.77734375,-0.03271484375,0.28515625,23.353529411764708,279.07603339133937
-0.77385400390625,-0.1641064453125,-0.4047314453124999,0.8885879177546723,0.75537109375,-0.51708984375,0.42724609375,23.306470588235296,279.07603339133937
-0.79973291015625,-0.1611767578125,-0.3905712890624999,0.9044869300801848,0.7607421875,-0.595703125,0.2578125,23.44764705882353,279.1829938454304
-0.83049462890625,-0.1641064453125,-0.3681103515624999,0.9231237647047668,0.7783203125,-0.49560546875,0.2412109375,23.353529411764708,279.1829938454304
