AccX,AccY,AccZ,Magnitude,GyroX,GyroY,GyroZ,Temperature,Altitude
-0.20695947265625,0.0971240234375,0.9863818359375,1.0125287282434383,0.90673828125,-1.24072265625,-0.216796875,29.94176470588236,171.42628446221764
-0.25188134765625,0.0907763671875,1.0015185546875005,1.0366889492611695,0.8642578125,-1.22705078125,0.1181640625,29.94176470588236,171.42628446221764
-0.25334619140625,0.0932177734375,1.0117724609375005,1.0471663471942856,0.88037109375,-0.99169921875,0.33740234375,29.89470588235294,171.42628446221764
-0.23625634765625,0.0985888671875,1.0054248046875005,1.0375046334460791,0.9013671875,-0.1455078125,0.34716796875,30.03588235294118,171.42628446221764
-0.23088525390625,0.1044482421875,0.9951708984375,1.0269286990167883,0.92578125,0.8662109375,0.21826171875,29.84764705882353,171.42628446221764
-0.22600244140625,0.1064013671875,0.9741748046875,1.0056912570709182,0.93017578125,1.279296875,0.0966796875,29.84764705882353,171.42628446221764
-0.20598291015625,0.0981005859375,0.9644091796875,0.9910286323327068,0.9150390625,1.1787109375,0.11279296875,29.94176470588236,171.42628446221764
-0.20110009765625,0.1029833984375,0.9365771484375,0.963443607382606,0.8525390625,0.52734375,0.19873046875,29.94176470588236,171.78297295664115
-0.18889306640625,0.0971240234375,0.9434130859375,0.96702736113471,0.7900390625,-0.05712890625,0.19091796875,29.988823529411768,171.78297295664115
-0.18889306640625,0.1190966796875,0.9346240234375,0.9609301092355488,0.7705078125,-0.54248046875,0.107421875,29.988823529411768,171.78297295664115
-0.19865869140625,0.1107958984375,0.9419482421875,0.9690239923458748,0.73583984375,-0.8486328125,0.04541015625,29.84764705882353,171.78297295664115
-0.18938134765625,0.1166552734375,0.9736865234375,0.99876883891353,0.77685546875,-1.125,-0.03515625,29.94176470588236,171.78297295664115
-0.21330712890625,0.1122607421875,0.9873583984375,1.0163557509276862,0.8447265625,-0.9873046875,-0.0322265625,29.94176470588236,171.78297295664115
-0.22990869140625,0.1044482421875,0.9868701171875,1.018665828364662,0.84130859375,-0.7724609375,-0.00244140625,30.03588235294118,171.78297295664115
-0.24846337890625,0.0995654296875,1.0029833984375005,1.0380862309979864,0.83447265625,-0.47998046875,0.03466796875,29.94176470588236,171.78297295664115
-0.25774072265625,0.1073779296875,1.0068896484375005,1.0448861488362895,0.79541015625,-0.15576171875,0.06689453125,29.84764705882353,171.61475618338514
-0.26311181640625,0.1103076171875,1.0073779296875005,1.046998515549881,0.80078125,0.08203125,0.0849609375,29.84764705882353,171.61475618338514
-0.25920556640625,0.1205615234375,1.0005419921875005,1.0405800712679865,0.83642578125,0.3408203125,0.095703125,29.94176470588236,171.61475618338514
-0.24455712890625,0.1303271484375,0.9863818359375,1.024569412575913,0.8544921875,0.646484375,0.12158203125,29.94176470588236,171.61475618338514
-0.24504541015625,0.1220263671875,0.9663623046875,1.00438727154846,0.8583984375,0.83251953125,0.14013671875,29.988823529411768,171.61475618338514
-0.23576806640625,0.1181201171875,0.9644091796875,0.9998119868689548,0.90283203125,0.7958984375,0.14501953125,29.94176470588236,171.61475618338514
-0.21623681640625,0.1151904296875,0.9531787109375,0.9841630204623496,0.94189453125,0.59912109375,0.16650390625,29.89470588235294,171.61475618338514
-0.20598291015625,0.1156787109375,0.9395068359375,0.9687536416519384,0.93115234375,0.48681640625,0.29150390625,29.94176470588236,171.61475618338514
-0.19035791015625,0.1122607421875,0.9395068359375,0.9651485393289656,0.94189453125,-0.04345703125,0.419921875,29.89470588235294,171.61475618338514
-0.18791650390625,0.1088427734375,0.8076708984375001,0.8363561693158921,0.88427734375,-0.60546875,0.4375,29.89470588235294,171.0380876820855
-0.18401025390625,0.0981005859375,0.9307177734375,0.953791943925079,0.830078125,-1.0087890625,0.49853515625,29.988823529411768,171.0380876820855
-0.20598291015625,0.0995654296875,0.9478076171875,0.9750289807302862,0.77197265625,-1.37548828125,0.31787109375,29.988823529411768,171.0380876820855
-0.23283837890625,0.1049365234375,0.9585498046875,0.99198947207583,0.71875,-1.64453125,0.39208984375,29.94176470588236,171.0380876820855
-0.24943994140625,0.1122607421875,0.9731982421875,1.0109092823800174,0.76123046875,-1.72998046875,0.498046875,29.89470588235294,171.0380876820855
-0.25432275390625,0.1220263671875,0.9863818359375,1.0259237904010563,0.95361328125,-1.76171875,0.59716796875,29.84764705882353,171.0380876820855
-0.21672509765625,0.1273974609375,0.9717333984375,1.003725898164597,1.0634765625,-1.5029296875,0.6201171875,29.89470588235294,171.0380876820855
-0.20012353515625,0.1405810546875,0.9780810546875,1.008193935609165,1.01318359375,-1.04443359375,0.404296875,29.94176470588236,171.0380876820855
-0.19524072265625,0.1386279296875,0.9785693359375,1.0074396199822284,0.90771484375,-0.4287109375,0.009765625,29.94176470588236,171.0380876820855
-0.20695947265625,0.0160693359375,0.9790576171875,1.0008217946530196,0.99658203125,0.05517578125,-0.20263671875,29.988823529411768,171.1175644541486
-0.21721337890625,0.1420458984375,0.9736865234375,1.0076825567422472,0.8935546875,0.1064453125,0.07080078125,30.08294117647059,171.1175644541486
-0.23186181640625,0.1278857421875,1.0459521484375005,1.0789488225968256,0.86962890625,-0.37158203125,0.578125,29.89470588235294,171.1175644541486
-0.23625634765625,0.1195849609375,0.8906787109375001,0.9292072916242,0.8974609375,-0.71826171875,0.689453125,29.94176470588236,171.1175644541486
-0.23625634765625,0.1122607421875,0.8335498046875001,0.8736273879285886,0.98291015625,-0.53955078125,0.38134765625,29.988823529411768,171.1175644541486
-0.23430322265625,0.1078662109375,0.7817919921875001,0.8232447015666834,0.85205078125,0.0458984375,0.10498046875,29.89470588235294,171.1175644541486
-0.23479150390625,0.1064013671875,0.7529833984375001,0.7958846019168953,0.76171875,0.29443359375,-0.26318359375,29.94176470588236,171.1175644541486
-0.22502587890625,0.1132373046875,0.7041552734375001,0.747859600767591,0.68408203125,-0.33447265625,-0.2158203125,29.94176470588236,171.1175644541486
-0.21672509765625,0.1137255859375,0.6558154296875001,0.6999979676164346,0.59423828125,-1.384765625,-0.2431640625,29.89470588235294,171.3356503782665
-0.20500634765625,0.1259326171875,0.6030810546875001,0.649302229454078,0.51806640625,-2.64990234375,-0.4931640625,29.94176470588236,171.3356503782665
-0.18986962890625,0.1361865234375,0.6699755859375001,0.7095523454258229,0.43359375,-3.6650390625,-0.79296875,29.89470588235294,171.3356503782665
-0.15520166015625,0.2040576171875,0.5034716796875001,0.5649874323335423,0.376953125,-4.3193359375,-0.91796875,29.94176470588236,171.3356503782665
-0.13029931640625,0.2592333984375,0.4800341796875,0.5609034501495269,0.39404296875,-4.61767578125,-1.041015625,29.988823529411768,171.3356503782665
-0.10490869140625,0.3134326171875,0.4585498046875,0.5652554842091514,0.4677734375,-4.90234375,-1.43212890625,30.03588235294118,171.3356503782665
-0.09563134765625,0.3285693359375,0.4297412109375,0.5493456758280612,0.5498046875,-5.21728515625,-2.20263671875,29.988823529411768,171.3356503782665
-0.08537744140625,0.3397998046875,0.4033740234375,0.5342881409416623,0.60107421875,-5.47412109375,-3.18896484375,29.94176470588236,171.3356503782665
-0.07121728515625,0.3290576171875,0.3657763671875,0.497134959469787,0.6669921875,-5.75244140625,-4.064453125,29.94176470588236,171.01724063621498
-0.04045556640625,0.2826708984375,0.3516162109375,0.4529607593056582,0.70849609375,-6.57568359375,-4.72119140625,29.84764705882353,171.01724063621498
0.0088608398437499,0.1947802734375,0.3428271484375,0.3943961499671511,0.568359375,-8.296875,-5.57861328125,29.89470588235294,171.01724063621498
0.0474350585937499,0.1166552734375,0.3594287109375,0.3808510678083538,0.31591796875,-10.74609375,-6.44873046875,29.988823529411768,171.01724063621498
0.0200913085937499,0.0731982421875,0.3687060546875,0.3764383058398427,0.14306640625,-13.04443359375,-7.259765625,29.94176470588236,171.01724063621498
-0.04045556640625,0.0932177734375,0.3926318359375,0.4055686929849831,0.33935546875,-14.76953125,-8.2578125,29.988823529411768,171.01724063621498
-0.14494775390625,0.1654833984375,0.4141162109375,0.4689209343611386,0.986328125,-15.3271484375,-8.9013671875,29.94176470588236,171.01724063621498
-0.20793603515625,0.2797412109375,0.3799365234375,0.5156009131635185,1.51611328125,-14.89892578125,-8.52294921875,29.988823529411768,171.01724063621498
-0.28703759765625,0.2860888671875,0.3281787109375,0.5214774095869327,1.88916015625,-14.21923828125,-8.00048828125,29.988823529411768,171.01724063621498
-0.02873681640625,0.2489794921875,0.3438037109375,0.4254616126062467,2.15576171875,-13.1240234375,-7.63671875,29.89470588235294,171.0102987934221
0.12507177734375,0.1850146484375,0.3633349609375,0.4264805546139601,3.123046875,-11.75,-7.34326171875,29.89470588235294,171.0102987934221
0.23542333984375,0.1205615234375,0.3525927734375,0.4407730637835131,4.35302734375,-9.544921875,-6.40966796875,29.89470588235294,171.0102987934221
0.21833349609375,0.0185107421875,0.2817919921875,0.356957826575986,5.47216796875,-6.001953125,-4.638671875,30.03588235294118,171.0102987934221
0.55085302734375,-0.1934033203125,0.1377490234375,0.5998488938888348,5.39794921875,-2.22412109375,-2.75927734375,29.94176470588236,171.0102987934221
0.78913427734375,-0.7773876953125,0.1279833984375,1.1150983305420803,3.88671875,-0.93994140625,1.50537109375,29.84764705882353,171.0102987934221
0.97468115234375,-1.0039501953125,0.1270068359375,1.405008925159197,1.05908203125,-3.22265625,7.650390625,29.988823529411768,171.0102987934221
1.19733740234375,-0.9365673828125,0.2725146484375,1.544357326272825,-1.6669921875,-9.45361328125,12.83935546875,29.89470588235294,171.0102987934221
1.30817724609375,-0.7383251953125,0.3198779296875,1.535829968170901,-3.9072265625,16.0,13.44287109375,29.89470588235294,170.74407318795778
1.35407568359375,-0.5259228515625,0.4570849609375,1.5228402622109611,-4.56396484375,16.0,11.58935546875,29.94176470588236,170.74407318795778
1.06598974609375,-0.2749462890625,0.8330615234375001,1.380551014080344,-3.2158203125,16.0,10.451171875,29.89470588235294,170.74407318795778
0.73054052734375,-0.1489697265625,1.2427294921875005,1.449226701477858,-0.55810546875,16.0,11.22607421875,29.988823529411768,170.74407318795778
0.59333349609375,-0.0771923828125,1.2612841796875005,1.396008984025917,1.03662109375,16.0,10.93603515625,29.94176470588236,170.74407318795778
0.80720068359375,-0.0059033203125,1.3037646484375005,1.533430810731377,1.73193359375,16.0,11.30908203125,30.03588235294118,170.74407318795778
1.34968115234375,0.1552294921875,0.8594287109375001,1.6075923355815165,-1.28564453125,16.0,5.333984375,29.94176470588236,170.74407318795778
1.43757177734375,0.1190966796875,1.3584521484375005,1.9814612975585253,-0.658203125,16.0,3.72802734375,29.988823529411768,170.74407318795778
1.20514990234375,0.3231982421875,1.4429248046875005,1.9075836502902568,1.52685546875,16.0,4.5146484375,29.988823529411768,170.7879600777522
0.97565771484375,0.4496630859375,1.2637255859375005,1.6586462021606785,2.7470703125,16.0,7.43408203125,29.89470588235294,170.7879600777522
0.77790380859375,0.4320849609375,0.9517138671875,1.302916357211778,2.31591796875,-7.39208984375,10.7509765625,29.84764705882353,170.7879600777522
0.82722021484375,0.3817919921875,0.7427294921875001,1.1754597005894083,0.94970703125,3.15966796875,12.26806640625,29.89470588235294,170.7879600777522
1.01130224609375,0.2558154296875,0.9209521484375,1.391519538753269,0.08203125,12.04248046875,10.53662109375,30.03588235294118,170.7879600777522
1.36139990234375,0.0937060546875,0.7695849609375001,1.5666689282959056,-0.78271484375,15.99951171875,6.56201171875,29.89470588235294,170.7879600777522
1.46979833984375,0.0321826171875,0.7573779296875001,1.6537727198845085,-1.22119140625,15.99951171875,2.73095703125,30.03588235294118,170.7879600777522
1.42682958984375,0.0854052734375,0.7148974609375001,1.598191202215649,-1.07568359375,15.99951171875,-0.62158203125,29.89470588235294,170.7879600777522
1.13044287109375,-0.0034619140625,0.6494677734375001,1.3037336608331935,-1.05224609375,15.99951171875,-3.0224609375,29.94176470588236,170.7879600777522
0.93122412109375,0.0600146484375,0.4409716796875,1.0321027778377108,-1.1005859375,15.99951171875,-4.4755859375,29.94176470588236,170.70691559493116
0.74811865234375,0.1879443359375,0.3335498046875,0.8403928031597402,-0.533203125,15.943359375,-4.3974609375,29.94176470588236,170.70691559493116
0.64216162109375,0.1684130859375,0.0703662109375,0.667597123093296,-0.10498046875,10.44384765625,-3.69970703125,29.94176470588236,170.70691559493116
0.60505224609375,0.0302294921875,-0.1547314453124999,0.6252550382599896,-0.26220703125,4.18798828125,-2.11279296875,29.94176470588236,170.70691559493116
0.67634130859375,-0.1338330078125,-0.2279736328124999,0.7261685871394984,-0.9033203125,-1.130859375,-0.34814453125,29.94176470588236,170.70691559493116
0.88532568359375,-0.2905712890625,-0.0102001953124999,0.93184616973114,-0.91650390625,-7.5126953125,2.0849609375,30.03588235294118,170.70691559493116
1.10212255859375,-0.4360791015625,0.2329638671875,1.2079367865893258,-1.28271484375,-15.625,4.3310546875,29.89470588235294,170.70691559493116
1.32770849609375,-0.4272900390625,0.4590380859375,1.4683673220358466,-0.802734375,16.0,6.72119140625,29.94176470588236,170.70691559493116
1.34089208984375,-0.3603955078125,0.5806201171875001,1.5049904448666096,0.77490234375,16.0,8.26953125,29.89470588235294,170.70691559493116
1.38972021484375,-0.3076611328125,0.5425341796875001,1.523259985792976,2.52294921875,16.0,8.89599609375,29.84764705882353,170.3844943254564
1.54792333984375,-0.2661572265625,0.4805224609375,1.6425005847030627,3.076171875,16.0,8.40234375,29.94176470588236,170.3844943254564
1.77253271484375,-0.2471142578125,0.3115771484375,1.8165951670732865,2.2705078125,16.0,7.2294921875,29.988823529411768,170.3844943254564
2.03181005859375,-0.2598095703125,0.4785693359375,2.103516516770992,0.95458984375,16.0,4.81103515625,29.89470588235294,170.3844943254564
2.19929052734375,-0.3516064453125,0.5938037109375001,2.3050181698139363,-0.39990234375,-13.13330078125,1.25634765625,29.988823529411768,170.3844943254564
2.25544287109375,-0.4614697265625,0.7158740234375001,2.4109028331174778,-1.2548828125,-10.072265625,-1.83544921875,30.03588235294118,170.3844943254564
2.21833349609375,-0.4775830078125,0.8945849609375001,2.439133305413688,-1.69384765625,-8.966796875,-3.8427734375,29.94176470588236,170.3844943254564
1.91413427734375,-0.4580517578125,0.9453662109375,2.183446522660843,-1.80029296875,-8.830078125,-3.74462890625,30.03588235294118,170.3844943254564
1.33259130859375,-0.3730908203125,0.9155810546875,1.6593025714569756,-2.55810546875,-7.51171875,-1.6982421875,29.94176470588236,170.3844943254564
1.23200537109375,-0.3901806640625,0.7949755859375001,1.5172555378870014,-3.916015625,-5.0302734375,-0.27392578125,29.94176470588236,170.76736191244228
0.88532568359375,-0.2964306640625,0.7671435546875001,1.2083798815462996,-4.70703125,-1.88330078125,0.9296875,29.94176470588236,170.76736191244228
0.73639990234375,-0.1943798828125,0.7686083984375001,1.0820477000404116,-4.8369140625,1.36962890625,1.5146484375,29.89470588235294,170.76736191244228
0.63776708984375,0.0014208984375,0.7314990234375001,0.9704842611449976,-4.4375,4.31982421875,2.072265625,29.94176470588236,170.76736191244228
0.85749365234375,0.1591357421875,0.7842333984375001,1.1728774750485325,-2.68115234375,6.642578125,1.1591796875,29.89470588235294,170.76736191244228
1.64264990234375,0.6039599609375,0.9834521484375,2.0075468772489207,1.37255859375,7.05859375,-3.66162109375,29.94176470588236,170.76736191244228
2.37067724609375,0.6156787109375,0.8887255859375001,2.6055717313764863,5.490234375,8.03173828125,-12.7685546875,29.94176470588236,170.76736191244228
2.46589208984375,0.1967333984375,0.3193896484375,2.494260927878993,5.77978515625,12.64013671875,16.0,29.988823529411768,170.76736191244228
2.22663427734375,0.0155810546875,0.4536669921875,2.272434094557585,4.4697265625,13.5546875,16.0,29.94176470588236,170.48054664859765
1.88972021484375,-0.2959423828125,0.4292529296875,1.9603271313684232,1.4462890625,12.51318359375,-8.44873046875,29.988823529411768,170.48054664859765
1.81208349609375,-1.0552197265625,0.5737841796875001,2.174020136291668,-1.15625,12.01171875,0.9189453125,29.89470588235294,170.48054664859765
1.91315771484375,-1.2461376953125,1.1431201171875005,2.5533811309445507,1.45947265625,10.31396484375,8.4580078125,29.94176470588236,170.48054664859765
1.76716162109375,-1.0923291015625,0.9985888671875,2.305042903474433,5.16943359375,8.13134765625,12.8046875,29.988823529411768,170.48054664859765
1.58649755859375,-0.8018017578125,0.7275927734375001,1.920742514293266,7.15576171875,5.01025390625,13.0517578125,29.94176470588236,170.48054664859765
1.34968115234375,-0.5112744140625,0.4629443359375,1.5157038621193517,8.05078125,0.64697265625,8.818359375,29.988823529411768,170.48054664859765
1.21296240234375,-0.3291455078125,0.0591357421875,1.2582176245851655,7.56884765625,-2.8251953125,2.5,29.84764705882353,170.48054664859765
0.91999365234375,-0.1431103515625,-0.2074658203124999,0.9538925304640316,5.44482421875,-2.45263671875,-2.1474609375,29.988823529411768,170.4832413878238
0.52790380859375,-0.1382275390625,-0.2890087890624999,0.6175073795821667,3.0908203125,-0.060546875,-3.60400390625,29.94176470588236,170.4832413878238
0.4453842773437499,-0.3057080078125,-0.1561962890624999,0.5623360394484761,0.71240234375,2.2421875,-3.10107421875,30.03588235294118,170.4832413878238
0.64313818359375,-0.4331494140625,-0.0624462890624999,0.7779104557188008,-0.7236328125,2.5146484375,-1.7412109375,29.89470588235294,170.4832413878238
0.75739599609375,-0.3188916015625,0.2314990234375,0.853775348846789,-0.86181640625,1.95556640625,0.7939453125,29.94176470588236,170.4832413878238
0.86042333984375,-0.0957470703125,0.2983935546875,0.9157153153138492,-0.10595703125,1.51318359375,3.42822265625,29.94176470588236,170.4832413878238
1.01472021484375,0.0522021484375,0.3013232421875,1.059800865727342,0.978515625,1.48193359375,4.8408203125,29.84764705882353,170.4832413878238
1.14850927734375,0.1542529296875,0.1797412109375,1.1726783145309367,1.7353515625,1.2568359375,5.07275390625,29.84764705882353,170.4832413878238
1.32233740234375,0.1923388671875,0.3457568359375,1.3802602055647692,2.22216796875,0.3701171875,3.88525390625,29.94176470588236,170.4832413878238
1.38483740234375,0.1254443359375,0.3906787109375,1.4443478692921496,2.68359375,-1.21337890625,2.34814453125,29.94176470588236,170.56966942695078
1.36628271484375,0.0551318359375,0.4141162109375,1.4287267801703305,2.85498046875,-2.4638671875,0.65576171875,29.988823529411768,170.56966942695078
1.25056005859375,-0.0410595703125,0.4409716796875,1.326665885123555,2.87353515625,-3.24365234375,-0.58251953125,29.988823529411768,170.56966942695078
1.13630224609375,-0.1269970703125,0.4893115234375,1.2436787436128296,2.9287109375,-3.49072265625,-1.5966796875,29.89470588235294,170.56966942695078
1.06257177734375,-0.1714306640625,0.5459521484375001,1.2068599765390713,2.95458984375,-3.5146484375,-2.39892578125,29.80058823529412,170.56966942695078
1.08161474609375,-0.2280712890625,0.5669482421875001,1.242311265819309,2.701171875,-3.796875,-3.0439453125,29.94176470588236,170.56966942695078
0.81013037109375,-0.3096142578125,0.5435107421875001,1.0235116675849325,2.04345703125,-3.40673828125,-2.923828125,29.988823529411768,170.56966942695078
0.68171240234375,-0.3545361328125,0.5591357421875001,0.9502949264152136,1.29052734375,-2.595703125,-2.3173828125,29.988823529411768,170.56966942695078
0.61237646484375,-0.3486767578125,0.5625537109375001,0.9016912408483948,0.5302734375,-0.83447265625,-0.56396484375,29.94176470588236,170.75908194148246
0.61286474609375,-0.2666455078125,0.5996630859375001,0.8979414460181845,0.17529296875,0.72509765625,1.0419921875,29.94176470588236,170.75908194148246
0.73981787109375,-0.1875439453125,0.6025927734375001,0.972430596192944,0.20361328125,1.97021484375,1.67724609375,29.94176470588236,170.75908194148246
0.86237646484375,-0.0991650390625,0.6089404296875001,1.0603467918547536,0.3232421875,2.86083984375,1.27685546875,29.988823529411768,170.75908194148246
0.93952490234375,-0.0571728515625,0.5752490234375001,1.1031261106716757,0.37890625,3.80517578125,0.11181640625,29.89470588235294,170.75908194148246
1.00495458984375,-0.0010205078125,0.5532763671875001,1.1471920098973896,0.25244140625,5.15673828125,-1.77001953125,29.988823529411768,170.75908194148246
1.00153662109375,0.0165576171875,0.5483935546875001,1.1419655200143328,0.42138671875,6.14208984375,-3.0615234375,29.988823529411768,170.75908194148246
0.86774755859375,0.0580615234375,0.5386279296875001,1.0229745903925176,0.8564453125,7.60400390625,-2.9560546875,29.988823529411768,170.75908194148246
0.73005224609375,0.0868701171875,0.4971240234375,0.887499292374584,1.42529296875,8.9765625,-1.84716796875,29.94176470588236,170.76177549899765
0.69489599609375,0.1073779296875,0.4741748046875,0.8480873838063667,1.98828125,9.650390625,-0.8896484375,29.988823529411768,170.76177549899765
0.74714208984375,0.1088427734375,0.4526904296875,0.8803389556734988,2.302734375,10.31591796875,-1.0478515625,29.89470588235294,170.76177549899765
0.83405615234375,0.0658740234375,0.3853076171875,0.9211140060215208,2.27294921875,10.50048828125,-2.36181640625,29.988823529411768,170.76177549899765
0.86188818359375,0.0326708984375,0.3345263671875,0.9251089227582412,2.29638671875,10.447265625,-3.482421875,29.94176470588236,170.76177549899765
0.79011083984375,0.0844287109375,0.3398974609375,0.864253221238384,2.60107421875,10.8505859375,-4.03759765625,29.988823529411768,170.76177549899765
0.78376318359375,-0.0098095703125,0.2969287109375,0.8381811349617286,2.54296875,11.54638671875,-4.166015625,29.94176470588236,170.76177549899765
0.73395849609375,-0.1055126953125,0.4004443359375,0.842723957796818,1.9755859375,11.9765625,-3.28564453125,29.89470588235294,170.76177549899765
0.75104833984375,-0.1973095703125,0.3687060546875,0.8596213294714005,1.49365234375,11.986328125,-1.88232421875,30.03588235294118,170.76177549899765
0.75104833984375,-0.2881298828125,0.4360888671875,0.9150223703475644,1.04345703125,11.431640625,-0.45263671875,29.988823529411768,170.470921908874
0.89655615234375,-0.3252392578125,0.4692919921875,1.062933903429168,0.84228515625,10.70654296875,0.61669921875,29.89470588235294,170.470921908874
1.13776708984375,-0.3506298828125,0.5776904296875001,1.323322144455065,0.740234375,8.8798828125,0.47021484375,29.988823529411768,170.470921908874
1.14216162109375,-0.2539501953125,0.5825732421875001,1.307063675920808,0.50390625,6.9228515625,0.17236328125,29.94176470588236,170.470921908874
1.19733740234375,-0.2241650390625,0.6660693359375001,1.3883498046477312,0.552734375,5.6982421875,-0.94140625,29.94176470588236,170.470921908874
1.12263037109375,-0.1758251953125,0.7163623046875001,1.3432752513859385,1.11865234375,5.705078125,-2.4541015625,29.94176470588236,170.470921908874
1.05085302734375,-0.1479931640625,0.7105029296875001,1.2771094216163603,1.65576171875,6.8271484375,-2.76123046875,29.94176470588236,170.470921908874
1.01227880859375,-0.1352978515625,0.7163623046875001,1.2474729842936867,2.09228515625,8.19287109375,-1.92138671875,30.03588235294118,170.470921908874
1.05231787109375,-0.1484814453125,0.7373583984375001,1.2934902586303796,2.0771484375,8.96533203125,-0.56005859375,29.988823529411768,170.470921908874
1.05720068359375,-0.0957470703125,0.7065966796875001,1.2751939674457051,1.73193359375,8.90576171875,0.41455078125,29.94176470588236,170.65205604123557
1.03864599609375,-0.0293408203125,0.6963427734375001,1.2508155927461162,1.265625,8.5205078125,-0.03466796875,29.89470588235294,170.65205604123557
0.99958349609375,-0.0474072265625,0.5606005859375001,1.1470342748788376,1.16455078125,7.673828125,-1.87158203125,29.988823529411768,170.65205604123557
0.94050146484375,-0.1475048828125,0.7314990234375001,1.2005796587968602,1.15771484375,6.05029296875,-3.26171875,30.03588235294118,170.65205604123557
0.86237646484375,-0.2612744140625,0.7886279296875001,1.197452085907114,0.68798828125,4.017578125,-3.60888671875,29.94176470588236,170.65205604123557
0.68708349609375,-0.2969189453125,0.8174365234375001,1.108353310339029,-0.1484375,2.32421875,-1.61767578125,29.94176470588236,170.65205604123557
0.60163427734375,-0.2441845703125,1.1904833984375005,1.3560385798379546,-0.39892578125,0.5546875,0.9736328125,29.89470588235294,170.65205604123557
0.52985693359375,-0.2114697265625,1.3599169921875005,1.47473456627628,0.73974609375,0.37451171875,1.75146484375,29.84764705882353,170.65205604123557
0.4824936523437499,0.0458544921875,1.3350146484375005,1.42026999917216,1.8896484375,3.02734375,0.16650390625,29.94176470588236,170.64377812896657
0.4766342773437499,0.0360888671875,1.2524951171875005,1.3406068250059022,1.96435546875,6.783203125,-1.818359375,30.03588235294118,170.64377812896657
0.4243881835937499,0.0009326171875,1.2920458984375005,1.3599591184362816,1.4814453125,10.56787109375,-2.767578125,30.03588235294118,170.64377812896657
0.3633530273437499,-0.0591259765625,1.4106982421875005,1.457940614049571,1.98486328125,13.625,-2.23291015625,29.94176470588236,170.64377812896657
0.3369858398437499,-0.1338330078125,1.1939013671875005,1.2477464505289209,2.27294921875,15.84765625,-0.44384765625,29.89470588235294,170.64377812896657
0.4014389648437499,-0.1816845703125,1.0186083984375005,1.1098313362632488,2.4423828125,15.99951171875,1.00732421875,29.94176470588236,170.64377812896657
0.50641943359375,-0.1587353515625,0.9150927734375,1.057852701728658,2.4423828125,15.99951171875,1.98828125,29.89470588235294,170.64377812896657
0.61481787109375,-0.1294384765625,0.8091357421875001,1.0244295891452904,2.6240234375,14.38330078125,2.13037109375,29.988823529411768,170.64377812896657
0.63532568359375,-0.0762158203125,0.6851123046875001,0.9374574366519212,2.216796875,11.615234375,1.97265625,29.89470588235294,170.51615732754635
0.58112646484375,-0.0991650390625,0.6436083984375001,0.8727963357240596,1.62744140625,8.5322265625,1.78271484375,29.94176470588236,170.51615732754635
0.55768896484375,0.0981005859375,0.6743701171875001,0.8805769480433023,1.29638671875,4.75439453125,1.45458984375,29.988823529411768,170.51615732754635
0.52985693359375,0.1371630859375,0.7481005859375001,0.9269393555682596,1.06787109375,1.0869140625,0.7294921875,29.84764705882353,170.51615732754635
0.4644272460937499,0.2592333984375,0.8301318359375001,0.9859074433315964,0.98193359375,-1.669921875,-0.2734375,29.94176470588236,170.51615732754635
0.4331772460937499,0.1020068359375,0.9663623046875,1.0639097823745591,0.64208984375,-3.3583984375,-1.134765625,29.94176470588236,170.51615732754635
0.4048569335937499,0.0717333984375,1.1016162109375005,1.1758456928230945,0.720703125,-3.32421875,-1.671875,29.94176470588236,170.51615732754635
0.4063217773437499,0.0214404296875,1.0542529296875005,1.1300470426153266,0.8701171875,-2.04638671875,-1.86181640625,29.94176470588236,170.51615732754635
0.4458725585937499,-0.0005322265624999,1.2222216796875005,1.3010105518673496,1.015625,0.1005859375,-1.98974609375,29.89470588235294,170.51615732754635
0.57966162109375,-0.1079541015625,1.2231982421875005,1.3578938186411305,1.21875,1.78173828125,-2.10986328125,29.94176470588236,170.19778679786668
0.4375717773437499,0.1371630859375,1.1787646484375005,1.2648196981695257,1.2431640625,3.34228515625,-2.28173828125,29.89470588235294,170.19778679786668
0.3516342773437499,0.0014208984375,1.1523974609375005,1.2048521037582285,1.18896484375,4.33642578125,-2.27392578125,29.89470588235294,170.19778679786668
0.24860693359375,-0.0127392578125,1.0879443359375005,1.1160602914802538,1.34521484375,4.98291015625,-2.0908203125,29.89470588235294,170.19778679786668
0.3233139648437499,-0.0317822265625,1.0039599609375005,1.0552144961825929,1.42529296875,5.25244140625,-1.88916015625,29.94176470588236,170.19778679786668
0.19196630859375,-0.0522900390625,0.9297412109375,0.950791265807484,1.576171875,5.3994140625,-1.54150390625,29.988823529411768,170.19778679786668
0.20222021484375,-0.0342236328125,0.8857958984375001,0.9092296992636324,1.5986328125,4.962890625,-1.0771484375,29.988823529411768,170.19778679786668
0.23639990234375,-0.0181103515625,0.8760302734375001,0.907547210144372,1.65283203125,4.0361328125,0.11083984375,29.89470588235294,170.19778679786668
0.3135483398437499,0.0214404296875,0.8633349609375001,0.918759766326819,1.4541015625,2.58203125,0.849609375,29.988823529411768,170.49151849151852
0.4234116210937499,0.0819873046875,0.8887255859375001,0.9878423386892824,1.189453125,0.7060546875,0.85595703125,29.94176470588236,170.49151849151852
0.4375717773437499,0.1156787109375,0.9043505859375,1.0112866096104651,0.8115234375,-0.9609375,-0.2861328125,30.03588235294118,170.49151849151852
0.3447983398437499,0.1044482421875,0.9531787109375,1.018992141991065,0.64013671875,-1.36279296875,-1.1328125,29.89470588235294,170.49151849151852
0.16364599609375,0.1024951171875,0.9546435546875,0.9739761689031108,0.6220703125,-1.1181640625,-0.52490234375,29.89470588235294,170.49151849151852
0.08210302734375,0.0526904296875,0.9600146484375,0.9649587108753612,0.53564453125,-0.66845703125,0.7783203125,29.988823529411768,170.49151849151852
0.12507177734375,0.0683154296875,0.9741748046875,0.9845438017220164,0.6015625,-0.63623046875,1.99951171875,29.94176470588236,170.49151849151852
0.2813217773437499,0.0863818359375,0.9761279296875,1.0195241532714097,0.61279296875,-1.4580078125,1.96142578125,29.89470588235294,170.49151849151852
0.4395249023437499,0.1020068359375,0.9746630859375,1.0740370875567908,0.53369140625,-2.2978515625,0.55908203125,29.988823529411768,170.71654079594745
0.4883530273437499,0.1015185546875,0.9761279296875,1.096184487838452,0.48779296875,-2.6689453125,-0.81494140625,30.03588235294118,170.71654079594745
0.4697983398437499,0.0756396484375,0.9775927734375,1.0872531753059704,0.451171875,-2.48681640625,-1.77197265625,29.988823529411768,170.71654079594745
0.4185288085937499,0.0434130859375,0.9814990234375,1.0678910958811705,0.49755859375,-2.24658203125,-1.9462890625,30.03588235294118,170.71654079594745
0.3613999023437499,0.1327685546875,0.9854052734375,1.0579512897323364,0.5,-2.15087890625,-1.34521484375,29.988823529411768,170.71654079594745
0.3301499023437499,-0.0107861328125,0.9766162109375,1.0309677599927924,0.6669921875,-2.40576171875,-0.2490234375,29.94176470588236,170.71654079594745
0.3335678710937499,-0.0181103515625,1.0147021484375005,1.0682770986515684,0.8037109375,-3.2138671875,0.63623046875,29.94176470588236,170.71654079594745
0.3697006835937499,0.0116748046875,1.0796435546875005,1.1412471694126731,1.06298828125,-4.41796875,0.9794921875,29.84764705882353,170.71654079594745
0.3736069335937499,0.0644091796875,1.1450732421875005,1.2062020615266478,1.19189453125,-5.87744140625,-0.033203125,29.89470588235294,170.71654079594745
0.3535874023437499,0.0565966796875,1.2178271484375005,1.2693818175471334,0.89501953125,-6.2646484375,-1.814453125,29.94176470588236,170.4297294876053
0.16901708984375,0.0692919921875,1.2188037109375005,1.2324165864818537,0.47021484375,-4.3408203125,-2.9814453125,29.89470588235294,170.4297294876053
-0.06975244140625,0.1000537109375,1.1714404296875005,1.1777728254892506,0.3955078125,0.54833984375,-2.80615234375,29.988823529411768,170.4297294876053
-0.07414697265625,0.0229052734375,1.0757373046875005,1.0785328802598748,0.72412109375,5.23291015625,-2.10546875,29.94176470588236,170.4297294876053
0.0220444335937499,-0.0615673828125,1.0137255859375005,1.0158326945236498,1.04443359375,7.67724609375,-0.97900390625,29.89470588235294,170.4297294876053
0.08503271484375,-0.0801220703125,0.9409716796875,0.948197137054724,1.140625,7.61181640625,0.34912109375,29.94176470588236,170.4297294876053
0.3931381835937499,-0.0435009765625,0.8608935546875001,0.9474110400791008,1.1923828125,5.591796875,0.88671875,29.94176470588236,170.4297294876053
0.4780991210937499,0.0312060546875,0.8125537109375001,0.9432900511497392,1.13623046875,2.55859375,0.3115234375,29.94176470588236,170.4297294876053
0.73005224609375,0.1132373046875,0.8384326171875001,1.1174829854468926,0.9716796875,-1.7763671875,-0.8046875,29.94176470588236,170.40778561504766
0.82087255859375,0.1396044921875,0.8784716796875001,1.210385749959143,0.8330078125,-5.0244140625,-1.912109375,29.94176470588236,170.40778561504766
0.56306005859375,0.1078662109375,0.9380419921875,1.0993609635386845,0.65576171875,-7.2890625,-2.59228515625,29.94176470588236,170.40778561504766
0.3535874023437499,0.0639208984375,1.0513232421875005,1.1110312740498782,0.59375,-7.81103515625,-2.4814453125,29.89470588235294,170.40778561504766
0.17243505859375,-0.1113720703125,1.1367724609375005,1.1551576582544147,0.8173828125,-6.5400390625,-1.42333984375,29.94176470588236,170.40778561504766
0.08942724609375,-0.0356884765625,1.1646044921875005,1.1685779918031016,1.06005859375,-3.89306640625,-0.2353515625,29.988823529411768,170.40778561504766
-0.03703759765625,-0.0488720703125,1.1553271484375005,1.1569533624193769,1.150390625,-0.8134765625,0.98486328125,29.94176470588236,170.40778561504766
0.17731787109375,-0.0293408203125,1.1138232421875005,1.1282307946439438,1.1357421875,1.8515625,1.3740234375,29.89470588235294,170.40778561504766
0.2954819335937499,-0.1094189453125,1.0781787109375005,1.1232770857595429,1.23046875,3.84619140625,0.9248046875,29.89470588235294,170.40778561504766
0.3892319335937499,0.0468310546875,1.0107958984375005,1.0841600408197796,1.29541015625,4.326171875,0.03076171875,29.988823529411768,170.29383648483434
0.4048569335937499,0.0502490234375,0.9478076171875,1.0318785685505845,1.15673828125,3.77392578125,-0.6982421875,29.89470588235294,170.29383648483434
0.3692124023437499,0.0448779296875,0.9131396484375,0.9859796367907608,1.0244140625,2.56396484375,-0.94287109375,30.03588235294118,170.29383648483434
0.3081772460937499,0.0272998046875,0.9146044921875,0.9655153398447164,1.0537109375,1.1005859375,-0.63134765625,29.988823529411768,170.29383648483434
0.24616552734375,-0.0049267578125,0.9219287109375,0.9542401625617368,1.0068359375,-0.25439453125,-0.06591796875,29.94176470588236,170.29383648483434
0.22126318359375,-0.0088330078125,0.9756396484375,1.00045396797869,1.23583984375,-1.33447265625,0.5537109375,29.988823529411768,170.29383648483434
0.23347021484375,0.0277880859375,1.0098193359375005,1.036829595532704,1.384765625,-1.69873046875,0.99072265625,29.94176470588236,170.29383648483434
0.2783920898437499,0.0351123046875,1.0493701171875005,1.0862378526244365,1.3291015625,-1.61962890625,0.92431640625,29.89470588235294,170.29383648483434
0.3413803710937499,0.0717333984375,1.0923388671875005,1.1466867222515358,1.203125,-0.6845703125,0.53955078125,29.84764705882353,170.29383648483434
0.3677475585937499,0.0746630859375,1.1143115234375005,1.1757988835336497,1.02197265625,0.6748046875,-0.3828125,29.988823529411768,170.3885380583457
0.3252670898437499,0.0819873046875,1.0918505859375005,1.142216398007578,0.91259765625,1.4990234375,-0.9208984375,29.988823529411768,170.3885380583457
0.22419287109375,0.0507373046875,1.0410693359375005,1.0661435549519394,0.8994140625,1.8427734375,-0.4580078125,29.84764705882353,170.3885380583457
0.16266943359375,-0.0005322265624999,0.9834521484375,0.9968148053460884,0.97998046875,1.9541015625,0.5888671875,29.94176470588236,170.3885380583457
0.15925146484375,-0.0073681640625,0.9517138671875,0.9649738876744378,1.14697265625,1.78564453125,1.27294921875,30.08294117647059,170.3885380583457
0.23298193359375,-0.0078564453125,0.9356005859375,0.9642047300862115,1.22900390625,0.92236328125,1.56787109375,29.89470588235294,170.3885380583457
0.3208725585937499,0.0136279296875,0.9512255859375,1.0039795987310731,1.1923828125,-0.03271484375,1.232421875,29.988823529411768,170.3885380583457
0.3687241210937499,0.0443896484375,0.9644091796875,1.0334471366404183,1.16796875,-0.77197265625,0.4208984375,29.94176470588236,170.3885380583457
0.3526108398437499,0.0556201171875,0.9858935546875,1.0485294955248614,1.05859375,-1.19140625,0.22900390625,29.94176470588236,170.29383648483434
0.3159897460937499,0.0458544921875,1.0278857421875005,1.076336960752772,1.0048828125,-1.1884765625,0.29638671875,29.988823529411768,170.29383648483434
0.2847397460937499,0.0370654296875,1.0449755859375005,1.0837086990002776,1.0498046875,-0.97216796875,0.580078125,29.89470588235294,170.29383648483434
0.24665380859375,0.0297412109375,1.1768115234375005,1.2027501829628302,1.03125,-0.50830078125,0.8037109375,29.89470588235294,170.29383648483434
0.22712255859375,0.0204638671875,1.0479052734375005,1.0724312978370976,1.029296875,0.00634765625,0.85546875,29.89470588235294,170.29383648483434
0.22468115234375,0.0375537109375,1.0405810546875005,1.0652233722549669,1.08544921875,0.59130859375,0.8310546875,29.94176470588236,170.29383648483434
0.23542333984375,0.0473193359375,1.0225146484375005,1.0503330304079828,1.0966796875,0.84375,0.7822265625,29.94176470588236,170.29383648483434
0.2559311523437499,0.0502490234375,1.0024951171875005,1.035867838617071,1.0380859375,0.8505859375,0.77587890625,29.988823529411768,170.29383648483434
0.2852280273437499,0.0565966796875,0.9907763671875,1.0325676837434514,0.95068359375,0.70556640625,0.7900390625,29.988823529411768,170.28421390182032
0.2988999023437499,0.0639208984375,0.9727099609375,1.0196036980048635,0.89599609375,0.50732421875,0.7294921875,29.988823529411768,170.28421390182032
0.3194077148437499,0.0629443359375,0.9600146484375,1.0137116961655794,0.84423828125,0.162109375,0.65673828125,29.94176470588236,170.28421390182032
0.3433334960937499,0.0561083984375,0.9609912109375,1.0220225777419505,0.787109375,-0.171875,0.59765625,29.94176470588236,170.28421390182032
0.3447983398437499,0.0683154296875,0.9751513671875,1.0365679341075744,0.7861328125,-0.4560546875,0.5849609375,29.988823529411768,170.28421390182032
0.3540756835937499,0.0814990234375,0.9829638671875,1.0479645245569398,0.84521484375,-0.5986328125,0.54541015625,29.94176470588236,170.28421390182032
0.3545639648437499,0.0771044921875,0.9893115234375,1.0537542399855098,0.81396484375,-0.60791015625,0.49072265625,29.988823529411768,170.28421390182032
0.3565170898437499,0.0731982421875,1.0000537109375005,1.064222647179556,0.7861328125,-0.63818359375,0.37744140625,30.03588235294118,170.28421390182032
0.3516342773437499,0.0600146484375,0.9961474609375,1.0580917667964185,0.78076171875,-0.53466796875,0.361328125,29.94176470588236,170.28421390182032
0.3208725585937499,0.0575732421875,0.9941943359375,1.046277331630905,0.72265625,-0.33642578125,0.09326171875,29.988823529411768,170.5078820703109
0.3262436523437499,0.0463427734375,1.0044482421875005,1.0571181790973174,0.6611328125,-0.15380859375,-0.05615234375,29.988823529411768,170.5078820703109
0.3277084960937499,0.0419482421875,1.0010302734375005,1.0541414145042425,0.6396484375,-0.0849609375,-0.18408203125,29.94176470588236,170.5078820703109
0.3418686523437499,0.0307177734375,1.0103076171875005,1.0670235416369098,0.642578125,-0.1044921875,-0.2275390625,29.988823529411768,170.5078820703109
0.3350327148437499,0.0429248046875,0.9985888671875,1.0541675315355945,0.67626953125,-0.185546875,-0.1552734375,29.988823529411768,170.5078820703109
0.3389389648437499,0.0487841796875,1.0005419921875005,1.0575177521950478,0.74658203125,-0.39599609375,0.05029296875,29.84764705882353,170.5078820703109
0.3457749023437499,0.0526904296875,0.9917529296875,1.051622764119921,0.833984375,-0.73193359375,0.23681640625,29.94176470588236,170.5078820703109
0.3653061523437499,0.0404833984375,0.9922412109375,1.0581257539498603,0.8232421875,-1.10400390625,0.220703125,29.988823529411768,170.5078820703109
0.3574936523437499,0.0453662109375,0.9927294921875,1.0561115704411874,0.79541015625,-1.32763671875,-0.14453125,29.80058823529412,170.6560978171619
0.3194077148437499,0.0321826171875,0.9863818359375,1.0373071557731477,0.6552734375,-1.357421875,-0.357421875,30.03588235294118,170.6560978171619
0.2798569335937499,0.0292529296875,0.9985888671875,1.0374754757808076,0.4873046875,-1.1435546875,-0.5615234375,30.03588235294118,170.6560978171619
0.24177099609375,0.0326708984375,1.0249560546875005,1.0535917217771993,0.53369140625,-0.9091796875,-0.4775390625,29.988823529411768,170.6560978171619
0.2569077148437499,0.0536669921875,0.9946826171875,1.02872505021102,0.64990234375,-0.6474609375,0.2294921875,29.94176470588236,170.6560978171619
0.3233139648437499,0.0424365234375,1.0137255859375005,1.0648813745994317,0.62158203125,-0.45947265625,0.3447265625,29.94176470588236,170.6560978171619
0.3853256835937499,0.0717333984375,1.0244677734375005,1.0968845799355431,0.63916015625,-0.22412109375,0.22998046875,29.94176470588236,170.6560978171619
0.4038803710937499,0.0712451171875,1.0103076171875005,1.0903745696892286,0.80224609375,-0.07470703125,-0.3583984375,29.94176470588236,170.6560978171619
0.3931381835937499,0.0673388671875,1.0068896484375005,1.0830138127300508,0.7265625,-0.27197265625,-0.759765625,29.988823529411768,170.6560978171619
0.3404038085937499,0.0399951171875,0.9922412109375,1.0497699667006524,0.5859375,-0.5078125,-0.73828125,29.988823529411768,170.39951008255665
0.3067124023437499,0.0209521484375,0.9785693359375,1.0257238592880549,0.55712890625,-0.72216796875,-0.21044921875,29.89470588235294,170.39951008255665
0.2959702148437499,0.0004443359375,0.9932177734375,1.0363783628488323,0.61767578125,-0.8740234375,0.30615234375,29.94176470588236,170.39951008255665
0.3164780273437499,0.0106982421875,1.0044482421875005,1.0531804524443344,0.6259765625,-1.23193359375,0.76708984375,29.988823529411768,170.39951008255665
0.3325913085937499,0.0131396484375,0.9756396484375,1.0308551559343402,0.9765625,-0.6845703125,0.763671875,30.03588235294118,170.39951008255665
0.3784897460937499,0.0277880859375,0.9771044921875,1.0482174651622505,1.02197265625,-0.3251953125,0.419921875,29.89470588235294,170.39951008255665
0.4082749023437499,0.0365771484375,0.9932177734375,1.074480260006559,0.89111328125,-0.52197265625,0.24462890625,30.03588235294118,170.39951008255665
0.4185288085937499,0.0297412109375,0.9961474609375,1.0809073351509653,0.66845703125,-0.994140625,0.03515625,30.03588235294118,170.39951008255665
0.3804428710937499,0.0287646484375,1.0044482421875005,1.0744675213329382,0.7275390625,-0.9140625,0.11181640625,29.94176470588236,170.38988684506052
0.3428452148437499,0.0302294921875,1.0225146484375005,1.0788850123198654,0.78173828125,-0.7587890625,0.2646484375,29.988823529411768,170.38988684506052
0.3252670898437499,0.0370654296875,1.0410693359375005,1.091328496852661,0.873046875,-0.4375,0.6474609375,29.94176470588236,170.38988684506052
0.3203842773437499,0.0390185546875,1.0234912109375005,1.0731741665010806,0.998046875,0.3232421875,0.5,29.84764705882353,170.38988684506052
0.3423569335937499,0.0439013671875,1.0122607421875005,1.0694893221508273,0.9033203125,0.56201171875,0.2548828125,29.988823529411768,170.38988684506052
0.3574936523437499,0.0439013671875,1.0034716796875005,1.0661540477069245,0.890625,0.474609375,0.03564453125,29.89470588235294,170.38988684506052
0.3399155273437499,0.0614794921875,0.9922412109375,1.0506497581838246,0.904296875,0.38134765625,-0.0712890625,29.89470588235294,170.38988684506052
0.3530991210937499,0.0526904296875,0.9819873046875,1.044870488273668,0.94775390625,0.26953125,-0.0869140625,29.89470588235294,170.38988684506052
0.3550522460937499,0.0321826171875,0.9834521484375,1.0460764535021274,0.89306640625,0.1201171875,0.0185546875,29.89470588235294,170.44204966328772
0.3487045898437499,0.0404833984375,0.9849169921875,1.045607611882593,0.8828125,0.07763671875,0.119140625,29.89470588235294,170.44204966328772
0.3618881835937499,0.0326708984375,0.9902880859375,1.0548464050179318,0.9072265625,0.09765625,0.23876953125,29.988823529411768,170.44204966328772
0.3555405273437499,0.0302294921875,0.9902880859375,1.0526126457208955,0.9423828125,0.076171875,0.337890625,29.988823529411768,170.44204966328772
0.3667709960937499,0.0180224609375,0.9907763671875,1.0566378672237264,0.96826171875,0.0634765625,0.34765625,29.988823529411768,170.44204966328772
0.3662827148437499,0.0165576171875,0.9810107421875,1.047291391240998,1.03759765625,0.13671875,0.26123046875,29.988823529411768,170.44204966328772
0.3609116210937499,0.0155810546875,0.9849169921875,1.049076474336054,1.02001953125,0.1748046875,0.1806640625,29.988823529411768,170.44204966328772
0.3530991210937499,0.0146044921875,0.9766162109375,1.0385911149124822,0.96728515625,0.083984375,0.1748046875,29.89470588235294,170.44204966328772
0.3506577148437499,0.0209521484375,0.9883349609375,1.0489069646612694,0.923828125,-0.07177734375,0.248046875,29.89470588235294,170.44204966328772
0.3384506835937499,0.0292529296875,1.0005419921875005,1.0566403727148184,0.92333984375,-0.13232421875,0.25439453125,29.84764705882353,170.7302067656464
0.3389389648437499,0.0380419921875,1.0044482421875005,1.0607747575675552,0.9765625,-0.09716796875,0.47021484375,29.988823529411768,170.7302067656464
0.3408920898437499,0.0575732421875,1.0117724609375005,1.0692079348029295,1.02685546875,0.015625,0.48828125,29.89470588235294,170.7302067656464
0.3550522460937499,0.0609912109375,1.0083544921875005,1.070775796879324,1.04052734375,0.21875,0.40185546875,29.84764705882353,170.7302067656464
0.3682358398437499,0.0580615234375,0.9976123046875,1.0649878331291962,1.0546875,0.32861328125,0.25146484375,29.988823529411768,170.7302067656464
0.3609116210937499,0.0497607421875,0.9819873046875,1.0473931431277324,1.0263671875,0.30615234375,0.1005859375,29.94176470588236,170.7302067656464
0.3584702148437499,0.0536669921875,0.9824755859375,1.0472054802873272,0.9775390625,0.2080078125,0.06787109375,29.94176470588236,170.7302067656464
0.20954443359375,0.0546435546875,0.9692919921875,0.9931876730194672,0.9189453125,0.0703125,0.0458984375,29.89470588235294,170.7302067656464
0.3277084960937499,0.0434130859375,0.9810107421875,1.035209945242951,0.849609375,-0.0146484375,-0.15625,29.988823529411768,170.4530216960875
0.3042709960937499,0.0443896484375,0.9990771484375,1.0453259914889204,0.83837890625,-0.05517578125,-0.39501953125,29.988823529411768,170.4530216960875
0.2891342773437499,0.0575732421875,1.0044482421875005,1.0468187903284083,0.908203125,-0.02978515625,-0.498046875,29.94176470588236,170.4530216960875
0.2930405273437499,0.0551318359375,0.9961474609375,1.0398182696663734,0.90869140625,0.17919921875,-0.2763671875,29.988823529411768,170.4530216960875
0.3369858398437499,0.0478076171875,1.0064013671875005,1.0623976357245972,0.83544921875,0.4267578125,-0.31298828125,29.94176470588236,170.4530216960875
0.3941147460937499,0.0658740234375,1.0112841796875005,1.0873644798955897,0.85791015625,0.56103515625,-0.49072265625,29.89470588235294,170.4530216960875
0.4155991210937499,0.0580615234375,0.9922412109375,1.0773283578559034,0.75146484375,0.283203125,-0.74462890625,29.89470588235294,170.4530216960875
0.3985092773437499,0.0609912109375,0.9702685546875,1.0506905539482263,0.7216796875,-0.16455078125,-0.67236328125,29.94176470588236,170.4530216960875
0.3711655273437499,0.0341357421875,0.9546435546875,1.0248284803270455,0.65625,-0.59033203125,-0.40673828125,29.89470588235294,170.4530216960875
0.3545639648437499,0.0224169921875,0.9741748046875,1.0369352326892858,0.7197265625,-0.626953125,-0.1435546875,29.89470588235294,170.42145417302248
0.3633530273437499,0.0150927734375,0.9922412109375,1.0567856144803545,0.78662109375,-0.73828125,-0.02197265625,29.89470588235294,170.42145417302248
0.3843491210937499,0.0194873046875,1.0054248046875005,1.0765607459917994,0.82421875,-0.58837890625,-0.1162109375,29.94176470588236,170.42145417302248
0.3916733398437499,0.0258349609375,1.0176318359375005,1.0907107792006674,0.90283203125,-0.32568359375,-0.13818359375,29.988823529411768,170.42145417302248
0.3946030273437499,0.0219287109375,1.0059130859375005,1.08076526314114,0.83349609375,-0.10888671875,-0.29150390625,29.89470588235294,170.42145417302248
0.3867905273437499,0.0194873046875,1.0073779296875005,1.0792575968267788,0.76171875,0.2314453125,-0.236328125,30.03588235294118,170.42145417302248
0.3931381835937499,0.0214404296875,1.0024951171875005,1.0770393601950476,0.76611328125,0.4443359375,-0.17529296875,29.988823529411768,170.42145417302248
0.3887436523437499,0.0121630859375,0.9834521484375,1.057566875504058,0.62841796875,0.59521484375,-0.16796875,29.988823529411768,170.42145417302248
0.3926499023437499,0.0111865234375,0.9736865234375,1.0499354885139274,0.73095703125,0.57666015625,-0.18359375,29.988823529411768,170.44474741368353
0.3833725585937499,0.1322802734375,0.9834521484375,1.063790730214243,0.63232421875,0.41943359375,-0.1845703125,29.988823529411768,170.44474741368353
0.3716538085937499,0.0111865234375,0.9878466796875,1.055505923393363,0.802734375,0.1328125,-0.10498046875,30.03588235294118,170.44474741368353
0.3667709960937499,-0.1094189453125,0.9897998046875,1.0612243507045598,0.85205078125,-0.0966796875,0.01708984375,29.94176470588236,170.44474741368353
0.3570053710937499,0.0268115234375,0.9922412109375,1.0548527449182383,0.875,-0.17236328125,0.10107421875,29.94176470588236,170.44474741368353
0.3687241210937499,0.0439013671875,1.0176318359375005,1.0832632925705632,0.92041015625,0.01513671875,0.07958984375,29.988823529411768,170.44474741368353
0.3936264648437499,0.0536669921875,1.0205615234375005,1.095156501600074,0.921875,0.28173828125,-0.0546875,29.89470588235294,170.44474741368353
0.3946030273437499,0.0546435546875,1.0273974609375005,1.1019269531137537,0.99169921875,0.8740234375,-0.21044921875,29.94176470588236,170.44474741368353
0.3765366210937499,0.0522021484375,1.0210498046875005,1.0895171384510531,0.86474609375,1.35400390625,-0.25146484375,29.94176470588236,170.44474741368353
0.3511459960937499,0.0385302734375,0.9995654296875,1.060150527411177,0.9365234375,1.50390625,-0.181640625,29.89470588235294,170.71095829310826
0.3213608398437499,0.0365771484375,0.9917529296875,1.0431608460427562,0.98828125,1.7265625,-0.05712890625,29.94176470588236,170.71095829310826
0.3042709960937499,0.0302294921875,0.9775927734375,1.0242959982051183,1.0693359375,1.6015625,0.0087890625,29.89470588235294,170.71095829310826
0.3013413085937499,0.0399951171875,0.9771044921875,1.0232982860910245,1.00146484375,1.43896484375,-0.0234375,29.94176470588236,170.71095829310826
0.2945053710937499,0.0634326171875,0.9751513671875,1.0206259351270544,1.13671875,1.322265625,-0.1943359375,29.89470588235294,170.71095829310826
0.3086655273437499,0.0761279296875,0.9878466796875,1.0377431917476108,1.18017578125,1.3701171875,-0.4482421875,29.94176470588236,170.71095829310826
0.3155014648437499,0.0912646484375,0.9849169921875,1.03823498875382,1.14453125,1.1962890625,-0.787109375,29.988823529411768,170.71095829310826
0.3184311523437499,0.0893115234375,0.9834521484375,1.037570756752536,1.0517578125,1.177734375,-1.033203125,29.94176470588236,170.71095829310826
0.3062241210937499,0.0946826171875,1.0127490234375005,1.062261076577093,0.99560546875,1.07421875,-1.07080078125,29.94176470588236,170.7850671172811
0.3111069335937499,0.0878466796875,1.0249560546875005,1.0747276293567547,0.9794921875,0.96533203125,-1.00830078125,29.988823529411768,170.7850671172811
0.3145249023437499,0.0849169921875,1.0352099609375005,1.085263319651382,0.96875,1.07275390625,-1.0126953125,29.84764705882353,170.7850671172811
0.20856787109375,0.0829638671875,1.0288623046875005,1.0530627721642043,0.96484375,1.431640625,-1.18310546875,29.988823529411768,170.7850671172811
0.3306381835937499,0.0702685546875,1.0234912109375005,1.0778652685258745,0.9501953125,1.84765625,-1.341796875,29.84764705882353,170.7850671172811
0.2998764648437499,0.0512255859375,1.0034716796875005,1.048573014509089,0.9521484375,2.18603515625,-1.3505859375,29.89470588235294,170.7850671172811
0.2818100585937499,0.0307177734375,0.9849169921875,1.0249009572779424,0.95361328125,2.20458984375,-1.474609375,29.94176470588236,170.7850671172811
0.2871811523437499,0.0111865234375,0.9971240234375,1.0377159874861184,1.01025390625,1.7431640625,-1.44384765625,29.988823529411768,170.7850671172811
0.3252670898437499,0.0390185546875,0.9883349609375,1.0412142538193825,1.24951171875,1.12255859375,-0.88671875,30.03588235294118,170.42415255323584
0.3526108398437499,0.0097216796875,0.9971240234375,1.05767917325976,0.89892578125,0.73681640625,-0.7041015625,29.94176470588236,170.42415255323584
0.3687241210937499,0.0219287109375,1.0249560546875005,1.0894830241358997,0.90673828125,0.53759765625,-0.76513671875,29.89470588235294,170.42415255323584
0.3399155273437499,0.0263232421875,1.0103076171875005,1.0662818389880446,0.9150390625,0.98828125,-1.1572265625,29.84764705882353,170.42415255323584
0.2969467773437499,0.1376513671875,1.0215380859375005,1.072690704949138,0.82470703125,0.96875,-1.31103515625,29.94176470588236,170.42415255323584
0.23249365234375,0.0092333984375,1.0225146484375005,1.0486537847622095,0.8349609375,0.8671875,-1.041015625,29.94176470588236,170.42415255323584
0.17585302734375,0.0077685546875,1.0103076171875005,1.0255272395285164,0.9951171875,0.4306640625,-0.4287109375,29.94176470588236,170.42415255323584
0.15143896484375,0.0229052734375,0.9863818359375,0.9982021528185692,0.95263671875,0.25390625,0.0830078125,30.03588235294118,170.42415255323584
0.18513037109375,0.0404833984375,0.9941943359375,1.0120941346834125,1.02685546875,0.015625,0.1982421875,29.94176470588236,170.42415255323584
0.23786474609375,0.0722216796875,0.9883349609375,1.0191180517793108,1.060546875,-0.13037109375,-0.0615234375,29.89470588235294,170.92366191137123
0.2710678710937499,0.0863818359375,0.9893115234375,1.029406092232535,1.01611328125,-0.55615234375,-0.45263671875,29.94176470588236,170.92366191137123
0.2739975585937499,0.0800341796875,0.9951708984375,1.0352995939004743,0.9580078125,-0.83740234375,-0.72412109375,29.84764705882353,170.92366191137123
0.2652084960937499,0.0663623046875,0.9922412109375,1.0292143229505026,0.9140625,-0.88427734375,-0.76416015625,29.89470588235294,170.92366191137123
0.2539780273437499,0.0585498046875,1.0078662109375005,1.041022198203228,0.82421875,-1.10498046875,-0.5908203125,29.84764705882353,170.92366191137123
0.24177099609375,0.0502490234375,1.0078662109375005,1.037676480439882,0.78515625,-1.1259765625,-0.48583984375,29.988823529411768,170.92366191137123
0.2564194335937499,0.0673388671875,1.0024951171875005,1.0369580073192044,0.8701171875,-1.0712890625,-0.3173828125,29.94176470588236,170.92366191137123
0.2808334960937499,0.0609912109375,1.0059130859375005,1.0461589347705087,0.72314453125,-1.12158203125,-0.5224609375,29.94176470588236,170.92366191137123
0.2925522460937499,0.0746630859375,1.0117724609375005,1.0558621623146338,0.67236328125,-0.9306640625,-0.80126953125,29.94176470588236,170.3692918173423
0.2847397460937499,0.0819873046875,1.0151904296875005,1.0575491712750502,0.6708984375,-0.794921875,-0.98388671875,29.94176470588236,170.3692918173423
0.2671616210937499,0.0751513671875,1.0093310546875005,1.0467914012505894,0.6640625,-0.74267578125,-1.0126953125,29.89470588235294,170.3692918173423
0.2632553710937499,0.0629443359375,1.0156787109375005,1.0511273108848345,0.64404296875,-0.458984375,-0.87646484375,30.03588235294118,170.3692918173423
0.2652084960937499,0.0551318359375,1.0171435546875005,1.0525949252093476,0.60302734375,-0.32470703125,-0.64990234375,30.08294117647059,170.3692918173423
0.2739975585937499,0.0443896484375,1.0225146484375005,1.0595193765443862,0.60546875,-0.14013671875,-0.41455078125,29.94176470588236,170.3692918173423
0.2945053710937499,0.0551318359375,1.0283740234375005,1.0711330753076105,0.63134765625,0.0576171875,-0.2861328125,29.89470588235294,170.3692918173423
0.3140366210937499,0.0595263671875,1.0249560546875005,1.073637416365081,0.6396484375,0.13818359375,-0.3095703125,29.84764705882353,170.3692918173423
0.3198959960937499,0.0575732421875,1.0142138671875005,1.0650248330101122,0.5859375,0.43359375,-0.49169921875,29.84764705882353,170.3692918173423
0.3155014648437499,0.0468310546875,1.0073779296875005,1.056666747476786,0.57080078125,0.541015625,-0.65625,29.988823529411768,170.667069884317
0.2891342773437499,0.0463427734375,1.0010302734375005,1.0429802928739011,0.5830078125,0.5830078125,-0.640625,29.988823529411768,170.667069884317
0.2632553710937499,0.0331591796875,0.9907763671875,1.0256903681835547,0.54541015625,0.5908203125,-0.47900390625,29.89470588235294,170.667069884317
0.2671616210937499,0.0336474609375,0.9917529296875,1.0276581907213704,0.54248046875,0.55078125,-0.2958984375,29.80058823529412,170.667069884317
0.2876694335937499,0.0312060546875,0.9976123046875,1.03872894988886,0.55322265625,0.484375,-0.158203125,29.988823529411768,170.667069884317
0.2998764648437499,0.0351123046875,0.9976123046875,1.0422998985760086,0.5751953125,0.3447265625,-0.05908203125,29.94176470588236,170.667069884317
0.3086655273437499,0.0365771484375,1.0088427734375005,1.055640107742824,0.58349609375,0.16943359375,-0.04296875,29.94176470588236,170.667069884317
0.3057358398437499,0.0453662109375,1.0273974609375005,1.0728830502904831,0.65625,0.0009765625,0.02392578125,29.89470588235294,170.667069884317
0.2925522460937499,0.0678271484375,1.0181201171875005,1.061487593795401,0.734375,0.11669921875,0.15087890625,29.94176470588236,170.28286441631667
0.2969467773437499,0.0707568359375,1.0176318359375005,1.0624304550982395,0.87353515625,0.28857421875,0.12890625,29.988823529411768,170.28286441631667
0.3013413085937499,0.0653857421875,1.0327685546875005,1.0778185223393186,0.77490234375,0.4150390625,0.28515625,29.89470588235294,170.28286441631667
0.3003647460937499,0.0619677734375,1.0430224609375005,1.087177464658316,0.89306640625,0.52294921875,0.2509765625,30.03588235294118,170.28286441631667
0.2818100585937499,0.0609912109375,1.0332568359375005,1.0727332035263053,0.962890625,0.689453125,0.24169921875,29.94176470588236,170.28286441631667
0.23688818359375,0.0565966796875,0.9990771484375,1.028335715711558,0.88525390625,1.0791015625,-0.0673828125,29.94176470588236,170.28286441631667
0.20514990234375,0.0702685546875,1.0044482421875005,1.0275896182051858,0.916015625,1.10498046875,0.03857421875,29.89470588235294,170.28286441631667
0.23688818359375,0.0863818359375,0.9785693359375,1.0105324232024615,0.97119140625,0.87744140625,0.38525390625,30.03588235294118,170.28286441631667
0.2769272460937499,0.0829638671875,0.9907763671875,1.032089876253533,0.880859375,0.47216796875,0.41064453125,29.94176470588236,170.47631464444817
0.2910874023437499,0.1068896484375,0.9917529296875,1.039101124188625,0.95703125,0.38818359375,0.25146484375,29.94176470588236,170.47631464444817
0.2720444335937499,0.1147021484375,0.9805224609375,1.0240063735682772,0.90283203125,0.3818359375,-0.11962890625,29.988823529411768,170.47631464444817
0.2686264648437499,0.1078662109375,0.9937060546875,1.035010637722657,0.81201171875,0.04296875,-0.43896484375,29.94176470588236,170.47631464444817
0.24860693359375,0.0976123046875,0.9995654296875,1.034632600338714,0.81640625,-0.3291015625,-0.38232421875,29.988823529411768,170.47631464444817
0.21198583984375,0.0795458984375,0.9907763671875,1.0163185307912814,0.822265625,-0.587890625,-0.01171875,29.94176470588236,170.47631464444817
0.20807958984375,0.0707568359375,1.0020068359375005,1.0258271515254946,0.84619140625,-0.6611328125,0.3984375,29.988823529411768,170.47631464444817
0.22809912109375,0.0751513671875,1.0195849609375005,1.047487675156045,0.8759765625,-0.7177734375,0.6064453125,29.94176470588236,170.47631464444817
0.2578842773437499,0.0775927734375,1.0308154296875005,1.0654132480275704,0.91064453125,-0.73876953125,0.439453125,29.84764705882353,170.47631464444817
0.2715561523437499,0.0829638671875,1.0479052734375005,1.0856938837594,0.92529296875,-0.33251953125,0.09619140625,29.94176470588236,170.52847760785403
0.2578842773437499,0.0819873046875,1.0420458984375005,1.0766085050200218,0.94189453125,-0.07958984375,-0.1376953125,30.03588235294118,170.52847760785403
0.2549545898437499,0.0644091796875,1.0371630859375005,1.0699802110982286,0.8896484375,0.0,-0.177734375,29.988823529411768,170.52847760785403
0.23639990234375,0.0580615234375,1.0273974609375005,1.055841653408711,0.90576171875,0.2978515625,0.0419921875,29.89470588235294,170.52847760785403
0.23493505859375,0.0570849609375,1.0161669921875005,1.0445326852392298,0.91015625,0.40576171875,0.31201171875,29.94176470588236,170.52847760785403
0.24714208984375,0.0458544921875,1.0147021484375005,1.04537184631584,0.9013671875,0.44677734375,0.45263671875,30.03588235294118,170.52847760785403
0.2573959960937499,0.0478076171875,1.0083544921875005,1.0417855100647886,0.90966796875,0.41357421875,0.3759765625,29.94176470588236,170.52847760785403
0.2676499023437499,0.0473193359375,1.0029833984375005,1.03915893265632,0.8818359375,0.31005859375,0.41748046875,29.94176470588236,170.52847760785403
0.2735092773437499,0.0439013671875,1.0034716796875005,1.0410043548270511,0.88720703125,0.138671875,0.3115234375,29.94176470588236,170.52847760785403
0.2691147460937499,0.0478076171875,1.0186083984375005,1.054642775632422,0.9111328125,-0.03515625,0.3115234375,29.988823529411768,170.635501736329
0.2730209960937499,0.0390185546875,1.0093310546875005,1.0463326860394386,0.88623046875,0.052734375,0.22802734375,29.94176470588236,170.635501736329
0.2637436523437499,0.0492724609375,1.0322802734375005,1.0665791355950385,0.890625,0.2373046875,0.173828125,30.03588235294118,170.635501736329
0.24860693359375,0.0546435546875,1.0386279296875005,1.0693639706978704,0.89111328125,0.37744140625,0.19384765625,30.03588235294118,170.635501736329
0.24372412109375,0.0473193359375,1.0181201171875005,1.0479547412834087,0.92333984375,0.7705078125,0.20556640625,29.988823529411768,170.635501736329
0.2578842773437499,0.0541552734375,1.0064013671875005,1.0403272590964192,0.9443359375,0.75341796875,0.212890625,29.94176470588236,170.635501736329
0.2647202148437499,0.0424365234375,1.0078662109375005,1.0429151210994578,0.953125,0.791015625,0.1669921875,29.988823529411768,170.635501736329
0.2627670898437499,0.0580615234375,1.0029833984375005,1.0384572121903115,0.96337890625,0.7421875,0.1552734375,29.84764705882353,170.635501736329
0.2759506835937499,0.0414599609375,0.9917529296875,1.03026287018437,0.95556640625,0.44580078125,0.15625,29.84764705882353,170.667069884317
0.2793686523437499,0.0468310546875,0.9893115234375,1.0290662184727153,0.955078125,0.32177734375,0.1259765625,29.94176470588236,170.667069884317
0.2832749023437499,0.0507373046875,0.9922412109375,1.0331319204571745,0.94140625,0.20654296875,0.03662109375,29.988823529411768,170.667069884317
0.2901108398437499,0.0561083984375,1.0044482421875005,1.04700941877503,0.935546875,0.1201171875,0.02392578125,29.94176470588236,170.667069884317
0.2822983398437499,0.0473193359375,0.9956591796875,1.035986811850464,0.95654296875,0.03857421875,0.03125,29.94176470588236,170.667069884317
0.2886459960937499,0.0536669921875,1.0010302734375005,1.0431961778351009,0.87841796875,-0.068359375,0.12109375,29.84764705882353,170.667069884317
0.3037827148437499,0.0546435546875,0.9976123046875,1.0442701596668509,1.05712890625,-0.22119140625,0.26513671875,29.94176470588236,170.667069884317
0.3081772460937499,0.0575732421875,0.9990771484375,1.0471117618267474,1.11572265625,-0.43994140625,0.345703125,29.84764705882353,170.667069884317
0.3081772460937499,0.0590380859375,1.0054248046875005,1.0532510377312665,1.111328125,-0.6640625,0.283203125,29.94176470588236,170.44474741368353
0.2959702148437499,0.0492724609375,1.0244677734375005,1.067501926131041,1.107421875,-0.89501953125,0.2001953125,29.94176470588236,170.44474741368353
0.2783920898437499,0.0380419921875,1.0322802734375005,1.0698373295905153,1.09619140625,-1.09326171875,0.21435546875,29.89470588235294,170.44474741368353
0.2583725585937499,0.0287646484375,1.0425341796875005,1.074458607788454,1.076171875,-1.13134765625,0.3251953125,29.94176470588236,170.44474741368353
0.24714208984375,0.0199755859375,1.0615771484375005,1.09014874154428,1.04296875,-0.88720703125,0.4453125,29.94176470588236,170.44474741368353
0.23005224609375,0.0180224609375,1.0689013671875005,1.0935259383326628,1.02685546875,-0.53759765625,0.5224609375,29.89470588235294,170.44474741368353
0.21198583984375,0.0292529296875,1.1699755859375005,1.1893849679054125,1.08154296875,-0.22216796875,0.69287109375,29.988823529411768,170.44474741368353
0.21882177734375,0.0424365234375,1.0093310546875005,1.0336503309717078,1.12841796875,0.12548828125,1.05615234375,29.94176470588236,170.44474741368353
0.24909521484375,0.0243701171875,0.9888232421875,1.0200067318209158,1.01416015625,0.525390625,1.232421875,29.89470588235294,170.59854335124376
0.3042709960937499,0.0619677734375,0.9751513671875,1.0233968110837235,1.05419921875,0.60986328125,1.1787109375,29.89470588235294,170.59854335124376
0.3213608398437499,0.0565966796875,0.9526904296875,1.0070228539387194,0.87744140625,0.26611328125,1.00341796875,29.988823529411768,170.59854335124376
0.3111069335937499,0.0478076171875,0.9502490234375,1.0010226265850213,0.8408203125,-0.591796875,1.16748046875,29.94176470588236,170.59854335124376
0.2642319335937499,0.0141162109375,0.9478076171875,0.9840513509673012,0.75244140625,-1.33349609375,1.65478515625,29.988823529411768,170.59854335124376
0.23932958984375,-0.0054150390625,0.9766162109375,1.0055283181933492,0.9931640625,-1.8125,2.4912109375,29.988823529411768,170.59854335124376
0.23884130859375,0.0146044921875,0.9912646484375,1.0197372529846844,1.0068359375,-1.96484375,2.919921875,29.94176470588236,170.59854335124376
0.2764389648437499,0.0341357421875,1.0122607421875005,1.0498835937153053,1.16845703125,-1.9970703125,2.77001953125,29.988823529411768,170.59854335124376
0.3150131835937499,0.0605029296875,1.0405810546875005,1.0888998308904223,1.15087890625,-1.5029296875,2.16845703125,30.03588235294118,170.3240546252107
0.3281967773437499,0.0736865234375,1.0410693359375005,1.0940604145221944,1.064453125,-1.04150390625,1.87158203125,29.89470588235294,170.3240546252107
0.3140366210937499,0.0741748046875,1.0269091796875005,1.0764122650568708,0.96142578125,-0.5439453125,1.6015625,29.89470588235294,170.3240546252107
0.2759506835937499,0.0746630859375,1.0273974609375005,1.0664281030235423,0.90478515625,-0.23583984375,1.74365234375,29.988823529411768,170.3240546252107
0.2569077148437499,0.0561083984375,1.0122607421875005,1.0458592335947738,0.93212890625,0.0078125,1.98388671875,29.94176470588236,170.3240546252107
0.2569077148437499,0.0585498046875,0.9985888671875,1.03276782446298,0.98388671875,0.15185546875,2.17236328125,29.988823529411768,170.3240546252107
0.2744858398437499,0.0565966796875,0.9873583984375,1.0263636136338057,1.03662109375,-0.07421875,2.171875,29.94176470588236,170.3240546252107
0.3008530273437499,0.0658740234375,0.9897998046875,1.0366077292713751,1.10107421875,-0.43896484375,1.9853515625,29.89470588235294,170.3240546252107
0.3286850585937499,0.0702685546875,0.9897998046875,1.0453110498220424,1.1103515625,-0.8046875,1.70556640625,29.94176470588236,170.3240546252107
0.3423569335937499,0.0731982421875,0.9844287109375,1.0448282823302226,1.05810546875,-0.9931640625,1.46240234375,29.94176470588236,170.30615817583413
0.3399155273437499,0.0761279296875,1.0064013671875005,1.0649796896113817,0.96826171875,-0.95556640625,1.27197265625,29.94176470588236,170.30615817583413
0.3140366210937499,0.0829638671875,1.0254443359375005,1.0756570497853792,0.94189453125,-0.79833984375,1.20703125,29.94176470588236,170.30615817583413
0.2964584960937499,0.0868701171875,1.0298388671875005,1.0751754040789678,1.0087890625,-0.46337890625,1.2890625,30.03588235294118,170.30615817583413
0.2871811523437499,0.0829638671875,1.0327685546875005,1.075159013853996,1.0224609375,-0.03076171875,1.34326171875,29.94176470588236,170.30615817583413
0.2954819335937499,0.0736865234375,1.0278857421875005,1.072048681641349,1.03515625,0.3447265625,1.29443359375,29.988823529411768,170.30615817583413
0.3115952148437499,0.0609912109375,1.0142138671875005,1.0627517462326608,1.02392578125,0.548828125,1.146484375,29.988823529411768,170.30615817583413
0.3125717773437499,0.0585498046875,1.0044482421875005,1.0535869526784842,0.99072265625,0.6142578125,1.02392578125,29.84764705882353,170.30615817583413
0.3174545898437499,0.0585498046875,1.0044482421875005,1.0550458603659687,0.984375,0.43994140625,0.8955078125,29.988823529411768,170.30615817583413
0.3208725585937499,0.0600146484375,0.9990771484375,1.051054758523828,0.9736328125,0.20703125,0.84326171875,29.94176470588236,170.52712933547986
0.3242905273437499,0.0570849609375,0.9981005859375,1.051012758504341,0.98583984375,0.0068359375,0.8583984375,30.03588235294118,170.52712933547986
0.3145249023437499,0.0590380859375,1.0073779296875005,1.056987087436258,0.99560546875,-0.001953125,0.8984375,29.988823529411768,170.52712933547986
0.3057358398437499,0.0614794921875,1.0054248046875005,1.052679043966153,0.99609375,-0.0751953125,0.9375,29.84764705882353,170.52712933547986
0.3028061523437499,0.0653857421875,1.0190966796875005,1.0651407905665449,0.9892578125,0.09619140625,0.96826171875,29.94176470588236,170.52712933547986
0.3198959960937499,0.0507373046875,1.0181201171875005,1.06839894020242,0.9248046875,0.30810546875,0.92529296875,29.94176470588236,170.52712933547986
0.4512436523437499,0.0180224609375,1.0210498046875005,1.1164624250422193,0.81640625,0.4677734375,0.841796875,29.94176470588236,170.52712933547986
0.4561264648437499,0.0043505859375,1.0366748046875005,1.1325921287924985,0.95556640625,0.44921875,0.79931640625,29.94176470588236,170.52712933547986
0.3379624023437499,-0.1030712890625,1.0303271484375005,1.0892273907840893,1.060546875,0.388671875,0.7939453125,29.84764705882353,170.3885380583457
0.3301499023437499,0.0356005859375,1.0059130859375005,1.0593051950202952,1.0625,0.43896484375,0.87158203125,29.89470588235294,170.3885380583457
0.3267319335937499,0.0409716796875,0.9985888671875,1.0514809368871794,1.015625,0.60693359375,0.56689453125,29.84764705882353,170.3885380583457
0.3213608398437499,0.0526904296875,1.0088427734375005,1.060100378399518,0.99267578125,0.6044921875,0.3310546875,29.94176470588236,170.3885380583457
0.3140366210937499,0.0609912109375,0.9912646484375,1.0416067062195418,1.1494140625,0.44580078125,0.40625,29.89470588235294,170.3885380583457
0.3062241210937499,0.0263232421875,0.9727099609375,1.0201131278078597,1.03125,0.3330078125,0.30615234375,29.94176470588236,170.3885380583457
0.3120834960937499,0.0360888671875,0.9985888671875,1.0468420322760208,0.9775390625,0.3408203125,0.22412109375,29.988823529411768,170.3885380583457
0.3325913085937499,0.0453662109375,1.0088427734375005,1.063220961589827,0.9697265625,0.4814453125,0.0703125,29.988823529411768,170.3885380583457
0.3189194335937499,0.0507373046875,1.0068896484375005,1.05740751053759,0.82763671875,0.4970703125,-0.0380859375,29.94176470588236,170.62587803756975
0.3257553710937499,0.0570849609375,1.0249560546875005,1.076991257440017,0.8515625,0.16845703125,-0.005859375,29.94176470588236,170.62587803756975
0.3164780273437499,0.0375537109375,1.0034716796875005,1.052864680256405,0.90869140625,0.14208984375,0.06689453125,29.89470588235294,170.62587803756975
0.3037827148437499,0.0253466796875,0.9849169921875,1.0310130326570524,0.93212890625,0.16259765625,0.23779296875,29.988823529411768,170.62587803756975
0.2959702148437499,0.0282763671875,0.9834521484375,1.02741230734419,0.9775390625,0.13232421875,0.4375,29.988823529411768,170.62587803756975
0.3120834960937499,0.0175341796875,1.0073779296875005,1.0547577206225538,1.013671875,0.12109375,0.3955078125,29.94176470588236,170.62587803756975
0.3355209960937499,0.0224169921875,1.0234912109375005,1.0773166290486689,1.0947265625,-0.13671875,0.13623046875,29.89470588235294,170.62587803756975
0.3408920898437499,0.0185107421875,1.0327685546875005,1.0877320221661582,1.13916015625,-0.1708984375,-0.10400390625,29.988823529411768,170.62587803756975
0.3150131835937499,0.0243701171875,1.0327685546875005,1.080017636893449,1.0361328125,0.095703125,-0.10546875,29.94176470588236,170.62587803756975
0.2979233398437499,0.0141162109375,1.0269091796875005,1.0693456163286692,0.95263671875,0.3876953125,0.11865234375,29.988823529411768,170.58468718284635
0.2949936523437499,0.0194873046875,1.0147021484375005,1.056892359708768,0.93359375,0.9775390625,0.4072265625,29.94176470588236,170.58468718284635
0.2930405273437499,0.0268115234375,0.9976123046875,1.0401066863158068,0.94677734375,1.36572265625,0.64599609375,29.94176470588236,170.58468718284635
0.3067124023437499,0.0375537109375,0.9746630859375,1.022472938539628,0.95654296875,1.46630859375,0.72021484375,30.03588235294118,170.58468718284635
0.3169663085937499,0.0414599609375,0.9458544921875,0.9984123845064028,0.9453125,1.35595703125,0.6875,29.84764705882353,170.58468718284635
0.3115952148437499,0.0448779296875,0.9312060546875,0.9829803267478032,0.90234375,0.6484375,0.708984375,29.94176470588236,170.58468718284635
0.3013413085937499,0.0526904296875,0.9375537109375,0.9861996889769964,0.89306640625,-0.24853515625,0.7265625,29.988823529411768,170.58468718284635
0.2998764648437499,0.0585498046875,0.9351123046875,0.9837626726879288,0.87841796875,-1.00927734375,0.697265625,29.94176470588236,170.58468718284635
0.2857163085937499,0.0614794921875,0.9839404296875,1.026426960932776,0.84716796875,-1.77783203125,0.6083984375,29.94176470588236,170.57101750737507
0.2822983398437499,0.0771044921875,1.0366748046875005,1.0771871267648423,0.87353515625,-2.29931640625,0.5458984375,29.94176470588236,170.57101750737507
0.2744858398437499,0.0751513671875,1.0601123046875005,1.097646711294086,0.982421875,-2.2724609375,0.603515625,29.988823529411768,170.57101750737507
0.2539780273437499,0.0907763671875,1.0728076171875005,1.1061922846904622,0.97802734375,-1.74462890625,0.6337890625,29.94176470588236,170.57101750737507
0.2520249023437499,0.0937060546875,1.0786669921875005,1.1116743480540072,0.95458984375,-0.703125,0.60693359375,29.988823529411768,170.57101750737507
0.23200537109375,0.0761279296875,1.0698779296875005,1.0973881438794868,0.912109375,0.43896484375,0.7060546875,29.94176470588236,170.57101750737507
0.23102880859375,0.0692919921875,1.0381396484375005,1.0657906080649693,0.767578125,1.38720703125,0.82177734375,29.94176470588236,170.57101750737507
0.2525131835937499,0.0756396484375,1.0322802734375005,1.0654045368931937,0.8232421875,1.89794921875,0.84326171875,29.988823529411768,170.57101750737507
0.3125717773437499,0.0409716796875,0.9888232421875,1.0378589493849564,0.7958984375,1.99462890625,0.62158203125,29.988823529411768,170.57101750737507
0.3247788085937499,0.0605029296875,0.9731982421875,1.0277434979649285,0.77197265625,1.31640625,0.44140625,29.94176470588236,170.40085893076076
0.3472397460937499,0.0595263671875,0.9507373046875,1.0139133356368508,0.79296875,0.7392578125,0.171875,29.89470588235294,170.40085893076076
0.3609116210937499,0.0619677734375,0.9316943359375,1.001075191383414,0.75048828125,-0.2177734375,-0.06298828125,29.988823529411768,170.40085893076076
0.3389389648437499,0.0487841796875,0.9487841796875,1.0086877305204112,0.69921875,-1.04443359375,-0.0830078125,29.84764705882353,170.40085893076076
0.3062241210937499,0.0424365234375,0.9639208984375,1.0122833443782715,0.77978515625,-1.8203125,-0.02978515625,29.89470588235294,170.40085893076076
0.24274755859375,0.0351123046875,0.9688037109375,0.9993697421224864,0.86279296875,-1.77197265625,0.33935546875,30.08294117647059,170.40085893076076
0.19831396484375,0.0409716796875,0.9868701171875,1.0074322485339315,0.66015625,-1.43310546875,0.58251953125,29.988823529411768,170.40085893076076
0.22370458984375,0.0468310546875,1.0396044921875005,1.064431487403832,0.705078125,-1.23681640625,0.55126953125,29.988823529411768,170.40085893076076
0.24128271484375,0.0356005859375,1.0371630859375005,1.0654539018807252,0.716796875,-1.1455078125,0.3779296875,29.94176470588236,170.5517706219541
0.24958349609375,0.0351123046875,1.0503466796875005,1.0801633871750158,0.65576171875,-0.75439453125,0.021484375,29.89470588235294,170.5517706219541
0.22956396484375,0.0434130859375,1.0469287109375005,1.07268077067255,0.6337890625,-0.130859375,-0.1259765625,29.89470588235294,170.5517706219541
0.2564194335937499,0.0707568359375,1.0356982421875005,1.069312070738334,0.708984375,0.27392578125,0.20654296875,29.94176470588236,170.5517706219541
0.3067124023437499,0.0434130859375,1.0352099609375005,1.0805632128692482,0.71337890625,0.6337890625,0.28125,29.89470588235294,170.5517706219541
0.21491552734375,0.0697802734375,1.0435107421875005,1.067695012405304,0.7646484375,0.62890625,0.3095703125,29.94176470588236,170.5517706219541
0.3706772460937499,0.0800341796875,1.0322802734375005,1.09973162799753,1.0185546875,0.6865234375,-0.0498046875,29.94176470588236,170.5517706219541
0.3775131835937499,0.0937060546875,1.0288623046875005,1.0999339391431924,1.01416015625,0.34521484375,-0.5732421875,29.89470588235294,170.5517706219541
0.3452866210937499,0.1083544921875,1.0093310546875005,1.072246578283247,0.9384765625,-0.06298828125,-0.62548828125,29.89470588235294,170.40220821683252
0.2891342773437499,0.0863818359375,0.9966357421875,1.0413180371628328,0.83251953125,-0.2734375,-0.5673828125,29.94176470588236,170.40220821683252
0.2627670898437499,0.0771044921875,0.9932177734375,1.030278210821034,0.80810546875,-0.35205078125,-0.1513671875,29.84764705882353,170.40220821683252
0.2569077148437499,0.0707568359375,1.0000537109375005,1.0349471138845645,0.8681640625,-0.47265625,0.1484375,29.94176470588236,170.40220821683252
0.2876694335937499,0.0736865234375,1.0151904296875005,1.0577310694545876,0.9365234375,-0.6220703125,0.23974609375,29.94176470588236,170.40220821683252
0.3208725585937499,0.0697802734375,1.0308154296875005,1.0818543966270773,1.021484375,-0.7041015625,-0.28662109375,29.89470588235294,170.40220821683252
0.3394272460937499,0.0717333984375,1.0352099609375005,1.0917949436897028,1.01318359375,-0.6259765625,-0.86865234375,29.988823529411768,170.40220821683252
0.3111069335937499,0.0634326171875,1.0044482421875005,1.0534360409094237,0.8935546875,-0.35791015625,-1.25439453125,29.94176470588236,170.40220821683252
0.2632553710937499,0.0614794921875,0.9937060546875,1.029822723332486,0.8251953125,0.27001953125,-1.61962890625,29.84764705882353,170.40220821683252
0.3286850585937499,0.0561083984375,0.9902880859375,1.0449174672038724,0.84716796875,0.72705078125,-1.49755859375,29.94176470588236,170.37064135684338
0.19050146484375,0.0482958984375,0.9971240234375,1.01630685328285,0.97705078125,0.59716796875,-0.9736328125,29.94176470588236,170.37064135684338
0.21198583984375,0.0575732421875,0.9985888671875,1.0224638869813716,1.0068359375,0.06103515625,-0.48046875,29.89470588235294,170.37064135684338
0.2866928710937499,0.0648974609375,1.0117724609375005,1.0536071352660996,1.20751953125,-0.6455078125,-0.2802734375,30.03588235294118,170.37064135684338
0.3872788085937499,0.0751513671875,1.0332568359375005,1.106007365521369,1.07275390625,-1.6826171875,-0.65625,29.988823529411768,170.37064135684338
0.3360092773437499,0.0756396484375,1.0288623046875005,1.084979830634511,0.86962890625,-2.33203125,-1.365234375,29.94176470588236,170.37064135684338
0.4795639648437499,0.0683154296875,1.0132373046875005,1.1230754337623254,0.27783203125,-2.197265625,-1.8779296875,29.89470588235294,170.37064135684338
0.4219467773437499,0.0526904296875,1.0288623046875005,1.113271308486078,-0.04150390625,-1.38427734375,-2.3154296875,29.988823529411768,170.37064135684338
0.4566147460937499,0.0282763671875,1.0181201171875005,1.1161832969156416,-0.12353515625,-0.13330078125,-1.921875,29.94176470588236,170.37064135684338
0.2803452148437499,-0.0132275390625,0.9985888671875,1.0372791972011457,-0.0068359375,0.48193359375,-1.1669921875,29.988823529411768,170.71095829310826
0.2842514648437499,-0.0376416015625,0.9756396484375,1.016901425427881,-0.08203125,0.3134765625,-0.50927734375,29.94176470588236,170.71095829310826
0.3091538085937499,-0.0268994140625,0.9556201171875,1.0047434817993983,0.06396484375,-0.46435546875,-0.18359375,29.89470588235294,170.71095829310826
0.3408920898437499,-0.0215283203125,1.0469287109375005,1.101240487486168,0.0927734375,-1.27978515625,-0.18212890625,29.988823529411768,170.71095829310826
0.3613999023437499,-0.0239697265625,0.9478076171875,1.0146544812911436,0.0751953125,-2.12158203125,-0.33349609375,29.94176470588236,170.71095829310826
0.3399155273437499,-0.0195751953125,0.9668505859375,1.0250491742002377,0.11474609375,-2.2373046875,-0.45556640625,29.94176470588236,170.71095829310826
0.2998764648437499,-0.0034619140625,0.9868701171875,1.0314312905927523,0.15234375,-1.767578125,-0.359375,29.94176470588236,170.71095829310826
0.2705795898437499,0.0126513671875,1.0020068359375005,1.0379745039244488,0.13330078125,-1.06201171875,0.04736328125,29.988823529411768,170.5517706219541
0.2827866210937499,0.0170458984375,1.0020068359375005,1.0412860005726776,0.1689453125,-0.380859375,0.3359375,29.94176470588236,170.5517706219541
0.3140366210937499,0.0233935546875,0.9844287109375,1.0335696128984078,0.1494140625,0.05810546875,0.51708984375,29.89470588235294,170.5517706219541
0.3584702148437499,0.0341357421875,0.9868701171875,1.0505135753632533,0.0966796875,0.01318359375,0.58837890625,29.94176470588236,170.5517706219541
0.3877670898437499,0.0473193359375,0.9956591796875,1.0695511383825658,0.1162109375,-0.24658203125,0.408203125,29.94176470588236,170.5517706219541
0.4048569335937499,0.0536669921875,1.0059130859375005,1.085656676481885,0.22607421875,-0.4541015625,0.1103515625,29.988823529411768,170.5517706219541
0.4131577148437499,0.0473193359375,1.0151904296875005,1.0970642758824876,0.2587890625,-0.50732421875,-0.45947265625,29.84764705882353,170.5517706219541
0.4033920898437499,0.0356005859375,1.0293505859375005,1.106144298289096,0.30078125,-0.74609375,-0.841796875,29.988823529411768,170.5517706219541
0.3731186523437499,0.0189990234375,1.0288623046875005,1.0945940496938895,0.36572265625,-0.36474609375,-1.076171875,29.94176470588236,170.5517706219541
0.3399155273437499,0.0175341796875,1.0264208984375005,1.0813833149886949,0.4130859375,0.298828125,-1.15283203125,29.988823529411768,170.50923109547134
0.3125717773437499,0.0121630859375,1.0005419921875005,1.0483002121443483,0.4775390625,0.505859375,-0.99560546875,29.94176470588236,170.50923109547134
0.3584702148437499,0.0111865234375,0.9990771484375,1.061499496828307,0.4296875,0.67919921875,-0.54736328125,29.988823529411768,170.50923109547134
0.4185288085937499,0.0194873046875,0.9990771484375,1.0833749430353712,0.4755859375,0.53857421875,-0.52978515625,29.94176470588236,170.50923109547134
0.4683334960937499,0.0458544921875,0.9688037109375,1.0770420271945933,0.56396484375,0.525390625,-0.62841796875,29.94176470588236,170.50923109547134
0.4961655273437499,0.0297412109375,0.9546435546875,1.076294145045264,0.50634765625,0.478515625,-1.2685546875,29.988823529411768,170.50923109547134
0.4810288085937499,0.0385302734375,0.9434130859375,1.0596704900045144,0.48095703125,0.0419921875,-1.9169921875,29.988823529411768,170.50923109547134
0.4234116210937499,0.0194873046875,0.9229052734375,1.0155842159368014,0.45703125,-0.349609375,-1.9873046875,29.94176470588236,170.50923109547134
0.3682358398437499,0.0019091796875,0.8975146484375001,0.970120519766694,0.43408203125,-0.9345703125,-1.1865234375,29.988823529411768,170.50923109547134
0.3667709960937499,0.0048388671875,0.9048388671875,0.9763594388258958,0.47265625,-1.71044921875,-0.3046875,29.89470588235294,170.41048212078223
0.4278061523437499,0.0087451171875,0.9194873046875,1.0141752730861024,0.560546875,-2.33642578125,0.1044921875,29.988823529411768,170.41048212078223
0.4937241210937499,0.0058154296875,0.9492724609375,1.0700072579504234,0.59228515625,-2.7236328125,0.087890625,29.94176470588236,170.41048212078223
0.57038427734375,0.0214404296875,1.0093310546875005,1.1595460723156792,0.6982421875,-2.84375,-0.48779296875,29.94176470588236,170.41048212078223
0.58210302734375,0.0233935546875,1.0356982421875005,1.1883021676804069,0.73486328125,-2.63427734375,-0.97412109375,29.94176470588236,170.41048212078223
0.55866552734375,0.0038623046875,1.0640185546875005,1.2017726796524568,0.6767578125,-2.08154296875,-1.21044921875,29.84764705882353,170.41048212078223
0.50641943359375,-0.0161572265625,1.0547412109375005,1.1701285060802131,0.5869140625,-1.259765625,-1.12060546875,30.03588235294118,170.41048212078223
0.4610092773437499,-0.0283642578125,1.0313037109375005,1.1300094818680593,0.50390625,-0.39794921875,-0.4560546875,29.89470588235294,170.41048212078223
0.4448959960937499,-0.0527783203125,1.0093310546875005,1.1042948774633703,0.36181640625,0.18994140625,0.14306640625,30.03588235294118,170.4530216960875
0.4351303710937499,-0.0327587890625,0.9805224609375,1.0732361690289594,0.32470703125,0.369140625,0.80859375,29.84764705882353,170.4530216960875
0.3345444335937499,-0.0151806640625,0.9439013671875,1.0015489112311855,0.3662109375,0.27099609375,0.966796875,29.94176470588236,170.4530216960875
0.50202490234375,0.0053271484375,0.9092333984375,1.038635043659674,0.39453125,-0.06494140625,0.779296875,29.94176470588236,170.4530216960875
0.4995834960937499,-0.1040478515625,0.8931201171875001,1.0286268364713411,0.43896484375,-0.515625,0.64892578125,29.89470588235294,170.4530216960875
0.4780991210937499,0.0155810546875,0.8887255859375001,1.0092842542890204,0.5283203125,-1.34033203125,0.77490234375,29.94176470588236,170.4530216960875
0.4556381835937499,0.0082568359375,0.8916552734375001,1.001360802277188,0.57958984375,-1.9775390625,0.97314453125,29.94176470588236,170.4530216960875
0.4361069335937499,0.0067919921875,0.8901904296875001,0.9912993441910644,0.544921875,-2.35205078125,1.08837890625,30.03588235294118,170.4530216960875
0.4282944335937499,0.0170458984375,0.8955615234375001,0.9928530237465304,0.54638671875,-2.38037109375,1.07568359375,29.94176470588236,170.26092032133505
0.4302475585937499,0.0214404296875,0.9038623046875,1.0012690545183478,0.5732421875,-2.15771484375,1.021484375,29.94176470588236,170.26092032133505
0.4405014648437499,0.0106982421875,0.9014208984375,1.0033521959188916,0.62451171875,-1.6787109375,0.9638671875,29.988823529411768,170.26092032133505
0.4751694335937499,0.0063037109375,0.9023974609375,1.0198759262282031,0.48046875,-1.3525390625,1.0185546875,30.03588235294118,170.26092032133505
0.52253271484375,0.0092333984375,0.9131396484375,1.0521167764451087,0.51953125,-1.39453125,1.05322265625,29.89470588235294,170.26092032133505
0.57722021484375,0.0087451171875,0.9204638671875,1.0865143276996654,0.50439453125,-2.1181640625,0.9072265625,30.08294117647059,170.26092032133505
0.60456396484375,0.0077685546875,0.8032763671875001,1.005390899158867,0.7705078125,-2.87646484375,0.736328125,29.94176470588236,170.26092032133505
0.62018896484375,-4.394531249999993e-05,0.9209521484375,1.1103095125940332,0.7607421875,-3.85791015625,0.3720703125,29.89470588235294,170.26092032133505
0.62214208984375,-4.394531249999993e-05,0.9302294921875,1.1191012867572592,0.66650390625,-4.5478515625,0.03173828125,29.89470588235294,170.26092032133505
0.62751318359375,-0.0317822265625,0.9321826171875,1.1241651734935445,0.5517578125,-4.85302734375,-0.09619140625,29.84764705882353,170.74117880794998
0.63239599609375,-0.0684033203125,0.9336474609375,1.1297350536387818,0.34521484375,-4.7099609375,-0.0546875,29.94176470588236,170.74117880794998
0.63532568359375,-0.1221142578125,0.9028857421875,1.1107444709024827,-0.08740234375,-4.06103515625,-0.107421875,29.94176470588236,170.74117880794998
0.64118505859375,-0.1504345703125,0.9033740234375,1.1179595097903297,-0.38671875,-3.32373046875,0.27734375,29.89470588235294,170.74117880794998
0.65583349609375,-0.1299267578125,0.9082568359375,1.1277983051155105,-0.69873046875,-3.29541015625,0.7109375,29.988823529411768,170.74117880794998
0.68464208984375,-0.0610791015625,0.9497607421875,1.172395374962666,-0.4912109375,-4.3544921875,1.07373046875,29.988823529411768,170.74117880794998
0.69977880859375,0.0336474609375,0.9771044921875,1.2023126553594206,0.16162109375,-5.90673828125,1.16064453125,29.94176470588236,170.74117880794998
0.65973974609375,0.1537646484375,0.9644091796875,1.1785521479979026,0.890625,-7.8203125,1.12255859375,29.84764705882353,170.74117880794998
0.61432958984375,0.2689990234375,0.9014208984375,1.123530576222912,1.21337890625,-9.00390625,0.9560546875,29.94176470588236,170.74117880794998
0.64948583984375,0.3163623046875,0.8945849609375001,1.1498692170504767,0.99609375,-9.77294921875,0.2373046875,29.988823529411768,170.61625466774373
0.58405615234375,0.3202685546875,0.9194873046875,1.1354076094925951,0.41552734375,-10.11328125,-1.05908203125,29.89470588235294,170.61625466774373
0.75251318359375,0.2743701171875,0.9785693359375,1.2645762127784324,0.07861328125,-9.54052734375,-2.77490234375,29.89470588235294,170.61625466774373
0.74274755859375,0.2089404296875,0.9990771484375,1.2623332315537683,-0.0078125,-8.60107421875,-3.88525390625,29.94176470588236,170.61625466774373
0.68708349609375,0.2626513671875,1.0161669921875005,1.254457981480952,-0.099609375,-6.94482421875,-4.078125,29.94176470588236,170.61625466774373
0.64704443359375,0.0180224609375,0.9790576171875,1.173688683559557,0.06494140625,-4.5087890625,-3.40673828125,29.89470588235294,170.61625466774373
0.64899755859375,-0.0840283203125,0.9585498046875,1.1606361694095322,0.271484375,-2.60546875,-2.58056640625,30.03588235294118,170.61625466774373
0.66559912109375,-0.2427197265625,0.9082568359375,1.1518964952158446,0.37548828125,-1.22119140625,-0.9140625,29.94176470588236,170.61625466774373
0.73005224609375,-0.1811962890625,0.7935107421875001,1.093374444169749,0.6630859375,-0.91845703125,0.76904296875,29.988823529411768,170.61625466774373
0.89167333984375,-0.1352978515625,0.7334521484375001,1.1624710351974883,0.56005859375,-1.36669921875,1.29248046875,29.988823529411768,170.7329025815942
1.02595068359375,-0.1255322265625,0.8003466796875001,1.3072444120205784,0.42236328125,-2.52294921875,0.89990234375,29.988823529411768,170.7329025815942
1.11286474609375,-0.0957470703125,0.6489794921875001,1.291824224053597,0.3876953125,-4.53076171875,0.6162109375,29.84764705882353,170.7329025815942
1.10212255859375,-0.0654736328125,0.6401904296875001,1.2762463386895049,0.5517578125,-6.94482421875,0.48974609375,29.94176470588236,170.7329025815942
1.04011083984375,-0.0791455078125,0.6343310546875001,1.2208482532683271,0.701171875,-9.2880859375,0.7431640625,29.94176470588236,170.7329025815942
0.97028662109375,-0.0967236328125,0.6133349609375001,1.1519511111701652,0.5810546875,-11.16650390625,0.94189453125,29.84764705882353,170.7329025815942
0.92389990234375,-0.1123486328125,0.6372607421875001,1.1279691921231678,0.390625,-12.3251953125,0.77685546875,29.94176470588236,170.26226968386507
0.87214208984375,-0.1006298828125,0.6724169921875001,1.1058493611583655,0.369140625,-12.6103515625,0.47900390625,29.988823529411768,170.26226968386507
0.83405615234375,-0.1206494140625,0.6909716796875001,1.089792552968798,0.259765625,-11.89453125,-0.19873046875,29.89470588235294,170.26226968386507
0.80768896484375,-0.1362744140625,0.6548388671875001,1.048687809520953,-0.0576171875,-10.58251953125,-0.2958984375,29.94176470588236,170.26226968386507
0.95075537109375,0.0727099609375,0.5645068359375001,1.1081021983117416,-1.0546875,-8.1298828125,-1.74951171875,29.94176470588236,170.26226968386507
0.98005224609375,-0.0640087890625,0.6577685546875001,1.1820571059328455,-1.86083984375,-5.8173828125,-4.05322265625,29.988823529411768,170.26226968386507
0.98444677734375,-0.1304150390625,0.7124560546875001,1.222185407250899,-1.56005859375,-4.25341796875,-5.16943359375,30.03588235294118,170.26226968386507
0.80134130859375,-0.2031689453125,0.7964404296875001,1.1479298198230357,-1.08251953125,-3.56005859375,-4.3740234375,29.988823529411768,170.49017171724472
0.70319677734375,-0.1973095703125,0.5742724609375001,0.9290886037374214,-0.94140625,-3.13037109375,-2.5341796875,29.84764705882353,170.49017171724472
0.64850927734375,-0.2305126953125,0.5322802734375001,0.8700705000124105,-1.04248046875,-3.01806640625,-0.0654296875,29.94176470588236,170.49017171724472
0.73395849609375,-0.1782666015625,0.5122607421875001,0.9126254013599068,-1.0263671875,-3.52099609375,1.59716796875,29.84764705882353,170.49017171724472
0.84870458984375,-0.1357861328125,0.5044482421875001,0.9965969013257469,-0.810546875,-4.13427734375,2.208984375,29.94176470588236,170.49017171724472
0.93366552734375,-0.1040478515625,0.4688037109375,1.0499210407233612,-0.564453125,-4.716796875,2.046875,30.03588235294118,170.49017171724472
0.99372412109375,-0.0596142578125,0.4507373046875,1.0927971478801697,-0.34716796875,-4.966796875,1.53466796875,29.94176470588236,170.49017171724472
1.01227880859375,-0.0225048828125,0.4375537109375,1.1030267929808248,0.13330078125,-4.966796875,1.21826171875,29.94176470588236,170.54233798494218
1.00007177734375,-0.0049267578125,0.4092333984375,1.0805738323588705,0.61865234375,-4.86181640625,1.09765625,29.988823529411768,170.54233798494218
1.00446630859375,-0.0015087890625,0.3848193359375,1.0756582927936589,0.82275390625,-4.6650390625,1.04736328125,29.89470588235294,170.54233798494218
1.03815771484375,0.0048388671875,0.3682177734375,1.1015349219160169,0.9619140625,-4.5478515625,0.8408203125,29.988823529411768,170.54233798494218
1.02741552734375,0.0072802734375,0.3350146484375,1.0806805646795274,0.970703125,-4.31201171875,0.638671875,29.988823529411768,170.54233798494218
1.03473974609375,0.0019091796875,0.3159716796875,1.0819094645476477,0.79736328125,-4.1484375,0.3017578125,29.988823529411768,170.54233798494218
1.04499365234375,-0.0063916015625,0.3062060546875,1.0889512082442208,0.60302734375,-4.455078125,-0.01416015625,29.988823529411768,170.54233798494218
1.04889990234375,-0.0073681640625,0.3037646484375,1.09202484249157,0.4306640625,-4.958984375,-0.56494140625,29.988823529411768,170.84841201386402
1.04255224609375,-0.0190869140625,0.3115771484375,1.0882829666736478,0.3232421875,-5.578125,-1.1064453125,29.94176470588236,170.84841201386402
1.01081396484375,-0.0249462890625,0.3398974609375,1.0667227722388282,0.32861328125,-6.41455078125,-1.705078125,29.94176470588236,170.84841201386402
0.98005224609375,-0.0068798828125,0.3740771484375,1.0490392989988742,0.4609375,-7.41796875,-1.94580078125,29.94176470588236,170.84841201386402
0.95759130859375,-0.0034619140625,0.4038623046875,1.0392775665291567,0.662109375,-8.359375,-2.05517578125,29.94176470588236,170.84841201386402
0.92731787109375,-0.0171337890625,0.4316943359375,1.0230210166257594,0.76904296875,-8.76904296875,-2.24951171875,30.03588235294118,170.84841201386402
0.86139990234375,-0.0376416015625,0.4624560546875,0.9784131460907196,0.78173828125,-8.5751953125,-1.88525390625,29.89470588235294,170.84841201386402
0.81110693359375,-0.0298291015625,0.4902880859375,0.9482439771683968,0.90771484375,-7.6884765625,-1.4345703125,29.94176470588236,170.39142618878907
0.79401708984375,-0.0264111328125,0.5122607421875001,0.9452892440342616,1.01611328125,-6.142578125,-0.771484375,29.988823529411768,170.39142618878907
0.78522802734375,-0.0273876953125,0.5020068359375001,0.9323861882871642,1.2734375,-4.0498046875,-0.22900390625,29.988823529411768,170.39142618878907
0.84577490234375,-0.0493603515625,0.4956591796875,0.9815547117453204,1.41845703125,-1.96240234375,0.0146484375,30.08294117647059,170.39142618878907
0.89167333984375,-0.0518017578125,0.4639208984375,1.0064727354020226,1.41064453125,-0.20068359375,0.0009765625,29.89470588235294,170.39142618878907
0.92927099609375,-0.0410595703125,0.4302294921875,1.0248550572852884,1.408203125,1.193359375,0.322265625,29.988823529411768,170.39142618878907
0.97516943359375,-0.0415478515625,0.4082568359375,1.0579958848099142,1.51025390625,1.9609375,0.29248046875,29.94176470588236,170.39142618878907
1.00886083984375,-0.0542431640625,0.3608935546875,1.0728404694234497,1.68505859375,2.4462890625,0.01806640625,29.988823529411768,170.41067816730856
1.01130224609375,-0.0576611328125,0.2939990234375,1.0547475835353632,1.5654296875,2.44287109375,-0.0791015625,29.94176470588236,170.41067816730856
1.02790380859375,-0.0430126953125,0.2671435546875,1.062921450762311,1.2802734375,1.72412109375,-0.03759765625,29.94176470588236,170.41067816730856
1.04450537109375,-0.0425244140625,0.2329638671875,1.07101445342722,0.923828125,0.51318359375,0.00927734375,29.94176470588236,170.41067816730856
1.05915380859375,-0.0303173828125,0.2192919921875,1.0820420101811243,0.73828125,-0.53759765625,-0.03857421875,29.94176470588236,170.41067816730856
1.07087255859375,-0.0366650390625,0.1963427734375,1.0893405558041565,0.35791015625,-1.65966796875,-0.22314453125,29.94176470588236,170.41067816730856
1.08210302734375,-0.0337353515625,0.2256396484375,1.1058925294433235,-0.08642578125,-2.9560546875,-0.39404296875,29.94176470588236,170.41067816730856
1.07624365234375,-0.0264111328125,0.2744677734375,1.1110042780306442,-0.17578125,-4.1650390625,-0.36572265625,30.03588235294118,170.4957605484973
1.05573583984375,-0.0127392578125,0.3154833984375,1.1019393027339917,-0.2001953125,-5.2177734375,-0.16015625,29.89470588235294,170.4957605484973
1.04938818359375,-0.0151806640625,0.3462451171875,1.105138766673106,-0.31591796875,-6.080078125,0.15771484375,29.89470588235294,170.4957605484973
1.06354833984375,-0.0063916015625,0.3848193359375,1.1310445813787842,-0.49951171875,-6.58349609375,0.3916015625,29.988823529411768,170.4957605484973
1.07966162109375,0.0023974609375,0.4473193359375,1.168661436082023,-0.716796875,-6.94921875,0.505859375,29.988823529411768,170.4957605484973
1.10554052734375,-4.394531249999993e-05,0.4800341796875,1.205260417170886,-0.8505859375,-6.822265625,0.3466796875,29.94176470588236,170.4957605484973
1.07331396484375,-0.0127392578125,0.5151904296875001,1.1906243465761208,-0.83056640625,-6.10400390625,0.212890625,29.94176470588236,170.4957605484973
1.06989599609375,-0.0176220703125,0.5640185546875001,1.2095887358318582,-0.5966796875,-5.17236328125,0.203125,29.89470588235294,170.64532850576686
1.02302099609375,-0.0161572265625,0.5845263671875001,1.178348033628544,-0.2294921875,-3.474609375,0.26318359375,30.03588235294118,170.64532850576686
0.97126318359375,0.0087451171875,0.5825732421875001,1.1326165420795091,0.84521484375,-1.27783203125,0.80126953125,30.03588235294118,170.64532850576686
0.97663427734375,0.0204638671875,0.6768115234375001,1.188405284320465,1.5244140625,0.6640625,1.048828125,30.03588235294118,170.64532850576686
1.02302099609375,0.0507373046875,0.4526904296875,1.1198548377652586,2.064453125,2.5205078125,1.16943359375,29.94176470588236,170.64532850576686
1.04450537109375,0.0575732421875,0.3604052734375,1.106434864590425,1.96728515625,4.48876953125,1.12890625,30.03588235294118,170.64532850576686
1.06891943359375,0.0590380859375,0.3149951171875,1.115928391500778,1.65478515625,5.7314453125,0.83251953125,29.988823529411768,170.64532850576686
1.15388037109375,0.0844287109375,0.2964404296875,1.194338748588242,1.54638671875,5.84033203125,0.4873046875,29.94176470588236,170.42164974169833
1.22907568359375,0.0590380859375,0.2603076171875,1.2577251636023037,1.53857421875,5.6337890625,-0.4326171875,29.89470588235294,170.42164974169833
1.25446630859375,0.0614794921875,0.2397998046875,1.278659217182055,1.64306640625,5.04638671875,-1.22607421875,29.94176470588236,170.42164974169833
1.25739599609375,0.1308154296875,0.1797412109375,1.2768963429136282,1.54443359375,4.1015625,-1.81884765625,29.94176470588236,170.42164974169833
1.25983740234375,-0.0127392578125,0.1841357421875,1.273286511585198,1.39013671875,2.4150390625,-2.06005859375,29.988823529411768,170.42164974169833
1.21491552734375,-0.0239697265625,0.1875537109375,1.229540841476545,1.36572265625,0.56298828125,-1.82763671875,29.988823529411768,170.42164974169833
1.17145849609375,-0.0327587890625,0.1885302734375,1.186984334493716,1.31982421875,-1.443359375,-1.2412109375,29.94176470588236,170.42164974169833
1.14411474609375,-0.0425244140625,0.2080615234375,1.1636565109840868,1.26513671875,-3.23193359375,-0.5927734375,29.94176470588236,170.39836163816213
1.10016943359375,-0.0527783203125,0.2178271484375,1.1227675629022305,1.22119140625,-4.34912109375,-0.3583984375,29.94176470588236,170.39836163816213
1.07380224609375,-0.0518017578125,0.2510302734375,1.1039705086688474,1.11083984375,-4.890625,-0.00390625,29.94176470588236,170.39836163816213
1.03913427734375,-0.0522900390625,0.2539599609375,1.070994844196391,1.0146484375,-4.6826171875,0.1083984375,29.94176470588236,170.39836163816213
1.02106787109375,-0.0518017578125,0.2715380859375,1.057826049786537,0.81201171875,-3.93310546875,0.17236328125,29.94176470588236,170.39836163816213
0.99763037109375,-0.0283642578125,0.3213427734375,1.048490375010859,0.677734375,-3.02880859375,0.1845703125,29.84764705882353,170.39836163816213
0.97956396484375,-0.0073681640625,0.3228076171875,1.0314090404763432,0.76025390625,-1.9326171875,0.0986328125,29.94176470588236,170.39836163816213
0.98200537109375,0.0111865234375,0.3276904296875,1.0352973992396437,0.79296875,-0.9912109375,0.087890625,29.988823529411768,170.68787045168085
1.00788427734375,0.0053271484375,0.4238818359375,1.0934051883290814,0.5419921875,-0.08203125,0.02978515625,29.988823529411768,170.68787045168085
1.03718115234375,0.0092333984375,0.2964404296875,1.078752486336474,0.27294921875,0.67724609375,-0.10986328125,30.03588235294118,170.68787045168085
1.06598974609375,0.0097216796875,0.2900927734375,1.1047997406922327,0.24267578125,1.36474609375,-0.35107421875,29.988823529411768,170.68787045168085
1.05329443359375,-0.0176220703125,0.2754443359375,1.0888568700254997,0.24658203125,1.81298828125,-0.64794921875,29.89470588235294,170.68787045168085
1.03473974609375,-0.0298291015625,0.2476123046875,1.0643721017007348,0.2841796875,2.056640625,-0.70458984375,29.94176470588236,170.68787045168085
1.01227880859375,-0.0317822265625,0.2422412109375,1.041344947906177,0.3740234375,2.08837890625,-0.26806640625,29.988823529411768,170.68787045168085
1.01374365234375,-0.0220166015625,0.2427294921875,1.042630581648749,0.5283203125,1.68896484375,0.369140625,30.03588235294118,170.52598605746925
1.03913427734375,-0.0078564453125,0.2578662109375,1.0706805092215554,0.81005859375,1.07861328125,0.74365234375,29.988823529411768,170.52598605746925
1.08600927734375,-0.0102978515625,0.2476123046875,1.1139273089641677,0.90966796875,0.09423828125,0.7080078125,29.94176470588236,170.52598605746925
1.14020849609375,-0.0156689453125,0.2383349609375,1.1649568592942217,0.83251953125,-0.6484375,0.4541015625,29.94176470588236,170.52598605746925
1.15632177734375,0.0043505859375,0.2666552734375,1.1866777217127809,0.8154296875,-1.228515625,0.25732421875,29.988823529411768,170.52598605746925
1.16511083984375,-0.0059033203125,0.2959521484375,1.2021255310810484,0.7822265625,-1.52587890625,0.1396484375,29.94176470588236,170.52598605746925
1.18464208984375,-0.0273876953125,0.3267138671875,1.2291740795739672,0.87109375,-1.61474609375,-0.04736328125,29.94176470588236,170.52598605746925
1.19880224609375,-0.0395947265625,0.3462451171875,1.2484311149547518,0.68310546875,-1.3486328125,-0.12646484375,29.84764705882353,170.52598605746925
1.17145849609375,-0.0708447265625,0.3472216796875,1.2238859743444055,0.52734375,-0.64111328125,-0.275390625,29.94176470588236,170.64801820629037
1.12946630859375,-0.0806103515625,0.3701708984375,1.191309642820643,0.35595703125,0.16162109375,-0.07373046875,29.84764705882353,170.64801820629037
1.08796240234375,-0.0615673828125,0.3486865234375,1.1441306844792227,0.2646484375,1.498046875,0.21923828125,29.94176470588236,170.64801820629037
1.06354833984375,-0.0420361328125,0.3154833984375,1.1101494864818435,0.28271484375,2.54541015625,0.26611328125,29.94176470588236,170.64801820629037
1.04841162109375,-0.0078564453125,0.4233935546875,1.1307036539820192,0.38525390625,3.3447265625,0.0283203125,29.988823529411768,170.64801820629037
1.00739599609375,0.0165576171875,0.2466357421875,1.0372801149916189,0.4228515625,3.630859375,-0.1982421875,29.89470588235294,170.64801820629037
1.00153662109375,0.0614794921875,0.2031787109375,1.0237855829858822,0.42041015625,3.685546875,-0.4013671875,29.94176470588236,170.64801820629037
1.02595068359375,0.0712451171875,0.1870654296875,1.045296200544952,0.38037109375,3.236328125,-0.6884765625,29.84764705882353,170.64801820629037
1.04255224609375,0.0663623046875,0.1582568359375,1.056581453291467,0.697265625,2.1328125,-0.8984375,30.03588235294118,170.64801820629037
1.04645849609375,0.0443896484375,0.1650927734375,1.0603308204407167,0.99462890625,1.32421875,-0.884765625,29.89470588235294,170.53271240083288
1.03571630859375,0.0341357421875,0.1533740234375,1.0475672350007716,1.23876953125,0.3095703125,-0.5146484375,29.84764705882353,170.53271240083288
1.03669287109375,0.0297412109375,0.1504443359375,1.0479743063741145,1.44140625,-0.404296875,0.13330078125,29.89470588235294,170.53271240083288
1.03913427734375,0.0434130859375,0.2900927734375,1.0797400425945105,1.67041015625,-1.02294921875,0.8916015625,29.89470588235294,170.53271240083288
1.06403662109375,0.0605029296875,0.1851123046875,1.0817121155261658,1.84228515625,-1.39453125,1.35205078125,29.89470588235294,170.53271240083288
0.96003271484375,0.0653857421875,0.2051318359375,0.9838786403651422,1.94482421875,-1.81591796875,1.47216796875,29.988823529411768,170.53271240083288
1.11091162109375,0.0541552734375,0.2070849609375,1.1313450422257216,1.8984375,-1.9501953125,1.2978515625,29.89470588235294,170.53271240083288
1.14850927734375,0.0429248046875,0.2061083984375,1.167645824258621,1.66162109375,-1.98388671875,0.95068359375,29.89470588235294,170.53271240083288
1.18464208984375,-0.0078564453125,0.2153857421875,1.2040887104777522,1.29296875,-1.36181640625,0.3134765625,29.988823529411768,170.53271240083288
1.17975927734375,-0.0439892578125,0.2427294921875,1.2052736675374367,1.11328125,-0.74853515625,-0.03857421875,29.988823529411768,170.5011435127008
1.12214208984375,-0.0591259765625,0.2607958984375,1.1535654517820784,0.89013671875,-0.119140625,-0.15185546875,29.94176470588236,170.5011435127008
1.10749365234375,-0.0576611328125,0.2632373046875,1.1398073849550456,0.85400390625,0.54345703125,-0.06884765625,29.94176470588236,170.5011435127008
1.13141943359375,-0.0664501953125,0.2520068359375,1.1610482369522386,0.68603515625,0.8798828125,-0.09375,29.94176470588236,170.5011435127008
1.14509130859375,-0.0713330078125,0.2427294921875,1.1727063184779585,0.46630859375,0.76708984375,-0.3486328125,29.94176470588236,170.5011435127008
1.10358740234375,-0.0732861328125,0.2349169921875,1.1306909414569744,0.44970703125,0.75390625,-0.6875,29.94176470588236,170.5011435127008
1.04206396484375,-0.0288525390625,0.2178271484375,1.0649781417628448,0.60546875,0.92529296875,-0.54052734375,29.89470588235294,170.5011435127008
1.01960302734375,-0.0229931640625,0.1826708984375,1.036092503639568,0.60595703125,1.33251953125,-0.18603515625,29.89470588235294,170.5011435127008
1.02350927734375,-0.0229931640625,0.1621630859375,1.0365311345266497,0.43603515625,1.45703125,0.0126953125,29.89470588235294,170.39951008255665
1.01813818359375,0.0033740234375,0.1665576171875,1.0316773646682935,0.3603515625,1.33984375,0.53515625,30.03588235294118,170.39951008255665
1.02643896484375,0.0473193359375,0.1636279296875,1.040475933156021,0.37109375,1.05615234375,0.900390625,29.89470588235294,170.39951008255665
1.05524755859375,0.0663623046875,0.1733935546875,1.0714554074755858,0.580078125,0.55078125,0.974609375,29.988823529411768,170.39951008255665
1.08063818359375,0.0780810546875,0.1914599609375,1.1002419968280164,0.8486328125,-0.01611328125,0.84326171875,29.94176470588236,170.39951008255665
1.09821630859375,0.1000537109375,0.1943896484375,1.1197665564542023,1.03466796875,-0.86181640625,0.70849609375,29.89470588235294,170.39951008255665
1.09528662109375,0.0961474609375,0.1992724609375,1.117410681119426,1.07275390625,-1.37744140625,0.55517578125,29.94176470588236,170.39951008255665
1.09479833984375,0.0814990234375,0.2056201171875,1.1169176909415028,1.02587890625,-1.97998046875,0.49462890625,30.03588235294118,170.39951008255665
0.95759130859375,0.0741748046875,0.2432177734375,0.9907764133550084,1.03271484375,-2.216796875,0.0712890625,29.94176470588236,170.29248737572382
1.07184912109375,0.0443896484375,0.2510302734375,1.1017473292275115,1.0771484375,-1.9580078125,-0.203125,29.94176470588236,170.29248737572382
1.06257177734375,0.0302294921875,0.2612841796875,1.094642419587483,1.1025390625,-1.25537109375,-0.4130859375,29.94176470588236,170.29248737572382
1.03473974609375,0.0087451171875,0.2642138671875,1.0679755553545949,1.12255859375,-0.2294921875,-0.5048828125,29.94176470588236,170.29248737572382
1.02302099609375,-0.0210400390625,0.2710498046875,1.0585285250353589,1.12939453125,0.91748046875,-0.42724609375,29.89470588235294,170.29248737572382
1.03376318359375,-0.0327587890625,0.2598193359375,1.0664171535293916,1.10791015625,1.8798828125,-0.32080078125,29.94176470588236,170.29248737572382
1.05524755859375,-0.0469189453125,0.2505419921875,1.0855966503248748,1.12939453125,2.60986328125,-0.26171875,29.89470588235294,170.29248737572382
1.04889990234375,-0.0566845703125,0.2119677734375,1.0716036966268323,1.11962890625,3.1943359375,-0.2216796875,29.988823529411768,170.29248737572382
1.05475927734375,-0.0552197265625,0.2065966796875,1.0762195591059691,1.17724609375,3.546875,-0.16943359375,29.94176470588236,170.29248737572382
1.06257177734375,-0.0552197265625,0.1924365234375,1.0812676892249231,1.2626953125,3.5068359375,-0.126953125,29.988823529411768,170.32540348090174
1.20563818359375,-0.0610791015625,0.1772998046875,1.2201349544739486,1.322265625,3.23095703125,-0.02685546875,29.89470588235294,170.32540348090174
1.09968115234375,-0.0664501953125,0.1738818359375,1.115324687320308,1.373046875,2.3115234375,0.21142578125,29.988823529411768,170.32540348090174
1.06306005859375,-0.0576611328125,0.1484912109375,1.0749284321015298,1.40576171875,1.51318359375,0.53564453125,29.988823529411768,170.32540348090174
1.06940771484375,-0.0347119140625,0.1509326171875,1.0805639418730768,1.4560546875,0.84765625,0.763671875,29.988823529411768,170.32540348090174
1.09138037109375,-0.0220166015625,0.1553271484375,1.1025980084304607,1.4921875,-0.0234375,0.8134765625,29.89470588235294,170.32540348090174
1.12067724609375,0.0155810546875,0.1885302734375,1.1365315319778264,1.55419921875,-0.88720703125,0.671875,29.94176470588236,170.32540348090174
1.13190771484375,0.0380419921875,0.2129443359375,1.1523921026717672,1.64990234375,-1.74462890625,0.53125,29.94176470588236,170.32540348090174
1.16315771484375,0.0512255859375,0.2368701171875,1.1881360960225031,1.7802734375,-2.14453125,0.3447265625,29.89470588235294,170.67534676439243
1.17536474609375,0.0517138671875,0.2627490234375,1.205484823519928,1.7939453125,-2.47509765625,0.04833984375,29.94176470588236,170.67534676439243
1.16511083984375,0.0414599609375,0.2710498046875,1.1969420178536134,1.7060546875,-2.34521484375,-0.27685546875,29.89470588235294,170.67534676439243
1.11432958984375,0.0297412109375,0.2754443359375,1.1482528278342794,1.587890625,-1.89404296875,-0.45556640625,29.94176470588236,170.67534676439243
1.07917333984375,0.0146044921875,0.2900927734375,1.117578724664276,1.453125,-1.185546875,-0.58154296875,30.03588235294118,170.67534676439243
1.05866552734375,0.0165576171875,0.1792529296875,1.0738614744344357,1.3359375,-0.564453125,-0.5634765625,29.94176470588236,170.67534676439243
1.02741552734375,-0.0083447265625,0.3027880859375,1.0711362776389068,1.19384765625,-0.05859375,-0.29443359375,30.03588235294118,170.67534676439243
1.02057958984375,-0.0229931640625,0.3120654296875,1.0674718812246466,1.0703125,0.14697265625,-0.193359375,29.94176470588236,170.76042850129147
1.03571630859375,-0.0317822265625,0.3291552734375,1.087226552216257,1.140625,0.2705078125,-0.19384765625,29.89470588235294,170.76042850129147
1.04352880859375,-0.0254345703125,0.3228076171875,1.092613403471852,1.21923828125,0.29150390625,-0.1064453125,29.988823529411768,170.76042850129147
1.05817724609375,-0.0322705078125,0.3066943359375,1.1021986597347928,1.2158203125,0.4775390625,0.03271484375,30.03588235294118,170.76042850129147
1.05964208984375,-0.0425244140625,0.2974169921875,1.101411163735709,1.16748046875,0.78955078125,-0.12939453125,29.988823529411768,170.76042850129147
1.01764990234375,-0.0361767578125,0.2617724609375,1.0514013994908618,1.20458984375,1.48095703125,-0.5673828125,29.94176470588236,170.76042850129147
0.99128271484375,-0.0093212890625,0.2344287109375,1.0186683109283414,1.1318359375,2.32958984375,-0.47021484375,29.94176470588236,170.76042850129147
1.01520849609375,-0.0127392578125,0.1943896484375,1.0337300975836012,1.05810546875,2.84033203125,-0.3125,29.94176470588236,170.5011435127008
1.07282568359375,-0.0185986328125,0.1865771484375,1.089087640568912,0.845703125,2.3935546875,-0.208984375,29.89470588235294,170.5011435127008
1.12458349609375,0.0004443359375,0.2061083984375,1.1433148774626076,0.90087890625,1.22265625,-0.04931640625,29.94176470588236,170.5011435127008
1.16706396484375,-4.394531249999993e-05,0.2100146484375,1.1858096190056526,1.078125,-0.42626953125,-0.01513671875,29.94176470588236,170.5011435127008
1.18513037109375,0.0116748046875,0.2456591796875,1.2103795810067337,1.279296875,-1.9931640625,-0.1923828125,29.89470588235294,170.5011435127008
1.14509130859375,-0.0093212890625,0.2427294921875,1.1705719105737735,1.33544921875,-2.513671875,-0.36328125,29.988823529411768,170.5011435127008
1.13581396484375,0.0019091796875,0.2852099609375,1.1710771663383794,1.28076171875,-3.03076171875,-0.54833984375,30.03588235294118,170.5011435127008
1.11432958984375,0.0004443359375,0.3106005859375,1.15680739806611,1.32568359375,-3.19091796875,-0.6708984375,29.988823529411768,170.5011435127008
1.06257177734375,-0.0005322265624999,0.3247607421875,1.1110934276372737,1.38818359375,-3.05029296875,-0.666015625,29.988823529411768,170.56697457974946
1.01032568359375,-0.0239697265625,0.3394091796875,1.0660821384756434,1.35302734375,-2.71923828125,-0.453125,29.988823529411768,170.56697457974946
0.97614599609375,-0.0415478515625,0.3438037109375,1.0357549040741805,1.22607421875,-2.076171875,-0.15869140625,30.03588235294118,170.56697457974946
0.97126318359375,-0.0444775390625,0.3628466796875,1.037780389218242,1.1044921875,-1.1845703125,0.2373046875,29.94176470588236,170.56697457974946
0.97468115234375,-0.0601025390625,0.3608935546875,1.0410858858667134,1.01953125,0.2236328125,0.69775390625,29.89470588235294,170.56697457974946
0.97272802734375,-0.0395947265625,0.3457568359375,1.0331095523462812,0.970703125,2.09716796875,0.94677734375,29.89470588235294,170.56697457974946
0.98639990234375,-0.0298291015625,0.3135302734375,1.0354592097256072,0.9267578125,4.013671875,0.83349609375,30.08294117647059,170.56697457974946
1.00300146484375,-0.0200634765625,0.2778857421875,1.04097788991005,0.8623046875,5.38427734375,0.60986328125,29.94176470588236,170.56697457974946
1.00886083984375,-0.0278759765625,0.2222216796875,1.0334213754140582,0.708984375,6.39404296875,0.2265625,29.94176470588236,170.56697457974946
1.07087255859375,-0.0308056640625,0.2046435546875,1.0906860273069383,0.6865234375,6.16552734375,-0.27001953125,29.94176470588236,170.35562206980555
1.09626318359375,-0.0322705078125,0.1797412109375,1.111369090935527,0.826171875,5.10400390625,-0.5859375,29.94176470588236,170.35562206980555
1.13093115234375,-0.0298291015625,0.1841357421875,1.1462115939880078,0.98828125,2.89404296875,-0.27001953125,29.94176470588236,170.35562206980555
1.14313818359375,-0.0166455078125,0.2974169921875,1.181312340984472,1.15380859375,0.69580078125,0.2470703125,29.84764705882353,170.35562206980555
1.15046240234375,0.0072802734375,0.1782763671875,1.1642161331494465,1.28955078125,-1.2392578125,0.7158203125,29.94176470588236,170.35562206980555
1.12653662109375,0.0375537109375,0.2344287109375,1.151282702198864,1.54541015625,-2.869140625,1.087890625,29.94176470588236,170.35562206980555
1.13288427734375,0.0536669921875,0.2573779296875,1.1629919735721943,1.7109375,-4.1142578125,1.20849609375,29.94176470588236,170.35562206980555
1.14802099609375,0.0522021484375,0.2769091796875,1.1820981201105012,1.75732421875,-4.7763671875,0.884765625,30.03588235294118,170.35562206980555
1.17438818359375,0.0478076171875,0.3413623046875,1.2239286732025425,1.67333984375,-5.080078125,0.50390625,30.03588235294118,170.16487064387115
1.15095068359375,0.0160693359375,0.3540576171875,1.2042850559194376,1.60888671875,-4.69873046875,0.23681640625,29.89470588235294,170.16487064387115
1.14704443359375,-0.0034619140625,0.3872607421875,1.210658415874187,1.2900390625,-4.08447265625,-0.19921875,29.89470588235294,170.16487064387115
1.09968115234375,-0.0176220703125,0.4131396484375,1.174858946126401,1.220703125,-2.7646484375,-0.25439453125,29.89470588235294,170.16487064387115
1.05573583984375,-0.0249462890625,0.4087451171875,1.1323749607321778,1.044921875,-1.279296875,-0.205078125,29.988823529411768,170.16487064387115
0.99616552734375,-0.0322705078125,0.4185107421875,1.0809895396667168,0.958984375,0.490234375,0.08740234375,29.89470588235294,170.16487064387115
0.95807958984375,-0.0283642578125,0.3940966796875,1.0363557422705458,0.8798828125,2.1728515625,0.38720703125,29.988823529411768,170.16487064387115
0.96979833984375,-0.0102978515625,0.3716357421875,1.038618308418329,0.94140625,3.44970703125,0.32177734375,29.94176470588236,170.16487064387115
0.97809912109375,0.0063037109375,0.3228076171875,1.0300108665301648,0.974609375,4.3837890625,0.16455078125,29.84764705882353,170.51885418720343
0.97858740234375,0.0253466796875,0.2676318359375,1.0148411490496163,0.80859375,4.9345703125,0.11279296875,30.03588235294118,170.51885418720343
1.01423193359375,0.0229052734375,0.2471240234375,1.0441558071631367,0.72412109375,4.998046875,-0.056640625,29.89470588235294,170.51885418720343
1.05085302734375,0.0189990234375,0.2319873046875,1.0763229801064704,0.80419921875,4.4970703125,-0.13720703125,29.94176470588236,170.51885418720343
