AccX,AccY,AccZ,Magnitude,GyroX,GyroY,GyroZ,Temperature,Altitude
1.77736279296875,-0.76500927734375,1.15455029296875,2.253274078146267,2.44140625,1.412109375,1.41552734375,44.29470588235294,306.79294502594337
1.67677685546875,-0.79772412109375,1.10474560546875,2.1606497284874706,2.384765625,1.337890625,1.427734375,43.73,306.79294502594337
1.70412060546875,-0.85094677734375,1.06519482421875,2.182378855606264,2.19287109375,1.28369140625,1.5498046875,44.15352941176471,306.79294502594337
1.66896435546875,-0.92174755859375,1.01685498046875,2.160799535566144,2.02490234375,1.154296875,1.73681640625,44.29470588235294,306.79294502594337
1.59669873046875,-1.22594677734375,0.7385346679687499,2.14425413432078,0.8134765625,-0.57666015625,2.43701171875,44.29470588235294,306.79294502594337
1.63820263671875,-1.40856396484375,0.6408784179687499,2.253549526552886,-0.10693359375,-3.96875,3.255859375,44.20058823529412,306.79294502594337
1.91749951171875,-1.54723583984375,0.6677338867187499,2.552765493540518,-1.2548828125,-5.9111328125,3.73876953125,44.15352941176471,306.79294502594337
2.09474560546875,-1.50329052734375,0.8772065429687499,2.723478085143935,-2.50146484375,-5.6611328125,4.07861328125,44.059411764705885,307.04154778146176
1.90187451171875,-1.43493115234375,1.03736279296875,2.5985141205173243,-3.962890625,-3.41650390625,4.07470703125,44.34176470588236,307.04154778146176
1.44093701171875,-1.38512646484375,1.09107373046875,2.277129043482275,-5.37158203125,-0.4765625,4.22314453125,44.29470588235294,307.04154778146176
1.12550732421875,-1.23815380859375,0.7365815429687499,1.8282078547166027,-6.82470703125,1.1494140625,4.6103515625,44.29470588235294,307.04154778146176
0.97414013671875,-1.05504833984375,0.4860932617187499,1.51603517916368,-7.6318359375,1.294921875,4.69921875,44.29470588235294,307.04154778146176
0.93458935546875,-0.92077099609375,0.3166596679687499,1.3496480414986156,-8.06396484375,0.63330078125,4.66650390625,44.76529411764706,306.6465850270735
0.86037060546875,-0.91686474609375,0.1618745117187499,1.2677073396207832,-8.451171875,-0.2314453125,4.6953125,44.48294117647059,306.6465850270735
0.80128857421875,-0.97985302734375,0.0251557617187498,1.266020594901947,-8.68896484375,-1.486328125,4.70361328125,44.29470588235294,306.6465850270735
0.84279248046875,-1.03600537109375,-0.0549223632812501,1.336646086313862,-9.087890625,-3.4814453125,4.65234375,44.29470588235294,306.6465850270735
0.77638623046875,-1.03307568359375,-0.0622465820312501,1.2937911670237752,-9.2392578125,-5.8017578125,4.82373046875,44.29470588235294,306.9898419431611
0.71290966796875,-1.01940380859375,0.0481049804687498,1.2448848978137117,-8.9853515625,-8.03271484375,4.46435546875,44.388823529411766,306.9898419431611
0.61037060546875,-0.96911083984375,0.2253510742187499,1.1672665516386955,-8.74658203125,-8.22265625,4.0556640625,44.34176470588236,306.9898419431611
0.62599560546875,-0.91930615234375,0.3156831054687499,1.156135858314952,-8.16796875,-6.76318359375,3.9345703125,44.34176470588236,306.9898419431611
0.70216748046875,-0.84948193359375,0.3225190429687499,1.1483367359827372,-7.75634765625,-5.26806640625,3.63427734375,44.29470588235294,306.9898419431611
0.71486279296875,-0.78600537109375,0.2829682617187499,1.0995018386976152,-7.34912109375,-4.5009765625,3.3193359375,44.29470588235294,306.6801800711797
0.61281201171875,-0.75670849609375,0.2390229492187499,1.0026356666409166,-6.88720703125,-3.98193359375,3.2431640625,44.48294117647059,306.6801800711797
0.56496044921875,-0.72887646484375,0.1726166992187499,0.938209856606586,-6.3798828125,-2.91015625,3.64453125,44.388823529411766,306.6801800711797
0.59474560546875,-0.66344677734375,0.0959565429687498,0.8961537924545714,-6.01171875,-2.658203125,4.31103515625,44.29470588235294,306.6801800711797
0.72609326171875,-0.55602490234375,0.0920502929687498,0.9191563377224696,-5.62646484375,-3.20947265625,4.24267578125,44.15352941176471,306.903372116245
0.77345654296875,-0.46715771484375,0.1179291992187498,0.9112511456385556,-5.39990234375,-3.63134765625,3.13427734375,44.20058823529412,306.903372116245
0.75539013671875,-0.38024365234375,0.1833588867187499,0.8653438479231397,-5.0341796875,-4.08984375,2.2314453125,44.29470588235294,306.903372116245
0.70021435546875,-0.30163037109375,0.2873627929687499,0.8147750604636048,-4.3271484375,-4.09912109375,1.10595703125,44.29470588235294,306.903372116245
0.64601513671875,-0.33336865234375,0.3850190429687499,0.8226237771203829,-3.40625,-3.017578125,0.150390625,44.34176470588236,306.903372116245
0.59230419921875,-0.28356396484375,0.4436127929687499,0.7924803446493844,-2.279296875,-1.98486328125,0.72265625,44.20058823529412,307.1253997421027
0.56154248046875,-0.27282177734375,0.4626557617187499,0.7770534302192842,-1.5556640625,-1.18701171875,1.63818359375,44.48294117647059,307.1253997421027
0.57033154296875,-0.20934521484375,0.4851166992187499,0.7774584874731164,-0.90869140625,-0.89990234375,2.1953125,44.48294117647059,307.1253997421027
0.52247998046875,-0.18981396484375,0.4919526367187499,0.742315342704743,-0.2578125,-0.86865234375,2.22705078125,44.20058823529412,307.1253997421027
0.47121044921875,-0.28502880859375,0.4567963867187499,0.7155023746296125,0.3115234375,0.232421875,2.10791015625,44.48294117647059,307.1253997421027
0.46583935546875,-0.38268505859375,0.3859956054687499,0.7158538723899097,1.04931640625,0.982421875,2.04931640625,44.29470588235294,307.1253997421027
0.46632763671875,-0.44762646484375,0.2829682617187499,0.7056216790436206,1.8466796875,1.3994140625,1.9931640625,44.15352941176471,307.1253997421027
0.45802685546875,-0.46715771484375,0.1594331054687499,0.6733823920983049,2.38818359375,1.62109375,1.65869140625,44.29470588235294,307.1253997421027
0.51173779296875,-0.43053662109375,0.1110932617187498,0.677922608897698,3.1552734375,1.0771484375,0.90673828125,44.76529411764706,307.1253997421027
0.55714794921875,-0.46862255859375,0.0944916992187498,0.7341318825407722,4.3271484375,0.08154296875,0.0390625,44.29470588235294,306.8613083610949
0.56740185546875,-0.51745068359375,0.1130463867187498,0.7761955688427915,5.326171875,-0.505859375,-0.3486328125,44.15352941176471,306.8613083610949
0.56154248046875,-0.58971630859375,0.1228120117187498,0.8235156781839928,6.32177734375,-0.310546875,-0.4873046875,43.40058823529412,306.8613083610949
0.54298779296875,-0.61461865234375,0.1233002929687498,0.8293339456263087,7.3447265625,-0.4111328125,-0.50830078125,44.20058823529412,306.8613083610949
0.40626904296875,-0.55553662109375,0.1638276367187499,0.707470824277479,8.34375,-0.61962890625,-0.357421875,44.388823529411766,306.4508596541074
0.29054638671875,-0.52428662109375,0.1023041992187498,0.6080787885389627,9.00244140625,-0.28369140625,0.3115234375,44.48294117647059,306.4508596541074
0.17384716796875,-0.47789990234375,0.0632416992187498,0.5124555268420816,8.90234375,0.67529296875,0.6337890625,44.29470588235294,306.4508596541074
0.17824169921875,-0.46569287109375,0.0432221679687498,0.5005078514187827,8.31982421875,2.19482421875,0.86181640625,44.20058823529412,306.4508596541074
0.13527294921875,-0.54039990234375,0.0070893554687498,0.5571185548915377,8.0810546875,4.35986328125,1.34765625,44.059411764705885,306.4508596541074
0.24220654296875,-0.68444287109375,-0.1325590820312501,0.7380365597156392,8.41552734375,5.982421875,1.90087890625,43.30647058823529,306.6500928154707
0.43947216796875,-0.74791943359375,-0.1799223632812501,0.885940924878775,8.89892578125,5.947265625,1.01220703125,44.059411764705885,306.6500928154707
0.43654248046875,-0.74840771484375,-0.2101958007812501,0.8915524210934115,9.38037109375,5.40869140625,-0.353515625,44.34176470588236,306.6500928154707
0.14601513671875,-0.78161083984375,-0.3322661132812501,0.8617637118997736,9.947265625,5.86279296875,-0.57861328125,44.29470588235294,306.6500928154707
1.904296875000072e-05,-0.77428662109375,-0.3381254882812501,0.8448956253838961,10.63330078125,7.6044921875,-0.23876953125,44.29470588235294,306.749710498488
0.36574169921875,-0.80846630859375,-0.2824614257812501,0.9312192114282222,11.3916015625,8.19775390625,-1.5517578125,44.29470588235294,306.749710498488
0.49855419921875,-0.91393505859375,-0.1022856445312501,1.0460860069624216,11.87548828125,7.54638671875,-2.47998046875,44.20058823529412,306.749710498488
0.54445263671875,-0.98668896484375,0.1242768554687498,1.133767402856349,12.2275390625,6.39892578125,-3.21826171875,44.29470588235294,306.749710498488
0.48537060546875,-0.87389599609375,0.4216401367187499,1.0849236109210614,11.72412109375,6.14453125,-4.8427734375,44.20058823529412,306.749710498488
0.36964794921875,-0.71520458984375,0.5891206054687499,0.9976072872042688,11.43603515625,7.8974609375,-5.5947265625,44.388823529411766,306.63928421891524
0.49660107421875,-0.76061474609375,0.4733979492187499,1.0243305312324702,10.2587890625,9.64404296875,-5.08935546875,44.34176470588236,306.63928421891524
0.18703076171875,-0.77331005859375,0.3440034179687499,0.8667913844320023,9.25634765625,10.32080078125,-3.869140625,44.34176470588236,306.63928421891524
0.44289013671875,-0.65368115234375,0.3034760742187499,0.8459009692366064,9.26708984375,8.4111328125,-5.42041015625,44.20058823529412,306.63928421891524
0.45802685546875,-0.66393505859375,0.4255463867187499,0.9119693468586876,9.611328125,7.6826171875,-6.4150390625,44.34176470588236,306.7292639683151
0.41798779296875,-0.54381787109375,0.5007416992187499,0.8492313709044821,9.14013671875,6.9453125,-6.94970703125,44.34176470588236,306.7292639683151
0.61818310546875,-0.25182568359375,0.4240815429687499,0.7908297426698131,8.56103515625,5.59228515625,-9.8984375,44.29470588235294,306.7292639683151
0.50197216796875,-0.32750927734375,0.6208588867187499,0.8629624217653501,7.896484375,7.00634765625,-8.88818359375,44.57705882352941,306.7292639683151
0.77589794921875,-0.31530224609375,0.7580659179687499,1.129644665361382,7.55322265625,7.64306640625,-8.6572265625,44.76529411764706,306.7292639683151
0.78956982421875,-0.29674755859375,0.6091401367187499,1.0404476570255303,7.00439453125,6.92919921875,-8.53076171875,44.29470588235294,306.594879949897
0.62990185546875,-0.20495068359375,0.4299409179687499,0.7897026802362588,6.5966796875,5.9951171875,-7.822265625,44.15352941176471,306.594879949897
0.65333935546875,-0.09362255859375,0.2292573242187499,0.698696226975574,6.44091796875,4.05517578125,-8.9228515625,44.29470588235294,306.594879949897
0.88185498046875,-0.15368115234375,0.0798432617187498,0.8986996437103617,5.923828125,1.38330078125,-10.6220703125,44.48294117647059,306.594879949897
0.92189404296875,-0.25768505859375,0.1975190429687499,0.9773965358128822,4.95654296875,-1.23291015625,-11.2822265625,44.29470588235294,306.61883741751063
0.68165966796875,-0.29430615234375,0.2370698242187499,0.7794088245572781,4.3564453125,-0.8525390625,-11.099609375,44.76529411764706,306.61883741751063
0.75050732421875,-0.42272412109375,0.3742768554687499,0.9391698945345548,3.5234375,-0.2919921875,-10.50830078125,44.29470588235294,306.61883741751063
0.59572216796875,-0.49059521484375,0.6276948242187499,0.9947710081159282,2.41650390625,0.5830078125,-9.95361328125,44.34176470588236,306.61883741751063
0.48830029296875,-0.58190380859375,0.7624604492187499,1.0762876730652156,1.921875,1.80859375,-8.7607421875,44.48294117647059,306.61883741751063
0.52540966796875,-0.57018505859375,0.7888276367187499,1.1060810823307117,1.77197265625,2.349609375,-7.42431640625,44.34176470588236,306.7724981447945
0.51173779296875,-0.45153271484375,0.7282807617187499,0.9980732584416522,2.015625,2.60595703125,-5.81005859375,44.34176470588236,306.7724981447945
0.49464794921875,-0.47741162109375,0.6623627929687499,0.9546323476244876,2.189453125,2.580078125,-5.2822265625,44.34176470588236,306.7724981447945
0.59376904296875,-0.23082958984375,0.6467377929687499,0.9078071099025103,2.3759765625,2.88623046875,-5.35693359375,44.48294117647059,306.7724981447945
0.63185498046875,-0.30358349609375,0.6657807617187499,0.9667821254649194,2.01025390625,2.38037109375,-4.85546875,44.29470588235294,306.4616682616572
0.49806591796875,-0.30944287109375,0.6711518554687499,0.8912179094990981,1.9677734375,2.755859375,-4.0087890625,44.34176470588236,306.4616682616572
0.52101513671875,-0.26989208984375,0.5075776367187499,0.7758437794732106,1.84033203125,2.98974609375,-4.0322265625,44.48294117647059,306.4616682616572
0.43898388671875,-0.21959912109375,0.3811127929687499,0.621431885043155,1.640625,2.794921875,-3.60791015625,44.29470588235294,306.4616682616572
0.58839794921875,-0.12194287109375,0.2727143554687499,0.6598903925154186,1.38525390625,1.5849609375,-3.34716796875,44.34176470588236,306.4616682616572
0.72462841796875,-0.09899365234375,0.3679291992187499,0.8186928502008548,1.0341796875,0.126953125,-3.81494140625,44.76529411764706,306.8265411713719
0.60695263671875,-0.13854443359375,0.5632416992187499,0.8395399186688389,0.609375,-1.009765625,-4.47314453125,44.34176470588236,306.8265411713719
0.35597607421875,-0.20739208984375,0.7336518554687499,0.8414127936861256,0.169921875,-1.35107421875,-4.3388671875,44.059411764705885,306.8265411713719
0.12013623046875,-0.28844677734375,0.8044526367187499,0.8630053892966049,-0.27001953125,-0.41064453125,-2.9794921875,44.15352941176471,306.8265411713719
0.08644482421875,-0.22936474609375,0.7556245117187499,0.7943861133573901,0.05224609375,1.0068359375,-1.08740234375,44.48294117647059,306.49643302706426
0.33497998046875,-0.07702099609375,0.6672456054687499,0.7505734602099092,-0.060546875,0.068359375,-0.35400390625,44.20058823529412,306.49643302706426
0.68361279296875,0.08118212890625,0.7575776367187499,1.023640984144662,-1.08056640625,-2.4462890625,-0.02783203125,44.29470588235294,306.49643302706426
0.81447216796875,0.19055712890625,1.24732373046875,1.5018300237920363,-1.533203125,-6.96533203125,0.2236328125,44.48294117647059,306.49643302706426
0.81544873046875,0.19153369140625,1.63208935546875,1.8344910605400075,-4.9404296875,-11.58203125,1.38134765625,44.76529411764706,306.49643302706426
0.88478466796875,0.02490771484375,1.32618115234375,2.088797039835675,-7.748046875,-11.24658203125,1.9462890625,44.29470588235294,306.5744329251387
0.95412060546875,-0.14171826171875,1.02027294921875,2.144109453088497,-9.4052734375,-1.97998046875,1.72119140625,44.20058823529412,306.5744329251387
1.02345654296875,-0.30834423828125,0.7143647460937499,1.498069227149094,-10.66357421875,6.619140625,2.51171875,44.29470588235294,306.5744329251387
1.09279248046875,-0.47497021484375,0.4084565429687499,1.259614567179875,-10.65771484375,9.7880859375,3.53857421875,44.48294117647059,306.5744329251387
1.10475537109375,-0.55773388671875,0.5396821289062499,2.015386266897924,-10.81982421875,5.31640625,1.99462890625,44.29470588235294,306.5612844762021
1.11671826171875,-0.64049755859375,0.6709077148437499,2.084585504668784,-10.09423828125,-1.89013671875,1.4287109375,44.01235294117648,306.5612844762021
1.12868115234375,-0.72326123046875,0.8021333007812499,1.9812274826288288,-9.32958984375,-8.4580078125,3.228515625,44.059411764705885,306.5612844762021
1.14064404296875,-0.80602490234375,0.93335888671875,1.679852311179531,-7.76416015625,-10.97509765625,4.2451171875,44.059411764705885,306.5612844762021
0.88234326171875,-0.36852490234375,1.30787060546875,1.6201437454118532,-6.74072265625,-8.1845703125,3.3994140625,44.34176470588236,306.5612844762021
0.71046826171875,-0.26354443359375,1.55201123046875,1.727124685391601,-5.3681640625,-4.35498046875,2.07568359375,44.48294117647059,306.3500755443753
0.60597607421875,-0.24352490234375,1.65308544921875,1.777414662650744,-3.3544921875,-0.48486328125,1.6875,44.20058823529412,306.3500755443753
0.72560498046875,-0.41100537109375,1.37085888671875,1.6045815934519307,-2.404296875,2.5712890625,1.5869140625,44.20058823529412,306.3500755443753
1.00294873046875,-0.47838818359375,1.21705029296875,1.6480208814715684,-1.908203125,2.6923828125,1.93505859375,44.29470588235294,306.3500755443753
1.21535107421875,-0.62633740234375,1.01050732421875,1.700147589910689,-2.58935546875,2.033203125,1.36865234375,44.71823529411765,306.749710498488
1.15919873046875,-0.74596630859375,0.8728120117187499,1.6315661917549895,-3.52783203125,1.7783203125,0.9873046875,44.48294117647059,306.749710498488
1.02736279296875,-0.74401318359375,0.8288666992187499,1.5152722299348205,-4.1669921875,1.04296875,1.01220703125,44.15352941176471,306.749710498488
0.80617138671875,-0.67907177734375,0.8435151367187499,1.350025395843531,-4.08203125,0.25244140625,1.28369140625,44.15352941176471,306.749710498488
0.62013623046875,-0.65270458984375,0.8733002929687499,1.2542908863746052,-3.5263671875,-0.1240234375,1.8056640625,44.20058823529412,306.749710498488
0.55128857421875,-0.60680615234375,0.8776948242187499,1.201033306385277,-2.83935546875,0.0634765625,2.35498046875,44.20058823529412,306.6176670665889
0.59523388671875,-0.55993115234375,0.8137299804687499,1.1532487833841325,-2.19482421875,0.4384765625,2.6005859375,43.447647058823534,306.6176670665889
0.69191357421875,-0.54137646484375,0.7058198242187499,1.126949198116343,-1.62841796875,0.14599609375,2.53857421875,44.34176470588236,306.6176670665889
0.74708935546875,-0.52086865234375,0.6237885742187499,1.1038835279933148,-1.37158203125,-0.33154296875,2.2841796875,44.20058823529412,306.6176670665889
0.74074169921875,-0.52477490234375,0.5783784179687499,1.0763868066189808,-1.2216796875,-0.62451171875,1.9482421875,44.20058823529412,306.35124417572695
0.68703076171875,-0.54332958984375,0.6496674804687499,1.0905439679014493,-1.0029296875,-0.681640625,1.63818359375,44.34176470588236,306.35124417572695
0.65480419921875,-0.54723583984375,0.6882416992187499,1.0963175818473017,-0.91845703125,-0.638671875,2.0234375,44.29470588235294,306.35124417572695
0.63722607421875,-0.51110302734375,0.7165620117187499,1.0866206747815024,-0.810546875,-0.212890625,1.84326171875,44.34176470588236,306.35124417572695
0.61525341796875,-0.50084912109375,0.7067963867187499,1.0625195257976636,-0.765625,0.255859375,1.5888671875,44.48294117647059,306.35124417572695
0.59083935546875,-0.49547802734375,0.6535737304687499,1.0108156314135728,-0.693359375,0.74951171875,1.51318359375,44.53,306.2972013484831
0.59035107421875,-0.49743115234375,0.5896088867187499,0.9713860105287634,-0.72900390625,0.7587890625,1.4580078125,44.20058823529412,306.2972013484831
0.56886669921875,-0.50768505859375,0.5632416992187499,0.9479423252172045,-0.7177734375,0.693359375,1.25390625,44.48294117647059,306.2972013484831
0.55421826171875,-0.52331005859375,0.5573823242187499,0.9442914562779028,-0.6494140625,0.587890625,0.9716796875,44.29470588235294,306.2972013484831
0.53664013671875,-0.53161083984375,0.5686127929687499,0.9454698460049472,-0.6279296875,0.45947265625,0.69873046875,44.29470588235294,306.53966727209195
0.55324169921875,-0.55016552734375,0.5827729492187499,0.9738494727487385,-0.55615234375,0.13525390625,0.49560546875,44.34176470588236,306.53966727209195
0.56691357421875,-0.54235302734375,0.6013276367187499,0.9885002446050104,-0.6005859375,-0.00634765625,0.2763671875,44.29470588235294,306.53966727209195
0.60597607421875,-0.54039990234375,0.6262299804687499,1.025379464109065,-0.6552734375,-0.302734375,-0.14794921875,43.54176470588236,306.53966727209195
0.62941357421875,-0.55211865234375,0.6418549804687499,1.0549759568962886,-0.61767578125,-0.5693359375,-0.552734375,44.34176470588236,306.53966727209195
0.55958935546875,-0.53747021484375,0.6267182617187499,0.997391727542338,-0.6513671875,-0.60986328125,-0.60595703125,44.29470588235294,306.5300286192417
0.50539013671875,-0.50719677734375,0.5998627929687499,0.934078760934404,-0.626953125,-0.51025390625,-0.33935546875,44.29470588235294,306.5300286192417
0.56349560546875,-0.50914990234375,0.5730073242187499,0.9513665508349424,-0.873046875,-0.72900390625,-0.333984375,44.15352941176471,306.5300286192417
0.53761669921875,-0.50036083984375,0.5739838867187499,0.9321213373487216,-0.873046875,-0.99560546875,-0.3505859375,44.20058823529412,306.5300286192417
0.56203076171875,-0.49889599609375,0.5900971679687499,0.9555053425707636,-0.89453125,-1.23876953125,-0.38232421875,44.20058823529412,306.3404355830822
0.57326123046875,-0.50963818359375,0.6037690429687499,0.976164214557511,-0.875,-1.33837890625,-0.5078125,44.29470588235294,306.3404355830822
0.58693310546875,-0.52379833984375,0.6213471679687499,1.002460709584693,-0.87060546875,-1.25244140625,-0.494140625,44.29470588235294,306.3404355830822
0.61818310546875,-0.55358349609375,0.6252534179687499,1.0390124521467348,-0.896484375,-1.42431640625,-0.34619140625,44.059411764705885,306.3404355830822
0.64650341796875,-0.55163037109375,0.6384370117187499,1.062950870779394,-0.892578125,-1.515625,-0.2158203125,43.58882352941177,306.3404355830822
0.64747998046875,-0.54967724609375,0.6462495117187499,1.0672459095155833,-0.85693359375,-1.53759765625,-0.20849609375,44.20058823529412,306.54317823657806
0.63185498046875,-0.53893505859375,0.6491791992187499,1.0540993057691057,-0.78955078125,-1.427734375,-0.23388671875,44.29470588235294,306.54317823657806
0.62306591796875,-0.52135693359375,0.6462495117187499,1.038105303780518,-0.7392578125,-1.2998046875,-0.208984375,44.76529411764706,306.54317823657806
0.61427685546875,-0.52184521484375,0.6218354492187499,1.0180067825535248,-0.74462890625,-1.111328125,-0.22412109375,44.20058823529412,306.54317823657806
0.62013623046875,-0.51793896484375,0.5905854492187499,1.000810116092118,-0.77587890625,-1.1123046875,-0.140625,44.20058823529412,306.2863928238356
0.63331982421875,-0.51549755859375,0.5896088867187499,1.00720919970099,-0.7509765625,-1.16943359375,-0.09716796875,44.29470588235294,306.2863928238356
0.64162060546875,-0.51549755859375,0.5827729492187499,1.0084835371087233,-0.755859375,-1.22705078125,-0.0751953125,44.34176470588236,306.2863928238356
0.65089794921875,-0.52623974609375,0.5774018554687499,1.0168526507634938,-0.7421875,-1.23193359375,-0.0205078125,44.15352941176471,306.2863928238356
0.66652294921875,-0.53405224609375,0.5764252929687499,1.030403203492278,-0.68212890625,-1.208984375,0.04150390625,44.15352941176471,306.2863928238356
0.67970654296875,-0.53551708984375,0.5808198242187499,1.0421761877315887,-0.68701171875,-1.22021484375,0.115234375,44.20058823529412,306.6080289222895
0.70412060546875,-0.54625927734375,0.5949799804687499,1.071534508211653,-0.7646484375,-1.3203125,0.09423828125,44.29470588235294,306.6080289222895
0.68996044921875,-0.55846630859375,0.6042573242187499,1.0738048953103505,-0.7646484375,-1.24072265625,0.2119140625,44.20058823529412,306.6080289222895
0.69337841796875,-0.66784130859375,0.6311127929687499,1.1511251024184448,-0.57177734375,-0.41943359375,-0.90185546875,44.48294117647059,306.6080289222895
0.72267529296875,-0.57946240234375,0.5954682617187499,1.101189677354364,-0.51171875,-0.53173828125,-0.66162109375,44.20058823529412,306.4724768828034
0.69044873046875,-0.56530224609375,0.6018159179687499,1.0763217353399106,-0.3349609375,-0.72216796875,-0.47216796875,44.059411764705885,306.4724768828034
0.68605419921875,-0.56286083984375,0.5979096679687499,1.0700367565396025,-0.33447265625,-0.7099609375,-0.49560546875,43.54176470588236,306.4724768828034
0.69386669921875,-0.56383740234375,0.5935151367187499,1.0731373770774866,-0.2841796875,-0.75439453125,-0.35400390625,44.059411764705885,306.4724768828034
0.69484326171875,-0.55846630859375,0.5847260742187499,1.0661127323419188,-0.23388671875,-0.71337890625,-0.1884765625,44.29470588235294,306.4724768828034
0.69289013671875,-0.55504833984375,0.5813081054687499,1.0611760054812294,-0.19091796875,-0.58837890625,-0.01220703125,44.15352941176471,306.4172647385089
0.68263623046875,-0.55016552734375,0.5559174804687499,1.038132253480612,-0.177734375,-0.49853515625,0.1123046875,44.059411764705885,306.4172647385089
0.66994091796875,-0.54137646484375,0.5534760742187499,1.0238384027707337,-0.17041015625,-0.19873046875,0.15185546875,44.29470588235294,306.4172647385089
0.66505810546875,-0.53258740234375,0.5534760742187499,1.0160154474797838,-0.15771484375,-0.06591796875,0.21630859375,44.20058823529412,306.4172647385089
0.67287060546875,-0.53502880859375,0.5549409179687499,1.0232155687659998,-0.12255859375,0.01171875,0.2861328125,44.29470588235294,306.4292424798023
0.66798779296875,-0.54381787109375,0.5656831054687499,1.0305061592678468,-0.09765625,0.10888671875,0.36572265625,44.34176470588236,306.4292424798023
0.66652294921875,-0.54039990234375,0.5642182617187499,1.026950409292154,-0.0693359375,0.2197265625,0.4248046875,44.29470588235294,306.4292424798023
0.68117138671875,-0.54625927734375,0.5671479492187499,1.0411774356330887,-0.0400390625,0.23095703125,0.494140625,44.29470588235294,306.4292424798023
0.68556591796875,-0.55358349609375,0.5798432617187499,1.0548334101593255,-0.00634765625,0.12939453125,0.60595703125,44.76529411764706,306.4292424798023
0.66896435546875,-0.55553662109375,0.5686127929687499,1.0389681201036456,-0.01123046875,0.2900390625,0.73974609375,43.54176470588236,306.41843391304707
0.69484326171875,-0.57262646484375,0.5920502929687499,1.0776046473543923,0.01171875,0.23779296875,0.76123046875,44.059411764705885,306.41843391304707
0.70314404296875,-0.58043896484375,0.5940034179687499,1.0881916180663591,0.08984375,0.22119140625,0.95947265625,44.15352941176471,306.41843391304707
0.65480419921875,-0.56237255859375,0.5744721679687499,1.036846037627817,0.140625,0.25537109375,1.0810546875,44.15352941176471,306.41843391304707
0.62648388671875,-0.59118115234375,0.6218354492187499,1.0623824834351328,0.22021484375,0.77001953125,1.41162109375,44.29470588235294,306.1195896941862
0.69777294921875,-0.61315380859375,0.6486909179687499,1.1329804008497202,0.390625,1.4013671875,1.3515625,44.34176470588236,306.1195896941862
0.78956982421875,-0.55309521484375,0.5520112304687499,1.110878581377598,0.4326171875,0.904296875,0.2109375,44.388823529411766,306.1195896941862
0.69191357421875,-0.56969677734375,0.5691010742187499,1.061684908520864,0.52392578125,0.2666015625,-0.10400390625,44.34176470588236,306.1195896941862
0.61037060546875,-0.56334912109375,0.6042573242187499,1.0271520929878848,0.64697265625,0.35888671875,0.10205078125,44.29470588235294,306.1195896941862
0.60695263671875,-0.56481396484375,0.6066987304687499,1.0273702680410566,0.697265625,0.70361328125,0.1376953125,44.34176470588236,306.59722044067473
0.62843701171875,-0.56041943359375,0.5686127929687499,1.0160332315309644,0.677734375,0.7451171875,0.15771484375,44.29470588235294,306.59722044067473
0.64113232421875,-0.55065380859375,0.5520112304687499,1.0094486973791992,0.64794921875,0.46630859375,0.158203125,44.29470588235294,306.59722044067473
0.62990185546875,-0.53844677734375,0.5578706054687499,0.998959905101758,0.6171875,0.25146484375,0.02734375,43.96529411764706,306.59722044067473
0.60109326171875,-0.52965771484375,0.5612885742187499,0.978210236976544,0.59130859375,0.2578125,-0.0546875,44.29470588235294,306.49643302706426
0.59621044921875,-0.53014599609375,0.5564057617187499,0.9726813705451955,0.54736328125,0.271484375,-0.05517578125,44.20058823529412,306.49643302706426
0.59181591796875,-0.53014599609375,0.5520112304687499,0.9674798481100534,0.6240234375,0.240234375,-0.02783203125,44.059411764705885,306.49643302706426
0.59230419921875,-0.52086865234375,0.5564057617187499,0.9652542613634923,0.44140625,0.24755859375,-0.123046875,44.29470588235294,306.49643302706426
0.58351513671875,-0.51159130859375,0.5549409179687499,0.9540309241552738,0.36865234375,0.029296875,0.00390625,44.388823529411766,306.49643302706426
0.58009716796875,-0.51305615234375,0.5593354492187499,0.9552986362891336,0.33837890625,0.02001953125,0.03173828125,44.15352941176471,306.2983707357988
0.58253857421875,-0.51207958984375,0.5671479492187499,0.9608504009940314,0.2998046875,0.013671875,0.04638671875,44.29470588235294,306.2983707357988
0.59962841796875,-0.51989208984375,0.5642182617187499,0.9737475399582458,0.24462890625,-0.09130859375,0.05224609375,44.29470588235294,306.2983707357988
0.60695263671875,-0.51842724609375,0.5725190429687499,0.9823117464807422,0.21875,-0.1240234375,0.01171875,44.48294117647059,306.2983707357988
0.61281201171875,-0.52623974609375,0.5715424804687499,0.989508786750258,0.1708984375,-0.17578125,-0.07666015625,44.20058823529412,306.40762535989813
0.61574169921875,-0.52623974609375,0.5671479492187499,0.9887987190670514,0.10302734375,-0.201171875,-0.02978515625,44.20058823529412,306.40762535989813
0.62257763671875,-0.52672802734375,0.5666596679687499,0.9930501033856228,0.0224609375,-0.25537109375,-0.03173828125,44.29470588235294,306.40762535989813
0.62794873046875,-0.53063427734375,0.5715424804687499,1.0012757619006911,-0.02783203125,-0.33154296875,-0.03173828125,44.29470588235294,306.40762535989813
0.62062451171875,-0.52868115234375,0.5837495117187499,1.0027173269778134,-0.08251953125,-0.294921875,-0.03857421875,44.20058823529412,306.40762535989813
0.62843701171875,-0.52672802734375,0.5803315429687499,1.004569655251402,-0.109375,-0.318359375,-0.05224609375,44.48294117647059,306.5203905543126
0.63087841796875,-0.52819287109375,0.5837495117187499,1.008840314303949,-0.16650390625,-0.34521484375,-0.048828125,44.388823529411766,306.5203905543126
0.62453076171875,-0.52575146484375,0.5769135742187499,0.9996412092527018,-0.1943359375,-0.34130859375,-0.0107421875,44.34176470588236,306.5203905543126
0.62843701171875,-0.52721630859375,0.5774018554687499,1.0031365891263102,-0.24462890625,-0.2978515625,0.00146484375,44.29470588235294,306.5203905543126
0.64357373046875,-0.53258740234375,0.5822846679687499,1.0182789019891378,-0.2880859375,-0.31103515625,0.04052734375,44.29470588235294,306.3307962097054
0.64406201171875,-0.53112255859375,0.5954682617187499,1.0254216195793435,-0.29052734375,-0.2548828125,0.017578125,44.15352941176471,306.3307962097054
0.65919873046875,-0.54088818359375,0.5915620117187499,1.0378095235213889,-0.3076171875,-0.26708984375,-0.02783203125,43.30647058823529,306.3307962097054
0.65138623046875,-0.54137646484375,0.5827729492187499,1.0281132273597706,-0.306640625,-0.23974609375,-0.05078125,44.53,306.3307962097054
0.62453076171875,-0.55211865234375,0.5774018554687499,1.0140348028039452,-0.3115234375,-0.16357421875,0.02099609375,44.15352941176471,306.3307962097054
0.64015576171875,-0.54528271484375,0.5700776367187499,1.0159336347694756,-0.31494140625,-0.171875,0.06298828125,44.20058823529412,306.31881843858224
0.62355419921875,-0.54625927734375,0.5656831054687499,1.0036017204350645,-0.32763671875,-0.15283203125,0.10986328125,44.29470588235294,306.31881843858224
0.61769482421875,-0.53698193359375,0.5632416992187499,0.9935480384015358,-0.314453125,-0.087890625,0.16796875,44.29470588235294,306.31881843858224
0.61818310546875,-0.54772412109375,0.5676362304687499,1.0021791031825005,-0.36474609375,-0.13671875,0.13037109375,44.34176470588236,306.31881843858224
0.68605419921875,-0.54870068359375,0.5954682617187499,1.0612847191759045,-0.3310546875,-0.2978515625,0.11328125,44.29470588235294,306.2960324144123
0.71193310546875,-0.56579052734375,0.6096284179687499,1.0948125298375873,-0.29052734375,-0.43115234375,-0.15283203125,44.62411764705882,306.2960324144123
0.58400341796875,-0.54381787109375,0.5954682617187499,0.9956808323124788,-0.22705078125,-0.01806640625,0.02294921875,44.48294117647059,306.2960324144123
0.64064404296875,-0.54918896484375,0.5813081054687499,1.0246718608321217,-0.25341796875,0.013671875,0.1337890625,44.48294117647059,306.2960324144123
0.66701123046875,-0.57067333984375,0.5827729492187499,1.0536585560422198,-0.21435546875,-0.1005859375,0.07177734375,44.29470588235294,306.2960324144123
0.64308544921875,-0.57311474609375,0.6096284179687499,1.0553038496954636,-0.14892578125,-0.052734375,0.13427734375,44.48294117647059,306.67405059902114
0.66310498046875,-0.55504833984375,0.5964448242187499,1.050491933821055,-0.06103515625,0.12890625,-0.04638671875,44.388823529411766,306.67405059902114
0.66749951171875,-0.58483349609375,0.5876557617187499,1.0643895483230057,0.0537109375,-0.056640625,-0.1962890625,44.388823529411766,306.67405059902114
0.65333935546875,-0.57897412109375,0.5910737304687499,1.0542445167753287,0.119140625,0.0263671875,-0.06298828125,44.76529411764706,306.67405059902114
0.67335888671875,-0.58776318359375,0.6081635742187499,1.0810831065731716,0.154296875,0.0224609375,-0.080078125,44.34176470588236,306.4640074860851
0.64503857421875,-0.57799755859375,0.6003510742187499,1.053839338934593,0.21630859375,0.29833984375,0.09033203125,44.29470588235294,306.4640074860851
0.67091748046875,-0.56530224609375,0.5910737304687499,1.0578587097941854,0.29052734375,0.18603515625,-0.0068359375,44.48294117647059,306.4640074860851
0.64357373046875,-0.56041943359375,0.5822846679687499,1.033108185356442,0.35302734375,0.24755859375,-0.0859375,44.059411764705885,306.4640074860851
0.63869091796875,-0.56041943359375,0.5935151367187499,1.036463336428057,0.40966796875,0.20068359375,-0.10498046875,44.29470588235294,306.4640074860851
0.62550732421875,-0.54967724609375,0.5739838867187499,1.011366397374004,0.41455078125,0.30126953125,-0.08984375,44.29470588235294,306.38600829438485
0.63039013671875,-0.54137646484375,0.5759370117187499,1.0110309800527992,0.4482421875,0.1728515625,-0.111328125,44.48294117647059,306.38600829438485
0.61134716796875,-0.53258740234375,0.5676362304687499,0.9897502670166076,0.41748046875,0.22607421875,-0.064453125,44.15352941176471,306.38600829438485
0.61622998046875,-0.52672802734375,0.5642182617187499,0.9876862105319087,0.40380859375,0.2001953125,0.0048828125,44.76529411764706,306.38600829438485
0.61476513671875,-0.53356396484375,0.5544526367187499,0.9849083227737392,0.3681640625,0.22265625,0.0078125,44.29470588235294,306.5516456750593
0.62208935546875,-0.53161083984375,0.5627534179687499,0.9931246954247046,0.32373046875,0.1025390625,0.04052734375,44.29470588235294,306.5516456750593
0.61574169921875,-0.53258740234375,0.5691010742187499,0.9933092237410224,0.291015625,0.07275390625,0.0576171875,44.20058823529412,306.5516456750593
0.62941357421875,-0.52965771484375,0.5720307617187499,1.0019570523015735,0.28564453125,-0.00341796875,-0.00830078125,44.059411764705885,306.5516456750593
0.62453076171875,-0.52428662109375,0.5793549804687499,1.000283623171373,0.21044921875,-0.0224609375,-0.0087890625,44.34176470588236,306.5516456750593
0.63380810546875,-0.52868115234375,0.5754487304687499,1.0061598863001335,0.146484375,0.11962890625,0.00341796875,44.15352941176471,306.2744152576194
0.63771435546875,-0.53405224609375,0.5822846679687499,1.0153555216180092,0.12451171875,-0.00830078125,0.029296875,44.059411764705885,306.2744152576194
0.63039013671875,-0.53454052734375,0.5827729492187499,1.0113108375699027,0.08935546875,-0.015625,0.0703125,44.059411764705885,306.2744152576194
0.63478466796875,-0.53356396484375,0.5896088867187499,1.0174874537632896,0.05322265625,-0.041015625,0.02587890625,44.20058823529412,306.2744152576194
0.61037060546875,-0.53112255859375,0.5764252929687499,0.9934332220343596,0.00927734375,0.0146484375,-0.015625,44.20058823529412,306.4196035408301
0.61915966796875,-0.53942333984375,0.5783784179687499,1.004419149747451,0.01318359375,-0.03564453125,0.0205078125,44.34176470588236,306.4196035408301
0.62746044921875,-0.53454052734375,0.5798432617187499,1.007798788879689,-0.02197265625,-0.07080078125,0.0185546875,44.34176470588236,306.4196035408301
0.62746044921875,-0.53356396484375,0.5881440429687499,1.0120822768891888,-0.046875,-0.0751953125,0.06396484375,44.34176470588236,306.4196035408301
0.63429638671875,-0.52916943359375,0.5876557617187499,1.0137511972548474,-0.05126953125,-0.03564453125,0.02978515625,44.388823529411766,306.4196035408301
0.64210888671875,-0.53698193359375,0.5930268554687499,1.0258334517437169,-0.0673828125,-0.06689453125,0.0224609375,44.29470588235294,306.3655612137844
0.65626904296875,-0.53991162109375,0.5930268554687499,1.0362791451430229,-0.076171875,-0.10791015625,-0.01123046875,44.20058823529412,306.3655612137844
0.62941357421875,-0.53307568359375,0.5915620117187499,1.0150254901028348,-0.0947265625,-0.0673828125,-0.02783203125,44.20058823529412,306.3655612137844
0.63283154296875,-0.53747021484375,0.5900971679687499,1.01860917984531,-0.11767578125,0.0166015625,0.00244140625,44.34176470588236,306.3655612137844
0.64406201171875,-0.54088818359375,0.5817963867187499,1.0226744045342793,-0.13525390625,0.01611328125,-0.01416015625,44.15352941176471,306.61037110495226
0.61671826171875,-0.53942333984375,0.5925385742187499,1.0111483154526697,-0.12060546875,0.11474609375,0.02978515625,44.20058823529412,306.61037110495226
0.63087841796875,-0.53844677734375,0.5881440429687499,1.0167821426295065,-0.08544921875,0.16796875,0.02734375,44.34176470588236,306.61037110495226
0.68800732421875,-0.56041943359375,0.5949799804687499,1.068375026330538,-0.12353515625,-0.0048828125,0.029296875,44.48294117647059,306.61037110495226
0.66456982421875,-0.56041943359375,0.6120698242187499,1.0631803527769177,-0.0361328125,-0.146484375,-0.18994140625,44.15352941176471,306.61037110495226
0.69679638671875,-0.54674755859375,0.5954682617187499,1.067258426102545,-0.0283203125,-0.0537109375,-0.2890625,44.34176470588236,306.62235118973524
0.58644482421875,-0.53844677734375,0.5857026367187499,0.9883774797839772,0.00927734375,0.33984375,-0.009765625,44.20058823529412,306.62235118973524
0.63966748046875,-0.54186474609375,0.5876557617187499,1.0237827811160565,-0.02099609375,0.2705078125,0.01513671875,44.76529411764706,306.62235118973524
0.63869091796875,-0.53844677734375,0.5979096679687499,1.0273008282767688,0.02001953125,0.1015625,-0.0087890625,44.29470588235294,306.62235118973524
0.63136669921875,-0.54430615234375,0.6091401367187499,1.032446028867066,0.083984375,0.259765625,-0.01123046875,44.059411764705885,306.4423905267663
0.67628857421875,-0.53649365234375,0.6086518554687499,1.0562427541950374,0.12646484375,0.298828125,-0.29052734375,44.059411764705885,306.4423905267663
0.66408154296875,-0.54528271484375,0.5857026367187499,1.0398966840404973,0.1650390625,0.33056640625,-0.3828125,44.29470588235294,306.4423905267663
0.64406201171875,-0.55553662109375,0.5847260742187499,1.032153764798024,0.1435546875,0.31982421875,-0.3173828125,44.20058823529412,306.4423905267663
0.63380810546875,-0.56579052734375,0.5798432617187499,1.028615498400857,0.10595703125,0.37158203125,-0.150390625,44.29470588235294,306.4423905267663
0.62794873046875,-0.55456005859375,0.5842377929687499,1.0213668613274145,0.13232421875,0.3984375,-0.029296875,44.29470588235294,306.45554015810256
0.63087841796875,-0.53161083984375,0.5881440429687499,1.0131787002191452,0.1796875,0.3583984375,-0.0244140625,44.20058823529412,306.45554015810256
0.63136669921875,-0.52868115234375,0.5847260742187499,1.0099664606298395,0.19580078125,0.31103515625,-0.13818359375,44.15352941176471,306.45554015810256
0.62306591796875,-0.53112255859375,0.5949799804687499,1.0120787951241774,0.21240234375,0.31982421875,-0.1796875,44.20058823529412,306.45554015810256
0.61915966796875,-0.53502880859375,0.5832612304687499,1.004892125271335,0.1728515625,0.3486328125,-0.2119140625,44.20058823529412,306.33313598075347
0.61378857421875,-0.53307568359375,0.5744721679687499,0.9954518421556844,0.1494140625,0.34130859375,-0.16357421875,44.059411764705885,306.33313598075347
0.61183544921875,-0.53014599609375,0.5793549804687499,0.9955147349431296,0.11572265625,0.2626953125,-0.15625,44.15352941176471,306.33313598075347
0.60939404296875,-0.53454052734375,0.5803315429687499,0.996934990229164,0.076171875,0.193359375,-0.1220703125,44.29470588235294,306.33313598075347
0.61037060546875,-0.53893505859375,0.5852143554687499,1.0027358152815933,0.05078125,0.16455078125,-0.0693359375,44.29470588235294,306.33313598075347
0.61867138671875,-0.53893505859375,0.5896088867187499,1.010368210814094,0.05859375,0.16015625,-0.0263671875,44.57705882352941,306.2107335320748
0.61915966796875,-0.53991162109375,0.5935151367187499,1.013471001334291,0.0537109375,0.158203125,-0.06005859375,44.29470588235294,306.2107335320748
0.63039013671875,-0.53551708984375,0.6032807617187499,1.0237763210032542,0.05908203125,0.087890625,-0.10107421875,43.73,306.2107335320748
0.61867138671875,-0.53209912109375,0.5910737304687499,1.007597099173815,0.05224609375,0.05859375,-0.0947265625,44.29470588235294,306.2107335320748
0.61574169921875,-0.52477490234375,0.5964448242187499,1.0051233589087567,0.00927734375,0.07080078125,-0.08056640625,44.29470588235294,306.43158206750905
0.61769482421875,-0.53014599609375,0.5861909179687499,1.0031059093385466,-0.01953125,0.07666015625,-0.046875,44.20058823529412,306.43158206750905
0.60890576171875,-0.53405224609375,0.5857026367187499,0.9995126846975813,-0.03369140625,0.0712890625,-0.052734375,44.15352941176471,306.43158206750905
0.61867138671875,-0.53014599609375,0.5891206054687499,1.0054213791772095,-0.03564453125,-0.00732421875,-0.0556640625,44.29470588235294,306.43158206750905
0.62355419921875,-0.53356396484375,0.5915620117187499,1.0116600010141024,-0.03466796875,-0.07421875,-0.0927734375,44.34176470588236,306.43158206750905
0.62160107421875,-0.53405224609375,0.5979096679687499,1.014443526312916,-0.05859375,-0.10302734375,-0.103515625,44.29470588235294,306.4520291002462
0.63039013671875,-0.53600537109375,0.6003510742187499,1.0223086102685626,-0.05419921875,-0.10302734375,-0.07666015625,44.34176470588236,306.4520291002462
0.62648388671875,-0.53307568359375,0.6047456054687499,1.020964735968359,-0.068359375,-0.08642578125,-0.05224609375,44.29470588235294,306.4520291002462
0.62892529296875,-0.52965771484375,0.6052338867187499,1.020976188097458,-0.080078125,-0.09228515625,-0.05908203125,44.34176470588236,306.4520291002462
0.64601513671875,-0.53161083984375,0.6037690429687499,1.0317377085076045,-0.08349609375,-0.1171875,-0.0380859375,44.34176470588236,306.3667315975266
0.64992138671875,-0.53747021484375,0.6140229492187499,1.0432143705518542,-0.0400390625,-0.15380859375,-0.1044921875,44.20058823529412,306.3667315975266
0.63039013671875,-0.54088818359375,0.6115815429687499,1.031495872664388,-0.05126953125,-0.046875,-0.09326171875,44.29470588235294,306.3667315975266
0.63966748046875,-0.54039990234375,0.6047456054687499,1.0329200295067078,-0.0341796875,-0.00390625,-0.10205078125,44.34176470588236,306.3667315975266
0.63673779296875,-0.54577099609375,0.5983979492187499,1.0302335185777467,-0.03857421875,-0.00390625,-0.08349609375,44.34176470588236,306.3667315975266
0.61183544921875,-0.54284130859375,0.5930268554687499,1.0102970625235124,-0.03076171875,0.083984375,-0.00439453125,44.29470588235294,306.54317823657806
0.59669873046875,-0.53600537109375,0.5876557617187499,0.9943291341731926,0.00146484375,0.193359375,0.005859375,44.29470588235294,306.54317823657806
0.66554638671875,-0.53942333984375,0.5861909179687499,1.038050733226279,-0.0244140625,-0.060546875,0.00439453125,44.20058823529412,306.54317823657806
0.63527294921875,-0.54577099609375,0.6135346679687499,1.038201564719384,0.044921875,-0.21142578125,-0.15625,44.059411764705885,306.54317823657806
0.71290966796875,-0.54137646484375,0.5983979492187499,1.0767584580579042,0.06298828125,-0.18115234375,-0.3916015625,44.34176470588236,306.38717810380723
0.56496044921875,-0.52721630859375,0.5847260742187499,0.9690417571497852,0.05908203125,0.10595703125,-0.12353515625,44.15352941176471,306.38717810380723
0.60402294921875,-0.53112255859375,0.5734956054687499,0.9878421457510588,-0.04931640625,0.05419921875,-0.0439453125,44.48294117647059,306.38717810380723
0.62306591796875,-0.53942333984375,0.5817963867187499,1.0087991441815465,-0.07275390625,-0.17138671875,0.01708984375,44.48294117647059,306.38717810380723
0.59523388671875,-0.53893505859375,0.5925385742187499,0.997926018909692,-0.01513671875,-0.16015625,0.1337890625,44.34176470588236,306.38717810380723
0.63820263671875,-0.52379833984375,0.5969331054687499,1.0188211024229912,0.0185546875,-0.12255859375,-0.08935546875,44.20058823529412,306.4207736218433
0.64455029296875,-0.53405224609375,0.5944916992187499,1.0266826491978314,0.0263671875,-0.21240234375,-0.2060546875,44.15352941176471,306.4207736218433
0.62550732421875,-0.53991162109375,0.6047456054687499,1.023953718962506,0.03515625,-0.2431640625,-0.1240234375,44.388823529411766,306.4207736218433
0.62160107421875,-0.53649365234375,0.6096284179687499,1.0226730379110038,0.00537109375,-0.16357421875,-0.0322265625,44.29470588235294,306.4207736218433
0.63136669921875,-0.53405224609375,0.6125581054687499,1.0291079355517685,-0.001953125,-0.0712890625,-0.0078125,44.29470588235294,306.55398665020044
0.63576123046875,-0.53307568359375,0.5959565429687499,1.0215313150918803,0.00537109375,-0.060546875,0.00244140625,44.15352941176471,306.55398665020044
0.64064404296875,-0.53795849609375,0.5979096679687499,1.0282607180872445,0.01025390625,-0.10546875,0.0029296875,44.34176470588236,306.55398665020044
0.63624951171875,-0.54284130859375,0.5998627929687499,1.0292353947792467,0.01953125,-0.123046875,-0.013671875,44.388823529411766,306.55398665020044
0.63624951171875,-0.53551708984375,0.5891206054687499,1.019144289325576,0.013671875,-0.08935546875,-0.0185546875,44.29470588235294,306.55398665020044
0.63429638671875,-0.53209912109375,0.5876557617187499,1.0152835442153327,0.12353515625,-0.1474609375,-0.05322265625,44.34176470588236,306.310348993494
0.62501904296875,-0.52868115234375,0.5925385742187499,1.010571386322746,-0.02587890625,-0.15234375,-0.041015625,44.29470588235294,306.310348993494
0.61818310546875,-0.52379833984375,0.5944916992187499,1.0049554383902068,-0.03271484375,-0.1767578125,0.01416015625,44.15352941176471,306.310348993494
0.61867138671875,-0.52575146484375,0.5974213867187499,1.0080085321259955,-0.06396484375,-0.15771484375,0.01806640625,44.20058823529412,306.310348993494
0.62062451171875,-0.52721630859375,0.5915620117187499,1.0065174783887718,-0.0712890625,-0.142578125,0.064453125,44.48294117647059,306.38717810380723
0.62843701171875,-0.52965771484375,0.5886323242187499,1.0109195743018644,-0.0888671875,-0.19921875,0.06396484375,44.29470588235294,306.38717810380723
0.64015576171875,-0.52819287109375,0.5847260742187499,1.0152298706240093,-0.07666015625,-0.2080078125,-0.03857421875,44.53,306.38717810380723
0.62941357421875,-0.53258740234375,0.5910737304687499,1.0144845703096377,-0.08447265625,-0.21435546875,0.0146484375,44.71823529411765,306.38717810380723
0.63429638671875,-0.53502880859375,0.5930268554687499,1.0199355781307284,-0.0966796875,-0.20166015625,0.02587890625,44.059411764705885,306.38717810380723
0.62208935546875,-0.53698193359375,0.5852143554687499,1.0088709555935842,-0.119140625,-0.21435546875,0.03369140625,44.059411764705885,306.43158206750905
0.61525341796875,-0.53795849609375,0.5842377929687499,1.0046242633814269,-0.12451171875,-0.220703125,0.0859375,44.34176470588236,306.43158206750905
0.62404248046875,-0.53502880859375,0.5783784179687499,1.0050902635220738,-0.14794921875,-0.26171875,0.08740234375,44.53,306.43158206750905
0.62550732421875,-0.53551708984375,0.5769135742187499,1.0054189367044328,-0.14501953125,-0.30126953125,0.08740234375,44.388823529411766,306.43158206750905
0.62160107421875,-0.53844677734375,0.5783784179687499,1.0054026168027452,-0.142578125,-0.31494140625,0.0966796875,44.15352941176471,306.1663302896374
0.61964794921875,-0.52819287109375,0.5803315429687499,0.9998679861910528,-0.16943359375,-0.34228515625,0.1083984375,44.48294117647059,306.1663302896374
0.62501904296875,-0.52770458984375,0.5783784179687499,1.0018196108021475,-0.19091796875,-0.39501953125,0.119140625,43.58882352941177,306.1663302896374
0.63185498046875,-0.53112255859375,0.5866791992187499,1.0126817720223316,-0.20654296875,-0.40087890625,0.10693359375,44.34176470588236,306.1663302896374
0.63478466796875,-0.53161083984375,0.5881440429687499,1.015615613806326,-0.23095703125,-0.384765625,0.2490234375,44.29470588235294,306.1663302896374
0.63624951171875,-0.53356396484375,0.5871674804687499,1.016990460064474,-0.26708984375,-0.35791015625,0.1396484375,44.48294117647059,306.4771569024401
0.61720654296875,-0.53209912109375,0.5744721679687499,0.997041455067387,-0.298828125,-0.345703125,0.1845703125,44.34176470588236,306.4771569024401
0.61183544921875,-0.53649365234375,0.5642182617187499,0.9902072019445092,-0.3291015625,-0.39404296875,0.22314453125,44.48294117647059,306.4771569024401
0.61525341796875,-0.53014599609375,0.5617768554687499,0.9875144458876642,-0.34765625,-0.4541015625,0.25439453125,44.29470588235294,306.4771569024401
0.60890576171875,-0.52428662109375,0.5764252929687499,0.9888927171772992,-0.369140625,-0.4462890625,0.2802734375,44.388823529411766,306.61037110495226
0.59816357421875,-0.52379833984375,0.5725190429687499,0.9797665114235492,-0.4267578125,-0.3173828125,0.3076171875,44.53,306.61037110495226
0.59132763671875,-0.52428662109375,0.5588471679687499,0.9679126986210976,-0.4775390625,-0.232421875,0.4150390625,44.29470588235294,306.61037110495226
0.61915966796875,-0.53844677734375,0.5329682617187499,0.9784369138940684,-0.646484375,-0.38671875,0.5791015625,44.29470588235294,306.61037110495226
0.62306591796875,-0.52965771484375,0.5246674804687499,0.971609179706105,-0.68017578125,-0.74462890625,0.38427734375,44.15352941176471,306.61037110495226
0.57619091796875,-0.52184521484375,0.5070893554687499,0.9281476265307704,-0.80517578125,-0.74853515625,0.4111328125,44.29470588235294,306.77718431638016
0.50099560546875,-0.50719677734375,0.4987885742187499,0.8700777030921194,-0.93505859375,-0.576171875,0.69482421875,44.71823529411765,306.77718431638016
0.56642529296875,-0.51110302734375,0.4875581054687499,0.9054152767006736,-1.1640625,-0.6796875,0.75390625,44.34176470588236,306.77718431638016
0.54982373046875,-0.50329052734375,0.4899995117187499,0.8920241089707923,-1.265625,-0.94384765625,0.76513671875,44.20058823529412,306.77718431638016
0.69435498046875,-0.46813427734375,0.7141206054687499,1.100566572125906,-1.12060546875,-1.3330078125,-0.23779296875,44.388823529411766,306.4651777781591
0.89259716796875,-0.74498974609375,0.8073823242187499,1.4154877758255398,-1.08642578125,1.19287109375,-2.40673828125,44.48294117647059,306.4651777781591
0.74806591796875,-0.56188427734375,0.5798432617187499,1.1006974002482133,-0.73876953125,0.8974609375,-1.37255859375,44.388823529411766,306.4651777781591
0.68605419921875,-0.58776318359375,0.6130463867187499,1.0917700291374808,-0.55078125,0.5537109375,-0.84375,44.388823529411766,306.4651777781591
0.66164013671875,-0.58581005859375,0.6120698242187499,1.0749746810906713,-0.85107421875,0.46533203125,-0.9677734375,44.15352941176471,306.4651777781591
0.67872998046875,-0.55944287109375,0.5983979492187499,1.0638283780920368,-0.87890625,-0.01953125,-0.7900390625,44.15352941176471,306.55515781763586
0.66310498046875,-0.59508740234375,0.6213471679687499,1.0862364082894107,-0.87255859375,-0.24462890625,-0.3359375,44.29470588235294,306.55515781763586
0.70949169921875,-0.59557568359375,0.7253510742187499,1.1765300875960487,-0.966796875,-0.4306640625,-0.03369140625,44.34176470588236,306.55515781763586
0.68556591796875,-0.56774365234375,0.5739838867187499,1.059146347239001,-1.03955078125,-0.486328125,0.24169921875,44.76529411764706,306.55515781763586
0.66896435546875,-0.57946240234375,0.5686127929687499,1.0519555565447776,-0.96875,-0.59228515625,0.4111328125,44.15352941176471,306.4339234681609
0.66017529296875,-0.57750927734375,0.5534760742187499,1.037151940458617,-0.89404296875,-0.6650390625,0.51123046875,44.34176470588236,306.4339234681609
0.67335888671875,-0.57457958984375,0.5578706054687499,1.0463142490830353,-0.791015625,-0.689453125,0.5888671875,44.15352941176471,306.4339234681609
0.64845654296875,-0.57555615234375,0.5422456054687499,1.0226392664424222,-0.73046875,-0.75,0.61962890625,44.059411764705885,306.4339234681609
0.64552685546875,-0.57409130859375,0.5378510742187499,1.017629367585527,-0.75,-0.5595703125,0.56640625,44.34176470588236,306.4339234681609
0.63917919921875,-0.57506787109375,0.5334565429687499,1.011844349845563,-0.52783203125,-0.46630859375,0.4580078125,44.29470588235294,306.37988198129
0.63380810546875,-0.58532177734375,0.5266206054687499,1.010763849618201,-0.41796875,-0.35107421875,0.3134765625,44.29470588235294,306.37988198129
0.64796826171875,-0.57262646484375,0.5241791992187499,1.0112011517635249,-0.30615234375,-0.18603515625,0.2509765625,44.15352941176471,306.37988198129
0.64552685546875,-0.58141552734375,0.5334565429687499,1.0194728146468417,-0.21240234375,-0.06103515625,0.19140625,44.20058823529412,306.37988198129
0.64650341796875,-0.58239208984375,0.5358979492187499,1.0219265275618932,-0.10888671875,0.02783203125,0.0869140625,44.34176470588236,306.4435609399299
0.64455029296875,-0.57995068359375,0.5349213867187499,1.01878789035602,-0.046875,0.01318359375,0.05615234375,44.29470588235294,306.4435609399299
0.64259716796875,-0.58092724609375,0.5378510742187499,1.0196525700324546,-0.00244140625,0.005859375,0.03369140625,44.29470588235294,306.4435609399299
0.64552685546875,-0.57848583984375,0.5422456054687499,1.022438792633218,0.02197265625,-0.02294921875,0.0166015625,44.34176470588236,306.4435609399299
0.64601513671875,-0.58043896484375,0.5456635742187499,1.0256674339218392,0.01953125,-0.04296875,0.044921875,44.15352941176471,306.4435609399299
0.64650341796875,-0.57604443359375,0.5412690429687499,1.0211591628125003,0.0302734375,-0.03955078125,0.0439453125,44.059411764705885,306.38717810380723
0.64845654296875,-0.57555615234375,0.5368745117187499,1.0198014581049442,0.02392578125,-0.05224609375,0.044921875,44.29470588235294,306.38717810380723
0.64796826171875,-0.57457958984375,0.5354096679687499,1.0181689868652637,0.02978515625,-0.0166015625,0.03173828125,44.15352941176471,306.38717810380723
0.64747998046875,-0.58288037109375,0.5290620117187499,1.0192578007344812,0.05419921875,0.041015625,0.00146484375,44.15352941176471,306.38717810380723
0.64650341796875,-0.58043896484375,0.5315034179687499,1.0185145775425228,0.1083984375,0.09228515625,-0.0146484375,44.29470588235294,306.41113578457714
0.64699169921875,-0.57848583984375,0.5300385742187499,1.016948875763939,0.1875,0.15966796875,-0.04345703125,44.29470588235294,306.41113578457714
0.64455029296875,-0.57946240234375,0.5349213867187499,1.0185100126484774,0.1923828125,0.205078125,-0.08349609375,44.388823529411766,306.41113578457714
0.64357373046875,-0.57750927734375,0.5407807617187499,1.0198764357571335,0.23388671875,0.23193359375,-0.09912109375,44.34176470588236,306.41113578457714
0.64601513671875,-0.57506787109375,0.5373627929687499,1.018232480576621,0.2626953125,0.24072265625,-0.11474609375,44.48294117647059,306.41113578457714
0.63917919921875,-0.57506787109375,0.5481049804687499,1.019643160469813,0.1259765625,0.18994140625,-0.09326171875,44.34176470588236,306.58875439749846
0.64015576171875,-0.57702099609375,0.5500581054687499,1.022407232264427,0.2373046875,0.14794921875,-0.09228515625,44.29470588235294,306.58875439749846
0.64210888671875,-0.56334912109375,0.5549409179687499,1.018639031785201,0.1923828125,0.08154296875,-0.0517578125,44.15352941176471,306.58875439749846
0.64650341796875,-0.58727490234375,0.5544526367187499,1.0345415442274473,0.11376953125,0.04833984375,0.1220703125,44.388823529411766,306.58875439749846
0.65724560546875,-0.57360302734375,0.5515229492187499,1.0320706285913026,0.10009765625,-0.037109375,-0.01318359375,44.34176470588236,306.3787107516225
0.62111279296875,-0.54723583984375,0.5251557617187499,0.980324813551782,0.06494140625,0.0078125,0.111328125,44.29470588235294,306.3787107516225
0.63869091796875,-0.56823193359375,0.5481049804687499,1.0154962770321243,0.0048828125,-0.05859375,0.0693359375,44.29470588235294,306.3787107516225
0.64357373046875,-0.56872021484375,0.5456635742187499,1.017535535276565,-0.0283203125,0.01611328125,0.10693359375,44.059411764705885,306.3787107516225
0.63136669921875,-0.56920849609375,0.5456635742187499,1.0101341282903322,-0.02392578125,0.02392578125,0.01416015625,43.73,306.3787107516225
0.63771435546875,-0.56725537109375,0.5363862304687499,1.0080518059316723,-0.01416015625,-0.02490234375,-0.0029296875,44.388823529411766,306.5899262897844
0.63331982421875,-0.57409130859375,0.5398041992187499,1.010971514853682,-0.03466796875,-0.06591796875,-0.033203125,44.20058823529412,306.5899262897844
0.64308544921875,-0.57457958984375,0.5495698242187499,1.0226082298484211,-0.04833984375,-0.09619140625,-0.013671875,44.29470588235294,306.5899262897844
0.64845654296875,-0.57311474609375,0.5441987304687499,1.0223055602670297,-0.07421875,-0.08935546875,0.08154296875,44.29470588235294,306.5899262897844
0.65333935546875,-0.57604443359375,0.5471284179687499,1.028605370697457,-0.10693359375,-0.07763671875,0.12109375,44.29470588235294,306.4783280404492
0.64308544921875,-0.57848583984375,0.5402924804687499,1.0198630919626834,-0.1201171875,-0.0595703125,0.00048828125,44.29470588235294,306.4783280404492
0.64357373046875,-0.57750927734375,0.5481049804687499,1.0237788733814603,-0.095703125,-0.0537109375,0.14306640625,44.29470588235294,306.4783280404492
0.64943310546875,-0.57848583984375,0.5451752929687499,1.0264625299747066,-0.08544921875,-0.05517578125,0.1376953125,44.34176470588236,306.4783280404492
0.64210888671875,-0.57262646484375,0.5466401367187499,1.0193234666750963,-0.06201171875,-0.0087890625,0.142578125,44.34176470588236,306.4783280404492
0.64015576171875,-0.57995068359375,0.5402924804687499,1.0188513920654203,-0.07763671875,0.025390625,0.14013671875,44.29470588235294,306.8671693194295
0.63917919921875,-0.57555615234375,0.5451752929687499,1.0183472066433072,-0.05517578125,0.01123046875,0.146484375,44.15352941176471,306.8671693194295
0.64357373046875,-0.58092724609375,0.5422456054687499,1.0225917604076922,-0.03369140625,0.02880859375,0.1298828125,44.29470588235294,306.8671693194295
0.64064404296875,-0.57457958984375,0.5402924804687499,1.016111440397869,-0.01513671875,0.01953125,0.10205078125,44.15352941176471,306.8671693194295
0.64308544921875,-0.58190380859375,0.5520112304687499,1.0280502594797671,0.0078125,0.0380859375,0.091796875,44.15352941176471,306.4339234681609
0.64357373046875,-0.57995068359375,0.5490815429687499,1.0256804974158689,-0.0048828125,0.015625,0.08154296875,44.29470588235294,306.4339234681609
0.64357373046875,-0.57897412109375,0.5437104492187499,1.0222618216657602,0.01611328125,0.04296875,0.0517578125,44.29470588235294,306.4339234681609
0.64210888671875,-0.56969677734375,0.5432221679687499,1.0158486916326248,0.04345703125,0.0830078125,0.0888671875,44.059411764705885,306.4339234681609
0.63966748046875,-0.57311474609375,0.5466401367187499,1.0180620987107003,0.04345703125,0.10595703125,0.1259765625,44.76529411764706,306.4339234681609
0.64113232421875,-0.57897412109375,0.5441987304687499,1.0209867522638163,0.05078125,0.134765625,0.12109375,44.20058823529412,306.3126899131915
0.64015576171875,-0.57848583984375,0.5422456054687499,1.019056211801691,0.0732421875,0.14599609375,0.1044921875,44.20058823529412,306.3126899131915
0.63820263671875,-0.57555615234375,0.5510346679687499,1.0208852508087956,0.07958984375,0.14501953125,0.08349609375,44.53,306.3126899131915
0.63527294921875,-0.57311474609375,0.5446870117187499,1.014256463097127,0.08935546875,0.1337890625,0.07421875,44.29470588235294,306.3126899131915
0.64162060546875,-0.57262646484375,0.5427338867187499,1.0169258288559575,0.0927734375,0.107421875,0.04638671875,44.15352941176471,306.53354112508214
0.63722607421875,-0.57897412109375,0.5510346679687499,1.0222070768019318,0.068359375,0.11865234375,0.05126953125,44.29470588235294,306.53354112508214
0.63136669921875,-0.57360302734375,0.5466401367187499,1.0131435144796554,0.05322265625,0.09765625,0.0654296875,44.48294117647059,306.53354112508214
0.63624951171875,-0.57555615234375,0.5437104492187499,1.015726035037374,0.02490234375,0.0947265625,0.099609375,44.20058823529412,306.53354112508214
0.64064404296875,-0.58336865234375,0.5485932617187499,1.0255234473828112,0.0078125,0.10400390625,0.08349609375,44.29470588235294,306.53354112508214
0.64064404296875,-0.57506787109375,0.5539643554687499,1.0237208375751423,-0.013671875,0.11181640625,0.12109375,44.20058823529412,306.4903079031722
0.63283154296875,-0.57702099609375,0.5393159179687499,1.012072453475396,-0.0126953125,0.13671875,0.13720703125,44.20058823529412,306.4903079031722
0.63576123046875,-0.57506787109375,0.5427338867187499,1.0146208505270713,-0.0185546875,0.12353515625,0.1259765625,44.29470588235294,306.4903079031722
0.63429638671875,-0.57702099609375,0.5510346679687499,1.0192763812827783,-0.02880859375,0.11865234375,0.10302734375,44.29470588235294,306.4903079031722
0.62892529296875,-0.57067333984375,0.5515229492187499,1.012616733250639,-0.04296875,0.04296875,0.1259765625,44.059411764705885,306.5239046015173
0.63576123046875,-0.57360302734375,0.5373627929687499,1.0109260835551872,-0.07763671875,0.02685546875,0.13525390625,44.29470588235294,306.5239046015173
0.62550732421875,-0.57555615234375,0.5417573242187499,1.0079808011548148,-0.072265625,0.029296875,0.1083984375,43.30647058823529,306.5239046015173
0.62697216796875,-0.57702099609375,0.5407807617187499,1.0092032310617962,-0.05810546875,0.01171875,0.056640625,44.34176470588236,306.5239046015173
0.64406201171875,-0.58385693359375,0.5568940429687499,1.032393223989183,-0.09228515625,0.03515625,0.11962890625,44.29470588235294,306.5239046015173
0.62453076171875,-0.59118115234375,0.5451752929687499,1.018209176585562,-0.06689453125,-0.02392578125,0.02587890625,44.29470588235294,306.54552114577854
0.64503857421875,-0.57799755859375,0.5471284179687499,1.0244537303946335,-0.0595703125,0.15771484375,0.13671875,44.48294117647059,306.54552114577854
0.60988232421875,-0.57702099609375,0.5471284179687499,1.0021273297722575,-0.06201171875,0.06640625,0.02392578125,44.059411764705885,306.54552114577854
0.63966748046875,-0.58532177734375,0.5539643554687499,1.0289084389448813,-0.0830078125,0.03857421875,0.02001953125,44.76529411764706,306.54552114577854
0.63087841796875,-0.58190380859375,0.5422456054687499,1.0152092973199347,-0.06298828125,0.041015625,0.0478515625,44.29470588235294,306.3570941309768
0.62990185546875,-0.57897412109375,0.5398041992187499,1.0116204594181804,-0.05419921875,0.0146484375,-0.0576171875,44.20058823529412,306.3570941309768
0.63820263671875,-0.58581005859375,0.5485932617187499,1.0253928988771055,-0.03173828125,-0.005859375,-0.06787109375,44.48294117647059,306.3570941309768
0.63185498046875,-0.58043896484375,0.5466401367187499,1.0173325647613676,0.00732421875,-0.00439453125,-0.06494140625,44.15352941176471,306.3570941309768
0.64259716796875,-0.58239208984375,0.5515229492187499,1.0277593249924697,-0.00244140625,0.05517578125,-0.04736328125,44.48294117647059,306.3570941309768
0.62697216796875,-0.56920849609375,0.5407807617187499,1.0047568082266745,-0.03369140625,0.02783203125,0.03271484375,44.29470588235294,306.45554015810256
0.63283154296875,-0.58239208984375,0.5510346679687499,1.021418383128192,-0.00537109375,0.08154296875,-0.0234375,44.20058823529412,306.45554015810256
0.62062451171875,-0.58336865234375,0.5490815429687499,1.0134023435499069,0.0048828125,0.0234375,-0.0615234375,44.15352941176471,306.45554015810256
0.62501904296875,-0.58141552734375,0.5402924804687499,1.0102518418498714,0.0107421875,0.0556640625,-0.06005859375,44.059411764705885,306.45554015810256
0.63429638671875,-0.58092724609375,0.5466401367187499,1.0191289469593257,0.02392578125,0.08984375,-0.1064453125,44.53,306.469863478845
0.62941357421875,-0.57360302734375,0.5451752929687499,1.011136974129766,0.0244140625,0.13427734375,-0.10302734375,44.34176470588236,306.469863478845
0.62453076171875,-0.57116162109375,0.5378510742187499,1.0027701869230583,0.02392578125,0.1669921875,-0.10888671875,44.20058823529412,306.469863478845
0.62648388671875,-0.58092724609375,0.5466401367187499,1.0142849523897086,0.013671875,0.20556640625,-0.201171875,44.15352941176471,306.469863478845
0.62208935546875,-0.57506787109375,0.5437104492187499,1.006637608646467,0.017578125,0.23291015625,-0.26708984375,44.53,306.469863478845
0.62794873046875,-0.57262646484375,0.5412690429687499,1.0075677908771556,0.0390625,0.29638671875,-0.3017578125,44.29470588235294,306.5142686658835
0.62843701171875,-0.57653271484375,0.5539643554687499,1.0169560246701943,0.02099609375,0.318359375,-0.3486328125,44.29470588235294,306.5142686658835
0.62697216796875,-0.57506787109375,0.5485932617187499,1.0123002136594406,0.02587890625,0.30712890625,-0.39599609375,44.29470588235294,306.5142686658835
0.63429638671875,-0.57897412109375,0.5583588867187499,1.024357157186176,0.02099609375,0.287109375,-0.37890625,44.48294117647059,306.5142686658835
0.63234326171875,-0.57067333984375,0.5593354492187499,1.0190104053454354,-0.0234375,0.2900390625,-0.2978515625,44.34176470588236,306.3906902514653
0.63722607421875,-0.57555615234375,0.5617768554687499,1.0261165574657387,-0.05712890625,0.28515625,-0.22802734375,44.34176470588236,306.3906902514653
0.64064404296875,-0.57555615234375,0.5583588867187499,1.0263792284871558,-0.1025390625,0.2421875,-0.16357421875,44.48294117647059,306.3906902514653
0.63283154296875,-0.57848583984375,0.5603120117187499,1.0242417581568573,-0.14013671875,0.25634765625,-0.0927734375,44.388823529411766,306.3906902514653
0.63136669921875,-0.57409130859375,0.5529877929687499,1.0168580228614577,-0.14453125,0.18603515625,-0.09033203125,44.71823529411765,306.3906902514653
0.62794873046875,-0.58922802734375,0.5681245117187499,1.0316369211696477,-0.1474609375,0.158203125,-0.04833984375,44.34176470588236,306.3906902514653
0.63771435546875,-0.56774365234375,0.5500581054687499,1.015665482991036,-0.1552734375,0.04052734375,-0.0771484375,44.48294117647059,306.3906902514653
0.63380810546875,-0.57897412109375,0.5588471679687499,1.0243211921076605,-0.11376953125,0.06005859375,0.00341796875,44.388823529411766,306.3906902514653
0.63527294921875,-0.57067333984375,0.5515229492187499,1.016571367063059,-0.126953125,0.03759765625,0.03125,44.34176470588236,306.3906902514653
0.63722607421875,-0.58190380859375,0.5554291992187499,1.0262410571912104,-0.1015625,0.02392578125,0.03515625,44.15352941176471,306.4806716761825
0.63429638671875,-0.57702099609375,0.5524995117187499,1.020069040108042,-0.07958984375,0.06591796875,0.03125,44.20058823529412,306.4806716761825
0.63673779296875,-0.57311474609375,0.5505463867187499,1.018330424328906,-0.08251953125,0.041015625,0.04736328125,44.48294117647059,306.4806716761825
0.62892529296875,-0.57653271484375,0.5476166992187499,1.013815093931912,-0.044921875,0.017578125,0.0517578125,44.29470588235294,306.4806716761825
0.63283154296875,-0.58581005859375,0.5510346679687499,1.023371091945269,-0.03076171875,0.0078125,0.0,44.20058823529412,306.4806716761825
0.63039013671875,-0.57555615234375,0.5495698242187499,1.015225886522233,-0.03466796875,-0.01953125,0.025390625,44.15352941176471,306.401498535237
0.62599560546875,-0.57311474609375,0.5520112304687499,1.0124462498423874,-0.01708984375,-0.0048828125,0.04443359375,44.059411764705885,306.401498535237
0.62990185546875,-0.57409130859375,0.5505463867187499,1.014622344547433,-0.02099609375,-0.00341796875,0.02587890625,44.388823529411766,306.401498535237
0.62111279296875,-0.57946240234375,0.5568940429687499,1.0157208043618635,-0.0126953125,0.00732421875,-0.00439453125,44.29470588235294,306.401498535237
0.62550732421875,-0.57409130859375,0.5495698242187499,1.011368990500506,0.01513671875,-0.00341796875,-0.068359375,44.15352941176471,306.4675197220221
0.64455029296875,-0.58581005859375,0.5627534179687499,1.0369715108676925,0.0126953125,-0.017578125,-0.01220703125,44.29470588235294,306.4675197220221
0.62794873046875,-0.58727490234375,0.5559174804687499,1.023843574043857,0.01708984375,-0.0146484375,-0.05908203125,44.71823529411765,306.4675197220221
0.65480419921875,-0.58678662109375,0.5681245117187499,1.0468297563714917,0.00830078125,0.0126953125,-0.02783203125,44.34176470588236,306.4675197220221
0.60304638671875,-0.55651318359375,0.5383393554687499,0.981417917960896,0.0390625,0.013671875,0.0751953125,44.48294117647059,306.4675197220221
0.62892529296875,-0.57457958984375,0.5573823242187499,1.0180195403587966,-0.00634765625,-0.0751953125,-0.005859375,44.059411764705885,306.5119244869293
0.63331982421875,-0.58141552734375,0.5515229492187499,1.021428205357492,-0.021484375,-0.05419921875,0.02099609375,44.48294117647059,306.5119244869293
0.62062451171875,-0.57116162109375,0.5583588867187499,1.01151620270482,0.00927734375,-0.01513671875,0.0009765625,44.388823529411766,306.5119244869293
0.62990185546875,-0.58043896484375,0.5500581054687499,1.017963485997277,0.052734375,-0.05078125,-0.05810546875,44.29470588235294,306.5119244869293
0.63087841796875,-0.57750927734375,0.5534760742187499,1.0187542924618538,0.07666015625,-0.0625,-0.05712890625,44.29470588235294,306.5802904230776
0.62990185546875,-0.57604443359375,0.5559174804687499,1.0186499801639626,0.05029296875,-0.03759765625,-0.0166015625,44.76529411764706,306.5802904230776
0.62843701171875,-0.57262646484375,0.5608002929687499,1.0184945333831097,0.05078125,-0.05908203125,-0.01416015625,44.34176470588236,306.5802904230776
0.62746044921875,-0.57262646484375,0.5617768554687499,1.018430615659998,0.00927734375,-0.07080078125,-0.00537109375,44.29470588235294,306.5802904230776
0.62697216796875,-0.58239208984375,0.5554291992187499,1.0201844152234374,0.0009765625,-0.111328125,-0.01953125,44.76529411764706,306.5802904230776
0.62843701171875,-0.57702099609375,0.5549409179687499,1.0177650662441773,-0.125,-0.10302734375,-0.017578125,44.34176470588236,306.6907181184535
0.63087841796875,-0.57653271484375,0.5554291992187499,1.019264021188151,-0.009765625,-0.1005859375,0.01220703125,44.388823529411766,306.6907181184535
0.63283154296875,-0.58043896484375,0.5529877929687499,1.0213621555831909,-0.01953125,-0.07177734375,0.01708984375,44.29470588235294,306.6907181184535
0.62453076171875,-0.57409130859375,0.5539643554687499,1.0131613938883548,-0.03466796875,-0.0966796875,0.04638671875,44.15352941176471,306.6907181184535
0.63185498046875,-0.57506787109375,0.5515229492187499,1.0169175660900005,-0.02099609375,-0.0849609375,0.00439453125,43.447647058823534,306.51309634978395
0.62843701171875,-0.57848583984375,0.5520112304687499,1.0170031185602846,-0.02490234375,-0.07763671875,-0.03076171875,44.15352941176471,306.51309634978395
0.63283154296875,-0.57848583984375,0.5495698242187499,1.018404939288771,-0.03857421875,-0.0927734375,-0.01025390625,44.29470588235294,306.51309634978395
0.63136669921875,-0.57750927734375,0.5490815429687499,1.016676652200405,-0.04052734375,-0.07275390625,-0.03271484375,44.48294117647059,306.51309634978395
0.63039013671875,-0.57848583984375,0.5476166992187499,1.0158354397417193,-0.02197265625,-0.056640625,-0.05908203125,44.29470588235294,306.51309634978395
0.62941357421875,-0.57653271484375,0.5485932617187499,1.0146457438432113,-0.0087890625,-0.0498046875,-0.06982421875,43.54176470588236,306.31503264582426
0.62453076171875,-0.57750927734375,0.5515229492187499,1.0137717698111597,-0.00341796875,-0.017578125,-0.0146484375,44.059411764705885,306.31503264582426
0.63331982421875,-0.57604443359375,0.5510346679687499,1.0181161007106423,-0.01025390625,-0.0400390625,-0.03857421875,44.29470588235294,306.31503264582426
0.63527294921875,-0.57409130859375,0.5573823242187499,1.0216788174193827,0.001953125,-0.02978515625,-0.0341796875,44.48294117647059,306.31503264582426
0.62697216796875,-0.57799755859375,0.5539643554687499,1.0168833680799767,0.0087890625,-0.044921875,-0.05224609375,44.15352941176471,306.4026700970549
0.62746044921875,-0.58336865234375,0.5529877929687499,1.0197161855357637,0.01318359375,-0.06005859375,-0.07275390625,44.29470588235294,306.4026700970549
0.63576123046875,-0.58239208984375,0.5539643554687499,1.024816761967532,0.04541015625,-0.04296875,-0.0966796875,44.29470588235294,306.4026700970549
0.62941357421875,-0.58092724609375,0.5588471679687499,1.0227160259874597,0.0419921875,-0.0576171875,-0.10302734375,44.34176470588236,306.4026700970549
0.63429638671875,-0.57848583984375,0.5598237304687499,1.0248806673462711,0.03564453125,-0.07177734375,-0.07470703125,44.34176470588236,306.4026700970549
0.63136669921875,-0.57555615234375,0.5549409179687499,1.0187483574559129,0.0205078125,-0.0478515625,-0.08251953125,44.29470588235294,306.3354775647418
0.63136669921875,-0.57360302734375,0.5544526367187499,1.0173800018796657,0.03076171875,-0.0576171875,-0.0673828125,44.388823529411766,306.3354775647418
0.63185498046875,-0.56969677734375,0.5529877929687499,1.0146874561319204,0.01904296875,-0.05029296875,-0.076171875,44.48294117647059,306.3354775647418
0.63527294921875,-0.57457958984375,0.5617768554687499,1.0243567056521166,0.025390625,-0.05224609375,-0.06005859375,44.29470588235294,306.3354775647418
0.62941357421875,-0.57213818359375,0.5549409179687499,1.015609654824518,0.0185546875,-0.01806640625,-0.0537109375,44.15352941176471,306.4806716761825
0.63185498046875,-0.57653271484375,0.5471284179687499,1.01537194829149,-0.00244140625,-0.01611328125,-0.04638671875,44.48294117647059,306.4806716761825
0.63136669921875,-0.57164990234375,0.5520112304687499,1.0149502048354992,-0.00732421875,0.00390625,-0.03564453125,44.15352941176471,306.4806716761825
0.63478466796875,-0.57506787109375,0.5500581054687499,1.0179482061698248,-0.01123046875,-0.01171875,-0.0556640625,43.54176470588236,306.4806716761825
0.63331982421875,-0.57604443359375,0.5544526367187499,1.0199700562208611,-0.0224609375,0.0146484375,-0.052734375,44.29470588235294,306.4806716761825
0.62160107421875,-0.57360302734375,0.5485932617187499,1.0081482506313422,-0.03515625,0.03271484375,-0.05859375,44.57705882352941,306.31503264582426
0.62990185546875,-0.56823193359375,0.5510346679687499,1.0115844419434774,-0.03955078125,0.009765625,-0.0673828125,44.29470588235294,306.31503264582426
0.62990185546875,-0.57604443359375,0.5524995117187499,1.0167886936068748,-0.02734375,0.02001953125,-0.08447265625,44.29470588235294,306.31503264582426
0.63576123046875,-0.57311474609375,0.5485932617187499,1.0166648519352184,-0.0341796875,-0.00048828125,-0.11669921875,44.48294117647059,306.31503264582426
0.63478466796875,-0.58141552734375,0.5632416992187499,1.0287063730061323,-0.04931640625,0.02001953125,-0.08837890625,44.059411764705885,306.5683097578161
0.63869091796875,-0.58629833984375,0.5603120117187499,1.032289388919413,-0.03076171875,-0.08984375,-0.1865234375,44.29470588235294,306.5683097578161
0.62306591796875,-0.55797802734375,0.5393159179687499,0.995194592281901,-0.02685546875,0.001953125,-0.080078125,44.29470588235294,306.5683097578161
0.62843701171875,-0.57360302734375,0.5578706054687499,1.0174345792835904,-0.021484375,-0.04345703125,-0.24951171875,44.29470588235294,306.5683097578161
0.63771435546875,-0.57946240234375,0.5598237304687499,1.0275499423857026,-0.0380859375,-0.0458984375,-0.10400390625,44.20058823529412,306.5683097578161
0.63136669921875,-0.57360302734375,0.5495698242187499,1.0147272212531415,-0.02978515625,-0.02880859375,-0.134765625,44.20058823529412,306.4242865843131
0.63185498046875,-0.57360302734375,0.5544526367187499,1.0176830919718836,-0.01123046875,-0.03369140625,-0.16650390625,44.48294117647059,306.4242865843131
0.63917919921875,-0.57897412109375,0.5520112304687499,1.0239518934861276,0.01513671875,-0.03466796875,-0.17333984375,44.48294117647059,306.4242865843131
0.63722607421875,-0.57604443359375,0.5583588867187499,1.0245237457064555,-0.0087890625,-0.052734375,-0.119140625,43.58882352941177,306.4242865843131
0.63771435546875,-0.57702099609375,0.5549409179687499,1.0235195413571474,-0.01123046875,-0.06201171875,-0.07958984375,44.388823529411766,306.4590552951089
0.63624951171875,-0.56969677734375,0.5471284179687499,1.014257050765332,-0.0234375,-0.0517578125,-0.02685546875,44.20058823529412,306.4590552951089
0.63429638671875,-0.57409130859375,0.5529877929687499,1.0186796532668134,-0.02783203125,-0.05908203125,-0.00048828125,44.34176470588236,306.4590552951089
0.63771435546875,-0.57604443359375,0.5593354492187499,1.0253599043253097,-0.03173828125,-0.0673828125,-0.00341796875,44.34176470588236,306.4590552951089
0.63820263671875,-0.57702099609375,0.5490815429687499,1.0206597749871067,0.0048828125,-0.06591796875,0.0185546875,44.15352941176471,306.4590552951089
0.63673779296875,-0.57262646484375,0.5612885742187499,1.023904755718364,-0.02392578125,-0.05712890625,0.03955078125,44.20058823529412,306.6582935186196
0.63771435546875,-0.57409130859375,0.5549409179687499,1.0218707610112965,-0.01416015625,-0.046875,0.064453125,44.059411764705885,306.6582935186196
0.63331982421875,-0.57360302734375,0.5598237304687499,1.0215268189931828,-0.00732421875,-0.0576171875,0.0361328125,44.29470588235294,306.6582935186196
0.62746044921875,-0.57262646484375,0.5515229492187499,1.0128105682151,0.00927734375,-0.06591796875,0.04638671875,44.48294117647059,306.6582935186196
0.63283154296875,-0.57360302734375,0.5559174804687499,1.019088043225337,0.029296875,-0.04052734375,0.041015625,43.447647058823534,306.54786586795376
0.62892529296875,-0.57311474609375,0.5554291992187499,1.0161245650365478,0.0263671875,-0.04150390625,0.0263671875,44.15352941176471,306.54786586795376
0.63283154296875,-0.57116162109375,0.5495698242187499,1.0142624664644142,0.05224609375,-0.01904296875,0.00732421875,44.48294117647059,306.54786586795376
0.63869091796875,-0.57457958984375,0.5539643554687499,1.0222251713251265,0.06787109375,-0.03515625,-0.048828125,44.29470588235294,306.54786586795376
0.63429638671875,-0.56676708984375,0.5505463867187499,1.01324141460142,0.04931640625,-0.0107421875,0.12451171875,44.29470588235294,306.54786586795376
0.63087841796875,-0.57409130859375,0.5534760742187499,1.0168206201657382,0.0234375,-0.01025390625,-0.00244140625,44.20058823529412,306.5046333181709
0.63185498046875,-0.57360302734375,0.5578706054687499,1.0195492934464467,0.0234375,-0.0009765625,0.1240234375,44.67117647058824,306.5046333181709
0.63380810546875,-0.57311474609375,0.5564057617187499,1.019686519682305,0.03125,-0.03173828125,-0.02294921875,44.388823529411766,306.5046333181709
0.63380810546875,-0.57213818359375,0.5603120117187499,1.0212758521379786,0.037109375,-0.0234375,-0.02001953125,44.20058823529412,306.5046333181709
0.63429638671875,-0.57653271484375,0.5539643554687499,1.0205872743766082,0.03515625,-0.04638671875,0.0029296875,44.34176470588236,306.2358610160198
0.63380810546875,-0.57116162109375,0.5598237304687499,1.02046113162838,0.021484375,-0.05126953125,0.009765625,44.20058823529412,306.2358610160198
0.63722607421875,-0.57653271484375,0.5593354492187499,1.0253307689239046,0.02392578125,-0.05517578125,0.01953125,44.53,306.2358610160198
0.63283154296875,-0.57897412109375,0.5520112304687499,1.0200015653106187,0.01171875,-0.06689453125,0.017578125,44.388823529411766,306.2358610160198
0.63380810546875,-0.57702099609375,0.5627534179687499,1.0253571835835646,0.00634765625,-0.04638671875,0.0322265625,44.388823529411766,306.2358610160198
0.63087841796875,-0.57213818359375,0.5593354492187499,1.0189238559075202,-0.0146484375,-0.02294921875,0.03759765625,44.34176470588236,306.1806488851594
0.63234326171875,-0.57360302734375,0.5559174804687499,1.0187849030633234,-0.00146484375,-0.02294921875,0.0576171875,44.29470588235294,306.1806488851594
0.63283154296875,-0.57653271484375,0.5510346679687499,1.0180888656520826,-0.0126953125,-0.013671875,0.080078125,44.20058823529412,306.1806488851594
0.63039013671875,-0.57457958984375,0.5544526367187499,1.0173254916208825,-0.02783203125,-0.0185546875,0.07568359375,44.388823529411766,306.1806488851594
0.63380810546875,-0.57799755859375,0.5573823242187499,1.022970648479084,-0.03515625,-0.04541015625,0.05078125,44.53,306.469863478845
0.62892529296875,-0.57702099609375,0.5529877929687499,1.0170033201722108,-0.03955078125,-0.052734375,0.0546875,44.29470588235294,306.469863478845
0.63039013671875,-0.56969677734375,0.5534760742187499,1.0140423597270174,-0.04248046875,-0.06298828125,0.06103515625,44.29470588235294,306.469863478845
0.62501904296875,-0.56823193359375,0.5471284179687499,1.0064222971388557,-0.04150390625,-0.0439453125,0.06787109375,44.20058823529412,306.469863478845
0.62599560546875,-0.56774365234375,0.5490815429687499,1.0078163987908468,-0.03173828125,-0.04248046875,0.0244140625,44.29470588235294,306.469863478845
0.63331982421875,-0.57799755859375,0.5495698242187499,1.0184312294802391,-0.00732421875,-0.03369140625,0.0283203125,44.34176470588236,306.371417664851
0.62892529296875,-0.57213818359375,0.5524995117187499,1.013974770746906,0.00244140625,-0.0234375,0.01318359375,43.54176470588236,306.371417664851
0.63917919921875,-0.57702099609375,0.5515229492187499,1.0225853715763265,-0.00634765625,-0.005859375,0.03466796875,44.20058823529412,306.371417664851
0.62941357421875,-0.57995068359375,0.5583588867187499,1.0218947544583452,0.01123046875,-0.0107421875,-0.0634765625,44.48294117647059,306.371417664851
0.64113232421875,-0.57409130859375,0.5505463867187499,1.0216324249406397,0.01318359375,0.05810546875,0.04638671875,44.20058823529412,306.2370321262997
0.61867138671875,-0.56774365234375,0.5495698242187499,1.0035507616523192,0.060546875,-0.00048828125,-0.02197265625,44.29470588235294,306.2370321262997
0.65040966796875,-0.58385693359375,0.5617768554687499,1.0389970598770109,-0.0029296875,-0.0087890625,0.00439453125,44.20058823529412,306.2370321262997
0.62892529296875,-0.57946240234375,0.5559174804687499,1.0199842866223678,0.01318359375,0.015625,0.01171875,44.29470588235294,306.2370321262997
0.62843701171875,-0.57311474609375,0.5437104492187499,1.0094625513003197,0.0380859375,0.0234375,-0.0048828125,44.34176470588236,306.2370321262997
0.62550732421875,-0.57311474609375,0.5466401367187499,1.0092251304408235,0.0517578125,0.00927734375,-0.0322265625,44.20058823529412,306.4158226961494
0.63185498046875,-0.57311474609375,0.5583588867187499,1.019541992715881,0.06201171875,-0.0380859375,-0.00732421875,44.388823529411766,306.4158226961494
0.63478466796875,-0.57409130859375,0.5544526367187499,1.0197794524579589,0.00927734375,-0.05712890625,-0.00048828125,44.20058823529412,306.4158226961494
0.63673779296875,-0.57067333984375,0.5554291992187499,1.019610059359909,0.00390625,-0.06640625,0.0595703125,44.48294117647059,306.4158226961494
0.63527294921875,-0.57653271484375,0.5564057617187499,1.0225209352223628,-0.0205078125,-0.03466796875,0.06982421875,44.059411764705885,306.4830171248856
0.63380810546875,-0.58043896484375,0.5559174804687499,1.0235557393505703,-0.04150390625,-0.03125,0.0380859375,44.34176470588236,306.4830171248856
0.63234326171875,-0.57750927734375,0.5539643554687499,1.019927190141098,-0.0419921875,-0.06591796875,0.05810546875,44.48294117647059,306.4830171248856
0.63283154296875,-0.57213818359375,0.5515229492187499,1.0158717568754003,-0.0498046875,-0.04833984375,0.06494140625,44.388823529411766,306.4830171248856
0.62990185546875,-0.57164990234375,0.5524995117187499,1.0143055105943426,-0.06494140625,-0.06640625,0.05517578125,44.15352941176471,306.4830171248856
0.63087841796875,-0.57555615234375,0.5539643554687499,1.017914028731996,-0.06591796875,-0.07470703125,0.072265625,44.20058823529412,306.3389933399922
0.63087841796875,-0.56823193359375,0.5476166992187499,1.0103361608285055,-0.08642578125,-0.05419921875,0.07421875,44.15352941176471,306.3389933399922
0.62990185546875,-0.57897412109375,0.5505463867187499,1.0173930923435277,-0.0751953125,-0.05712890625,0.0712890625,44.29470588235294,306.3389933399922
0.62599560546875,-0.57946240234375,0.5505463867187499,1.015257847901334,-0.0556640625,-0.06396484375,0.07470703125,44.20058823529412,306.3389933399922
0.59132763671875,-0.60485302734375,0.5134370117187499,0.98951155811186,-0.103515625,-0.025390625,0.146484375,44.15352941176471,306.70269944543315
0.58742138671875,-0.55846630859375,0.5197846679687499,0.9628730988371688,-0.083984375,0.06396484375,0.20068359375,44.29470588235294,306.70269944543315
0.59669873046875,-0.58727490234375,0.5251557617187499,0.9882963927548656,-0.08837890625,-0.03466796875,0.0458984375,44.53,306.70269944543315
0.62062451171875,-0.60143505859375,0.5495698242187499,1.0241708382607035,-0.05419921875,0.00830078125,0.03857421875,44.059411764705885,306.70269944543315
0.61574169921875,-0.52868115234375,0.5349213867187499,0.9719992237493914,-0.060546875,-0.09228515625,0.0634765625,44.059411764705885,306.70269944543315
0.64406201171875,-0.59411083984375,0.5612885742187499,1.0405904230327927,-0.07373046875,0.01513671875,0.13818359375,44.29470588235294,306.3725903147833
0.63771435546875,-0.56872021484375,0.5363862304687499,1.0088768359811415,-0.0703125,-0.01416015625,0.05859375,44.76529411764706,306.3725903147833
0.61427685546875,-0.56774365234375,0.5285737304687499,0.9894741525087188,-0.06298828125,-0.05126953125,0.052734375,44.29470588235294,306.3725903147833
0.62599560546875,-0.57457958984375,0.5510346679687499,1.012744493164307,-0.04541015625,-0.02099609375,0.06884765625,44.34176470588236,306.3725903147833
0.63771435546875,-0.57018505859375,0.5481049804687499,1.0159771994632212,-0.04541015625,-0.06103515625,-0.00830078125,44.48294117647059,306.6810831258292
0.62599560546875,-0.56725537109375,0.5466401367187499,1.0062129959271986,-0.04736328125,-0.044921875,0.02685546875,44.059411764705885,306.6810831258292
0.61964794921875,-0.58776318359375,0.5559174804687499,1.01905514377289,-0.0400390625,-0.0361328125,0.12841796875,44.76529411764706,306.6810831258292
0.64064404296875,-0.57799755859375,0.5490815429687499,1.0227397070421311,-0.05078125,-0.07421875,0.0556640625,43.54176470588236,306.6810831258292
0.63185498046875,-0.58825146484375,0.5622651367187499,1.0302536513904412,-0.04296875,-0.08837890625,0.064453125,44.48294117647059,306.6810831258292
0.63429638671875,-0.57848583984375,0.5490815429687499,1.019052655132763,-0.07177734375,-0.07275390625,0.07373046875,44.29470588235294,306.30539657756543
0.63087841796875,-0.57653271484375,0.5524995117187499,1.0176705065949954,-0.072265625,-0.09228515625,0.06884765625,44.48294117647059,306.30539657756543
0.62648388671875,-0.57995068359375,0.5471284179687499,1.013989330056326,-0.06787109375,-0.05908203125,0.0625,44.059411764705885,306.30539657756543
0.63820263671875,-0.57555615234375,0.5539643554687499,1.022469558053155,-0.048828125,-0.09130859375,0.0498046875,44.29470588235294,306.30539657756543
0.63234326171875,-0.57995068359375,0.5534760742187499,1.0210467965644692,-0.064453125,-0.087890625,0.05859375,44.34176470588236,306.41699555714735
0.62892529296875,-0.57702099609375,0.5485932617187499,1.0146205304802718,-0.08447265625,-0.07763671875,0.0732421875,44.29470588235294,306.41699555714735
0.63283154296875,-0.57897412109375,0.5437104492187499,1.0155332822030718,-0.06640625,-0.076171875,0.04833984375,44.34176470588236,306.41699555714735
0.62843701171875,-0.57653271484375,0.5412690429687499,1.0100966418414643,-0.06201171875,-0.07958984375,0.05029296875,44.388823529411766,306.41699555714735
0.62306591796875,-0.57018505859375,0.5393159179687499,1.002089715820033,-0.04345703125,-0.1015625,0.0283203125,44.29470588235294,306.41699555714735
0.63283154296875,-0.58141552734375,0.5515229492187499,1.021125526430305,-0.060546875,-0.08984375,0.03955078125,44.29470588235294,306.25982001126334
0.63234326171875,-0.59948193359375,0.5578706054687499,1.0346285332390937,-0.033203125,-0.09130859375,-0.0146484375,44.29470588235294,306.25982001126334
0.65333935546875,-0.59362255859375,0.5642182617187499,1.0476556220116606,-0.0244140625,-0.06103515625,-0.052734375,44.48294117647059,306.25982001126334
0.61037060546875,-0.56676708984375,0.5417573242187499,0.9936187440335964,0.01708984375,-0.017578125,-0.025390625,44.29470588235294,306.25982001126334
0.63331982421875,-0.57995068359375,0.5549409179687499,1.0224461930025095,-0.0234375,-0.04638671875,-0.05615234375,44.29470588235294,306.3810536641975
0.63429638671875,-0.58043896484375,0.5441987304687499,1.0175429014823627,-0.01123046875,-0.04345703125,0.02685546875,44.76529411764706,306.3810536641975
0.62501904296875,-0.57995068359375,0.5456635742187499,1.0122945893876996,-0.01513671875,-0.01904296875,-0.01220703125,44.34176470588236,306.3810536641975
0.62648388671875,-0.58434521484375,0.5485932617187499,1.01729836195299,0.00634765625,-0.0341796875,-0.0390625,44.34176470588236,306.3810536641975
0.62990185546875,-0.58288037109375,0.5485932617187499,1.0185678383556878,0.009765625,-0.087890625,-0.060546875,44.29470588235294,306.3810536641975
0.63039013671875,-0.57897412109375,0.5500581054687499,1.0174314113297442,-0.00439453125,-0.06298828125,-0.03173828125,44.29470588235294,306.3498014346819
0.63039013671875,-0.57946240234375,0.5495698242187499,1.0174455228139254,-0.03271484375,-0.06494140625,-0.025390625,44.53,306.3498014346819
0.62453076171875,-0.57409130859375,0.5490815429687499,1.0104998979538935,-0.02734375,-0.087890625,-0.03369140625,44.15352941176471,306.3498014346819
0.63722607421875,-0.59362255859375,0.5481049804687499,1.02901111818594,-0.02880859375,-0.0849609375,-0.0576171875,44.20058823529412,306.3498014346819
0.63771435546875,-0.56774365234375,0.5881440429687499,1.0367863180169627,-0.0205078125,-0.04345703125,-0.0546875,44.29470588235294,306.55021240310856
0.61720654296875,-0.54723583984375,0.5256440429687499,0.9781168851428048,-0.017578125,-0.07373046875,-0.0498046875,44.34176470588236,306.55021240310856
0.60695263671875,-0.55748974609375,0.5153901367187499,0.9720150787135396,-0.05615234375,-0.01318359375,0.01025390625,44.15352941176471,306.55021240310856
0.63966748046875,-0.55944287109375,0.5285737304687499,1.0007702034575707,-0.01953125,-0.03662109375,0.02197265625,44.48294117647059,306.55021240310856
0.64601513671875,-0.57995068359375,0.5495698242187499,1.027475227906946,-0.025390625,-0.07080078125,-0.01171875,44.15352941176471,306.55021240310856
0.61622998046875,-0.57164990234375,0.5544526367187499,1.0069462379106986,-0.0224609375,-0.04736328125,0.01318359375,44.29470588235294,306.3725903147833
0.64064404296875,-0.58288037109375,0.5515229492187499,1.0268163810110749,-0.00927734375,-0.11083984375,-0.0205078125,44.34176470588236,306.3725903147833
0.64747998046875,-0.60143505859375,0.5637299804687499,1.0482108307457891,-0.0126953125,-0.0634765625,-0.02685546875,44.20058823529412,306.3725903147833
0.63185498046875,-0.58385693359375,0.5441987304687499,1.0179793187940804,-0.0361328125,-0.07421875,-0.01123046875,44.48294117647059,306.3725903147833
0.63185498046875,-0.58434521484375,0.5490815429687499,1.0208773615292366,-0.0126953125,-0.07470703125,-0.060546875,44.15352941176471,306.58146328240304
0.63429638671875,-0.58532177734375,0.5520112304687499,1.0245242250922777,-0.013671875,-0.03662109375,0.01220703125,44.388823529411766,306.58146328240304
0.63234326171875,-0.58581005859375,0.5510346679687499,1.0230692208712715,-0.00634765625,-0.009765625,0.02294921875,44.53,306.58146328240304
0.63234326171875,-0.58288037109375,0.5451752929687499,1.0182453671444116,-0.00244140625,-0.00341796875,0.044921875,44.059411764705885,306.58146328240304
0.62892529296875,-0.58141552734375,0.5500581054687499,1.017916970564942,-0.01513671875,0.00244140625,0.0576171875,44.29470588235294,306.58146328240304
0.62648388671875,-0.58043896484375,0.5520112304687499,1.0169109355252006,0.00439453125,-0.00927734375,0.03271484375,44.34176470588236,306.4722090486377
0.62697216796875,-0.57457958984375,0.5437104492187499,1.0093843950953971,-0.00244140625,-0.02978515625,0.0107421875,44.48294117647059,306.4722090486377
0.62892529296875,-0.58043896484375,0.5402924804687499,1.0121128299235151,-0.00634765625,-0.03564453125,0.02197265625,44.20058823529412,306.4722090486377
0.62355419921875,-0.58141552734375,0.5427338867187499,1.0106551966880637,0.00634765625,-0.03466796875,-0.02001953125,44.29470588235294,306.4722090486377
0.63722607421875,-0.58825146484375,0.5515229492187499,1.0277521194675323,0.0390625,-0.03662109375,-0.02490234375,44.29470588235294,306.4409585478811
0.63673779296875,-0.58141552734375,0.5520112304687499,1.0238141584265912,0.0322265625,-0.00244140625,-0.02587890625,44.34176470588236,306.4409585478811
0.63966748046875,-0.58678662109375,0.5490815429687499,1.0271239287899012,0.03271484375,-0.125,-0.0107421875,44.48294117647059,306.4409585478811
0.63576123046875,-0.58336865234375,0.5534760742187499,1.0251083315616458,0.041015625,-0.00048828125,0.01708984375,43.54176470588236,306.4409585478811
0.63039013671875,-0.57702099609375,0.5451752929687499,1.0136868621368584,0.00048828125,-0.00439453125,0.048828125,44.29470588235294,306.4409585478811
0.62843701171875,-0.57946240234375,0.5427338867187499,1.012556084975456,-0.0146484375,-0.01611328125,0.07958984375,44.15352941176471,306.58263659496845
0.62648388671875,-0.57750927734375,0.5451752929687499,1.01154096595239,-0.021484375,-0.029296875,0.10205078125,44.388823529411766,306.58263659496845
0.62697216796875,-0.58434521484375,0.5432221679687499,1.0147136311742797,-0.0380859375,-0.0361328125,0.0654296875,44.15352941176471,306.58263659496845
0.62355419921875,-0.58336865234375,0.5402924804687499,1.0104725569513375,-0.03515625,-0.04296875,0.0673828125,44.48294117647059,306.58263659496845
0.63185498046875,-0.58288037109375,0.5471284179687499,1.0189895726152154,-0.02734375,-0.05908203125,0.02587890625,44.29470588235294,306.3617822534404
0.63136669921875,-0.58922802734375,0.5520112304687499,1.0249536456120394,-0.01904296875,-0.03564453125,0.01953125,44.29470588235294,306.3617822534404
0.63283154296875,-0.58434521484375,0.5481049804687499,1.0209574729153246,-0.00390625,-0.02587890625,0.0068359375,44.20058823529412,306.3617822534404
0.63087841796875,-0.58239208984375,0.5451752929687499,1.0170566477020273,0.02392578125,-0.0341796875,-0.0244140625,44.20058823529412,306.3617822534404
0.63185498046875,-0.58483349609375,0.5554291992187499,1.0245840765116276,0.00390625,-0.06689453125,0.00732421875,44.71823529411765,306.3617822534404
0.63331982421875,-0.58727490234375,0.5490815429687499,1.0234629214095998,-0.0205078125,-0.0146484375,0.03564453125,44.20058823529412,306.32701282003234
0.63234326171875,-0.58336865234375,0.5481049804687499,1.0200961007636091,-0.02734375,-0.0380859375,0.02392578125,44.34176470588236,306.32701282003234
0.61574169921875,-0.56334912109375,0.5251557617187499,0.9860469798444162,-0.03076171875,0.033203125,0.16357421875,44.20058823529412,306.32701282003234
0.62550732421875,-0.57702099609375,0.5476166992187499,1.011976626136969,-0.02294921875,-0.0224609375,0.06640625,44.059411764705885,306.32701282003234
0.63429638671875,-0.59362255859375,0.5554291992187499,1.0311262015973768,-0.04052734375,-0.05224609375,0.0478515625,44.48294117647059,306.5394043663516
0.62648388671875,-0.58288037109375,0.5441987304687499,1.0140926217897546,-0.01513671875,-0.03369140625,0.01171875,44.15352941176471,306.5394043663516
0.62599560546875,-0.58239208984375,0.5476166992187499,1.0153497395685864,0.0185546875,-0.04638671875,-0.07470703125,44.34176470588236,306.5394043663516
0.63087841796875,-0.58581005859375,0.5476166992187499,1.020325953934136,0.0458984375,-0.0546875,-0.09716796875,44.20058823529412,306.5394043663516
0.63380810546875,-0.58922802734375,0.5534760742187499,1.0272478510553782,0.0380859375,-0.01416015625,-0.04736328125,44.53,306.5394043663516
0.63673779296875,-0.58043896484375,0.5500581054687499,1.0222075759333176,0.0205078125,-0.00341796875,-0.013671875,44.34176470588236,306.3401661715491
0.62892529296875,-0.58385693359375,0.5510346679687499,1.0198407465603416,0.0,-0.01123046875,0.02490234375,44.20058823529412,306.3401661715491
0.62746044921875,-0.58288037109375,0.5520112304687499,1.0189075232344722,-0.0126953125,-0.03369140625,0.0390625,44.29470588235294,306.3401661715491
0.62892529296875,-0.58092724609375,0.5456635742187499,1.0152695334831423,0.0126953125,-0.0556640625,0.0341796875,44.34176470588236,306.3401661715491
0.63136669921875,-0.58727490234375,0.5476166992187499,1.0214694166094644,-0.00244140625,-0.05224609375,0.0390625,43.58882352941177,306.3089156171394
0.62990185546875,-0.58336865234375,0.5490815429687499,1.0191103340116223,-0.1220703125,-0.06103515625,0.04248046875,44.29470588235294,306.3089156171394
0.63087841796875,-0.58532177734375,0.5510346679687499,1.0218847129666977,0.123046875,-0.04736328125,0.021484375,44.15352941176471,306.3089156171394
0.63087841796875,-0.58581005859375,0.5505463867187499,1.0219013293549613,0.0224609375,-0.01318359375,-0.01318359375,43.63588235294118,306.3089156171394
0.63722607421875,-0.58581005859375,0.5437104492187499,1.0221798017000274,0.02685546875,-0.0517578125,-0.029296875,44.20058823529412,306.3089156171394
0.62746044921875,-0.58336865234375,0.5461518554687499,1.016025319125029,0.00634765625,-0.02490234375,-0.01904296875,44.34176470588236,306.4517665227848
0.62550732421875,-0.58483349609375,0.5515229492187499,1.01856133557066,0.009765625,-0.021484375,0.009765625,44.76529411764706,306.4517665227848
0.63136669921875,-0.57848583984375,0.5446870117187499,1.014866354017715,0.0087890625,0.00439453125,0.02294921875,44.20058823529412,306.4517665227848
0.62794873046875,-0.58190380859375,0.5446870117187499,1.0146997542565623,0.0166015625,0.00390625,-0.12451171875,44.29470588235294,306.4517665227848
0.63478466796875,-0.58239208984375,0.5481049804687499,1.0210539606776008,-0.00537109375,0.0068359375,0.00830078125,44.15352941176471,306.7722442094112
0.62453076171875,-0.58239208984375,0.5422456054687499,1.0115579643775952,0.00830078125,0.025390625,0.021484375,43.30647058823529,306.7722442094112
0.63039013671875,-0.57848583984375,0.5485932617187499,1.0163622179986966,0.00439453125,-0.12353515625,-0.001953125,44.34176470588236,306.7722442094112
0.62697216796875,-0.58483349609375,0.5510346679687499,1.0191974896280422,-0.01025390625,0.0029296875,-0.00048828125,44.20058823529412,306.7722442094112
0.63087841796875,-0.58336865234375,0.5407807617187499,1.015268631959654,0.00146484375,-0.0126953125,-0.03466796875,44.29470588235294,306.7722442094112
0.62941357421875,-0.58922802734375,0.5481049804687499,1.021650715867648,0.021484375,-0.01416015625,-0.06884765625,44.059411764705885,306.3641290341096
0.63087841796875,-0.57555615234375,0.5515229492187499,1.0165874415289826,0.00634765625,0.0068359375,-0.07275390625,44.34176470588236,306.3641290341096
0.63087841796875,-0.58190380859375,0.5398041992187499,1.013907389364956,-0.00634765625,0.0068359375,-0.0224609375,44.388823529411766,306.3641290341096
0.63429638671875,-0.58141552734375,0.5456635742187499,1.0188840257213057,-0.00634765625,0.03466796875,-0.005859375,44.34176470588236,306.3641290341096
0.63039013671875,-0.58629833984375,0.5500581054687499,1.0216170452609392,-0.00537109375,0.0380859375,0.02685546875,44.20058823529412,306.21775956058195
0.63185498046875,-0.58141552734375,0.5466401367187499,1.0178900583321702,-0.00244140625,0.02734375,0.02294921875,44.20058823529412,306.21775956058195
0.63087841796875,-0.58825146484375,0.5544526367187499,1.0254097183633206,-0.0185546875,0.0029296875,0.0361328125,44.53,306.21775956058195
0.63429638671875,-0.58434521484375,0.5427338867187499,1.0189952443991537,-0.0205078125,0.01513671875,0.03369140625,44.34176470588236,306.21775956058195
0.62990185546875,-0.58190380859375,0.5534760742187499,1.0206488890463188,-0.02734375,0.123046875,0.03857421875,44.48294117647059,306.21775956058195
0.62453076171875,-0.57995068359375,0.5417573242187499,1.009892304198086,-0.03369140625,-0.0078125,0.04248046875,44.29470588235294,306.271800027503
0.62453076171875,-0.58385693359375,0.5524995117187499,1.0179308923929735,-0.02490234375,-0.0244140625,0.03662109375,44.34176470588236,306.271800027503
0.63331982421875,-0.58483349609375,0.5476166992187499,1.0212777620045124,0.00146484375,-0.03564453125,0.03271484375,44.34176470588236,306.271800027503
0.60988232421875,-0.58385693359375,0.5529877929687499,1.009277398673135,-0.00634765625,-0.01953125,0.04052734375,44.48294117647059,306.271800027503
0.62599560546875,-0.58092724609375,0.5432221679687499,1.012144894317471,-0.00830078125,0.03076171875,0.0478515625,44.34176470588236,306.3401661715491
0.62941357421875,-0.59459912109375,0.5520112304687499,1.0268524532667316,-0.01513671875,0.12451171875,0.05810546875,44.20058823529412,306.3401661715491
0.63331982421875,-0.59459912109375,0.5383393554687499,1.0219840391123716,-0.0146484375,0.013671875,0.0615234375,44.48294117647059,306.3401661715491
0.62160107421875,-0.58288037109375,0.5412690429687499,1.0095095835863066,0.0009765625,0.0078125,0.0478515625,44.53,306.3401661715491
0.61427685546875,-0.56774365234375,0.5285737304687499,0.9894741525087188,-0.00537109375,-0.03369140625,0.0205078125,44.34176470588236,306.3401661715491
0.64162060546875,-0.58971630859375,0.5412690429687499,1.025872556831418,-0.044921875,-0.0263671875,0.03125,44.20058823529412,306.6066005335768
0.62648388671875,-0.58873974609375,0.5524995117187499,1.021935545618324,-0.03125,-0.0595703125,-0.033203125,44.20058823529412,306.6066005335768
0.61574169921875,-0.55504833984375,0.5232026367187499,0.9802843968918146,-0.015625,0.06396484375,0.13720703125,44.388823529411766,306.6066005335768
0.60890576171875,-0.57653271484375,0.5456635742187499,1.0004523647673471,-0.01025390625,-0.0302734375,0.04052734375,44.29470588235294,306.6066005335768
0.63185498046875,-0.58825146484375,0.5495698242187499,1.023380424830283,-0.02392578125,-0.01416015625,0.03369140625,44.059411764705885,306.3845714323501
0.62062451171875,-0.58288037109375,0.5398041992187499,1.008123447325138,-0.00244140625,-0.00146484375,0.01171875,44.20058823529412,306.3845714323501
0.62746044921875,-0.58629833984375,0.5485932617187499,1.0190225343144037,0.02197265625,-0.01318359375,-0.0947265625,44.29470588235294,306.3845714323501
0.63136669921875,-0.59215771484375,0.5554291992187499,1.0284825051871973,0.06689453125,-0.0439453125,-0.08935546875,44.20058823529412,306.3845714323501
0.63136669921875,-0.59069287109375,0.5608002929687499,1.0305527378243158,0.0498046875,-0.04052734375,-0.08544921875,44.20058823529412,306.3845714323501
0.63429638671875,-0.58727490234375,0.5505463867187499,1.0248536681187197,0.02490234375,-0.05029296875,-0.03662109375,44.20058823529412,306.42897687963585
0.63087841796875,-0.58581005859375,0.5500581054687499,1.021638352060178,-0.0068359375,-0.0732421875,-0.001953125,44.76529411764706,306.42897687963585
0.62550732421875,-0.58581005859375,0.5510346679687499,1.0188582053967783,-0.0087890625,-0.08544921875,-0.001953125,44.29470588235294,306.42897687963585
0.62648388671875,-0.58678662109375,0.5471284179687499,1.0179145861818852,-0.123046875,-0.08056640625,-0.0419921875,44.29470588235294,306.42897687963585
0.63039013671875,-0.58825146484375,0.5490815429687499,1.022214288293822,0.02294921875,-0.06787109375,-0.02490234375,44.15352941176471,306.7868204900955
0.63087841796875,-0.58532177734375,0.5461518554687499,1.0192600308672746,0.02734375,-0.05224609375,-0.0087890625,43.447647058823534,306.7868204900955
0.62453076171875,-0.58532177734375,0.5383393554687499,1.0111624582688767,0.029296875,-0.01171875,-0.03564453125,44.15352941176471,306.7868204900955
0.62453076171875,-0.58483349609375,0.5481049804687499,1.0161141471807629,0.04833984375,-0.0107421875,-0.0546875,44.20058823529412,306.7868204900955
0.62892529296875,-0.58336865234375,0.5476166992187499,1.0177180640710028,0.03955078125,-0.005859375,-0.06494140625,44.29470588235294,306.7868204900955
0.62550732421875,-0.58532177734375,0.5500581054687499,1.0180495641549174,0.044921875,-0.03076171875,-0.08349609375,44.059411764705885,306.3953794603511
0.62746044921875,-0.58483349609375,0.5529877929687499,1.0205549140832564,0.0478515625,-0.02978515625,-0.07958984375,44.29470588235294,306.3953794603511
0.63234326171875,-0.58825146484375,0.5549409179687499,1.0265754765081443,0.0439453125,-0.03515625,-0.064453125,44.76529411764706,306.3953794603511
0.62843701171875,-0.58581005859375,0.5588471679687499,1.0248983654949877,0.0537109375,-0.0673828125,-0.10400390625,44.29470588235294,306.3953794603511
0.63527294921875,-0.58532177734375,0.5544526367187499,1.026445823902221,0.02978515625,-0.033203125,-0.041015625,44.20058823529412,306.29693417096394
0.62843701171875,-0.58434521484375,0.5485932617187499,1.0185023193945104,0.01904296875,-0.0166015625,0.00390625,44.34176470588236,306.29693417096394
0.63380810546875,-0.58092724609375,0.5524995117187499,1.0219808658978953,0.02783203125,-0.013671875,0.00390625,43.54176470588236,306.29693417096394
0.61671826171875,-0.57750927734375,0.5437104492187499,1.0047285366431828,0.0302734375,-0.12451171875,0.005859375,44.29470588235294,306.29693417096394
0.62355419921875,-0.57848583984375,0.5466401367187499,1.0110791983494465,0.04296875,-0.0400390625,-0.0205078125,43.58882352941177,306.29693417096394
0.62599560546875,-0.58043896484375,0.5461518554687499,1.0134405454722193,0.044921875,-0.03759765625,-0.03857421875,44.29470588235294,306.4529405618781
0.62501904296875,-0.58532177734375,0.5471284179687499,1.016169224516963,0.04345703125,-0.04248046875,-0.03955078125,44.76529411764706,306.4529405618781
0.62941357421875,-0.58141552734375,0.5510346679687499,1.0187466162646448,0.0380859375,-0.0400390625,-0.06298828125,43.58882352941177,306.4529405618781
0.63087841796875,-0.58678662109375,0.5446870117187499,1.0193184280137757,0.03564453125,-0.03857421875,-0.05859375,44.15352941176471,306.4529405618781
0.63136669921875,-0.58239208984375,0.5461518554687499,1.017883246952669,0.02099609375,-0.04638671875,-0.03125,44.29470588235294,306.5166146578076
0.63478466796875,-0.58336865234375,0.5510346679687499,1.0231860849957792,0.01513671875,-0.01708984375,-0.017578125,44.059411764705885,306.5166146578076
0.63087841796875,-0.58141552734375,0.5495698242187499,1.0188614161832763,0.009765625,-0.01220703125,-0.00341796875,44.15352941176471,306.5166146578076
0.62892529296875,-0.57995068359375,0.5515229492187499,1.01787395243794,-0.005859375,-0.0263671875,0.03759765625,44.20058823529412,306.5166146578076
0.63185498046875,-0.58532177734375,0.5529877929687499,1.0235417913052989,0.0,-0.0146484375,0.05029296875,44.29470588235294,306.5166146578076
0.63429638671875,-0.58581005859375,0.5554291992187499,1.02664839467992,-0.02197265625,-0.037109375,0.029296875,44.20058823529412,306.3185501440586
0.63331982421875,-0.58532177734375,0.5481049804687499,1.021819285586235,-0.001953125,-0.04345703125,0.01953125,44.53,306.3185501440586
0.63136669921875,-0.58727490234375,0.5471284179687499,1.0212077288946788,0.00048828125,-0.0263671875,0.01220703125,44.34176470588236,306.3185501440586
0.62990185546875,-0.58678662109375,0.5485932617187499,1.0208082351846557,0.0068359375,-0.03125,0.12451171875,44.15352941176471,306.3185501440586
0.63234326171875,-0.58336865234375,0.5515229492187499,1.021936665695785,-0.0205078125,-0.0283203125,0.001953125,44.48294117647059,306.3725903147833
0.62843701171875,-0.57995068359375,0.5441987304687499,1.0136212958213977,0.00048828125,-0.01123046875,0.02685546875,44.29470588235294,306.3725903147833
0.62355419921875,-0.58239208984375,0.5466401367187499,1.0133192116740908,-0.01416015625,-0.015625,0.021484375,44.29470588235294,306.3725903147833
0.62306591796875,-0.58288037109375,0.5407807617187499,1.010150730032771,0.00732421875,-0.02392578125,0.001953125,44.29470588235294,306.3725903147833
0.63136669921875,-0.57897412109375,0.5505463867187499,1.0183006754921315,-0.00830078125,-0.0625,0.009765625,44.29470588235294,306.3725903147833
0.62843701171875,-0.58873974609375,0.5534760742187499,1.0236617268712964,-0.01318359375,-0.033203125,0.0380859375,44.34176470588236,306.5189624627161
0.63087841796875,-0.58629833984375,0.5573823242187499,1.0258793188839446,-0.0126953125,-0.0732421875,-0.0595703125,44.20058823529412,306.5189624627161
0.61915966796875,-0.57018505859375,0.5266206054687499,0.9928740894932264,0.0302734375,0.00390625,0.04833984375,44.29470588235294,306.5189624627161
0.62843701171875,-0.58288037109375,0.5495698242187499,1.0181893715788863,0.00830078125,-0.0556640625,-0.0302734375,44.20058823529412,306.5189624627161
0.63234326171875,-0.58678662109375,0.5471284179687499,1.021531225702237,-0.01318359375,-0.01416015625,-0.0205078125,44.48294117647059,306.22010519595176
0.61818310546875,-0.57946240234375,0.5456635742187499,1.007807404143351,0.013671875,-0.013671875,-0.056640625,44.29470588235294,306.22010519595176
0.62453076171875,-0.57799755859375,0.5471284179687499,1.0116666228666065,0.015625,-0.03369140625,-0.0810546875,43.58882352941177,306.22010519595176
0.62941357421875,-0.58239208984375,0.5490815429687499,1.0182497407573132,0.03466796875,-0.0830078125,-0.0830078125,44.34176470588236,306.22010519595176
0.63234326171875,-0.57897412109375,0.5539643554687499,1.0207573368177645,0.0419921875,-0.08251953125,-0.0498046875,44.20058823529412,306.22010519595176
0.63527294921875,-0.57897412109375,0.5510346679687499,1.0209906748882671,-0.00244140625,-0.09814453125,-0.1240234375,44.48294117647059,306.6510069132762
0.62697216796875,-0.58532177734375,0.5520112304687499,1.020005922043546,-0.01708984375,-0.09033203125,0.02978515625,44.20058823529412,306.6510069132762
0.63136669921875,-0.58483349609375,0.5505463867187499,1.021643504831646,-0.0185546875,-0.06689453125,0.02001953125,44.29470588235294,306.6510069132762
0.62794873046875,-0.58581005859375,0.5490815429687499,1.0193054368911565,-0.01318359375,-0.0751953125,0.015625,44.34176470588236,306.6510069132762
0.62990185546875,-0.57995068359375,0.5485932617187499,1.016894148732821,-0.00439453125,-0.06103515625,0.00634765625,44.29470588235294,306.1085069034117
0.62794873046875,-0.58288037109375,0.5451752929687499,1.0155221490284023,0.00830078125,-0.03857421875,0.0048828125,44.34176470588236,306.1085069034117
0.63039013671875,-0.57702099609375,0.5368745117187499,1.0092468457907382,0.00634765625,-0.048828125,0.00830078125,44.20058823529412,306.1085069034117
0.62453076171875,-0.58141552734375,0.5515229492187499,1.0160020921653463,-0.0185546875,-0.02490234375,-0.0234375,44.57705882352941,306.1085069034117
0.62453076171875,-0.58141552734375,0.5451752929687499,1.012570386606766,0.01318359375,-0.046875,-0.0302734375,44.20058823529412,306.1085069034117
0.63234326171875,-0.58336865234375,0.5466401367187499,1.0193097783551202,0.01123046875,-0.04638671875,-0.02783203125,44.29470588235294,306.44213264750937
0.62892529296875,-0.58141552734375,0.5510346679687499,1.0184450131821892,0.01025390625,-0.03955078125,-0.0166015625,44.20058823529412,306.44213264750937
0.62746044921875,-0.58483349609375,0.5476166992187499,1.0176545989432135,0.0166015625,-0.04736328125,-0.00244140625,43.54176470588236,306.44213264750937
0.62990185546875,-0.58825146484375,0.5451752929687499,1.0198197063586063,0.01123046875,-0.0615234375,-0.0361328125,44.34176470588236,306.44213264750937
0.63331982421875,-0.57799755859375,0.5505463867187499,1.0189585376343215,0.0263671875,-0.03271484375,0.00390625,43.447647058823534,306.23091314105034
0.63087841796875,-0.58727490234375,0.5500581054687499,1.0224790015318086,0.00927734375,-0.025390625,-0.00927734375,44.29470588235294,306.23091314105034
0.63185498046875,-0.58336865234375,0.5495698242187499,1.0205815462628918,0.021484375,-0.015625,-0.01416015625,44.15352941176471,306.23091314105034
0.62550732421875,-0.58092724609375,0.5490815429687499,1.0150006988836568,0.02001953125,-0.02978515625,-0.0322265625,44.48294117647059,306.23091314105034
0.63087841796875,-0.57897412109375,0.5490815429687499,1.0172065434236923,0.01416015625,-0.01904296875,-0.02734375,44.20058823529412,306.23091314105034
0.63331982421875,-0.58483349609375,0.5529877929687499,1.0241678168513966,0.00732421875,-0.041015625,-0.03271484375,44.29470588235294,306.307742150713
0.62843701171875,-0.58288037109375,0.5427338867187499,1.0145159813907425,0.00634765625,-0.02734375,-0.0087890625,44.29470588235294,306.307742150713
0.62746044921875,-0.58141552734375,0.5432221679687499,1.0133316113409645,0.00439453125,-0.0439453125,0.0,44.48294117647059,306.307742150713
0.62599560546875,-0.58336865234375,0.5402924804687499,1.0119809519228238,-0.0224609375,-0.060546875,0.00048828125,44.20058823529412,306.307742150713
0.62843701171875,-0.58092724609375,0.5441987304687499,1.0141803593029497,-0.01318359375,-0.05322265625,0.01806640625,44.76529411764706,306.3089156171394
0.62892529296875,-0.58043896484375,0.5471284179687499,1.0157784806707115,-0.0166015625,-0.03173828125,0.02734375,44.29470588235294,306.3089156171394
0.63039013671875,-0.58532177734375,0.5427338867187499,1.0171299716840378,-0.048828125,-0.05859375,0.03662109375,44.48294117647059,306.3089156171394
0.62501904296875,-0.58190380859375,0.5451752929687499,1.0131519859295772,-0.0224609375,-0.04736328125,0.01220703125,44.34176470588236,306.3089156171394
0.63380810546875,-0.58385693359375,0.5481049804687499,1.021283850395193,-0.03125,-0.0390625,0.01318359375,44.29470588235294,306.3089156171394
0.63185498046875,-0.58385693359375,0.5476166992187499,1.0198106120804489,-0.02099609375,-0.05078125,0.01708984375,44.53,306.5645434739164
0.62599560546875,-0.57995068359375,0.5461518554687499,1.0131609658385992,-0.02490234375,-0.0556640625,0.03955078125,44.48294117647059,306.5645434739164
0.62941357421875,-0.58483349609375,0.5451752929687499,1.0175498836065102,-0.01171875,-0.02734375,0.04638671875,44.48294117647059,306.5645434739164
0.62599560546875,-0.58532177734375,0.5432221679687499,1.0146735459603262,-0.0322265625,-0.0419921875,0.04541015625,44.29470588235294,306.5645434739164
0.62794873046875,-0.58239208984375,0.5520112304687499,1.01892912068186,-0.02685546875,-0.033203125,0.04736328125,44.20058823529412,306.5849845798488
0.62941357421875,-0.58092724609375,0.5476166992187499,1.0166228218607574,-0.03076171875,-0.04833984375,0.04736328125,44.34176470588236,306.5849845798488
0.62257763671875,-0.58239208984375,0.5383393554687499,1.0082622286396448,-0.013671875,-0.0107421875,0.02880859375,44.29470588235294,306.5849845798488
0.62746044921875,-0.57995068359375,0.5456635742187499,1.013803801020609,0.00390625,-0.04052734375,-0.01708984375,44.15352941176471,306.5849845798488
0.62892529296875,-0.59020458984375,0.5627534179687499,1.029844595773541,-0.00830078125,-0.01123046875,0.03857421875,44.48294117647059,306.5849845798488
0.63722607421875,-0.58971630859375,0.5456635742187499,1.0254614232212054,-0.00537109375,-0.0234375,-0.02197265625,44.15352941176471,306.4097089860216
0.67335888671875,-0.61706005859375,0.5705659179687499,1.0769033257365113,0.0078125,-0.046875,-0.02294921875,44.34176470588236,306.4097089860216
0.61330029296875,-0.57262646484375,0.5637299804687499,1.0108559781068231,0.0458984375,0.12158203125,-0.0029296875,44.34176470588236,306.4097089860216
0.63527294921875,-0.56481396484375,0.5295502929687499,1.001503892990384,-0.0185546875,-0.06787109375,0.02978515625,44.388823529411766,306.4097089860216
0.64210888671875,-0.58434521484375,0.5549409179687499,1.030399230856652,-0.00390625,-0.125,-0.1240234375,44.29470588235294,306.3857449282225
0.62062451171875,-0.57848583984375,0.5422456054687499,1.0069016576091414,0.00048828125,0.01708984375,-0.03076171875,44.29470588235294,306.3857449282225
0.62892529296875,-0.56676708984375,0.5319916992187499,0.9998935574867128,0.037109375,-0.0595703125,-0.0234375,44.20058823529412,306.3857449282225
0.62843701171875,-0.58922802734375,0.5534760742187499,1.0239426305404022,0.0390625,-0.03955078125,-0.01123046875,44.34176470588236,306.3857449282225
0.63331982421875,-0.59215771484375,0.5573823242187499,1.0307375099165337,0.02490234375,-0.08251953125,-0.02392578125,44.20058823529412,306.3857449282225
0.63380810546875,-0.58141552734375,0.5485932617187499,1.0201525850565267,0.02294921875,-0.05126953125,0.02392578125,44.34176470588236,306.3857449282225
0.63185498046875,-0.58581005859375,0.5441987304687499,1.019100779774295,-0.0009765625,-0.029296875,0.05126953125,44.34176470588236,306.3857449282225
0.63234326171875,-0.58581005859375,0.5495698242187499,1.0222809873427894,0.0146484375,-0.03857421875,0.0107421875,44.34176470588236,306.3857449282225
0.62697216796875,-0.58727490234375,0.5476166992187499,1.0187590292083473,0.0166015625,-0.044921875,-0.01513671875,44.059411764705885,306.3857449282225
0.62941357421875,-0.58336865234375,0.5456635742187499,1.0169705837325709,0.03662109375,-0.05029296875,-0.00634765625,44.388823529411766,306.4757308026488
0.62550732421875,-0.58092724609375,0.5490815429687499,1.0150006988836568,0.033203125,-0.03564453125,-0.0078125,44.34176470588236,306.4757308026488
0.62843701171875,-0.58825146484375,0.5427338867187499,1.017611387211076,0.02294921875,-0.0322265625,-0.00048828125,44.20058823529412,306.4757308026488
0.62697216796875,-0.58239208984375,0.5461518554687499,1.015163284871928,0.02294921875,-0.02734375,-0.033203125,44.388823529411766,306.4757308026488
0.62843701171875,-0.58141552734375,0.5471284179687499,1.0160347429509438,0.0146484375,-0.0322265625,-0.0390625,44.15352941176471,306.4757308026488
0.62941357421875,-0.57506787109375,0.5495698242187499,1.0143428885080958,0.01708984375,-0.04541015625,-0.01416015625,44.29470588235294,306.3772854469123
0.62160107421875,-0.57506787109375,0.5432221679687499,1.0060722019849622,0.02294921875,-0.04296875,-0.01513671875,44.29470588235294,306.3772854469123
0.62697216796875,-0.58141552734375,0.5495698242187499,1.0164472964869713,0.00634765625,-0.0146484375,-0.0068359375,44.48294117647059,306.3772854469123
0.62404248046875,-0.57653271484375,0.5466401367187499,1.0102645335686038,0.01318359375,-0.0439453125,-0.02197265625,44.20058823529412,306.3772854469123
0.63331982421875,-0.57604443359375,0.5549409179687499,1.0202355667485874,0.0263671875,-0.033203125,0.01953125,44.29470588235294,306.607775084807
0.64210888671875,-0.57946240234375,0.5505463867187499,1.0252715845385816,0.001953125,-0.00927734375,-0.013671875,44.48294117647059,306.607775084807
0.57081982421875,-0.56237255859375,0.5227143554687499,0.9567279988552212,-0.00537109375,-0.03857421875,0.0517578125,44.20058823529412,306.607775084807
0.63820263671875,-0.59362255859375,0.5573823242187499,1.034584652378746,0.03076171875,0.00830078125,-0.05322265625,44.059411764705885,306.607775084807
0.56740185546875,-0.57555615234375,0.5471284179687499,0.9759914220110284,-0.02783203125,-0.06396484375,-0.029296875,44.29470588235294,306.607775084807
0.63380810546875,-0.60045849609375,0.5612885742187499,1.037934479453097,0.04248046875,-0.00927734375,0.0224609375,44.34176470588236,306.5093291701722
0.61769482421875,-0.59362255859375,0.5676362304687499,1.0276894122636442,-0.00732421875,-0.0751953125,-0.08447265625,44.71823529411765,306.5093291701722
0.64162060546875,-0.57848583984375,0.5471284179687499,1.0225812310084716,-0.03271484375,-0.06982421875,-0.02783203125,44.15352941176471,306.5093291701722
0.64259716796875,-0.59899365234375,0.5578706054687499,1.0406460148751988,-0.052734375,-0.02880859375,-0.00439453125,44.34176470588236,306.5093291701722
0.63478466796875,-0.58532177734375,0.5534760742187499,1.0256163622201246,-0.03955078125,-0.08740234375,0.00439453125,44.48294117647059,306.3197235499451
0.62941357421875,-0.57848583984375,0.5461518554687499,1.014440320345415,-0.05078125,-0.03076171875,0.06103515625,44.29470588235294,306.3197235499451
0.62941357421875,-0.58776318359375,0.5432221679687499,1.0181931698708997,-0.0654296875,-0.04638671875,0.08203125,44.34176470588236,306.3197235499451
0.62697216796875,-0.58336865234375,0.5432221679687499,1.0141515703865307,-0.0537109375,-0.01318359375,0.08642578125,44.34176470588236,306.3197235499451
0.61574169921875,-0.56627880859375,0.5358979492187499,0.9934767944929628,-0.0244140625,-0.0400390625,0.07666015625,44.15352941176471,306.3197235499451
0.61622998046875,-0.58239208984375,0.5510346679687499,1.0112166634527524,-0.0166015625,0.01171875,0.0595703125,44.059411764705885,306.4205168595861
0.62794873046875,-0.58190380859375,0.5446870117187499,1.0146997542565623,-0.00146484375,-0.01953125,-0.0087890625,44.29470588235294,306.4205168595861
0.62648388671875,-0.58483349609375,0.5402924804687499,1.013127949926634,0.00244140625,-0.01171875,-0.02197265625,44.29470588235294,306.4205168595861
0.62990185546875,-0.58727490234375,0.5544526367187499,1.0242489369338923,0.001953125,-0.00048828125,-0.02197265625,44.20058823529412,306.4205168595861
0.63527294921875,-0.59020458984375,0.5471284179687499,1.0253110179992726,-0.00341796875,-0.03076171875,-0.0419921875,44.34176470588236,306.5394043663516
