AccX,AccY,AccZ,Magnitude,GyroX,GyroY,GyroZ,Temperature,Altitude
1.62751318359375,-0.2573681640625,0.8970263671875001,1.8760847097276736,-0.23046875,-1.2685546875,3.22412109375,26.69470588235294,171.40377738193524
1.47223974609375,-0.1631298828125,0.8667529296875001,1.7162056606847775,-0.5576171875,0.54296875,3.17041015625,26.788823529411765,171.40377738193524
1.18220068359375,-0.0395947265625,0.8442919921875001,1.4532705070746557,-0.15869140625,3.32470703125,3.5224609375,26.08294117647059,171.40377738193524
0.97516943359375,0.0414599609375,0.7969287109375001,1.2600673485544334,0.22607421875,5.6748046875,3.3310546875,26.69470588235294,171.31517328849404
0.92341162109375,0.1156787109375,0.7036669921875001,1.1667123990210064,0.486328125,6.87158203125,2.2939453125,26.69470588235294,171.31517328849404
0.89411474609375,0.2060107421875,0.6055224609375001,1.099335733876936,0.8798828125,6.8857421875,0.96337890625,26.64764705882353,171.31517328849404
0.99323583984375,0.2118701171875,0.5366748046875001,1.148662799124935,1.61767578125,5.37060546875,-0.89697265625,26.60058823529412,171.31517328849404
1.06891943359375,0.1410693359375,0.4639208984375,1.1737597339589083,1.75244140625,2.1416015625,-2.572265625,27.40058823529412,171.31517328849404
1.04548193359375,0.0546435546875,0.4658740234375,1.1458869914846126,2.06201171875,-1.75439453125,-3.1611328125,27.44764705882353,171.31517328849404
0.93122412109375,-0.0273876953125,0.4839404296875,1.0498222654561482,2.1435546875,-5.0146484375,-2.849609375,26.64764705882353,171.31517328849404
0.84479833984375,-0.0967236328125,0.5122607421875001,0.992698727778822,1.90478515625,-6.96826171875,-2.14208984375,27.44764705882353,171.31517328849404
0.76520849609375,-0.1064892578125,0.5591357421875001,0.9536858931089848,1.2998046875,-7.06591796875,-1.990234375,25.988823529411768,171.35763731958266
0.73200537109375,-0.0898876953125,0.5928271484375001,0.9462323652270772,0.67919921875,-5.37744140625,-2.158203125,25.988823529411768,171.35763731958266
0.71540380859375,-0.0644970703125,0.6030810546875001,0.9379068396980192,0.2197265625,-2.408203125,-2.775390625,26.03588235294118,171.35763731958266
0.58405615234375,-0.0581494140625,0.5664599609375001,0.8157081774701733,-0.4072265625,1.57421875,-3.25732421875,26.74176470588236,171.35763731958266
0.77643896484375,-0.0869580078125,0.5347216796875001,0.9467557425113272,-0.72900390625,5.06787109375,-3.685546875,25.988823529411768,171.35763731958266
0.90143896484375,-0.1387158203125,0.4927294921875,1.0366371779050243,-0.90283203125,8.14892578125,-3.744140625,26.74176470588236,171.35763731958266
0.98151708984375,-0.1758251953125,0.4468310546875,1.092679407875506,-1.02099609375,10.24853515625,-3.4306640625,25.988823529411768,171.35763731958266
1.03864599609375,-0.2246533203125,0.3989794921875,1.1350943814129308,-1.126953125,11.02587890625,-2.86865234375,26.69470588235294,171.35763731958266
1.03278662109375,-0.2847119140625,0.3774951171875,1.1358748356310135,-1.4033203125,9.9072265625,-1.2919921875,27.44764705882353,171.35763731958266
1.09723974609375,-0.2270947265625,0.3467333984375,1.1729156512010537,-1.39794921875,8.2607421875,-0.1787109375,26.64764705882353,171.0388587495106
1.14362646484375,-0.1572705078125,0.3428271484375,1.2042200618759025,-1.216796875,5.83447265625,0.43603515625,26.64764705882353,171.0388587495106
1.16852880859375,-0.0850048828125,0.3540576171875,1.22394534310319,-0.8857421875,1.9755859375,0.76806640625,26.74176470588236,171.0388587495106
1.16120458984375,-0.0268994140625,0.3857958984375,1.223911007059866,-0.50634765625,-1.87841796875,0.841796875,25.988823529411768,171.0388587495106
1.13532568359375,0.0116748046875,0.4189990234375,1.2102317507542453,-0.03369140625,-6.20849609375,0.86767578125,26.64764705882353,171.0388587495106
1.12067724609375,0.0346240234375,0.4849169921875,1.221581271231449,0.3642578125,-9.77685546875,0.888671875,26.64764705882353,171.0388587495106
1.12751318359375,0.0453662109375,0.5259326171875001,1.2449695538824364,0.68798828125,-12.50341796875,0.83740234375,26.69470588235294,171.0388587495106
1.12897802734375,0.0512255859375,0.5762255859375001,1.2685627192885027,0.7177734375,-13.92822265625,0.54736328125,27.40058823529412,171.0388587495106
1.10895849609375,0.0517138671875,0.6367724609375001,1.2798212520217025,0.46875,-13.52978515625,0.0439453125,26.08294117647059,171.12270524916994
1.09675146484375,0.0287646484375,0.6856005859375001,1.2937307850068684,0.34130859375,-11.32470703125,-0.55078125,27.40058823529412,171.12270524916994
1.07380224609375,-0.0039501953125,0.7217333984375001,1.293818366765263,0.1484375,-6.88037109375,-1.5380859375,26.69470588235294,171.12270524916994
1.04645849609375,-0.0435009765625,0.7554248046875001,1.2913691782545498,-0.00537109375,-1.5087890625,-2.29833984375,26.788823529411765,171.12270524916994
1.03132177734375,-0.0659619140625,0.7773974609375001,1.293183047678221,-0.42431640625,3.478515625,-2.349609375,27.44764705882353,171.12270524916994
1.03473974609375,-0.0395947265625,0.7939990234375001,1.3048710793551297,-0.57861328125,7.66748046875,-1.6396484375,27.353529411764708,171.12270524916994
1.10993505859375,-0.0166455078125,0.7969287109375001,1.3665022054656015,-0.61328125,9.89501953125,-0.7607421875,25.988823529411768,171.12270524916994
1.08893896484375,0.0199755859375,0.7871630859375001,1.3438053493907414,-0.35595703125,9.986328125,0.13427734375,25.988823529411768,171.12270524916994
1.28962255859375,0.0619677734375,0.7549365234375001,1.4956254554528652,0.1435546875,8.060546875,1.0673828125,25.988823529411768,171.1780918393015
1.31647802734375,0.1049365234375,0.7266162109375001,1.5073477330819225,0.80517578125,5.6201171875,1.05810546875,26.69470588235294,171.1780918393015
1.25251318359375,0.1430224609375,0.6724169921875001,1.4287719589882963,1.4931640625,2.76611328125,0.705078125,26.69470588235294,171.1780918393015
1.15388037109375,0.1332568359375,0.6577685546875001,1.3348620777650426,1.677734375,0.44677734375,0.4912109375,26.69470588235294,171.1780918393015
1.08893896484375,0.1161669921875,0.6509326171875001,1.2739686461398636,1.63134765625,-1.2099609375,0.24609375,26.69470588235294,171.1780918393015
1.06061865234375,0.0868701171875,0.6533740234375001,1.2487417497075002,1.40185546875,-1.81884765625,-0.05908203125,27.44764705882353,171.1780918393015
1.07331396484375,0.0678271484375,0.6885302734375001,1.2769797675114871,1.16943359375,-1.66552734375,-0.1240234375,27.44764705882353,171.1780918393015
1.11579443359375,0.0522021484375,0.7261279296875001,1.3322852744861151,1.0263671875,-0.99951171875,-0.2294921875,27.44764705882353,171.1780918393015
1.14362646484375,0.0287646484375,0.7637255859375001,1.375494698901571,0.90185546875,0.61181640625,-0.2265625,27.44764705882353,170.8979412824817
1.12263037109375,0.0297412109375,0.7690966796875001,1.361136728046252,0.79345703125,2.27294921875,-0.12109375,26.788823529411765,170.8979412824817
1.05915380859375,0.0487841796875,0.7783740234375001,1.315314717780011,0.8037109375,4.27490234375,0.419921875,27.44764705882353,170.8979412824817
0.99470068359375,0.0668505859375,0.7842333984375001,1.2684322898786875,0.89501953125,6.36083984375,0.86669921875,25.988823529411768,170.8979412824817
0.92878271484375,0.0902880859375,0.7476123046875001,1.195706246523342,0.9228515625,7.97900390625,1.22802734375,27.44764705882353,170.8979412824817
0.88923193359375,0.1156787109375,0.7266162109375001,1.1541603501611943,0.97314453125,8.7861328125,1.3515625,26.64764705882353,170.8979412824817
0.88727880859375,0.1361865234375,0.6934130859375001,1.1342980918148915,1.087890625,8.86083984375,1.21728515625,25.988823529411768,170.8979412824817
0.91901708984375,0.1542529296875,0.6641162109375001,1.144306217483779,1.125,8.03515625,0.52294921875,26.64764705882353,170.8979412824817
0.95514990234375,0.1469287109375,0.6411669921875001,1.1597389766304296,1.48779296875,7.00146484375,-0.08251953125,26.74176470588236,170.8979412824817
0.92780615234375,0.1264208984375,0.5942919921875001,1.1090489041817977,1.63330078125,6.32861328125,-0.34375,26.64764705882353,170.96019561342317
0.88141943359375,0.0995654296875,0.5811083984375001,1.0604246618408022,1.97900390625,5.783203125,-0.23779296875,26.74176470588236,170.96019561342317
0.83259130859375,0.0517138671875,0.5625537109375001,1.006155698137665,2.1513671875,5.53857421875,0.02783203125,26.74176470588236,170.96019561342317
0.76569677734375,0.0243701171875,0.5576708984375001,0.9475665087002736,2.28759765625,5.28076171875,0.40673828125,26.788823529411765,170.96019561342317
0.71638037109375,0.0224169921875,0.5547412109375001,0.9063339167986364,2.38818359375,5.0029296875,0.70263671875,26.69470588235294,170.96019561342317
0.70075537109375,0.0165576171875,0.5371630859375001,0.8831061236893135,2.37548828125,4.43505859375,0.78662109375,26.64764705882353,170.96019561342317
0.68171240234375,0.0233935546875,0.5161669921875001,0.8553989839449745,2.177734375,3.70556640625,0.78076171875,26.69470588235294,170.96019561342317
0.66511083984375,0.0487841796875,0.5361865234375001,0.8557150889060176,1.98779296875,2.10107421875,0.79736328125,25.988823529411768,170.96019561342317
0.69001318359375,0.0541552734375,0.5659716796875001,0.8940776976206054,1.3779296875,0.34619140625,0.7001953125,25.988823529411768,170.96019561342317
0.76179052734375,0.0463427734375,0.6553271484375001,1.0059453919968884,0.90087890625,-1.46875,0.51318359375,26.64764705882353,171.2355826630709
0.78864599609375,0.0873583984375,0.7588427734375001,1.0979236547823283,0.9599609375,-2.71728515625,0.52978515625,26.69470588235294,171.2355826630709
0.78473974609375,0.0863818359375,0.8706591796875001,1.1752981314769997,1.13134765625,-2.7109375,0.50439453125,26.788823529411765,171.2355826630709
0.77204443359375,0.0575732421875,0.9214404296875,1.2035031163739291,1.5810546875,-0.92919921875,0.47900390625,26.69470588235294,171.2355826630709
0.73786474609375,0.0439013671875,0.9756396484375,1.2240279560419258,1.90234375,2.37255859375,0.7001953125,26.69470588235294,171.2355826630709
0.70173193359375,0.0058154296875,0.9780810546875,1.2037873879495025,2.0009765625,6.74951171875,1.32763671875,26.788823529411765,171.2355826630709
0.69733740234375,0.0033740234375,0.9839404296875,1.2059973490498677,2.4033203125,11.68896484375,2.0595703125,26.69470588235294,171.2355826630709
0.74714208984375,0.1381396484375,0.9302294921875,1.201095655233977,2.6328125,15.54345703125,2.55859375,26.74176470588236,170.8578428878945
0.81403662109375,0.0370654296875,0.8745654296875001,1.1953636088505162,2.73291015625,15.99951171875,2.31494140625,25.988823529411768,170.8578428878945
0.86628271484375,0.0424365234375,0.8174365234375001,1.191825939643917,2.724609375,15.99951171875,1.64013671875,26.60058823529412,170.8578428878945
0.91804052734375,0.0526904296875,0.7212451171875001,1.168661289806869,2.53271484375,14.98583984375,0.75537109375,26.64764705882353,170.8578428878945
0.94489599609375,0.0605029296875,0.6665576171875001,1.15792404973964,2.2275390625,11.6103515625,-0.0634765625,25.988823529411768,170.8578428878945
0.92243505859375,0.0795458984375,0.6650927734375001,1.1399835018805622,2.115234375,7.59814453125,-0.8603515625,26.08294117647059,170.8578428878945
0.86188818359375,0.0771044921875,0.6914599609375001,1.1076611491398058,1.8291015625,3.6484375,-1.52880859375,26.74176470588236,170.8578428878945
0.77057958984375,0.0526904296875,0.7256396484375001,1.0597745444427855,1.76513671875,0.58740234375,-2.4462890625,26.60058823529412,170.8578428878945
0.64118505859375,-0.0083447265625,0.7705615234375001,1.0024734286890573,1.72265625,-0.8876953125,-2.89111328125,27.44764705882353,170.8578428878945
0.52399755859375,-0.0859814453125,0.8106005859375001,0.9690405359284282,1.564453125,-0.76708984375,-3.06591796875,26.64764705882353,171.0577881466475
0.3916733398437499,-0.1269970703125,0.8389208984375001,0.934518343772608,1.42333984375,0.6259765625,-2.65771484375,26.74176470588236,171.0577881466475
0.3731186523437499,-0.1743603515625,0.9346240234375,1.0213428053843212,1.66748046875,2.779296875,-2.3544921875,26.69470588235294,171.0577881466475
0.4390366210937499,-0.1802197265625,1.0112841796875005,1.1171069763410753,2.14306640625,4.3583984375,-1.60009765625,26.69470588235294,171.0577881466475
0.50056005859375,-0.1807080078125,1.0190966796875005,1.149684217033977,2.6240234375,5.169921875,-0.4794921875,26.64764705882353,171.0577881466475
0.53034521484375,-0.1875439453125,0.9766162109375,1.1270394854648886,2.51708984375,5.82763671875,0.80322265625,26.788823529411765,171.0577881466475
0.50007177734375,-0.1665478515625,0.9526904296875,1.088774092350647,2.36083984375,6.46923828125,1.6572265625,26.69470588235294,171.0577881466475
0.4854233398437499,-0.1411572265625,0.9473193359375,1.0737667836718288,2.1689453125,6.9130859375,2.0107421875,26.64764705882353,171.0577881466475
0.50886083984375,-0.0845166015625,0.9292529296875,1.0628233237932647,2.30859375,7.029296875,1.794921875,26.64764705882353,171.0577881466475
0.54255224609375,-0.0518017578125,0.8901904296875001,1.0437841553506424,2.3359375,6.62939453125,1.533203125,26.69470588235294,171.07994328568248
0.57331396484375,-0.0234814453125,0.8516162109375001,1.0268838548201882,2.06640625,5.92041015625,1.4462890625,26.69470588235294,171.07994328568248
0.59968115234375,0.1376513671875,0.8662646484375001,1.0625346227288133,1.8212890625,4.62841796875,1.43212890625,26.788823529411765,171.07994328568248
0.58845068359375,0.0590380859375,0.9150927734375,1.089566191936337,1.98681640625,3.478515625,1.40380859375,26.64764705882353,171.07994328568248
0.51423193359375,0.1059130859375,0.8897021484375001,1.0330643620968998,2.34033203125,2.86376953125,1.27099609375,27.40058823529412,171.07994328568248
0.4224350585937499,0.1308154296875,0.8438037109375001,0.95266403205187,2.62060546875,3.37451171875,1.08984375,26.74176470588236,171.07994328568248
0.3687241210937499,0.1386279296875,0.8281787109375001,0.9170905940068844,2.38330078125,4.25341796875,0.99609375,26.64764705882353,171.37538223268228
0.3521225585937499,0.0356005859375,0.9561083984375,1.019510160593029,2.84814453125,4.75390625,1.4052734375,25.988823529411768,171.37538223268228
0.2862045898437499,0.1171435546875,0.8267138671875001,0.8826615987186505,2.794921875,5.81689453125,1.7568359375,25.988823529411768,171.37538223268228
0.4463608398437499,0.0194873046875,0.8628466796875001,0.9716594810105774,2.7509765625,6.56787109375,0.5634765625,27.44764705882353,171.37538223268228
0.4722397460937499,0.1845263671875,0.8516162109375001,0.9911157998486604,2.81298828125,7.14892578125,-1.1611328125,25.988823529411768,171.37538223268228
0.3950913085937499,0.1933154296875,0.8042529296875001,0.9166737546109366,2.77587890625,8.16015625,-2.8212890625,26.64764705882353,171.37538223268228
0.3018295898437499,0.1591357421875,0.7456591796875001,0.8200200595101612,2.57421875,9.11474609375,-3.44482421875,26.64764705882353,171.37538223268228
0.3101303710937499,0.1410693359375,0.7554248046875001,0.82870262468134,2.50244140625,9.306640625,-3.423828125,26.835882352941177,171.37538223268228
0.3325913085937499,0.1005419921875,0.6914599609375001,0.7738491767294344,1.783203125,8.74365234375,-2.884765625,26.64764705882353,171.37538223268228
0.4326889648437499,0.1093310546875,0.7407763671875001,0.864825211242218,1.38916015625,7.4365234375,-2.615234375,25.988823529411768,171.46246105419834
0.4038803710937499,0.0629443359375,0.7603076171875001,0.8632201436104072,0.90283203125,5.76416015625,-2.24072265625,26.64764705882353,171.46246105419834
0.3726303710937499,0.0912646484375,0.8237841796875001,0.9087370379924512,1.08837890625,4.21142578125,-2.11669921875,26.64764705882353,171.46246105419834
0.2783920898437499,0.0609912109375,0.8213427734375001,0.8693825596233212,1.26513671875,3.10693359375,-2.091796875,26.64764705882353,171.46246105419834
0.16169287109375,0.0365771484375,0.6772998046875001,0.6972929784388229,1.244140625,2.4130859375,-1.6630859375,26.03588235294118,171.46246105419834
0.10212255859375,0.0316943359375,0.8364794921875001,0.843286125081227,0.92822265625,2.2373046875,-1.04833984375,25.988823529411768,171.46246105419834
0.10944677734375,0.0439013671875,0.9067919921875,0.9144274953254846,0.97412109375,1.822265625,-0.6396484375,26.64764705882353,171.46246105419834
0.13825537109375,0.0629443359375,0.9565966796875,0.968583370005924,1.134765625,1.5126953125,-0.40087890625,25.988823529411768,171.46246105419834
0.12995458984375,0.0946826171875,0.9673388671875,0.9806107675273242,1.55517578125,1.42041015625,0.19091796875,26.64764705882353,171.34004603491078
0.10749365234375,0.1186083984375,0.9839404296875,0.996875923396553,1.818359375,1.6484375,0.94482421875,26.64764705882353,171.34004603491078
0.09040380859375,0.1249560546875,0.9961474609375,1.0080161844650857,1.98876953125,2.20703125,1.47607421875,26.69470588235294,171.34004603491078
0.11628271484375,0.1391162109375,1.0147021484375005,1.0307741944580875,2.0615234375,3.14306640625,1.45947265625,27.40058823529412,171.34004603491078
0.10358740234375,0.1640185546875,1.0181201171875005,1.036436688480291,1.93798828125,4.216796875,1.1884765625,27.44764705882353,171.34004603491078
0.09821630859375,0.1864794921875,1.0117724609375005,1.0334914402121655,1.5830078125,4.86767578125,0.8544921875,26.74176470588236,171.34004603491078
0.20563818359375,0.2099169921875,0.9946826171875,1.037181621074997,1.1787109375,5.21044921875,0.53173828125,26.69470588235294,171.34004603491078
0.0474350585937499,0.2353076171875,0.9883349609375,1.0170672320459355,0.79150390625,5.3330078125,0.3115234375,26.74176470588236,171.34004603491078
0.0410874023437499,0.1405810546875,0.9961474609375,1.0068569766856836,0.646484375,4.9296875,0.28369140625,26.64764705882353,171.34004603491078
-0.00822900390625,0.2753466796875,0.9526904296875,0.991716978446156,0.7080078125,4.556640625,0.525390625,26.64764705882353,171.34004603491078
0.0171616210937499,0.2563037109375,0.9439013671875,0.978231007716138,0.5361328125,4.13623046875,0.4990234375,27.353529411764708,171.34004603491078
0.0606186523437499,0.2538623046875,0.9321826171875,0.9680315710449524,0.49951171875,3.951171875,-0.193359375,26.03588235294118,171.34004603491078
0.11481787109375,0.2475146484375,0.9331591796875,0.9722307850241568,0.572265625,3.9990234375,-0.912109375,26.03588235294118,171.34004603491078
0.11628271484375,0.2426318359375,1.0469287109375005,1.0809493990780008,0.7138671875,3.84228515625,-1.6025390625,27.44764705882353,171.34004603491078
0.0449936523437499,0.2367724609375,0.8994677734375001,0.9311970266609768,0.90185546875,3.91015625,-1.64892578125,26.69470588235294,171.34004603491078
-0.00871728515625,0.1859912109375,0.8623583984375001,0.882230541843901,1.06640625,3.98046875,-1.29052734375,25.988823529411768,171.34004603491078
-0.03606103515625,0.1479052734375,0.8467333984375001,0.8603103022727789,1.1083984375,3.759765625,-0.69677734375,27.44764705882353,171.34004603491078
0.0108139648437499,0.0907763671875,0.8232958984375001,0.8283558577443707,0.9482421875,3.34814453125,-0.34375,25.988823529411768,171.5151827146914
0.0601303710937499,0.0683154296875,0.8115771484375001,0.8166640235293849,0.65185546875,2.416015625,0.0634765625,26.64764705882353,171.5151827146914
0.09186865234375,0.0834521484375,0.8501513671875001,0.8591632309945921,0.37939453125,1.35546875,0.1171875,26.69470588235294,171.5151827146914
0.07575537109375,0.0966357421875,0.8682177734375001,0.8768577108233986,0.21728515625,0.10400390625,-0.29541015625,25.988823529411768,171.5151827146914
0.0171616210937499,0.1161669921875,0.9014208984375,0.9090373630672868,0.0859375,-0.88037109375,-0.50732421875,25.988823529411768,171.5151827146914
-0.04143212890625,0.1356982421875,0.9297412109375,0.94050483972918,-0.01123046875,-1.52099609375,-0.515625,27.306470588235296,171.5151827146914
-0.07268212890625,0.1405810546875,0.9712451171875,0.9840542680462064,-0.00732421875,-1.61083984375,-0.39794921875,26.69470588235294,171.5151827146914
-0.06633447265625,0.1425341796875,1.0093310546875005,1.0215015578051525,0.10498046875,-1.3583984375,-0.27685546875,27.40058823529412,171.5151827146914
-0.06926416015625,0.1347216796875,1.0283740234375005,1.039471301643775,0.1787109375,-0.41015625,-0.2060546875,26.69470588235294,171.17753641369023
-0.10197900390625,0.1405810546875,1.0269091796875005,1.041491821139857,0.185546875,0.71044921875,-0.10595703125,26.69470588235294,171.17753641369023
-0.11369775390625,0.1381396484375,1.0161669921875005,1.0317970235105127,0.15869140625,2.0966796875,-0.12109375,26.69470588235294,171.17753641369023
-0.13274072265625,0.1439990234375,1.0127490234375005,1.0315117074836655,0.130859375,3.14111328125,-0.1767578125,25.988823529411768,171.17753641369023
-0.10783837890625,0.1552294921875,0.9951708984375,1.0129612175729228,0.0712890625,3.8193359375,-0.2919921875,25.988823529411768,171.17753641369023
-0.06535791015625,0.1664599609375,0.9834521484375,0.9995792631310642,0.06982421875,3.560546875,-0.48681640625,26.69470588235294,171.17753641369023
0.0093491210937499,0.1718310546875,0.9829638671875,0.9979134639919685,0.171875,2.71728515625,-0.75,26.788823529411765,171.17753641369023
0.0371811523437499,0.1796435546875,0.9751513671875,0.9922572417261668,0.28173828125,1.416015625,-0.830078125,25.988823529411768,171.17753641369023
-0.03264306640625,0.1557177734375,0.9722216796875,0.9851540941411752,0.27685546875,0.60498046875,-0.4677734375,26.69470588235294,171.1332259321252
-0.09660791015625,0.1259326171875,0.9976123046875,1.0101596026571034,0.263671875,0.07275390625,-0.05908203125,25.988823529411768,171.1332259321252
-0.10002587890625,0.1005419921875,1.0132373046875005,1.0231147072808549,0.4833984375,0.037109375,0.142578125,26.64764705882353,171.1332259321252
-0.10735009765625,0.0956591796875,1.0049365234375005,1.0151709896682142,0.5107421875,0.35888671875,0.18212890625,25.988823529411768,171.1332259321252
-0.14641259765625,0.1068896484375,1.0005419921875005,1.0168315120146874,0.51806640625,0.9580078125,0.23388671875,25.988823529411768,171.1332259321252
-0.14250634765625,0.1064013671875,0.9912646484375,1.0070923062478505,0.48291015625,1.673828125,0.21875,25.988823529411768,171.1332259321252
-0.13176416015625,0.1156787109375,0.9961474609375,1.0114608850559037,0.40380859375,2.01611328125,0.17626953125,26.788823529411765,171.1332259321252
-0.10979150390625,0.1293505859375,0.9663623046875,0.9811431354972154,0.33056640625,2.26171875,0.12841796875,26.64764705882353,171.1332259321252
-0.08195947265625,0.1376513671875,0.9658740234375,0.9790699072068464,0.271484375,2.0810546875,0.00830078125,26.69470588235294,171.1332259321252
-0.08977197265625,0.1459521484375,0.9497607421875,0.9650940389975826,0.22509765625,1.78662109375,-0.0224609375,25.988823529411768,171.62862214944107
-0.09953759765625,0.1483935546875,0.9468310546875,0.9635442006159411,0.20947265625,1.43017578125,0.052734375,26.03588235294118,171.62862214944107
-0.10490869140625,0.1347216796875,0.9356005859375,0.9510542681240576,0.15380859375,1.09716796875,0.11083984375,25.988823529411768,171.62862214944107
-0.09660791015625,0.1254443359375,0.9336474609375,0.9469777985985728,0.10205078125,0.9404296875,0.0517578125,25.988823529411768,171.62862214944107
-0.09318994140625,0.1215380859375,1.0430224609375005,1.0542066806526935,0.05517578125,0.91845703125,-0.0166015625,26.69470588235294,171.62862214944107
-0.11418603515625,0.1078662109375,0.9307177734375,0.9438798355083,0.041015625,1.0263671875,-0.0009765625,26.788823529411765,171.62862214944107
-0.13518212890625,0.1005419921875,0.9282763671875,0.943440466615398,0.05859375,1.16552734375,0.013671875,27.40058823529412,171.62862214944107
-0.15617822265625,0.0961474609375,0.9331591796875,0.9510110546738356,0.0947265625,1.287109375,-0.01123046875,26.69470588235294,171.62862214944107
-0.15764306640625,0.1078662109375,1.0493701171875005,1.0666133782650986,0.19677734375,1.31103515625,-0.1279296875,27.44764705882353,171.3220986227074
-0.15031884765625,0.1210498046875,0.8057177734375001,0.8285106768223736,0.29541015625,1.14990234375,-0.1298828125,27.44764705882353,171.3220986227074
-0.11516259765625,0.1313037109375,0.8066943359375001,0.8253840560845225,0.42431640625,0.6943359375,-0.2294921875,26.64764705882353,171.3220986227074
-0.10686181640625,0.1288623046875,0.8037646484375001,0.8210131250186414,0.41943359375,0.21923828125,-0.568359375,26.64764705882353,171.3220986227074
-0.11320947265625,0.1337451171875,0.9439013671875,0.960028089197934,0.453125,-0.193359375,-0.75927734375,26.03588235294118,171.3220986227074
-0.10246728515625,0.1244677734375,0.9648974609375,0.9782734184651116,0.5224609375,-0.33544921875,-0.9482421875,26.03588235294118,171.3220986227074
-0.11467431640625,0.1156787109375,0.9795458984375,0.9929964401512886,0.5654296875,-0.47607421875,-0.9794921875,27.44764705882353,171.3220986227074
-0.15715478515625,0.1127490234375,0.9766162109375,0.9955848493471244,0.57861328125,-0.6171875,-0.87451171875,26.64764705882353,171.3220986227074
-0.19084619140625,0.1083544921875,0.9902880859375,1.0143142796496751,0.5712890625,-0.66015625,-0.4697265625,26.74176470588236,171.3220986227074
-0.18401025390625,0.1117724609375,0.9800341796875,1.0034041309075914,0.5478515625,-0.56689453125,-0.404296875,26.64764705882353,171.52205315577137
-0.16301416015625,0.1112841796875,0.9751513671875,0.9949261148385934,0.51953125,-0.40234375,-0.54150390625,26.74176470588236,171.52205315577137
-0.14787744140625,0.1020068359375,0.9717333984375,0.9881998430953792,0.5537109375,-0.34326171875,-0.703125,25.988823529411768,171.52205315577137
-0.16057275390625,0.1068896484375,0.9839404296875,1.0026703223960265,0.62451171875,-0.396484375,-0.654296875,27.40058823529412,171.52205315577137
-0.16350244140625,0.1068896484375,0.9810107421875,1.000270224277503,0.7197265625,-0.5322265625,-0.56201171875,26.64764705882353,171.52205315577137
-0.16008447265625,0.1220263671875,0.9722216796875,0.9928406050968062,0.7998046875,-0.64599609375,-0.541015625,26.64764705882353,171.52205315577137
-0.14397119140625,0.1225146484375,0.9756396484375,0.9937858253366004,0.86572265625,-0.60986328125,-0.6201171875,26.64764705882353,171.52205315577137
-0.15178369140625,0.1278857421875,0.9546435546875,0.975057623188569,0.904296875,-0.42724609375,-0.7119140625,26.74176470588236,171.52205315577137
-0.16887353515625,0.1288623046875,0.9424365234375,0.9660798958442852,0.91943359375,-0.189453125,-0.759765625,27.44764705882353,171.52205315577137
-0.16985009765625,0.1147021484375,0.9282763671875,0.9506327642201474,0.92578125,0.02001953125,-0.79248046875,25.988823529411768,171.3020478304801
-0.04289697265625,0.1034716796875,0.9150927734375,0.9219226229776334,0.919921875,0.1044921875,-0.83154296875,26.64764705882353,171.3020478304801
-0.16106103515625,0.1020068359375,0.8818896484375001,0.9022612723844464,0.90185546875,0.078125,-0.8984375,26.64764705882353,171.3020478304801
-0.15861962890625,0.0897998046875,0.8662646484375001,0.8852336599614902,0.90087890625,-0.14892578125,-0.89990234375,26.60058823529412,171.3020478304801
-0.16496728515625,0.0819873046875,0.8521044921875001,0.871790220699832,0.90087890625,-0.45654296875,-0.81396484375,26.69470588235294,171.3020478304801
-0.14690087890625,0.0829638671875,0.8477099609375001,0.8643350330484075,0.90625,-0.9228515625,-0.7001953125,27.40058823529412,171.3020478304801
-0.11516259765625,0.0785693359375,0.8501513671875001,0.8615061877777609,0.890625,-1.27099609375,-0.65380859375,26.64764705882353,171.3020478304801
-0.09465478515625,0.0766162109375,0.8721240234375001,0.8805849671600171,0.90869140625,-1.96337890625,-0.68505859375,26.74176470588236,171.3020478304801
-0.09318994140625,0.0761279296875,0.8897021484375001,0.897802728772924,0.9111328125,-2.4462890625,-0.64501953125,26.60058823529412,171.3020478304801
-0.08440087890625,0.0639208984375,0.9214404296875,0.9275030216014876,0.89013671875,-2.68603515625,-0.625,26.64764705882353,171.270919687342
-0.08879541015625,0.0429248046875,0.9277880859375,0.933015485471622,0.80712890625,-2.71630859375,-0.57861328125,25.988823529411768,171.270919687342
-0.10930322265625,0.0307177734375,0.9424365234375,0.9492509556471148,0.71875,-2.37939453125,-0.49560546875,27.353529411764708,171.270919687342
-0.13225244140625,-0.0142041015625,0.9277880859375,0.9372743446647204,0.6025390625,-1.8740234375,-0.38916015625,27.44764705882353,171.270919687342
-0.13567041015625,-0.0386181640625,0.9141162109375,0.9249358193335662,0.62451171875,-1.02490234375,-0.21533203125,27.44764705882353,171.270919687342
-0.11858056640625,-0.0791455078125,0.8945849609375001,0.905873950653,0.41796875,-0.44140625,-0.06494140625,26.64764705882353,171.270919687342
-0.09563134765625,-0.1025830078125,0.8750537109375001,0.8862209798757306,0.390625,-0.29443359375,0.11474609375,26.69470588235294,171.270919687342
-0.05705712890625,-0.1221142578125,0.8916552734375001,0.901785193141374,0.39599609375,-0.71533203125,0.306640625,27.44764705882353,171.0467105982725
-0.04875634765625,-0.1348095703125,0.9097216796875,0.9209475208599373,0.4306640625,-1.72265625,0.6005859375,25.988823529411768,171.0467105982725
-0.05266259765625,-0.1123486328125,0.9644091796875,0.9723582829144096,0.4736328125,-3.0078125,0.88037109375,26.69470588235294,171.0467105982725
-0.06779931640625,-0.0908642578125,1.0210498046875005,1.0273245661938362,0.40576171875,-4.64453125,1.33447265625,26.69470588235294,171.0467105982725
-0.07414697265625,-0.0625439453125,1.1206591796875005,1.1248495524589948,0.3271484375,-6.15576171875,1.45751953125,26.835882352941177,171.0467105982725
-0.07707666015625,-0.0391064453125,1.2324755859375005,1.235502406123843,0.20849609375,-7.26904296875,1.44384765625,26.08294117647059,171.0467105982725
-0.12297509765625,-0.0259228515625,1.3115771484375005,1.3175847165097736,0.109375,-7.64013671875,1.51806640625,26.64764705882353,171.0467105982725
-0.16496728515625,-0.0024853515625,1.3945849609375005,1.404310362924543,0.05322265625,-6.83251953125,1.64501953125,26.74176470588236,171.42025390000762
-0.19328759765625,0.0063037109375,1.4356005859375005,1.4485678701819262,0.1240234375,-5.11572265625,1.6259765625,27.40058823529412,171.42025390000762
-0.20598291015625,0.0194873046875,1.4321826171875005,1.4470507120672929,0.23974609375,-2.193359375,1.423828125,26.69470588235294,171.42025390000762
-0.19279931640625,0.0526904296875,1.3779833984375005,1.3924029963184987,0.47216796875,0.9580078125,1.35693359375,26.60058823529412,171.42025390000762
-0.13860009765625,0.0497607421875,1.2734912109375005,1.2819773722138912,0.583984375,3.27978515625,1.2060546875,26.74176470588236,171.42025390000762
-0.12102197265625,0.0424365234375,1.1787646484375005,1.1857205711267116,0.53955078125,5.15283203125,0.888671875,27.44764705882353,171.42025390000762
-0.09514306640625,0.0404833984375,1.0806201171875005,1.0855555933735317,0.583984375,6.33740234375,0.53857421875,25.988823529411768,171.42025390000762
-0.05949853515625,0.0170458984375,0.9863818359375,0.988321690851068,0.66357421875,6.41845703125,0.3759765625,26.69470588235294,171.39809931590608
-0.02678369140625,0.0189990234375,0.9165576171875,0.9171456779821576,0.8349609375,5.8583984375,0.46142578125,26.74176470588236,171.39809931590608
-0.00285791015625,0.0092333984375,0.8496630859375001,0.849718060830769,0.97998046875,4.390625,0.66162109375,25.988823529411768,171.39809931590608
0.0030014648437499,-0.0019970703125,0.7969287109375001,0.7969368653773942,1.05322265625,2.51904296875,0.8037109375,26.64764705882353,171.39809931590608
-0.00139306640625,0.0063037109375,0.7603076171875001,0.7603350249455367,1.0078125,0.490234375,0.80224609375,26.74176470588236,171.39809931590608
-0.00285791015625,0.0097216796875,0.7920458984375001,0.7921107144446881,0.9921875,-1.05322265625,0.66943359375,27.40058823529412,171.39809931590608
0.0005600585937499,0.0160693359375,0.8462451171875001,0.8463978589214333,1.09375,-2.30322265625,0.60302734375,27.353529411764708,171.39809931590608
-0.02385400390625,0.0180224609375,0.9165576171875,0.917045085164863,1.1826171875,-3.15771484375,0.373046875,25.988823529411768,171.55852738990174
0.08112646484375,0.0414599609375,0.9824755859375,0.9866907867322048,1.23095703125,-3.09814453125,0.005859375,26.64764705882353,171.55852738990174
-0.06047509765625,0.0629443359375,1.0308154296875005,1.0345045562707649,1.2685546875,-2.423828125,-0.28173828125,26.74176470588236,171.55852738990174
-0.08635400390625,0.0917529296875,1.0752490234375005,1.082606150222775,1.27294921875,-0.8876953125,-0.625,26.74176470588236,171.55852738990174
-0.10197900390625,0.1166552734375,1.0957568359375005,1.1066576767737395,1.2998046875,0.951171875,-1.03466796875,26.69470588235294,171.55852738990174
-0.08928369140625,0.1430224609375,1.1089404296875005,1.1216843934366043,1.41162109375,2.4111328125,-1.37744140625,26.64764705882353,171.55852738990174
-0.04289697265625,0.1762255859375,1.1343310546875005,1.1487395479526867,1.6572265625,2.96826171875,-1.90234375,26.69470588235294,171.55852738990174
0.0371811523437499,0.1972216796875,1.1841357421875005,1.2010230159969084,1.9775390625,2.125,-2.2861328125,27.44764705882353,171.55852738990174
0.08600927734375,0.2016162109375,1.2178271484375005,1.237396321221864,2.03662109375,0.84033203125,-2.79931640625,26.788823529411765,171.55852738990174
-0.03850244140625,0.1786669921875,1.2197802734375005,1.233397035653497,1.7958984375,0.2607421875,-3.02197265625,26.74176470588236,171.62708980776804
-0.21672509765625,0.1186083984375,1.1929248046875005,1.218239430396476,1.4443359375,0.89306640625,-2.97998046875,26.835882352941177,171.62708980776804
-0.31633447265625,0.0468310546875,1.2964404296875005,1.33529713322622,1.2763671875,2.255859375,-2.28515625,26.69470588235294,171.62708980776804
-0.23772119140625,-0.0034619140625,1.1245654296875005,1.1494219222464896,1.39404296875,3.3798828125,-1.68115234375,27.40058823529412,171.62708980776804
-0.08391259765625,-0.0361767578125,1.0410693359375005,1.0450719803346524,1.51123046875,3.97509765625,-1.4306640625,26.60058823529412,171.62708980776804
0.0210678710937499,-0.0352001953125,0.9580615234375,0.958939409782414,1.52587890625,3.7041015625,-1.22509765625,26.74176470588236,171.62708980776804
-0.01652978515625,0.0175341796875,0.8926318359375001,0.8929570402789696,1.6416015625,3.25146484375,-0.56640625,25.988823529411768,171.62708980776804
0.07526708984375,0.0517138671875,0.8223193359375001,0.8273744914666663,1.96484375,2.99267578125,-0.07177734375,26.64764705882353,171.62708980776804
-0.02531884765625,0.0937060546875,0.7876513671875001,0.7936098190950482,2.107421875,2.35693359375,0.16650390625,26.74176470588236,171.31368548812
0.0064194335937499,0.1244677734375,0.7788623046875001,0.7887711489496034,2.09521484375,1.330078125,0.08154296875,26.69470588235294,171.31368548812
0.0186264648437499,0.1327685546875,0.8013232421875001,0.8124613054024604,2.00146484375,0.01318359375,-0.1396484375,27.44764705882353,171.31368548812
-0.00822900390625,0.1200732421875,0.8364794921875001,0.8450936284489223,1.85302734375,-1.01708984375,-0.68603515625,25.988823529411768,171.31368548812
-0.06340478515625,0.0790576171875,0.8857958984375001,0.8915742522666149,1.7275390625,-1.77490234375,-0.8623046875,27.40058823529412,171.31368548812
-0.11418603515625,0.0531787109375,0.9253466796875,0.9338805617049536,1.33837890625,-2.08203125,-0.8662109375,25.988823529411768,171.31368548812
-0.13371728515625,0.0390185546875,0.9868701171875,0.9966520898273024,1.0703125,-1.69873046875,-0.5263671875,27.44764705882353,171.31368548812
-0.15324853515625,0.0370654296875,1.0234912109375005,1.0355642029694567,0.99267578125,-0.9892578125,-0.4052734375,26.64764705882353,171.31368548812
-0.15813134765625,0.0439013671875,1.0430224609375005,1.0558544914772263,0.66796875,0.43896484375,-0.416015625,26.74176470588236,171.31368548812
-0.16008447265625,0.0399951171875,1.0391162109375005,1.0521355177055751,0.4697265625,2.2353515625,-0.43994140625,25.988823529411768,171.3178911812648
-0.15031884765625,0.0365771484375,1.0151904296875005,1.0269105376212735,0.341796875,3.220703125,-0.4521484375,26.03588235294118,171.3178911812648
-0.13762353515625,0.0321826171875,0.9761279296875,0.9863070989270764,0.1455078125,3.552734375,-0.44775390625,27.353529411764708,171.3178911812648
-0.12688134765625,0.0380419921875,0.9439013671875,0.9531504920688504,-0.021484375,3.087890625,-0.3798828125,26.64764705882353,171.3178911812648
-0.13029931640625,0.0561083984375,0.9292529296875,0.9400197187101764,0.02783203125,1.994140625,0.05078125,25.988823529411768,171.3178911812648
-0.10588525390625,0.1029833984375,0.9209521484375,0.9327218915947963,0.34130859375,0.72412109375,0.5703125,27.44764705882353,171.3178911812648
-0.07902978515625,0.1220263671875,0.8906787109375001,0.9024659037039064,0.5126953125,-0.4423828125,0.3857421875,26.64764705882353,171.3178911812648
-0.08781884765625,0.1571826171875,0.9092333984375,0.926889366636488,0.77490234375,-0.677734375,0.0185546875,27.44764705882353,171.3178911812648
-0.08537744140625,0.1356982421875,0.9424365234375,0.9559758998755232,1.1083984375,-0.57763671875,-0.50927734375,26.64764705882353,171.0778381473011
-0.10051416015625,0.1156787109375,0.9351123046875,0.9475862403676228,1.392578125,-0.49169921875,-1.08349609375,25.988823529411768,171.0778381473011
-0.14445947265625,0.1034716796875,0.9375537109375,0.9542441451903972,1.6748046875,0.21435546875,-1.11865234375,27.44764705882353,171.0778381473011
-0.20207666015625,0.0819873046875,0.9292529296875,0.9544987700582056,2.14892578125,1.638671875,-0.740234375,26.74176470588236,171.0778381473011
-0.24553369140625,0.0658740234375,0.8662646484375001,0.9027960022684912,2.9521484375,3.314453125,-0.21142578125,26.69470588235294,171.0778381473011
-0.21037744140625,0.0531787109375,0.9248583984375,0.9499735261100658,3.3427734375,4.03564453125,0.98779296875,26.69470588235294,171.0778381473011
-0.16692041015625,0.0097216796875,0.8169482421875001,0.8338833040635383,2.33447265625,2.33837890625,1.8984375,27.44764705882353,171.0778381473011
0.09577490234375,0.0072802734375,0.9175341796875,0.9225479961471345,0.87060546875,-1.37646484375,1.95068359375,25.988823529411768,171.0778381473011
0.07038427734375,0.1347216796875,0.9517138671875,0.9637754730599912,0.13134765625,-4.74169921875,0.2431640625,25.988823529411768,171.0778381473011
-0.17375634765625,0.1884326171875,0.9639208984375,0.997417474288238,-0.291015625,-6.9111328125,-1.3515625,26.60058823529412,171.47774328902045
-0.21428369140625,0.1684130859375,1.0176318359375005,1.053496569254598,-0.56884765625,-7.47021484375,-1.78759765625,26.69470588235294,171.47774328902045
-0.25041650390625,0.1493701171875,1.1021044921875005,1.1400237581020425,-0.5205078125,-6.4736328125,-1.36865234375,27.44764705882353,171.47774328902045
-0.25969384765625,0.1210498046875,1.1831591796875005,1.2173576278991265,-0.05126953125,-3.6640625,-0.55908203125,27.44764705882353,171.47774328902045
-0.24162744140625,0.1103076171875,1.1836474609375005,1.2130840459893562,0.41796875,-0.4912109375,-0.22802734375,27.44764705882353,171.47774328902045
-0.22600244140625,0.1132373046875,1.1353076171875005,1.1631092710224755,0.82177734375,2.94482421875,-0.177734375,27.44764705882353,171.47774328902045
-0.18742822265625,0.1244677734375,1.0557177734375005,1.079426506263582,0.8447265625,4.74169921875,-0.287109375,26.60058823529412,171.47774328902045
-0.14690087890625,0.1122607421875,0.9902880859375,1.007399044872326,0.75927734375,5.2333984375,-0.4794921875,27.44764705882353,171.47774328902045
-0.11418603515625,0.1005419921875,0.9165576171875,0.9290990304817692,0.595703125,4.39697265625,-0.58837890625,25.988823529411768,171.47774328902045
-0.04680322265625,0.0800341796875,0.8887255859375001,0.8935486437062139,0.46728515625,2.97607421875,-0.65576171875,26.788823529411765,171.3089172158923
-0.02580712890625,0.0805224609375,0.8843310546875001,0.8883643897087058,0.458984375,1.16162109375,-0.6142578125,27.44764705882353,171.3089172158923
-0.02287744140625,0.0854052734375,0.8965380859375001,0.9008873279121572,0.5908203125,-0.8232421875,-0.56884765625,26.69470588235294,171.3089172158923
-0.04192041015625,0.0692919921875,0.9033740234375,0.9069968727568126,0.6865234375,-2.341796875,-0.57080078125,25.988823529411768,171.3089172158923
-0.06877587890625,0.0595263671875,0.9478076171875,0.952162165341868,0.76220703125,-3.115234375,-0.5712890625,25.988823529411768,171.3089172158923
-0.13518212890625,0.0522021484375,0.9868701171875,0.997452705883736,0.8017578125,-2.89599609375,-0.49072265625,26.69470588235294,171.3089172158923
-0.18401025390625,0.0600146484375,1.0322802734375005,1.0502685820769466,0.95654296875,-1.87939453125,0.02734375,26.03588235294118,171.3089172158923
-0.17522119140625,0.0839404296875,1.0410693359375005,1.059043825289254,1.22216796875,-0.46435546875,0.2939453125,26.69470588235294,171.3089172158923
-0.14250634765625,0.1161669921875,1.0352099609375005,1.0514097642786258,1.4482421875,0.65771484375,0.2509765625,26.64764705882353,171.2134277200293
-0.14104150390625,0.1337451171875,1.0230029296875005,1.041304689485668,1.6123046875,0.64013671875,0.4111328125,26.74176470588236,171.2134277200293
-0.13371728515625,0.1205615234375,1.0083544921875005,1.024301798884411,1.6708984375,-0.22021484375,0.34326171875,25.988823529411768,171.2134277200293
-0.12590478515625,0.1259326171875,0.9902880859375,1.006171721003275,1.5029296875,-1.1474609375,0.2646484375,25.988823529411768,171.2134277200293
-0.11076806640625,0.1332568359375,1.0034716796875005,1.0183233085785213,1.60693359375,-1.86376953125,0.0595703125,26.835882352941177,171.2134277200293
-0.08537744140625,0.1342333984375,1.0068896484375005,1.0193795548703883,1.53076171875,-1.72021484375,-0.14501953125,25.988823529411768,171.2134277200293
-0.08586572265625,0.1264208984375,0.9917529296875,1.0034585389704769,1.37646484375,-1.0400390625,-0.587890625,26.69470588235294,171.2134277200293
-0.08830712890625,0.1064013671875,0.9614794921875,0.971371305862062,1.16943359375,-0.0380859375,-0.767578125,27.44764705882353,171.2134277200293
-0.09318994140625,0.0956591796875,0.9556201171875,0.9649066546621166,1.02197265625,0.8388671875,-0.78955078125,26.60058823529412,170.97814102257618
-0.09123681640625,0.0946826171875,0.9522021484375,0.9612376845267842,0.9033203125,1.158203125,-0.76123046875,26.69470588235294,170.97814102257618
-0.07561181640625,0.0951708984375,0.9497607421875,0.9575072397064184,0.80712890625,0.9345703125,-0.9208984375,26.74176470588236,170.97814102257618
-0.06633447265625,0.0854052734375,0.9531787109375,0.9592934785444918,0.76708984375,0.18603515625,-1.2001953125,27.44764705882353,170.97814102257618
-0.07805322265625,0.0995654296875,0.9663623046875,0.9746084774291772,0.908203125,-0.63525390625,-1.0283203125,27.44764705882353,170.97814102257618
-0.07854150390625,0.1083544921875,0.9917529296875,1.0007413938459857,1.31884765625,-1.853515625,-0.66845703125,27.44764705882353,170.97814102257618
-0.07561181640625,0.0927294921875,0.9761279296875,0.9834335974622838,1.46533203125,-2.71728515625,-0.501953125,27.44764705882353,170.97814102257618
-0.09514306640625,0.0844287109375,0.9814990234375,0.9897074028845688,1.345703125,-2.98583984375,-0.642578125,27.44764705882353,170.97814102257618
-0.08879541015625,0.0600146484375,1.0015185546875005,1.007236714121975,1.0791015625,-2.54443359375,-0.69140625,26.835882352941177,170.97814102257618
-0.09221337890625,0.0639208984375,1.0347216796875005,1.040787270733884,0.95947265625,-1.7919921875,-0.60888671875,26.03588235294118,171.09157654102896
-0.10637353515625,0.0658740234375,1.0332568359375005,1.040804691071796,0.83984375,-1.08740234375,-0.138671875,27.44764705882353,171.09157654102896
-0.11369775390625,0.0927294921875,1.0347216796875005,1.045071716381225,0.77392578125,-0.2099609375,0.1591796875,27.44764705882353,171.09157654102896
-0.13078759765625,0.1068896484375,1.0234912109375005,1.037335553960287,0.7529296875,0.3974609375,0.26123046875,27.44764705882353,171.09157654102896
-0.13713525390625,0.1151904296875,0.9883349609375,1.0044306387037645,0.7314453125,0.9013671875,0.244140625,25.988823529411768,171.09157654102896
-0.11955712890625,0.1220263671875,0.9673388671875,0.9823079075996896,0.77685546875,0.9912109375,0.23876953125,27.40058823529412,171.09157654102896
-0.07610009765625,0.1278857421875,0.9478076171875,0.959419234285401,0.8828125,0.99609375,0.17333984375,26.64764705882353,171.09157654102896
-0.02678369140625,0.1239794921875,0.9502490234375,0.9586769461879942,1.0146484375,0.3974609375,0.19677734375,26.64764705882353,171.09157654102896
-0.01408837890625,0.0180224609375,0.9844287109375,0.984694459432223,1.16845703125,-0.27099609375,0.49365234375,26.64764705882353,171.24034963748602
-0.01555322265625,0.1405810546875,1.0020068359375005,1.0119400352479022,1.28466796875,-1.0361328125,0.86865234375,27.40058823529412,171.24034963748602
-0.02336572265625,0.1298388671875,1.0352099609375005,1.0435821729274617,1.4287109375,-1.5068359375,1.03076171875,26.08294117647059,171.24034963748602
-0.05412744140625,0.1132373046875,1.0742724609375005,1.0815793024160505,1.64794921875,-1.45849609375,0.90771484375,26.74176470588236,171.24034963748602
-0.11467431640625,0.0902880859375,1.0742724609375005,1.0841418069764728,1.73388671875,-0.68115234375,0.85400390625,26.64764705882353,171.24034963748602
-0.13469384765625,0.0736865234375,1.0566943359375005,1.0677897995088477,1.69580078125,0.369140625,0.876953125,26.74176470588236,171.24034963748602
-0.11125634765625,0.0702685546875,1.0230029296875005,1.0314313543910167,1.55078125,1.18994140625,0.82861328125,26.64764705882353,171.24034963748602
-0.08488916015625,0.0775927734375,0.9951708984375,1.0017943526985256,1.375,1.6201171875,0.67626953125,26.74176470588236,171.24034963748602
-0.07121728515625,0.0985888671875,0.9707568359375,0.9783457982521966,1.15869140625,1.70556640625,0.58740234375,26.08294117647059,171.36486754546368
-0.06486962890625,0.1151904296875,0.9463427734375,0.9555320762190064,1.083984375,1.40869140625,0.548828125,25.988823529411768,171.36486754546368
-0.02824853515625,0.1122607421875,0.9326708984375,0.9398273558304078,1.0400390625,0.87060546875,0.41064453125,26.03588235294118,171.36486754546368
-0.00969384765625,0.1015185546875,0.9414599609375,0.9469671829987883,1.01513671875,0.00732421875,0.3154296875,25.988823529411768,171.36486754546368
-0.02043603515625,0.0907763671875,0.9561083984375,0.960625447266201,1.06591796875,-0.61767578125,0.3994140625,25.988823529411768,171.36486754546368
-0.05363916015625,0.0937060546875,0.9722216796875,0.9781988441220671,1.16845703125,-1.07568359375,0.703125,26.64764705882353,171.36486754546368
-0.07170556640625,0.0868701171875,0.9863818359375,0.992792642892384,1.228515625,-1.2109375,0.955078125,25.988823529411768,171.36486754546368
-0.06340478515625,0.0981005859375,0.9937060546875,1.0005476574679428,1.29296875,-1.0546875,0.97412109375,27.44764705882353,171.36486754546368
-0.05754541015625,0.1064013671875,1.0112841796875005,1.0184932092339354,1.28857421875,-0.64697265625,0.80615234375,26.64764705882353,171.36486754546368
-0.07121728515625,0.1259326171875,1.0044482421875005,1.0148138730872176,1.296875,-0.357421875,0.736328125,26.69470588235294,171.34691741843454
-0.07072900390625,0.1356982421875,1.0122607421875005,1.0237618937528083,1.26953125,0.0224609375,0.72412109375,27.40058823529412,171.34691741843454
-0.07463525390625,0.0199755859375,0.9976123046875,1.00059969799271,1.17578125,0.06982421875,0.68115234375,26.69470588235294,171.34691741843454
-0.05754541015625,0.1444873046875,0.9985888671875,1.0106274195353715,1.04443359375,-0.0654296875,0.56494140625,25.988823529411768,171.34691741843454
-0.05266259765625,0.1488818359375,0.9981005859375,1.0105166648367585,0.94189453125,-0.21630859375,0.41796875,25.988823529411768,171.34691741843454
-0.05510400390625,0.1522998046875,0.9912646484375,1.0044089231962603,0.8916015625,-0.21630859375,0.31640625,26.69470588235294,171.34691741843454
-0.06975244140625,0.1459521484375,0.9902880859375,1.0034131381765996,0.8720703125,-0.10693359375,0.34326171875,26.788823529411765,171.34691741843454
-0.07854150390625,0.1430224609375,0.9927294921875,1.0060497188644932,0.89990234375,0.04833984375,0.3681640625,25.988823529411768,171.34691741843454
-0.06633447265625,0.1376513671875,0.9810107421875,0.992839482211722,0.96337890625,0.322265625,0.25341796875,25.988823529411768,171.10265385046642
-0.06047509765625,0.1322802734375,0.9668505859375,0.977729698692292,1.115234375,0.517578125,0.0322265625,27.353529411764708,171.10265385046642
-0.08293603515625,0.1078662109375,0.9766162109375,0.9860490499236696,0.87744140625,0.55078125,-0.15185546875,25.988823529411768,171.10265385046642
-0.09026025390625,0.1093310546875,0.9775927734375,0.9878197323558208,1.115234375,0.3935546875,0.029296875,26.69470588235294,171.10265385046642
-0.09026025390625,0.1064013671875,0.9844287109375,0.9942675954151668,1.16943359375,0.37158203125,0.81201171875,25.988823529411768,171.10265385046642
-0.05852197265625,0.1161669921875,0.9883349609375,0.99685785665199,1.13623046875,-0.0869140625,0.85888671875,25.988823529411768,171.10265385046642
-0.02971337890625,0.1361865234375,0.9893115234375,0.999083051832152,1.06103515625,-0.1455078125,0.69384765625,26.03588235294118,171.10265385046642
-0.01018212890625,0.1352099609375,1.0054248046875005,1.0145267109182892,0.9482421875,0.02685546875,0.46533203125,27.44764705882353,171.10265385046642
-0.04777978515625,0.1483935546875,1.0195849609375005,1.031434461084316,0.9423828125,0.1328125,0.3798828125,26.74176470588236,171.3558923182425
-0.07951806640625,0.1518115234375,1.0020068359375005,1.0165567179448889,0.97900390625,0.4384765625,0.79443359375,25.988823529411768,171.3558923182425
-0.07707666015625,0.1522998046875,0.9907763671875,1.0053724940667277,0.94384765625,0.52783203125,1.0263671875,26.64764705882353,171.3558923182425
-0.06145166015625,0.1542529296875,0.9863818359375,1.0002596658471086,0.99169921875,0.53076171875,1.12158203125,26.69470588235294,171.3558923182425
-0.04777978515625,0.1532763671875,0.9736865234375,0.9868343318569638,0.79541015625,0.462890625,0.806640625,25.988823529411768,171.3558923182425
-0.05315087890625,0.1449755859375,0.9639208984375,0.976210241131994,0.75927734375,0.3125,0.66064453125,26.74176470588236,171.3558923182425
-0.07414697265625,0.1469287109375,0.9653857421875,0.9793137652819716,0.75048828125,0.02490234375,0.6708984375,25.988823529411768,171.3558923182425
-0.07707666015625,0.1537646484375,0.9805224609375,0.995494186348108,0.74365234375,-0.40185546875,0.7197265625,25.988823529411768,171.3558923182425
-0.06291650390625,0.1659716796875,0.9814990234375,0.9974193791634698,0.72802734375,-0.64453125,0.65185546875,25.988823529411768,171.3558923182425
-0.05168603515625,0.1684130859375,1.0020068359375005,1.0173751092938363,0.69482421875,-0.96484375,0.5322265625,26.788823529411765,171.1316796517411
-0.05852197265625,0.1752490234375,1.0000537109375005,1.0169781051031737,0.65576171875,-0.9755859375,0.41455078125,26.788823529411765,171.1316796517411
-0.06731103515625,0.1674365234375,1.0112841796875005,1.0272591965618332,0.6220703125,-0.818359375,0.34423828125,26.64764705882353,171.1316796517411
-0.07219384765625,0.1625537109375,1.0132373046875005,1.02873004048164,0.6474609375,-0.2734375,0.26611328125,25.988823529411768,171.1316796517411
-0.06828759765625,0.1566943359375,1.0015185546875005,1.0159998653011206,0.68359375,0.09765625,0.1796875,26.64764705882353,171.1316796517411
-0.07854150390625,0.1547412109375,0.9985888671875,1.0135548016111775,0.69775390625,0.1806640625,0.16943359375,26.74176470588236,171.1316796517411
-0.07414697265625,0.1547412109375,0.9819873046875,0.9968659300447136,0.65576171875,0.12353515625,0.1298828125,26.74176470588236,171.1316796517411
-0.06633447265625,0.1518115234375,0.9771044921875,0.9910500439251236,0.6142578125,-0.32177734375,0.35791015625,26.788823529411765,171.1316796517411
-0.05852197265625,0.1615771484375,0.9868701171875,1.001720831558595,0.5634765625,-0.64501953125,0.45751953125,26.835882352941177,171.18496324333316
-0.07707666015625,0.1527880859375,0.9922412109375,1.0068900791188695,0.5546875,-0.8623046875,0.591796875,26.835882352941177,171.18496324333316
-0.07756494140625,0.1498583984375,0.9937060546875,1.007931338356043,0.55419921875,-0.91015625,0.6328125,26.03588235294118,171.18496324333316
-0.06291650390625,0.1366748046875,0.9917529296875,1.0031013718682131,0.544921875,-0.75830078125,0.6201171875,27.44764705882353,171.18496324333316
-0.06193994140625,0.1308154296875,0.9907763671875,1.001292685863127,0.53662109375,-0.55908203125,0.67138671875,26.03588235294118,171.18496324333316
-0.07414697265625,0.1151904296875,0.9756396484375,0.985210298489072,0.52587890625,-0.26953125,0.8876953125,27.44764705882353,171.18496324333316
-0.07854150390625,0.1059130859375,0.9653857421875,0.9743490036057768,0.5390625,-0.09814453125,1.02587890625,26.74176470588236,171.18496324333316
-0.05412744140625,0.1024951171875,0.9458544921875,0.9529300862874148,0.4990234375,-0.00390625,1.0087890625,26.74176470588236,171.18496324333316
-0.04680322265625,0.0878466796875,0.9346240234375,0.9399093817861536,0.48486328125,-0.09375,0.98046875,26.64764705882353,171.4582579991456
-0.06535791015625,0.0741748046875,1.0405810546875005,1.0452667073263988,0.4814453125,-0.099609375,1.00830078125,26.74176470588236,171.4582579991456
-0.06145166015625,0.0595263671875,0.9082568359375,0.9122774659903088,0.4091796875,-0.224609375,1.34912109375,27.40058823529412,171.4582579991456
-0.04485009765625,0.0609912109375,0.9053271484375,0.9084870416078444,0.33056640625,-0.564453125,1.548828125,26.69470588235294,171.4582579991456
-0.01799462890625,0.0561083984375,0.9043505859375,0.906268139862698,0.236328125,-1.06640625,1.71630859375,26.69470588235294,171.4582579991456
0.0054428710937499,0.0785693359375,0.9072802734375,0.9106921872752768,0.13525390625,-1.5283203125,1.82373046875,26.74176470588236,171.4582579991456
0.0078842773437499,0.0907763671875,0.9224169921875,0.9269064775613706,0.06201171875,-2.1748046875,1.8642578125,27.40058823529412,171.4582579991456
0.0127670898437499,0.1147021484375,0.9404833984375,0.947538180853841,0.07373046875,-2.6240234375,1.869140625,25.988823529411768,171.4582579991456
0.0088608398437499,0.1176318359375,0.9702685546875,0.9774133370913934,0.06884765625,-2.93994140625,1.84033203125,25.988823529411768,171.4582579991456
0.0093491210937499,0.1337451171875,0.9893115234375,0.998354873200382,0.072265625,-3.05126953125,1.75341796875,27.44764705882353,171.3427131023005
-0.00188134765625,0.1410693359375,1.0117724609375005,1.0215613587652854,0.03857421875,-2.94140625,1.62646484375,26.74176470588236,171.3427131023005
-0.02873681640625,0.1483935546875,0.9307177734375,0.9429114621651474,0.02197265625,-2.67041015625,1.6220703125,25.988823529411768,171.3427131023005
-0.04680322265625,0.1557177734375,1.0855029296875005,1.0976134005083436,0.1171875,-2.310546875,1.42919921875,27.40058823529412,171.3427131023005
-0.04240869140625,0.1552294921875,1.1069873046875005,1.1186221815657316,0.1923828125,-1.994140625,1.46875,27.44764705882353,171.3427131023005
-0.01506494140625,0.1410693359375,1.1104052734375005,1.1194317224731622,0.125,-1.4375,1.1474609375,27.44764705882353,171.3427131023005
-0.04582666015625,0.1356982421875,1.1274951171875005,1.1365559093135316,0.0517578125,-0.88720703125,0.826171875,27.44764705882353,171.3427131023005
-0.05705712890625,0.1239794921875,1.1250537109375005,1.133301496926716,0.08935546875,-0.15625,0.67724609375,25.988823529411768,171.3427131023005
-0.06193994140625,0.1239794921875,1.1025927734375005,1.1112687770566934,0.134765625,0.61279296875,0.658203125,26.788823529411765,171.3427131023005
-0.05266259765625,0.1342333984375,1.0815966796875005,1.0911660423414071,0.2255859375,0.88720703125,0.7822265625,25.988823529411768,171.5226200709213
0.08210302734375,0.0146044921875,1.0313037109375005,1.0346697746066242,0.34521484375,1.1064453125,0.93505859375,26.64764705882353,171.5226200709213
-0.01457666015625,0.1234912109375,1.0005419921875005,1.0082394737018845,0.44384765625,0.9951171875,0.990234375,26.74176470588236,171.5226200709213
0.0239975585937499,0.1269091796875,0.9536669921875,0.9623733967101168,0.453125,0.6162109375,0.9375,26.74176470588236,171.5226200709213
0.0488999023437499,0.1249560546875,0.9346240234375,0.9442072236743344,0.42578125,0.02490234375,0.79541015625,25.988823529411768,171.5226200709213
0.09186865234375,0.1103076171875,0.9458544921875,0.956686124120296,0.44287109375,-0.55029296875,0.54736328125,26.788823529411765,171.5226200709213
0.09772802734375,0.1044482421875,0.9717333984375,0.9822046631244696,0.44970703125,-1.29150390625,0.33251953125,25.988823529411768,171.5226200709213
0.09284521484375,0.0971240234375,0.9961474609375,1.005168181838392,0.43701171875,-1.97216796875,0.2529296875,27.44764705882353,171.5226200709213
0.07331396484375,0.1103076171875,1.0151904296875005,1.023794079090022,0.41455078125,-2.041015625,0.3154296875,26.60058823529412,171.02301027487783
0.06843115234375,0.1166552734375,1.0474169921875005,1.056112508663249,0.365234375,-1.84228515625,0.3369140625,26.69470588235294,171.02301027487783
0.07184912109375,0.1298388671875,1.0684130859375005,1.078669064095643,0.36279296875,-1.0732421875,0.2333984375,26.64764705882353,171.02301027487783
0.06403662109375,0.1303271484375,1.0723193359375005,1.0821065625373485,0.41455078125,-0.10302734375,0.12744140625,26.64764705882353,171.02301027487783
0.06501318359375,0.1176318359375,1.0513232421875005,1.0598794848616797,0.4833984375,0.77197265625,0.10107421875,27.44764705882353,171.02301027487783
0.06452490234375,0.1147021484375,1.0298388671875005,1.0382139173834468,0.5595703125,1.34521484375,0.14013671875,25.988823529411768,171.02301027487783
0.07770849609375,0.1039599609375,1.0049365234375005,1.0132836226752746,0.6171875,1.4091796875,0.1025390625,27.44764705882353,171.02301027487783
0.09040380859375,0.1059130859375,0.9814990234375,0.9913277779775094,0.64892578125,1.15771484375,0.12060546875,27.44764705882353,171.02301027487783
0.07819677734375,0.1151904296875,0.9805224609375,0.9903574443005264,0.7197265625,0.6982421875,-0.0673828125,26.64764705882353,171.3316359018663
0.08307958984375,0.1010302734375,0.9717333984375,0.9804973901231736,0.76025390625,0.21337890625,-0.09716796875,26.64764705882353,171.3316359018663
0.10309912109375,0.0976123046875,0.9731982421875,0.9835000810338296,0.75634765625,-0.24169921875,-0.1396484375,26.788823529411765,171.3316359018663
0.09675146484375,0.0971240234375,0.9937060546875,1.003117961657898,0.7646484375,-0.5693359375,-0.2001953125,26.69470588235294,171.3316359018663
0.08014990234375,0.1044482421875,1.0005419921875005,1.0091668446160442,0.80810546875,-0.63818359375,-0.18603515625,26.03588235294118,171.3316359018663
0.0576889648437499,0.0990771484375,1.0049365234375005,1.0114552457454058,0.85546875,-0.6171875,-0.13232421875,26.74176470588236,171.3316359018663
0.0601303710937499,0.0971240234375,1.0083544921875005,1.0148041778448056,0.892578125,-0.29931640625,-0.1318359375,26.74176470588236,171.3316359018663
0.06306005859375,0.1010302734375,1.0088427734375005,1.015848132674255,0.9453125,-0.1328125,-0.00390625,26.788823529411765,171.3316359018663
0.06306005859375,0.1000537109375,1.0093310546875005,1.0162364360810892,0.98486328125,0.0107421875,-0.1572265625,26.74176470588236,171.3316359018663
0.0596420898437499,0.1054248046875,1.0049365234375005,1.0122099507824338,1.015625,0.07470703125,-0.18994140625,27.353529411764708,171.4582579991456
0.07087255859375,0.1088427734375,1.0000537109375005,1.0084528217279465,1.05615234375,0.04443359375,-0.25244140625,27.44764705882353,171.4582579991456
0.06354833984375,0.1083544921875,1.0024951171875005,1.0103343740855737,1.076171875,-0.0068359375,-0.283203125,27.44764705882353,171.4582579991456
0.0552475585937499,0.1098193359375,1.0010302734375005,1.0085505379576574,1.095703125,-0.05224609375,-0.25341796875,26.64764705882353,171.4582579991456
0.0562241210937499,0.1093310546875,0.9981005859375,1.0056436799188004,1.1123046875,-0.07568359375,-0.2109375,27.44764705882353,171.4582579991456
0.06940771484375,0.0922412109375,0.9990771484375,1.0057241273853652,1.09033203125,-0.07080078125,-0.16357421875,26.64764705882353,171.4582579991456
0.06843115234375,0.0966357421875,0.9981005859375,1.0051000293144974,1.08251953125,-0.0810546875,-0.119140625,26.64764705882353,171.4582579991456
0.06989599609375,0.0981005859375,0.9981005859375,1.0053427051906227,1.09033203125,-0.08984375,-0.0732421875,25.988823529411768,171.4582579991456
0.07038427734375,0.0932177734375,1.0005419921875005,1.0073369733670947,1.046875,-0.1025390625,-0.09228515625,26.835882352941177,171.2472220080358
0.06257177734375,0.0834521484375,0.9912646484375,0.99673722296336,0.97314453125,-0.1005859375,-0.076171875,25.988823529411768,171.2472220080358
0.0513413085937499,0.0873583984375,1.0005419921875005,1.0056598320884729,0.9267578125,-0.125,-0.0927734375,26.74176470588236,171.2472220080358
0.0449936523437499,0.0868701171875,1.0054248046875005,1.0101731949979162,0.94189453125,-0.29833984375,-0.00146484375,26.64764705882353,171.2472220080358
0.06989599609375,0.1029833984375,0.9937060546875,1.0014702959879895,0.97021484375,-0.4638671875,0.1279296875,25.988823529411768,171.2472220080358
0.09577490234375,0.0873583984375,0.9956591796875,1.004062509902897,0.8330078125,-0.56640625,-0.0576171875,27.44764705882353,171.2472220080358
0.08454443359375,0.0937060546875,1.0098193359375005,1.0176756247302177,0.78271484375,-0.3056640625,-0.13037109375,26.64764705882353,171.2472220080358
0.09577490234375,0.0937060546875,1.0210498046875005,1.0298040397359267,0.7841796875,0.03759765625,-0.29931640625,26.69470588235294,171.2472220080358
0.07282568359375,0.0941943359375,1.0073779296875005,1.0143896915560005,0.85888671875,0.14111328125,0.01123046875,26.74176470588236,171.34061159984947
0.06598974609375,0.0961474609375,0.9927294921875,0.9995553138736732,0.83349609375,0.12158203125,0.572265625,27.44764705882353,171.34061159984947
0.06452490234375,0.1010302734375,0.9897998046875,0.9970327138728898,0.78173828125,-0.36572265625,0.625,27.44764705882353,171.34061159984947
0.06843115234375,0.1137255859375,0.9907763671875,0.9996270010784928,0.69384765625,-0.59765625,0.7451171875,25.988823529411768,171.34061159984947
0.08161474609375,0.1107958984375,0.9922412109375,1.001738148706156,0.689453125,-0.6728515625,0.6455078125,25.988823529411768,171.34061159984947
0.08063818359375,0.1034716796875,1.0156787109375005,1.0241153006387094,0.69873046875,-0.74853515625,0.53125,26.74176470588236,171.34061159984947
0.07770849609375,0.0981005859375,1.0254443359375005,1.033052961581706,0.7021484375,-0.77099609375,0.4541015625,26.74176470588236,171.34061159984947
0.08063818359375,0.1054248046875,1.0288623046875005,1.0373883304257725,0.7216796875,-0.70068359375,0.4326171875,26.788823529411765,171.34061159984947
0.06452490234375,0.1068896484375,1.0303271484375005,1.0378645830612556,0.70654296875,-0.48291015625,0.44970703125,27.40058823529412,171.34061159984947
0.06257177734375,0.1156787109375,1.0435107421875005,1.0517658772487464,0.69287109375,-0.15869140625,0.4716796875,27.44764705882353,171.32743345780062
0.0611069335937499,0.1122607421875,1.0327685546875005,1.0406475960290436,0.67138671875,0.1884765625,0.43359375,26.69470588235294,171.32743345780062
0.06891943359375,0.1122607421875,1.0264208984375005,1.0348392258281558,0.6298828125,0.5341796875,0.3623046875,26.64764705882353,171.32743345780062
0.07380224609375,0.1073779296875,0.9981005859375,1.0065692082322193,0.63037109375,0.72216796875,0.29931640625,27.44764705882353,171.32743345780062
-0.03459619140625,0.1005419921875,0.9971240234375,1.0027770972499508,0.62548828125,0.72021484375,0.23486328125,26.60058823529412,171.32743345780062
0.08552099609375,0.0990771484375,0.9858935546875,0.9945432234396492,0.6494140625,0.462890625,0.26171875,25.988823529411768,171.32743345780062
0.09186865234375,0.0893115234375,0.9717333984375,0.980143966538119,0.6240234375,0.2080078125,0.23095703125,27.44764705882353,171.32743345780062
0.08845068359375,0.1039599609375,0.9990771484375,1.0083582426084168,0.6552734375,-0.3046875,0.27734375,26.74176470588236,171.32743345780062
0.06403662109375,0.0971240234375,1.0073779296875005,1.014073004271027,0.74072265625,-0.54296875,0.36962890625,26.69470588235294,170.9385983363771
0.08161474609375,0.1049365234375,1.0064013671875005,1.015143513306353,0.78125,-0.615234375,0.49609375,26.69470588235294,170.9385983363771
0.09821630859375,0.1054248046875,1.0249560546875005,1.035034176613384,0.814453125,-0.57373046875,0.279296875,26.74176470588236,170.9385983363771
0.08454443359375,0.1112841796875,1.0225146484375005,1.0320213835815963,0.83056640625,-0.4853515625,0.2021484375,27.44764705882353,170.9385983363771
0.06403662109375,0.1147021484375,1.0230029296875005,1.0314030569309416,0.83251953125,-0.10302734375,0.171875,26.74176470588236,170.9385983363771
0.06647802734375,0.1098193359375,1.0190966796875005,1.027150260290751,0.84326171875,0.2822265625,0.1220703125,26.788823529411765,170.9385983363771
0.06794287109375,0.1088427734375,1.0190966796875005,1.0271421642655492,0.84765625,0.494140625,0.08154296875,26.64764705882353,170.9385983363771
0.07233740234375,0.1142138671875,1.0083544921875005,1.0173771617008498,0.86328125,0.349609375,0.037109375,27.44764705882353,170.9385983363771
0.07038427734375,0.1142138671875,0.9951708984375,1.004173227611664,0.90234375,0.2216796875,-0.01171875,26.74176470588236,171.28942887118544
0.07624365234375,0.1142138671875,0.9907763671875,1.0002478251702915,0.89892578125,0.0908203125,-0.11376953125,26.03588235294118,171.28942887118544
0.08356787109375,0.1137255859375,0.9878466796875,0.9978768263395976,0.87109375,-0.06494140625,-0.22607421875,26.788823529411765,171.28942887118544
0.08552099609375,0.1137255859375,0.9829638671875,0.9932096021816846,0.85693359375,-0.17919921875,-0.26416015625,26.64764705882353,171.28942887118544
0.08942724609375,0.1181201171875,0.9893115234375,1.0003433834611632,0.84375,-0.2705078125,-0.2421875,26.64764705882353,171.28942887118544
0.09723974609375,0.1151904296875,1.0029833984375005,1.0142485399808103,0.8359375,-0.35986328125,-0.2578125,26.64764705882353,171.28942887118544
0.09968115234375,0.1132373046875,1.0127490234375005,1.0239236318100478,0.85302734375,-0.42919921875,-0.29931640625,25.988823529411768,171.28942887118544
0.09870458984375,0.1083544921875,1.0166552734375005,1.0271666062726692,0.86962890625,-0.47900390625,-0.38232421875,25.988823529411768,171.28942887118544
0.08747412109375,0.1020068359375,1.0166552734375005,1.0254974702296358,0.85595703125,-0.451171875,-0.51416015625,26.64764705882353,171.28942887118544
0.08503271484375,0.0946826171875,1.0264208984375005,1.034280049764288,0.833984375,-0.333984375,-0.63720703125,25.988823529411768,171.26727450158313
0.06403662109375,0.0897998046875,1.0410693359375005,1.046895436990899,0.8564453125,-0.185546875,-0.6650390625,25.988823529411768,171.26727450158313
0.0567124023437499,0.1020068359375,1.0313037109375005,1.037886812398654,0.9814453125,-0.05224609375,-0.47900390625,26.69470588235294,171.26727450158313
0.07184912109375,0.1049365234375,1.0269091796875005,1.034754286523882,0.9794921875,0.041015625,-0.373046875,25.988823529411768,171.26727450158313
0.09138037109375,0.0951708984375,1.0181201171875005,1.0266335495942656,0.875,0.11376953125,-0.60498046875,27.44764705882353,171.26727450158313
0.07380224609375,0.0981005859375,1.0147021484375005,1.022101240843314,0.88525390625,0.25390625,-0.83447265625,25.988823529411768,171.26727450158313
0.08991552734375,0.0941943359375,1.0210498046875005,1.0293202021881207,0.900390625,0.6494140625,-1.00634765625,27.353529411764708,171.26727450158313
0.07624365234375,0.1059130859375,1.0093310546875005,1.0177327027525942,0.88037109375,0.71240234375,-0.83056640625,26.835882352941177,171.26727450158313
0.06306005859375,0.1151904296875,0.9966357421875,1.0052503214061,1.056640625,0.52099609375,-0.4375,26.788823529411765,171.63606679413377
0.0620834960937499,0.1068896484375,0.9951708984375,1.0028184653900307,1.03662109375,0.203125,-0.2509765625,27.40058823529412,171.63606679413377
0.06550146484375,0.1098193359375,0.9731982421875,0.9815628085045146,1.02490234375,-0.1240234375,-0.32470703125,27.44764705882353,171.63606679413377
0.07575537109375,0.1225146484375,0.9766162109375,0.9871818164842966,1.01953125,-0.26806640625,-0.51513671875,26.69470588235294,171.63606679413377
0.08210302734375,0.1195849609375,0.9956591796875,1.0061702997392723,1.0478515625,-0.3544921875,-0.73681640625,26.64764705882353,171.63606679413377
-0.03996728515625,0.1132373046875,1.0088427734375005,1.0159644740701903,1.048828125,-0.43017578125,-0.8671875,26.74176470588236,171.63606679413377
0.07477880859375,0.1137255859375,1.0088427734375005,1.0179828685339434,1.0546875,-0.3505859375,-0.94091796875,26.03588235294118,171.63606679413377
0.07282568359375,0.1254443359375,1.0288623046875005,1.0390368153326293,1.02783203125,-0.10595703125,-0.8798828125,26.74176470588236,171.63606679413377
0.08259130859375,0.1239794921875,1.0269091796875005,1.0376582780784591,0.98974609375,0.2353515625,-1.09423828125,26.64764705882353,171.1786575869568
0.08698583984375,0.1181201171875,1.0322802734375005,1.042651169541334,0.953125,0.55615234375,-1.1318359375,27.44764705882353,171.1786575869568
0.08161474609375,0.1049365234375,1.0132373046875005,1.0219209736283363,0.9482421875,0.76904296875,-1.095703125,26.03588235294118,171.1786575869568
0.07087255859375,0.0897998046875,0.9961474609375,1.0026947134675468,0.9755859375,0.775390625,-1.0302734375,26.74176470588236,171.1786575869568
0.0611069335937499,0.0790576171875,0.9800341796875,0.9851147940846018,1.00048828125,0.73828125,-0.935546875,27.40058823529412,171.1786575869568
0.06501318359375,0.0736865234375,0.9717333984375,0.9766894160459574,0.98974609375,0.279296875,-0.83935546875,26.64764705882353,171.1786575869568
0.07282568359375,0.0590380859375,0.9727099609375,0.9772173473128144,0.95703125,-0.00927734375,-0.75341796875,25.988823529411768,171.1786575869568
0.0572006835937499,0.0634326171875,0.9805224609375,0.9842356991746336,0.9599609375,-0.49267578125,-0.5810546875,25.988823529411768,171.1786575869568
0.0401108398437499,0.0648974609375,1.0000537109375005,1.0029596126808749,0.98583984375,-0.71484375,-0.3232421875,26.74176470588236,171.55852738990174
0.0513413085937499,0.0634326171875,1.0186083984375005,1.0218721525997192,0.9912109375,-0.74169921875,-0.13427734375,26.788823529411765,171.55852738990174
0.0567124023437499,0.0653857421875,1.0137255859375005,1.017413954811579,0.99462890625,-0.63330078125,-0.0302734375,26.64764705882353,171.55852738990174
0.0513413085937499,0.0771044921875,1.0283740234375005,1.0325377304315049,0.99560546875,-0.3349609375,0.064453125,27.44764705882353,171.55852738990174
0.0391342773437499,0.0829638671875,1.0273974609375005,1.031484385564195,0.9755859375,0.04541015625,0.16162109375,25.988823529411768,171.55852738990174
0.0381577148437499,0.0819873046875,1.0186083984375005,1.022614785097217,0.9384765625,0.44189453125,0.20556640625,26.69470588235294,171.55852738990174
0.0567124023437499,0.0858935546875,1.0127490234375005,1.0179659050233776,0.8974609375,0.634765625,0.1513671875,26.788823529411765,171.55852738990174
0.0606186523437499,0.0961474609375,1.0107958984375005,1.0171663106664386,0.81982421875,0.681640625,0.1025390625,26.64764705882353,171.55852738990174
0.0547592773437499,0.0956591796875,1.0000537109375005,1.0061096768611066,0.7529296875,0.5751953125,0.0693359375,25.988823529411768,171.55852738990174
0.0576889648437499,0.1024951171875,1.0034716796875005,1.0103408720065106,0.68798828125,0.40576171875,0.0302734375,26.74176470588236,171.24301880576297
0.0572006835937499,0.0937060546875,0.9927294921875,0.9987815514653546,0.650390625,0.232421875,-0.01171875,25.988823529411768,171.24301880576297
0.0537827148437499,0.1000537109375,0.9971240234375,1.0035734370759906,0.64599609375,0.1103515625,-0.01953125,26.74176470588236,171.24301880576297
0.0513413085937499,0.0981005859375,1.0044482421875005,1.0105324963418834,0.65576171875,0.07470703125,0.0400390625,26.69470588235294,171.24301880576297
0.0493881835937499,0.0995654296875,1.0176318359375005,1.0236830666671564,0.68798828125,0.07421875,0.15478515625,26.64764705882353,171.24301880576297
0.0532944335937499,0.0981005859375,1.0112841796875005,1.017427989441798,0.728515625,0.06640625,0.197265625,26.64764705882353,171.24301880576297
0.06989599609375,0.1010302734375,1.0044482421875005,1.0119332179814795,0.7451171875,0.0302734375,0.21240234375,26.69470588235294,171.24301880576297
0.06745458984375,0.0907763671875,1.0244677734375005,1.0306913647366691,0.86865234375,-0.02734375,0.17578125,25.988823529411768,171.24301880576297
0.0552475585937499,0.0863818359375,1.0122607421875005,1.017440870264455,0.6787109375,-0.03125,0.09814453125,26.788823529411765,171.24301880576297
0.0342514648437499,0.0839404296875,1.0269091796875005,1.0309033038585722,0.630859375,0.04931640625,0.06982421875,26.69470588235294,171.47621082683335
0.0147202148437499,0.0976123046875,1.0303271484375005,1.0350453514502649,0.693359375,0.14892578125,0.142578125,27.44764705882353,171.47621082683335
0.0254624023437499,0.1005419921875,1.0039599609375005,1.0093030413566448,0.7802734375,0.25390625,0.5458984375,26.03588235294118,171.47621082683335
0.06647802734375,0.0937060546875,0.9941943359375,1.0008109363984887,0.63525390625,0.216796875,0.33984375,25.988823529411768,171.47621082683335
0.0596420898437499,0.1049365234375,1.0049365234375005,1.012159211275938,0.67431640625,0.44482421875,0.05859375,26.69470588235294,171.47621082683335
0.08014990234375,0.0966357421875,0.9961474609375,1.0040280063056355,0.7080078125,0.6455078125,-0.0859375,26.74176470588236,171.47621082683335
0.0601303710937499,0.1083544921875,0.9946826171875,1.002372119743989,0.80810546875,0.56201171875,0.2431640625,26.788823529411765,171.47621082683335
0.0532944335937499,0.1117724609375,0.9839404296875,0.9917016430609188,0.82861328125,0.1396484375,0.63720703125,25.988823529411768,171.47621082683335
0.0469467773437499,0.1215380859375,0.9780810546875,0.9867208601093458,0.818359375,-0.3212890625,0.71630859375,27.44764705882353,171.38071810630004
0.0562241210937499,0.1361865234375,0.9736865234375,0.9847707179250218,0.791015625,-0.57421875,0.59375,26.74176470588236,171.38071810630004
0.0552475585937499,0.1249560546875,0.9829638671875,0.9924133576941822,0.82666015625,-0.58447265625,0.41845703125,27.40058823529412,171.38071810630004
0.0503647460937499,0.1161669921875,0.9985888671875,1.0065838779723193,0.892578125,-0.51416015625,0.3076171875,25.988823529411768,171.38071810630004
0.0542709960937499,0.1049365234375,1.0151904296875005,1.0220414000896676,0.93701171875,-0.4404296875,0.275390625,26.788823529411765,171.38071810630004
0.0498764648437499,0.1059130859375,1.0254443359375005,1.032105289989551,0.9609375,-0.29345703125,0.279296875,27.44764705882353,171.38071810630004
0.0503647460937499,0.1103076171875,1.0230029296875005,1.0301647306173325,0.978515625,-0.078125,0.30810546875,26.03588235294118,171.38071810630004
0.0508530273437499,0.1176318359375,1.0322802734375005,1.0402047116525917,0.95263671875,0.19677734375,0.31103515625,26.74176470588236,171.38071810630004
0.0620834960937499,0.1244677734375,1.0347216796875005,1.044028515667572,0.92724609375,0.45263671875,0.30224609375,26.64764705882353,171.25199488603732
0.0591538085937499,0.1176318359375,1.0151904296875005,1.0236933283099312,0.8916015625,0.64453125,0.3134765625,27.40058823529412,171.25199488603732
0.0576889648437499,0.1068896484375,1.0068896484375005,1.014189419062548,0.87939453125,0.740234375,0.32373046875,26.788823529411765,171.25199488603732
0.0586655273437499,0.1010302734375,0.9839404296875,0.990851921037144,0.89013671875,0.67724609375,0.3466796875,26.74176470588236,171.25199488603732
0.0586655273437499,0.1093310546875,0.9756396484375,0.9834976599976484,0.9033203125,0.46337890625,0.33935546875,26.788823529411765,171.25199488603732
0.0586655273437499,0.0976123046875,0.9512255859375,0.9580187479726406,0.99609375,0.072265625,0.2958984375,25.988823529411768,171.25199488603732
0.06452490234375,0.0951708984375,0.9673388671875,0.9741485753741403,0.8046875,-0.341796875,0.24169921875,27.44764705882353,171.25199488603732
0.0576889648437499,0.1156787109375,0.9907763671875,0.9991733536309728,0.798828125,-0.65771484375,0.28173828125,25.988823529411768,171.25199488603732
0.0391342773437499,0.1029833984375,1.0137255859375005,1.0196943834312724,0.82763671875,-0.76416015625,0.34716796875,26.74176470588236,171.25199488603732
0.0479233398437499,0.0995654296875,1.0269091796875005,1.0328370561792848,0.78515625,-0.63037109375,0.35693359375,26.788823529411765,171.5052419569663
0.0493881835937499,0.1029833984375,1.0337451171875005,1.0400354514829893,0.865234375,-0.32275390625,0.29541015625,27.44764705882353,171.5052419569663
0.0435288085937499,0.1054248046875,1.0405810546875005,1.046813296627216,0.7373046875,0.009765625,0.21337890625,27.44764705882353,171.5052419569663
0.0293686523437499,0.1005419921875,1.0347216796875005,1.0400096943532984,0.74072265625,0.6904296875,0.2314453125,25.988823529411768,171.5052419569663
0.0244858398437499,0.0917529296875,1.0068896484375005,1.0113579586821304,0.72265625,1.0478515625,0.21484375,25.988823529411768,171.5052419569663
0.0318100585937499,0.0912646484375,0.9756396484375,0.9804151362996224,0.73486328125,1.078125,0.1904296875,26.74176470588236,171.5052419569663
0.0440170898437499,0.0907763671875,0.9609912109375,0.9662721979531416,0.73779296875,0.86083984375,0.1962890625,26.64764705882353,171.5052419569663
0.0528061523437499,0.0995654296875,0.9429248046875,0.9496362207757072,0.7744140625,0.23388671875,0.17041015625,25.988823529411768,171.5052419569663
0.07331396484375,0.0981005859375,0.9526904296875,0.9605299147973192,0.74169921875,-0.5205078125,0.07421875,26.74176470588236,171.22086467267795
0.07038427734375,0.0932177734375,0.9771044921875,0.9840613235133466,0.712890625,-1.0009765625,0.0830078125,25.988823529411768,171.22086467267795
0.06647802734375,0.0893115234375,1.0112841796875005,1.0173944998988662,0.72314453125,-1.28173828125,0.2294921875,27.44764705882353,171.22086467267795
0.0537827148437499,0.0897998046875,1.0278857421875005,1.0332016668251294,0.69970703125,-0.9501953125,0.38330078125,26.03588235294118,171.22086467267795
0.0391342773437499,0.0888232421875,1.0400927734375005,1.044611907539268,0.6904296875,-0.32568359375,0.4794921875,27.44764705882353,171.22086467267795
0.0196030273437499,0.0849169921875,1.0347216796875005,1.038385346900915,0.67529296875,0.13330078125,0.54248046875,26.69470588235294,171.22086467267795
0.0186264648437499,0.0800341796875,1.0190966796875005,1.0224042535420683,0.6279296875,0.57080078125,0.56689453125,26.74176470588236,171.22086467267795
0.0264389648437499,0.0814990234375,0.9956591796875,0.9993389373877416,0.58837890625,0.67822265625,0.48583984375,26.788823529411765,171.22086467267795
0.0108139648437499,0.0766162109375,0.9668505859375,0.9699417720367284,0.51904296875,0.57421875,0.49755859375,26.69470588235294,171.58965898764072
-0.00529931640625,0.0878466796875,0.9565966796875,0.9606364189825624,0.54296875,0.34375,0.408203125,27.44764705882353,171.58965898764072
-0.01652978515625,0.0941943359375,0.9404833984375,0.9453331843623008,0.61181640625,0.1494140625,0.66845703125,27.44764705882353,171.58965898764072
-0.00139306640625,0.0805224609375,0.8994677734375001,0.903065934913978,0.509765625,0.0380859375,0.5947265625,26.64764705882353,171.58965898764072
-0.00188134765625,0.0810107421875,0.8833544921875001,0.8870633791824626,0.3681640625,0.14794921875,0.1689453125,26.788823529411765,171.58965898764072
-0.01945947265625,0.0829638671875,0.8662646484375001,0.8704459290888263,0.39306640625,0.38037109375,-0.3154296875,25.988823529411768,171.58965898764072
-0.02776025390625,0.0883349609375,0.8511279296875001,0.8561497822898159,0.5478515625,0.66259765625,-0.65478515625,26.69470588235294,171.58965898764072
-0.01848291015625,0.0844287109375,0.8101123046875001,0.8147096239793077,0.7998046875,0.25927734375,-0.66162109375,26.64764705882353,171.58965898764072
-0.00334619140625,0.0902880859375,0.7593310546875001,0.7646873779996738,0.94775390625,-0.5322265625,-0.291015625,26.788823529411765,171.58965898764072
0.0161850585937499,0.0805224609375,0.7197802734375001,0.7244511473293949,0.9755859375,-1.96728515625,0.47265625,27.44764705882353,171.418725784385
0.0552475585937499,0.0858935546875,0.6812060546875001,0.688819050557063,0.970703125,-3.05126953125,0.89892578125,26.74176470588236,171.418725784385
0.10065771484375,0.0727099609375,0.6558154296875001,0.6674672964223033,0.9453125,-4.587890625,0.84765625,26.788823529411765,171.418725784385
0.13093115234375,0.0624560546875,0.6567919921875001,0.6726213246863464,0.89892578125,-6.03125,0.59326171875,26.03588235294118,171.418725784385
0.11139990234375,0.0897998046875,0.6538623046875001,0.6693353842845597,0.818359375,-7.5302734375,0.6513671875,26.74176470588236,171.418725784385
0.08991552734375,0.0878466796875,0.6377490234375001,0.6500197366889007,0.7158203125,-8.8134765625,0.81103515625,25.988823529411768,171.418725784385
0.06940771484375,0.1088427734375,0.6523974609375001,0.6650463346618002,0.5771484375,-9.30908203125,0.84423828125,26.74176470588236,171.418725784385
0.06794287109375,0.0981005859375,0.6353076171875001,0.6464176104889175,0.482421875,-9.1875,0.595703125,27.44764705882353,171.418725784385
0.0576889648437499,0.1147021484375,0.6133349609375001,0.6266293751725388,0.41796875,-8.51171875,0.32421875,25.988823529411768,171.4741107053333
0.0537827148437499,0.1044482421875,0.5894091796875001,0.6010034915139133,0.34423828125,-7.7509765625,-0.05517578125,26.69470588235294,171.4741107053333
0.0425522460937499,0.1039599609375,0.5356982421875001,0.547349042027596,0.29931640625,-6.94580078125,-0.4677734375,25.988823529411768,171.4741107053333
0.0440170898437499,0.1015185546875,0.4780810546875,0.4907188767464159,0.28857421875,-6.03173828125,-0.8369140625,26.64764705882353,171.4741107053333
0.07380224609375,0.1029833984375,0.4180224609375,0.4368010184631706,0.22705078125,-5.6171875,-1.1669921875,25.988823529411768,171.4741107053333
0.10407568359375,0.1044482421875,0.3706591796875,0.3989102790079186,0.2255859375,-5.2822265625,-1.48779296875,25.988823529411768,171.4741107053333
0.15388037109375,0.1215380859375,0.3179248046875,0.3735329388111393,0.2431640625,-5.4072265625,-1.80419921875,26.03588235294118,171.4741107053333
0.08698583984375,0.1298388671875,0.2754443359375,0.3166926743167675,0.3212890625,-6.04931640625,-2.09912109375,26.74176470588236,171.4741107053333
0.2720444335937499,0.1518115234375,0.2437060546875,0.3955345163056008,0.53271484375,-7.23876953125,-2.46240234375,26.74176470588236,171.4741107053333
0.3858139648437499,0.1435107421875,0.2139208984375,0.4639072098814252,0.61474609375,-8.30078125,-2.94384765625,25.988823529411768,171.35436378517156
0.51130224609375,0.1352099609375,0.2144091796875,0.5706864434446474,0.52734375,-9.91943359375,-3.42041015625,26.74176470588236,171.35436378517156
0.62458349609375,0.0150927734375,0.2881396484375,0.6880092967427207,0.55126953125,-12.34814453125,-3.724609375,26.03588235294118,171.35436378517156
0.70856787109375,0.1513232421875,0.3779833984375,0.8172139261336825,0.62744140625,-15.041015625,-3.91552734375,26.74176470588236,171.35436378517156
0.76911474609375,0.1483935546875,0.4478076171875,0.902269251245321,1.15771484375,16.0,-4.01416015625,26.69470588235294,171.35436378517156
0.81208349609375,0.1459521484375,0.5127490234375001,0.9714387244172838,1.38818359375,16.0,-4.0107421875,25.988823529411768,171.35436378517156
0.73981787109375,0.0390185546875,0.6816943359375001,1.0067572188213298,2.6982421875,16.0,-3.01123046875,27.44764705882353,171.35436378517156
0.79987646484375,0.0302294921875,0.5996630859375001,1.000155986756533,2.7421875,16.0,-2.27197265625,26.69470588235294,171.35436378517156
0.70905615234375,-0.0439892578125,0.7314990234375001,1.0196992219617675,2.697265625,16.0,-1.3427734375,26.74176470588236,171.07896463621805
0.87165380859375,-0.0518017578125,0.6924365234375001,1.1144200837828913,2.55517578125,16.0,-0.45458984375,26.74176470588236,171.07896463621805
0.97272802734375,-0.0586376953125,0.7661669921875001,1.2396168982428666,2.4140625,16.0,0.04931640625,27.44764705882353,171.07896463621805
0.93122412109375,-0.0518017578125,0.8457568359375001,1.2590339198585172,3.5419921875,16.0,1.1552734375,26.788823529411765,171.07896463621805
0.91462255859375,-0.0903759765625,0.6934130859375001,1.151314009980583,3.5166015625,16.0,1.95361328125,27.44764705882353,171.07896463621805
0.91901708984375,-0.0757275390625,0.8062060546875001,1.2248654106521752,3.748046875,-14.72021484375,2.13525390625,26.788823529411765,171.07896463621805
0.83893896484375,-0.0430126953125,0.7534716796875001,1.128445058823092,3.54248046875,-12.37841796875,2.47900390625,26.69470588235294,171.07896463621805
0.76081396484375,-0.0435009765625,0.7290576171875001,1.054635118532601,3.146484375,-10.79833984375,2.66650390625,27.40058823529412,171.07896463621805
0.72028662109375,-0.0098095703125,0.6777880859375001,0.9890933897439548,2.8505859375,-9.9296875,2.7978515625,26.74176470588236,171.08794105809736
0.68220068359375,0.0038623046875,0.6343310546875001,0.931551703897446,2.70703125,-9.611328125,2.89501953125,27.44764705882353,171.08794105809736
0.65681005859375,0.0658740234375,0.5762255859375001,0.8762275765591864,2.599609375,-8.9951171875,3.1591796875,27.44764705882353,171.08794105809736
0.66169287109375,0.1586474609375,0.5400927734375001,0.868738554708847,2.5458984375,-8.328125,3.2783203125,26.835882352941177,171.08794105809736
0.84382177734375,0.3090380859375,0.3564990234375,0.9667633030847674,2.6025390625,-6.87744140625,1.56591796875,27.44764705882353,170.87690697461153
0.80134130859375,0.3070849609375,0.3281787109375,0.9187765410617148,2.2724609375,-6.56884765625,1.62158203125,25.988823529411768,170.87690697461153
0.76911474609375,0.2865771484375,0.2949755859375,0.8721665844118278,2.06103515625,-6.5009765625,1.5078125,25.988823529411768,170.87690697461153
0.82380224609375,0.2860888671875,0.2495654296875,0.9070721494417304,2.00634765625,-7.08642578125,1.12548828125,27.44764705882353,170.87690697461153
0.78571630859375,0.2738818359375,0.2012255859375,0.856068405025308,2.21240234375,-7.93359375,0.814453125,25.988823529411768,170.87690697461153
0.75983740234375,0.1767138671875,0.2954638671875,0.8341939616601476,2.04443359375,-9.75146484375,0.98486328125,26.788823529411765,170.87690697461153
0.87409521484375,0.1615771484375,0.1191943359375,0.8968594701677164,1.22509765625,-11.8525390625,0.95703125,25.988823529411768,170.87690697461153
1.18415380859375,0.1918505859375,0.0693896484375,1.201599689181853,0.12158203125,-11.16162109375,0.2060546875,26.74176470588236,170.87690697461153
1.43903662109375,0.1928271484375,0.0981982421875,1.4552153108018655,-0.279296875,-6.77392578125,0.32568359375,26.69470588235294,170.84693711967788
1.46589208984375,0.1508349609375,0.0972216796875,1.4768354205898342,0.328125,-0.6103515625,3.36181640625,27.353529411764708,170.84693711967788
1.47663427734375,0.1313037109375,0.1758349609375,1.492852098173275,0.32958984375,4.46435546875,8.03466796875,26.74176470588236,170.84693711967788
1.62311865234375,-0.0801220703125,0.1177294921875,1.6293538409652089,-0.345703125,6.10400390625,10.54443359375,27.40058823529412,170.84693711967788
1.65143896484375,-0.0508251953125,-0.0180126953124999,1.6523190709651605,-0.66259765625,8.08154296875,9.1708984375,27.40058823529412,170.84693711967788
1.53913427734375,0.0854052734375,0.0215380859375,1.5416524490206127,0.22216796875,10.1845703125,5.91015625,26.64764705882353,170.84693711967788
1.45124365234375,0.1977099609375,-0.0287548828124999,1.4649314695259623,1.0224609375,11.77197265625,2.8095703125,26.74176470588236,170.84693711967788
1.24274755859375,0.2523974609375,-0.1327587890624999,1.2750493593393804,1.56884765625,10.25537109375,0.4150390625,26.69470588235294,170.84693711967788
1.30036474609375,0.2191943359375,-0.1762158203124999,1.3304309997587067,1.22021484375,5.10693359375,-1.5966796875,26.69470588235294,170.71553243348765
1.18513037109375,0.0268115234375,-0.1571728515624999,1.1958077435550152,0.79541015625,-1.4296875,-1.70361328125,26.835882352941177,170.71553243348765
1.35016943359375,0.1459521484375,0.0098193359375,1.3580706713579538,0.53076171875,-9.77490234375,-1.2509765625,26.788823529411765,170.71553243348765
1.55964208984375,0.1210498046875,0.0654833984375,1.565702583218788,1.21826171875,16.0,-1.13330078125,26.69470588235294,170.71553243348765
1.64313818359375,0.0707568359375,0.3281787109375,1.6770840427743188,2.0185546875,16.0,-1.3759765625,26.64764705882353,170.71553243348765
1.58991552734375,0.0014208984375,0.3950732421875,1.6382662389653482,2.876953125,16.0,-1.08056640625,26.74176470588236,170.71553243348765
1.53229833984375,-0.0376416015625,0.4321826171875,1.5925253238348016,3.6357421875,16.0,-0.8408203125,27.44764705882353,170.71553243348765
1.64802099609375,-0.1196728515625,0.2988818359375,1.679173947755356,2.77392578125,16.0,-0.6943359375,26.03588235294118,170.71553243348765
1.65632177734375,-0.2964306640625,0.2129443359375,1.6960596271674993,1.84521484375,16.0,2.00830078125,25.988823529411768,170.55510840054325
1.54059912109375,-0.3506298828125,0.2813037109375,1.6048422802329052,2.0673828125,16.0,6.87890625,25.988823529411768,170.55510840054325
1.63483740234375,-0.3662548828125,0.5308154296875001,1.7574416040598286,3.95751953125,-7.583984375,12.00732421875,26.835882352941177,170.55510840054325
1.49189306640625,-0.228193359375,0.5344775390625001,2.1661622925126,5.501953125,3.69287109375,12.87646484375,26.74176470588236,170.55510840054325
1.34894873046875,-0.0901318359375,0.5381396484375001,2.283572625944228,5.185546875,14.3828125,10.7333984375,26.03588235294118,170.55510840054325
1.20600439453125,0.0479296874999999,0.5418017578125001,1.6059182255462152,4.09326171875,15.99951171875,10.26806640625,26.788823529411765,170.55510840054325
1.06306005859375,0.1859912109375,0.5454638671875001,1.2092229939636805,4.1533203125,15.99951171875,8.5732421875,26.788823529411765,170.55510840054325
1.17536474609375,0.1371630859375,0.0962451171875,1.1872485506777253,3.34423828125,15.99951171875,1.68408203125,26.74176470588236,170.55510840054325
1.75886083984375,-0.1001416015625,-0.1127392578124999,1.7653129848702402,1.74169921875,15.99951171875,-5.9345703125,26.03588235294118,170.72813470838278
2.17536474609375,-0.0649853515625,-0.1356884765624999,2.1805609913820523,-2.53076171875,15.99951171875,-4.8759765625,26.74176470588236,170.72813470838278
2.21149755859375,-0.0356884765625,0.2710498046875,2.2283319132585704,-5.583984375,10.39013671875,0.0986328125,26.74176470588236,170.72813470838278
2.21931005859375,0.0800341796875,0.5757373046875001,2.294170013338696,-1.7138671875,-3.6181640625,3.75927734375,26.69470588235294,170.72813470838278
1.76130224609375,0.1928271484375,0.5366748046875001,1.8513205441672689,4.71923828125,-12.5703125,4.1181640625,26.74176470588236,170.72813470838278
1.26520849609375,0.2216357421875,0.1743701171875,1.2962561006879756,8.48828125,16.0,2.48583984375,27.44764705882353,170.72813470838278
0.91022802734375,0.2255419921875,0.0713427734375,0.9404648017463254,9.05908203125,16.0,0.3671875,26.788823529411765,170.72813470838278
0.70661474609375,0.1874560546875,-0.0248486328124999,0.7314790676354233,8.451171875,16.0,-1.71142578125,25.988823529411768,170.72813470838278
0.52546240234375,0.1664599609375,0.0176318359375,0.5514803138015952,7.9873046875,-7.98828125,-3.0986328125,26.64764705882353,170.72813470838278
0.4238999023437499,0.0810107421875,0.1001513671875,0.4430396866041865,7.60107421875,1.03564453125,-3.22119140625,26.64764705882353,170.72813470838278
0.53913427734375,-0.1045361328125,0.1929248046875,0.5820769299105318,7.51318359375,8.57470703125,-2.818359375,26.69470588235294,170.72813470838278
0.81159521484375,-0.2632275390625,0.2505419921875,0.8892394615217287,7.08203125,13.83544921875,-1.955078125,25.988823529411768,170.72813470838278
0.98054052734375,-0.3623486328125,0.2461474609375,1.0739389321514632,5.76171875,15.9189453125,-1.1552734375,26.74176470588236,170.72813470838278
1.32966162109375,-0.4336376953125,0.3008349609375,1.4305744829011395,4.4638671875,15.419921875,-1.13525390625,26.788823529411765,170.72813470838278
1.21784521484375,-0.4399853515625,0.3521044921875,1.3419059767085075,3.63232421875,12.5380859375,-0.7509765625,27.44764705882353,170.72813470838278
1.37067724609375,-0.4136181640625,0.3657763671875,1.477710543169556,3.78857421875,8.03515625,-1.3623046875,26.74176470588236,170.72813470838278
1.36335302734375,-0.4277783203125,0.1758349609375,1.4396679137858992,3.6220703125,3.01416015625,-1.96875,26.788823529411765,170.72813470838278
1.18659521484375,-0.4404736328125,0.2183154296875,1.2844013593627048,2.3486328125,-1.86865234375,-1.73095703125,26.74176470588236,170.36833896048853
1.18513037109375,-0.4814892578125,0.1816943359375,1.2920444007809524,1.8701171875,-4.9736328125,-1.0986328125,25.988823529411768,170.36833896048853
1.21491552734375,-0.2602978515625,0.3984912109375,1.3048256417251427,2.09619140625,-6.30517578125,-0.93701171875,26.74176470588236,170.36833896048853
1.21833349609375,-0.2207470703125,0.4019091796875,1.301766786130546,2.6513671875,-5.1630859375,-1.01123046875,25.988823529411768,170.36833896048853
1.16413427734375,-0.2549267578125,0.3706591796875,1.2480322491915257,3.17724609375,-2.74462890625,-1.3720703125,27.44764705882353,170.36833896048853
1.11970068359375,-0.2241650390625,0.3213427734375,1.1862717916306986,3.28466796875,-0.1640625,-1.4755859375,27.40058823529412,170.36833896048853
1.11432958984375,-0.1499462890625,0.4185107421875,1.1997356232650953,3.26513671875,1.17529296875,-1.3232421875,26.74176470588236,170.36833896048853
1.11091162109375,-0.1162548828125,0.2549365234375,1.1457017319709744,3.248046875,1.2900390625,-1.2392578125,27.44764705882353,170.36833896048853
1.09333349609375,-0.1211376953125,0.1958544921875,1.117323344881073,2.62744140625,0.24365234375,-1.31005859375,27.40058823529412,170.6305445387279
1.09284521484375,-0.1235791015625,0.1680224609375,1.1125708990124497,2.03662109375,-1.4111328125,-1.46484375,26.74176470588236,170.6305445387279
1.07282568359375,-0.1211376953125,0.1782763671875,1.0942631089923451,1.60205078125,-3.37744140625,-1.66162109375,26.69470588235294,170.6305445387279
1.08503271484375,-0.0791455078125,0.2070849609375,1.1074494050450263,1.11962890625,-6.17822265625,-2.03466796875,25.988823529411768,170.6305445387279
1.10554052734375,0.0053271484375,0.2334521484375,1.1299328040729042,0.66015625,-8.484375,-2.2978515625,26.69470588235294,170.6305445387279
1.18024755859375,-0.0098095703125,0.2661669921875,1.2099278470083925,0.16650390625,-10.77587890625,-2.40771484375,26.74176470588236,170.6305445387279
1.32184912109375,-0.0972119140625,0.3760302734375,1.3777278474769592,0.17626953125,-12.26904296875,-2.166015625,26.08294117647059,170.6305445387279
1.33210302734375,-0.1943798828125,0.4648974609375,1.424223178959927,0.54150390625,-12.57275390625,-1.306640625,26.03588235294118,170.6305445387279
1.28034521484375,-0.1919384765625,0.5576708984375001,1.409652822124125,1.27734375,-10.80322265625,0.05615234375,25.988823529411768,170.6305445387279
1.16608740234375,-0.1167431640625,0.5147021484375001,1.2799637095895713,1.919921875,-8.185546875,1.60302734375,27.44764705882353,170.4817743204908
1.03669287109375,-0.0317822265625,0.5249560546875001,1.1624633664141584,1.97900390625,-4.935546875,3.0390625,26.74176470588236,170.4817743204908
0.99811865234375,0.0155810546875,0.5005419921875001,1.1167031384234174,1.919921875,-0.62646484375,3.2890625,26.03588235294118,170.4817743204908
1.02790380859375,0.0282763671875,0.4272998046875,1.1135398132751404,1.658203125,2.7353515625,2.34765625,26.74176470588236,170.4817743204908
1.00593115234375,0.0595263671875,0.3501513671875,1.0667927875597216,1.20361328125,5.01123046875,1.19970703125,26.69470588235294,170.4817743204908
0.87507177734375,0.0780810546875,0.4209521484375,0.974190935021882,0.6767578125,6.46826171875,0.40380859375,26.08294117647059,170.4817743204908
0.79499365234375,0.0863818359375,0.2544482421875,0.8391785488196758,0.4091796875,6.93310546875,0.2490234375,27.44764705882353,170.4817743204908
0.76374365234375,0.0688037109375,0.2290576171875,0.8003160057913106,0.36376953125,6.54443359375,0.05615234375,26.788823529411765,170.4817743204908
0.83210302734375,0.0575732421875,0.1899951171875,0.8554579305177467,0.13134765625,5.7080078125,0.01708984375,26.788823529411765,170.4997245896684
0.83307958984375,0.0453662109375,0.1909716796875,0.8558912772962004,0.04443359375,4.51953125,-0.1943359375,27.44764705882353,170.4997245896684
1.10358740234375,0.0331591796875,0.1939013671875,1.120982794696937,-0.03076171875,3.345703125,-0.658203125,25.988823529411768,170.4997245896684
1.14802099609375,-0.1108837890625,0.1821826171875,1.1676634481537178,-0.04736328125,2.49365234375,-1.03857421875,26.74176470588236,170.4997245896684
1.07819677734375,0.0277880859375,0.1816943359375,1.09375193718973,-0.0791015625,2.34716796875,-0.578125,26.74176470588236,170.4997245896684
1.10163427734375,0.0482958984375,0.1856005859375,1.1182030908224654,-0.16357421875,2.70068359375,-0.228515625,26.788823529411765,170.4997245896684
1.15876318359375,0.0507373046875,0.1694873046875,1.172191254100417,-0.109375,3.46337890625,-0.68896484375,26.788823529411765,170.4997245896684
1.12946630859375,0.0365771484375,0.1631396484375,1.141773434149053,0.06005859375,4.34423828125,-1.2724609375,27.44764705882353,170.7882921389478
1.12360693359375,0.0580615234375,0.1499560546875,1.1350552850241584,0.5751953125,5.1201171875,-1.5068359375,26.74176470588236,170.7882921389478
1.14606787109375,-0.0117626953125,0.1016162109375,1.1506240830434888,0.81640625,5.7138671875,-1.82177734375,26.74176470588236,170.7882921389478
1.18024755859375,-0.0605908203125,0.0811083984375,1.184581833124983,1.11962890625,5.65087890625,-1.5146484375,26.64764705882353,170.7882921389478
1.16852880859375,-0.1255322265625,-0.0702587890624999,1.1773505059496074,0.7548828125,4.5517578125,-0.65869140625,26.03588235294118,170.7882921389478
1.25544287109375,-0.1362744140625,0.0689013671875,1.2646955827030086,0.94384765625,2.15576171875,-0.06689453125,26.788823529411765,170.7882921389478
1.29401708984375,-0.1328564453125,0.0879443359375,1.3037888134557103,1.046875,-1.24755859375,0.140625,26.03588235294118,170.7882921389478
1.24177099609375,-0.1416455078125,0.0859912109375,1.2527781706996746,0.99169921875,-4.478515625,0.26416015625,27.44764705882353,170.7882921389478
1.13825537109375,-0.1421337890625,0.1314013671875,1.1545967361446063,0.9970703125,-7.04052734375,0.3916015625,26.788823529411765,170.87748281906337
1.09040380859375,-0.1328564453125,0.1655810546875,1.1108773048938634,0.63671875,-8.625,0.365234375,26.74176470588236,170.87748281906337
1.04743505859375,-0.1265087890625,0.1460498046875,1.0651080795537182,0.02978515625,-9.03857421875,0.158203125,26.74176470588236,170.87748281906337
1.07282568359375,-0.0879345703125,0.2822802734375,1.1128205555283344,-0.49951171875,-9.2685546875,0.021484375,26.835882352941177,170.87748281906337
0.91999365234375,-0.0991650390625,0.1958544921875,0.945822926046458,-0.498046875,-8.0009765625,0.04638671875,27.44764705882353,170.87748281906337
0.93317724609375,-0.0679150390625,0.1885302734375,0.9544505692598202,-0.74853515625,-6.4189453125,-0.08056640625,26.74176470588236,170.87748281906337
0.89997412109375,-0.0644970703125,0.3291552734375,0.9604459822129918,-0.49072265625,-3.81005859375,-0.08642578125,26.788823529411765,170.87748281906337
0.92878271484375,-0.0322705078125,0.4023974609375,1.0127203136285703,-0.34814453125,-1.02001953125,-0.21142578125,27.44764705882353,170.87748281906337
0.94977880859375,-0.0317822265625,0.3477099609375,1.011924953795582,-0.42919921875,2.04541015625,-0.3125,26.74176470588236,170.87748281906337
0.99763037109375,-0.0381298828125,0.3242724609375,1.0497013261944612,-0.65771484375,4.71142578125,-0.42333984375,26.835882352941177,170.317724874056
1.00153662109375,-0.0205517578125,0.3022998046875,1.046366642269893,-0.83251953125,6.0556640625,-0.650390625,26.69470588235294,170.317724874056
0.99860693359375,-0.0112744140625,0.2461474609375,1.0285579676226049,-0.943359375,6.71435546875,-1.08935546875,26.69470588235294,170.317724874056
0.98591162109375,0.0131396484375,0.2051318359375,1.0071114362789535,-0.89013671875,6.41455078125,-1.3623046875,26.788823529411765,170.317724874056
0.98737646484375,0.0370654296875,0.1665576171875,1.002011761032992,-0.875,5.79541015625,-1.2666015625,25.988823529411768,170.317724874056
1.01423193359375,-0.0083447265625,0.1436083984375,1.0243824586962154,-1.1982421875,4.72900390625,-0.9052734375,26.788823529411765,170.317724874056
1.06989599609375,-0.0288525390625,0.0586474609375,1.0718905896322657,-1.1455078125,3.12646484375,-0.50634765625,27.40058823529412,170.317724874056
1.15095068359375,-0.0342236328125,0.2036669921875,1.1693327057833065,-0.9365234375,0.7138671875,-0.21826171875,25.988823529411768,170.317724874056
1.21296240234375,-0.0176220703125,0.2271044921875,1.2341656198555209,-0.85009765625,-1.6240234375,0.271484375,26.03588235294118,170.317724874056
1.23005224609375,0.0258349609375,0.2710498046875,1.2598269603195724,-0.64453125,-2.5732421875,0.4638671875,27.44764705882353,170.5640837872824
1.19977880859375,0.0478076171875,0.2871630859375,1.2345919956556226,-0.45361328125,-2.55029296875,0.67822265625,26.74176470588236,170.5640837872824
1.17145849609375,0.0907763671875,0.2974169921875,1.212028144950376,-0.3642578125,-1.69140625,0.56640625,26.788823529411765,170.5640837872824
1.15095068359375,0.0981005859375,0.1802294921875,1.1690995983577983,-0.45751953125,-0.130859375,0.08447265625,26.74176470588236,170.5640837872824
1.12409521484375,0.1059130859375,0.3296435546875,1.1762110809520676,-0.38818359375,1.15283203125,-0.4306640625,26.74176470588236,170.5640837872824
1.06501318359375,0.0668505859375,0.4214404296875,1.14731604967588,-0.43212890625,2.41357421875,-0.67431640625,26.74176470588236,170.5640837872824
1.02985693359375,0.0395068359375,0.2661669921875,1.0644298762657196,-0.5732421875,3.25732421875,-0.64794921875,26.69470588235294,170.5640837872824
1.02497412109375,0.0053271484375,0.2515185546875,1.055396565644625,-0.54931640625,3.56298828125,-0.615234375,27.40058823529412,170.58623731472255
1.01423193359375,-0.0332470703125,0.2383349609375,1.0423892441937228,-0.37890625,3.20556640625,-0.54736328125,26.74176470588236,170.58623731472255
1.00788427734375,-0.0640087890625,0.2271044921875,1.0351349148616922,-0.1337890625,2.7314453125,-0.31494140625,26.03588235294118,170.58623731472255
1.03620458984375,-0.0923291015625,0.2227099609375,1.0638817329521997,0.06787109375,1.9765625,-0.0224609375,26.835882352941177,170.58623731472255
1.05915380859375,-0.1167431640625,0.2310107421875,1.0903218422190712,0.36376953125,1.15234375,0.33984375,25.988823529411768,170.58623731472255
1.11530615234375,-0.1260205078125,0.2368701171875,1.147125291440111,0.4921875,0.419921875,0.669921875,26.69470588235294,170.58623731472255
1.14411474609375,-0.1186962890625,0.2632373046875,1.179992050755222,0.5478515625,-0.43017578125,1.11376953125,26.74176470588236,170.58623731472255
1.17634130859375,-0.1211376953125,0.3013232421875,1.2203478650827668,0.6220703125,-1.111328125,1.36083984375,27.44764705882353,170.58623731472255
1.16755224609375,-0.1377392578125,0.2900927734375,1.21091047055592,0.59423828125,-1.3056640625,1.3505859375,26.74176470588236,170.58623731472255
1.11823583984375,-0.1040478515625,0.2988818359375,1.162156487216416,0.47705078125,-1.0966796875,1.43017578125,26.788823529411765,170.57305950142003
1.09089208984375,-0.0986767578125,0.3027880859375,1.136425659337973,0.32470703125,-0.39990234375,1.5263671875,26.788823529411765,170.57305950142003
1.10309912109375,-0.1001416015625,0.2856982421875,1.143887886512631,0.13037109375,0.2265625,1.48046875,27.44764705882353,170.57305950142003
1.10065771484375,-0.0908642578125,0.2744677734375,1.137996606870434,-0.05322265625,0.50390625,1.32470703125,26.835882352941177,170.57305950142003
1.08552099609375,-0.0654736328125,0.2720263671875,1.120999988402882,-0.1357421875,0.66943359375,1.24853515625,25.988823529411768,170.57305950142003
1.07233740234375,-0.0415478515625,0.2568896484375,1.1034609281298289,-0.1416015625,0.3466796875,0.91552734375,27.44764705882353,170.57305950142003
1.05964208984375,-0.0249462890625,0.2529833984375,1.089708344370826,-0.0439453125,-0.02099609375,0.6962890625,26.74176470588236,170.57305950142003
1.07526708984375,0.0028857421875,0.2451708984375,1.1028673589555866,0.1416015625,-0.70556640625,0.51416015625,27.44764705882353,170.57305950142003
1.09382177734375,0.0194873046875,0.2358935546875,1.119138778158691,0.3466796875,-1.162109375,0.3759765625,26.03588235294118,170.57305950142003
1.10456396484375,0.0199755859375,0.2417529296875,1.1308868446831366,0.49462890625,-1.33935546875,0.2802734375,25.988823529411768,170.5640837872824
1.09040380859375,0.0033740234375,0.2227099609375,1.1129202920832628,0.48779296875,-1.3798828125,0.2783203125,26.74176470588236,170.5640837872824
1.05280615234375,-0.0249462890625,0.2139208984375,1.0746093534578731,0.28662109375,-1.2958984375,0.40185546875,27.40058823529412,170.5640837872824
1.03815771484375,-0.0444775390625,0.2295458984375,1.0641621172829503,0.24853515625,-1.15478515625,0.4755859375,25.988823529411768,170.5640837872824
1.02155615234375,-0.0547314453125,0.2446826171875,1.051875509103186,0.1328125,-1.046875,0.4169921875,27.40058823529412,170.5640837872824
1.04645849609375,-0.0488720703125,0.2549365234375,1.078172757161774,0.24365234375,-1.07080078125,0.2294921875,26.835882352941177,170.5640837872824
1.05866552734375,-0.0522900390625,0.2612841796875,1.0916851054796652,0.3828125,-1.3310546875,0.1142578125,26.64764705882353,170.5640837872824
1.06891943359375,-0.0469189453125,0.2651904296875,1.1023230501724353,0.46142578125,-1.7783203125,0.03759765625,26.69470588235294,170.5640837872824
1.05915380859375,-0.0478955078125,0.2847216796875,1.0978010770678512,0.39990234375,-2.2958984375,0.0751953125,26.03588235294118,170.58413621030394
1.05964208984375,-0.0415478515625,0.3022998046875,1.1027024777572554,0.3046875,-2.6884765625,0.0615234375,26.74176470588236,170.58413621030394
1.05622412109375,-0.0395947265625,0.2666552734375,1.0900835615694109,0.03076171875,-2.7548828125,-0.07763671875,26.74176470588236,170.58413621030394
1.03132177734375,-0.0054150390625,0.3364794921875,1.08483749001142,0.14599609375,-2.83837890625,-0.02197265625,26.74176470588236,170.58413621030394
0.96686865234375,0.0067919921875,0.3257373046875,1.020287172176526,0.25244140625,-2.4765625,0.21875,27.44764705882353,170.58413621030394
0.99030615234375,0.0102099609375,0.3154833984375,1.039394195366658,0.3623046875,-1.70654296875,0.173828125,27.44764705882353,170.58413621030394
1.01276708984375,0.0517138671875,0.3213427734375,1.0637822523291924,0.416015625,-0.50439453125,-0.04296875,27.44764705882353,170.58413621030394
1.04987646484375,0.0409716796875,0.3247607421875,1.099722151106997,0.38232421875,0.69091796875,-0.48486328125,27.44764705882353,170.58413621030394
1.05280615234375,0.0326708984375,0.3203662109375,1.100955353830488,0.51806640625,2.12158203125,-0.75048828125,26.788823529411765,170.64849572094758
1.04889990234375,0.0185107421875,0.4263232421875,1.1323803069385845,0.81689453125,3.0537109375,-0.98876953125,26.03588235294118,170.64849572094758
1.04499365234375,0.0063037109375,0.2905810546875,1.08466069328321,1.04345703125,4.083984375,-0.83447265625,26.788823529411765,170.64849572094758
1.07722021484375,-4.394531249999993e-05,0.2632373046875,1.108917161819739,1.22314453125,4.51318359375,-0.75,27.44764705882353,170.64849572094758
1.11432958984375,-0.0098095703125,0.2485888671875,1.1417631485385311,1.310546875,4.7060546875,-0.5185546875,26.74176470588236,170.64849572094758
1.16364599609375,-0.0229931640625,0.2188037109375,1.1842616914088886,1.32666015625,4.283203125,-0.5751953125,27.44764705882353,170.64849572094758
1.20563818359375,-0.0376416015625,0.2080615234375,1.2240383643671304,1.2919921875,3.60693359375,-0.70458984375,26.130000000000003,170.64849572094758
1.19782568359375,-0.0532666015625,0.1943896484375,1.2146649886032397,1.220703125,2.29931640625,-0.81005859375,26.788823529411765,170.64849572094758
1.16901708984375,-0.0732861328125,0.0635302734375,1.173033635175226,1.13330078125,0.8173828125,-0.7890625,26.788823529411765,170.64849572094758
1.16022802734375,-0.1020947265625,0.1865771484375,1.179560698287676,0.9853515625,-0.9443359375,-0.673828125,26.69470588235294,170.3620316787241
1.14020849609375,-0.1094189453125,0.1865771484375,1.160542525061766,0.828125,-2.42529296875,-0.51025390625,26.882941176470588,170.3620316787241
1.09919287109375,0.0131396484375,0.2124560546875,1.1196138590593456,0.69775390625,-3.49072265625,-0.42041015625,25.988823529411768,170.3620316787241
1.07087255859375,-0.0981884765625,0.2412646484375,1.1020969305212949,0.68408203125,-3.72216796875,-0.43310546875,26.74176470588236,170.3620316787241
1.05231787109375,-0.0561962890625,0.2354052734375,1.0797900571360446,0.65673828125,-3.32470703125,-0.30517578125,26.64764705882353,170.3620316787241
1.03132177734375,-0.0308056640625,0.2422412109375,1.059836969367586,0.38916015625,-2.56005859375,0.0458984375,26.03588235294118,170.3620316787241
1.07331396484375,-0.0493603515625,0.2798388671875,1.1102923502500444,0.16064453125,-1.78271484375,-0.185546875,26.788823529411765,170.3620316787241
1.06452490234375,-0.0444775390625,0.2705615234375,1.0992702384563349,0.00048828125,-0.65576171875,-0.43359375,26.788823529411765,170.3620316787241
0.98200537109375,-0.0166455078125,0.2554248046875,1.0148169552372277,0.20654296875,0.22265625,-0.236328125,26.74176470588236,170.57993531263477
1.03473974609375,-0.0112744140625,0.2397998046875,1.0622228583902598,0.35205078125,0.63818359375,-0.24853515625,25.988823529411768,170.57993531263477
1.07136083984375,-0.0347119140625,0.2339404296875,1.0971540870684298,0.42724609375,0.84912109375,-0.072265625,26.08294117647059,170.57993531263477
1.12800146484375,-0.0337353515625,0.2368701171875,1.1530970605508937,0.6650390625,0.58837890625,-0.10107421875,26.788823529411765,170.57993531263477
1.13337255859375,-0.0347119140625,0.2505419921875,1.1612534449466692,0.98046875,0.1650390625,-0.04296875,26.74176470588236,170.57993531263477
1.11677099609375,-0.0298291015625,0.2246630859375,1.1395353154682013,1.2119140625,-0.30712890625,0.02783203125,26.788823529411765,170.57993531263477
1.09382177734375,-0.0181103515625,0.2119677734375,1.114317909037277,1.4033203125,-0.73388671875,0.06591796875,26.03588235294118,170.57993531263477
1.06745458984375,-0.0107861328125,0.1948779296875,1.0851511643632068,1.478515625,-1.02099609375,0.107421875,27.44764705882353,170.57993531263477
1.06647802734375,-0.0259228515625,0.1880419921875,1.0832392015921468,1.42236328125,-1.16357421875,0.10400390625,25.988823529411768,170.3620316787241
1.07233740234375,-0.0386181640625,0.1899951171875,1.089723364719685,1.2705078125,-1.19091796875,-0.01171875,26.74176470588236,170.3620316787241
1.07233740234375,-0.0493603515625,0.1821826171875,1.0888225083901426,1.09326171875,-1.16259765625,-0.16845703125,26.788823529411765,170.3620316787241
1.06257177734375,-0.0630322265625,0.1939013671875,1.0819563687090454,0.89892578125,-1.14990234375,-0.267578125,27.44764705882353,170.3620316787241
1.03864599609375,-0.0698681640625,0.2051318359375,1.0610118452053832,0.7783203125,-1.2490234375,-0.2236328125,26.64764705882353,170.3620316787241
1.04304052734375,-0.0693798828125,0.2256396484375,1.0694205724445378,0.74658203125,-1.1025390625,-0.15478515625,27.40058823529412,170.3620316787241
1.04401708984375,-0.0586376953125,0.2295458984375,1.0705612465837036,0.62548828125,-0.97216796875,-0.14453125,26.03588235294118,170.3620316787241
1.05964208984375,-0.0518017578125,0.2246630859375,1.084434545218777,0.7236328125,-0.8603515625,-0.1806640625,26.74176470588236,170.3620316787241
1.05475927734375,-0.0415478515625,0.2412646484375,1.0827982211371794,0.720703125,-0.47900390625,-0.15283203125,26.788823529411765,170.3620316787241
1.04011083984375,-0.0547314453125,0.2373583984375,1.068253293734815,0.73974609375,0.11572265625,0.02587890625,26.788823529411765,170.47757116397582
1.05671240234375,-0.0625439453125,0.2417529296875,1.0858164326325337,0.79150390625,0.39208984375,0.23876953125,25.988823529411768,170.47757116397582
1.07380224609375,-0.0625439453125,0.2593310546875,1.1064427706558375,0.9326171875,0.376953125,0.44287109375,26.74176470588236,170.47757116397582
1.06452490234375,-0.0659619140625,0.2637255859375,1.0986880478529093,1.1708984375,0.56591796875,0.60205078125,26.74176470588236,170.47757116397582
1.08112646484375,-0.0576611328125,0.2539599609375,1.1120498644315109,1.39892578125,0.65185546875,0.6435546875,27.44764705882353,170.47757116397582
1.08991552734375,-0.0527783203125,0.2510302734375,1.1196953183889442,1.57177734375,0.6171875,0.69091796875,25.988823529411768,170.47757116397582
1.07087255859375,-0.0557080078125,0.2290576171875,1.0965121115952972,1.62158203125,0.6025390625,0.7841796875,25.988823529411768,170.47757116397582
1.06110693359375,-0.0547314453125,0.2124560546875,1.0835501976374255,1.52392578125,0.607421875,0.912109375,26.74176470588236,170.47757116397582
1.03913427734375,-0.0464306640625,0.1885302734375,1.0571184971035277,1.3486328125,0.638671875,1.01220703125,26.788823529411765,170.47757116397582
1.05134130859375,-0.0352001953125,0.1880419921875,1.0686053489158196,1.16552734375,0.67578125,0.8515625,26.74176470588236,170.45541779466646
1.09138037109375,-0.0239697265625,0.1909716796875,1.108221929327731,1.07177734375,0.64013671875,0.61767578125,26.788823529411765,170.45541779466646
1.11286474609375,-0.0015087890625,0.2207568359375,1.134550043037273,1.048828125,0.5068359375,0.03466796875,27.44764705882353,170.45541779466646
1.12214208984375,0.0063037109375,0.2109912109375,1.1418230588245075,1.0712890625,0.30517578125,-0.291015625,26.788823529411765,170.45541779466646
1.10651708984375,0.0019091796875,0.2183154296875,1.127849875614214,1.04248046875,0.1298828125,-0.42822265625,26.69470588235294,170.45541779466646
1.08796240234375,-0.0112744140625,0.2041552734375,1.1070088874974655,0.95263671875,-0.048828125,-0.33642578125,26.74176470588236,170.45541779466646
0.96149755859375,-0.0195751953125,0.2188037109375,0.9862736980033916,0.8359375,-0.18408203125,-0.23046875,25.988823529411768,170.45541779466646
1.09919287109375,-0.0215283203125,0.2305224609375,1.1233116403899142,0.806640625,-0.29833984375,-0.23583984375,25.988823529411768,170.45541779466646
1.10261083984375,-0.0181103515625,0.2397998046875,1.1285311671827325,0.84619140625,-0.39453125,-0.3076171875,27.44764705882353,170.45541779466646
1.09723974609375,-4.394531249999993e-05,0.2515185546875,1.1256982924794532,0.95166015625,-0.38330078125,-0.3916015625,26.835882352941177,170.59101191185624
1.08845068359375,-0.0073681640625,0.2524951171875,1.1173777179901534,0.9951171875,-0.2939453125,-0.47119140625,26.788823529411765,170.59101191185624
1.07477880859375,-0.0142041015625,0.2471240234375,1.1029150134363648,0.990234375,-0.13037109375,-0.599609375,26.74176470588236,170.59101191185624
1.07087255859375,-0.0371533203125,0.2368701171875,1.0973859204381051,0.986328125,0.02197265625,-0.6923828125,26.74176470588236,170.59101191185624
1.05524755859375,-0.0308056640625,0.2481005859375,1.084458528298308,1.08544921875,0.21630859375,-0.470703125,26.835882352941177,170.59101191185624
0.96052099609375,-0.0547314453125,0.2388232421875,0.9912782939477056,1.05419921875,0.2744140625,-0.318359375,26.835882352941177,170.59101191185624
1.09089208984375,-0.0527783203125,0.2485888671875,1.1201015702463049,1.013671875,0.240234375,0.0654296875,27.44764705882353,170.59101191185624
1.10602880859375,-0.0581494140625,0.2671435546875,1.139318550101856,1.0498046875,0.23876953125,0.25830078125,26.788823529411765,170.59101191185624
1.08796240234375,-0.0298291015625,0.2564013671875,1.118165294269693,1.28515625,0.294921875,0.18505859375,27.44764705882353,170.5556824869869
1.06940771484375,0.0019091796875,0.2402880859375,1.0960724746922157,1.47705078125,0.38037109375,0.08642578125,26.69470588235294,170.5556824869869
1.06794287109375,0.0028857421875,0.2231982421875,1.0910214290945548,1.54150390625,0.4931640625,-0.02587890625,25.988823529411768,170.5556824869869
1.05768896484375,-0.0093212890625,0.1987841796875,1.0762471755484715,1.482421875,0.66162109375,-0.04931640625,25.988823529411768,170.5556824869869
1.07087255859375,-0.0142041015625,0.1953662109375,1.0886403215141345,1.396484375,0.74658203125,-0.05322265625,26.74176470588236,170.5556824869869
1.12116552734375,0.0072802734375,0.1987841796875,1.1386747964978174,1.4638671875,0.4189453125,-0.10498046875,26.835882352941177,170.5556824869869
1.15192724609375,0.0341357421875,0.1802294921875,1.1664408682149243,1.43408203125,0.22265625,-0.107421875,27.44764705882353,170.5556824869869
1.16901708984375,0.0546435546875,0.1885302734375,1.185382022142252,1.416015625,-0.0693359375,-0.15576171875,26.74176470588236,170.5556824869869
1.20319677734375,0.0434130859375,0.1831591796875,1.2178318710498588,1.46142578125,-0.41015625,-0.34326171875,26.74176470588236,170.5556824869869
1.17975927734375,0.0312060546875,0.1802294921875,1.1938544468158463,1.45947265625,-1.060546875,-0.40673828125,26.08294117647059,170.2913696295798
1.13044287109375,0.0243701171875,0.1724169921875,1.1437755927687028,1.4072265625,-1.3955078125,-0.37548828125,26.74176470588236,170.2913696295798
1.09382177734375,0.1381396484375,0.1602099609375,1.1140897067316755,1.30859375,-1.5986328125,-0.251953125,26.788823529411765,170.2913696295798
