AccX,AccY,AccZ,Magnitude,GyroX,GyroY,GyroZ,Temperature,Altitude
-0.05466845703125,-0.03161083984375,1.01050732421875,1.0124786109787915,0.6552734375,-0.01416015625,0.8544921875,43.118235294117646,200.7138675179788
-0.08201220703125,-0.02721630859375,1.02222607421875,1.0258717640954371,0.671875,0.0341796875,0.79833984375,42.60058823529412,200.7138675179788
-0.05808642578125,-0.03600537109375,1.02466748046875,1.0269439444963957,0.6494140625,0.048828125,0.7646484375,43.118235294117646,200.7138675179788
-0.05369189453125,-0.04186474609375,1.02271435546875,1.0249781116617611,0.65283203125,0.11083984375,0.7158203125,42.97705882352941,200.7138675179788
-0.04929736328125,-0.03698193359375,1.02320263671875,1.0250568419492738,0.5009765625,0.18310546875,0.61181640625,42.74176470588235,200.7138675179788
-0.03611376953125,-0.03747021484375,1.02906201171875,1.0303770403657264,0.59765625,0.1728515625,0.46533203125,43.25941176470588,200.7138675179788
-0.01365283203125,-0.03356396484375,1.04468701171875,1.0453152117961155,0.60498046875,0.119140625,0.36328125,43.16529411764706,200.7138675179788
0.00099560546875,-0.02868115234375,1.05738232421875,1.0577717047171666,0.60791015625,0.046875,0.2724609375,43.30647058823529,200.5045525481058
0.03322216796875,-0.03551708984375,1.05689404296875,1.0580123790288765,0.59033203125,0.025390625,-0.00341796875,42.60058823529412,200.5045525481058
-0.01755908203125,-0.02575146484375,1.04712841796875,1.0475921835433464,0.5869140625,0.0244140625,-0.1484375,43.25941176470588,200.5045525481058
0.01857373046875,-0.01793896484375,1.01831982421875,1.0186471687096064,0.61279296875,-0.06298828125,0.04638671875,42.55352941176471,200.5045525481058
0.03517529296875,-0.00329052734375,1.01050732421875,1.011124710955763,0.669921875,-0.18701171875,0.33349609375,43.118235294117646,200.5045525481058
0.04005810546875,-0.00524365234375,1.00611279296875,1.0069235819460316,0.8740234375,-0.29248046875,0.6884765625,42.60058823529412,200.4832835444957
0.06154248046875,0.01331103515625,0.99781201171875,0.9997967149822988,0.77392578125,-0.4072265625,0.99658203125,43.118235294117646,200.4832835444957
0.06496044921875,0.04016650390625,0.99292919921875,0.99586224080439,0.75048828125,-0.49951171875,1.28662109375,43.118235294117646,200.4832835444957
0.07716748046875,0.07385791015625,0.99048779296875,0.996230836179371,0.69482421875,-0.55419921875,1.45263671875,43.447647058823534,200.4832835444957
0.08595654296875,0.11096728515625,0.98951123046875,0.9994172006113696,0.57666015625,-0.5224609375,1.42529296875,43.02411764705882,200.615296935632
0.10158154296875,0.14124072265625,0.97388623046875,0.9893038671232428,0.49755859375,-0.40234375,1.1552734375,43.777058823529416,200.615296935632
0.11427685546875,0.15979541015625,0.96216748046875,0.9820183467096792,0.18896484375,-0.31640625,0.75146484375,43.73,200.615296935632
0.11281201171875,0.17102587890625,0.95728466796875,0.9789639098412805,0.0244140625,-0.2333984375,0.3544921875,44.01235294117648,200.615296935632
0.11671826171875,0.18518603515625,0.95581982421875,0.98056542698848,-0.06103515625,-0.17578125,-0.0458984375,43.25941176470588,200.615296935632
0.12013623046875,0.20032275390625,0.95972607421875,0.9877429104474292,-0.09814453125,-0.099609375,-0.34912109375,44.01235294117648,200.51716800298345
0.11622998046875,0.20618212890625,0.98365185546875,1.0117269648512854,-0.11328125,-0.09814453125,-0.541015625,42.60058823529412,200.51716800298345
0.11818310546875,0.22083056640625,1.02369091796875,1.0538863700652197,-0.09033203125,-0.06884765625,-0.6640625,43.25941176470588,200.51716800298345
0.10109326171875,0.23645556640625,1.04810498046875,1.0791918886522616,-0.0078125,0.04638671875,-0.91259765625,43.02411764705882,200.51716800298345
0.08156201171875,0.23743212890625,1.04224560546875,1.072055166356417,0.0556640625,0.0517578125,-1.16650390625,44.01235294117648,200.57143903045548
0.05910107421875,0.25745166015625,1.02662060546875,1.0600585652991263,0.1123046875,-0.0390625,-1.2431640625,43.777058823529416,200.57143903045548
0.05226513671875,0.28723681640625,1.01685498046875,1.0579369945887749,0.2490234375,-0.15576171875,-1.232421875,42.93,200.57143903045548
0.04738232421875,0.28723681640625,0.98999951171875,1.0319152613228142,0.40771484375,-0.2373046875,-1.1044921875,43.91823529411765,200.57143903045548
0.04103466796875,0.28088916015625,0.96558544921875,1.0064481228615632,0.60888671875,-0.4052734375,-0.837890625,43.02411764705882,200.57143903045548
0.02101513671875,0.22815478515625,0.92749951171875,0.9553803358869816,0.73193359375,-0.6591796875,-0.607421875,42.55352941176471,200.57232164054216
-0.00877001953125,0.16956103515625,0.92310498046875,0.9385897201930398,0.78076171875,-0.78076171875,-0.16943359375,43.447647058823534,200.57232164054216
-0.0009575195312499,0.14368212890625,0.93335888671875,0.944353896813874,0.865234375,-0.724609375,0.2373046875,43.118235294117646,200.57232164054216
0.00929638671875,0.11877978515625,0.92994091796875,0.937542090298004,0.8662109375,-0.68994140625,0.63916015625,43.30647058823529,200.57232164054216
0.02345654296875,0.11926806640625,0.94117138671875,0.94898822977444,0.8857421875,-0.75537109375,1.02392578125,43.02411764705882,200.62703407643824
0.06203076171875,0.12805712890625,0.93872998046875,0.949452694921648,0.84228515625,-0.82177734375,1.064453125,42.97705882352941,200.62703407643824
0.06593701171875,0.16077197265625,0.94703076171875,0.9628408904631004,0.7255859375,-0.73974609375,0.88525390625,43.02411764705882,200.62703407643824
0.09181591796875,0.21643603515625,0.94703076171875,0.97577763027659,0.634765625,-0.64990234375,0.81982421875,43.16529411764706,200.62703407643824
0.14455029296875,0.25452197265625,0.91724560546875,0.962816557041846,0.64404296875,-0.572265625,0.8466796875,42.55352941176471,200.62703407643824
0.10597607421875,0.29700244140625,0.8737885742187499,0.9289498646015978,0.61376953125,-0.56787109375,1.0068359375,42.93,200.49545968754697
0.07081982421875,0.29700244140625,0.8332612304687499,0.8874402379348949,0.59814453125,-0.9580078125,0.658203125,43.25941176470588,200.49545968754697
0.02101513671875,0.29016650390625,0.8117768554687499,0.8623339834630288,0.5166015625,-1.62451171875,0.2548828125,42.55352941176471,200.49545968754697
0.01222607421875,0.26770556640625,0.8430268554687499,0.8845959677825929,0.42919921875,-2.0009765625,0.1923828125,43.02411764705882,200.49545968754697
0.00880810546875,0.25403369140625,0.8669526367187499,0.9034476041282234,0.380859375,-2.26123046875,0.6513671875,43.91823529411765,200.53931763583967
0.01613232421875,0.22815478515625,0.8757416992187499,0.9051178827229835,0.294921875,-2.484375,0.75048828125,43.16529411764706,200.53931763583967
-0.01072314453125,0.19153369140625,0.8581635742187499,0.8793434260220763,0.1533203125,-2.78076171875,0.94677734375,43.118235294117646,200.53931763583967
-0.02000048828125,0.17102587890625,0.8440034179687499,0.8613893662740887,0.015625,-2.95263671875,0.96533203125,43.447647058823534,200.53931763583967
1.904296875000072e-05,0.15588916015625,0.8288666992187499,0.843398740626663,-0.14892578125,-3.1708984375,0.86181640625,43.777058823529416,200.53931763583967
0.03761669921875,0.12854541015625,0.8234956054687499,0.8343164572023588,-0.388671875,-3.380859375,0.8681640625,43.87117647058824,200.68174669500183
0.05861279296875,0.09338916015625,0.8191010742187499,0.8264886959424171,-0.6162109375,-3.732421875,1.12060546875,43.25941176470588,200.68174669500183
0.05080029296875,0.05627978515625,0.8249604492187499,0.8284369781450766,-0.90673828125,-3.81201171875,1.591796875,43.16529411764706,200.68174669500183
0.01613232421875,0.0250297851562499,0.8137299804687499,0.8142746607523403,-1.244140625,-4.04833984375,2.044921875,42.55352941176471,200.68174669500183
-0.00974658203125,-0.02038037109375,0.8361909179687499,0.8364960290883822,-1.673828125,-4.578125,2.2607421875,43.353529411764704,200.82417736293024
-0.02000048828125,-0.05602490234375,0.8737885742187499,0.8758112134754561,-2.0126953125,-5.03271484375,2.31787109375,44.01235294117648,200.82417736293024
-0.0048637695312499,-0.06579052734375,0.90406201171875,0.9064657581923186,-2.328125,-5.09716796875,2.33984375,43.25941176470588,200.82417736293024
0.03761669921875,-0.03747021484375,0.8889252929687499,0.8905095224309106,-2.60107421875,-4.92138671875,2.330078125,42.55352941176471,200.82417736293024
0.08986279296875,0.03821337890625,0.8654877929687499,0.8709791637378559,-2.7744140625,-4.78955078125,2.1552734375,42.60058823529412,200.82417736293024
0.15138623046875,0.13635791015625,0.8337495117187499,0.8582828896867112,-2.80419921875,-4.86083984375,1.69677734375,42.69470588235294,200.7468717392021
0.18898388671875,0.20520556640625,0.8444916992187499,0.8893764467157913,-2.65673828125,-5.244140625,1.232421875,43.25941176470588,200.7468717392021
0.22902294921875,0.20960009765625,0.8737885742187499,0.9273026391861502,-2.49267578125,-5.66259765625,0.88671875,42.69470588235294,200.7468717392021
0.23585888671875,0.21838916015625,0.93238232421875,0.9862352854332066,-2.25830078125,-5.76318359375,0.79638671875,43.87117647058824,200.7468717392021
0.25294873046875,0.19983447265625,0.95240185546875,1.0054780808192048,-2.06396484375,-5.67138671875,0.6357421875,42.69470588235294,200.835031498018
0.27296826171875,0.14954150390625,0.96656201171875,1.015439045828993,-1.9033203125,-5.7119140625,0.3818359375,43.16529411764706,200.835031498018
0.23341748046875,0.13293994140625,0.95337841796875,0.9904984381906278,-1.77099609375,-5.5615234375,0.1943359375,44.01235294117648,200.835031498018
0.21828076171875,0.11585009765625,0.92456982421875,0.9570251281546218,-1.68798828125,-5.42138671875,0.017578125,43.25941176470588,200.835031498018
0.25099560546875,0.09631884765625,0.8723237304687499,0.9128114838877568,-1.71728515625,-5.48779296875,-0.40771484375,43.777058823529416,200.835031498018
0.25197216796875,0.09338916015625,0.8537690429687499,0.895060381983996,-1.73291015625,-5.744140625,-0.7841796875,42.55352941176471,200.55017178057392
0.26564404296875,0.06702197265625,0.8420502929687499,0.8854983897626668,-1.69482421875,-6.263671875,-1.0908203125,43.16529411764706,200.55017178057392
0.20265576171875,0.0015922851562499,0.8615815429687499,0.8850958413156382,-1.701171875,-6.37109375,-1.06689453125,43.02411764705882,200.55017178057392
0.23439404296875,-0.02135693359375,0.8708588867187499,0.90210414397052,-1.67578125,-6.16162109375,-1.099609375,43.25941176470588,200.55017178057392
0.26466748046875,-0.02477490234375,0.8718354492187499,0.9114602138976106,-1.6513671875,-6.10400390625,-1.234375,43.91823529411765,200.44074777718748
0.27394482421875,-0.04528271484375,0.8772065429687499,0.9201019563108468,-1.5791015625,-6.49560546875,-1.35302734375,43.30647058823529,200.44074777718748
0.28810498046875,-0.05700146484375,0.8889252929687499,0.936184716412744,-1.55810546875,-6.73193359375,-1.30810546875,43.49470588235295,200.44074777718748
0.30812451171875,-0.04528271484375,0.8850190429687499,0.9382163638537012,-1.53173828125,-6.5751953125,-1.236328125,43.25941176470588,200.44074777718748
0.30958935546875,-0.05211865234375,0.8659760742187499,0.9211278326383384,-1.42919921875,-6.33544921875,-0.93994140625,43.02411764705882,200.44074777718748
0.36574169921875,-0.05309521484375,0.8352143554687499,0.9133285892644564,-1.337890625,-6.37158203125,-0.7060546875,43.118235294117646,200.6383302718644
0.40968701171875,-0.05700146484375,0.8205659179687499,0.9189238490197486,-1.3486328125,-6.59912109375,-0.51025390625,43.87117647058824,200.6383302718644
0.43458935546875,-0.04870068359375,0.8083588867187499,0.9190667844103708,-1.34716796875,-6.96826171875,-0.30419921875,43.30647058823529,200.6383302718644
0.43996044921875,-0.05211865234375,0.7990815429687499,0.9136809416378404,-1.4296875,-7.345703125,-0.2060546875,42.60058823529412,200.6383302718644
0.45314404296875,-0.05114208984375,0.7795502929687499,0.9031354805893268,-1.49072265625,-7.318359375,-0.3564453125,42.55352941176471,200.47331024834253
0.41945263671875,0.00842822265625,0.7492768554687499,0.85873590557784,-1.6328125,-7.38623046875,-0.2998046875,42.97705882352941,200.47331024834253
0.45265576171875,-0.02086865234375,0.7141206054687499,0.8457546798113977,-1.71533203125,-7.58349609375,-0.69970703125,43.16529411764706,200.47331024834253
0.49025341796875,-0.03454052734375,0.6911713867187499,0.8480915915618702,-1.8671875,-7.91357421875,-1.11181640625,42.69470588235294,200.47331024834253
0.48732373046875,-0.05114208984375,0.6657807617187499,0.8266583056537712,-1.970703125,-8.16796875,-1.1826171875,43.91823529411765,200.47331024834253
0.47560498046875,-0.06627880859375,0.6399018554687499,0.8000421004844906,-1.97216796875,-8.32958984375,-0.79443359375,44.01235294117648,200.2106074710186
0.49562451171875,-0.07360302734375,0.6491791992187499,0.8200577387897218,-1.85693359375,-8.7294921875,-0.06005859375,43.02411764705882,200.2106074710186
0.44191357421875,-0.05260693359375,0.6584565429687499,0.7947453148772159,-1.69677734375,-9.37890625,0.72900390625,43.777058823529416,200.2106074710186
0.47902294921875,-0.04967724609375,0.6716401367187499,0.8264570696105571,-1.451171875,-9.951171875,0.69580078125,42.60058823529412,200.2106074710186
0.45167919921875,-0.04870068359375,0.6858002929687499,0.8226225728883283,-1.00927734375,-9.8994140625,0.8330078125,43.777058823529416,200.6048840562683
0.47755810546875,-0.11168896484375,0.7321870117187499,0.8812683978768346,-0.63037109375,-10.1015625,1.23193359375,43.25941176470588,200.6048840562683
0.48781201171875,-0.13805615234375,0.7409760742187499,0.8978115629360567,-0.408203125,-10.09228515625,1.689453125,43.777058823529416,200.6048840562683
0.56056591796875,-0.10582958984375,0.7043549804687499,0.9063939480081368,-0.2333984375,-9.7734375,1.935546875,43.447647058823534,200.6048840562683
0.58888623046875,-0.08483349609375,0.6442963867187499,0.8769843490245529,-0.20703125,-9.8642578125,2.158203125,43.91823529411765,200.6048840562683
0.65187451171875,-0.07457958984375,0.5808198242187499,0.8762728812734765,-0.33642578125,-10.5283203125,1.8642578125,43.02411764705882,200.27617266606896
0.60255810546875,-0.06383740234375,0.5378510742187499,0.8102069256938935,-0.50830078125,-10.87451171875,1.7353515625,43.87117647058824,200.27617266606896
0.60890576171875,-0.03795849609375,0.5544526367187499,0.8243935955866981,-0.619140625,-11.85595703125,1.67919921875,43.02411764705882,200.27617266606896
0.64747998046875,-0.06188427734375,0.5632416992187499,0.8604075782029095,-1.1259765625,-12.9501953125,1.39697265625,43.353529411764704,200.27617266606896
0.59035107421875,-0.01403271484375,0.7175385742187499,0.9292862386848276,-1.5634765625,-13.962890625,1.19091796875,43.777058823529416,200.5176093873233
0.59572216796875,-0.08434521484375,0.7961518554687499,0.9979262465947868,-1.35107421875,-14.330078125,1.22216796875,44.01235294117648,200.5176093873233
0.62257763671875,-0.12682568359375,0.8156831054687499,1.0339374237875665,-1.189453125,-13.892578125,1.4609375,42.60058823529412,200.5176093873233
0.59914013671875,-0.12584912109375,0.7922456054687499,1.0012292465224824,-1.02734375,-13.1640625,2.23095703125,44.01235294117648,200.5176093873233
0.70021435546875,-0.08922802734375,0.7478120117187499,1.028340697113081,-0.6220703125,-13.05859375,2.66064453125,43.68294117647059,200.5176093873233
0.78126904296875,-0.11559521484375,0.6623627929687499,1.0307609037528744,-0.36474609375,-14.0380859375,2.19287109375,44.01235294117648,200.6704506880085
0.73146435546875,-0.13805615234375,0.5412690429687499,0.9203650261703672,-1.1416015625,-14.9033203125,1.7431640625,42.93,200.6704506880085
0.61622998046875,-0.16979443359375,0.4309174804687499,0.7708822306172803,-2.27587890625,-14.38330078125,1.69970703125,42.93,200.6704506880085
0.64747998046875,-0.15270458984375,0.3220307617187499,0.7390891883665456,-4.15380859375,-14.1357421875,1.82763671875,43.25941176470588,200.6704506880085
0.12794873046875,0.0274711914062499,0.2483002929687499,0.2806752206273484,-6.62841796875,-11.484375,2.0908203125,43.16529411764706,200.41771777886905
0.06984326171875,0.28333056640625,0.4436127929687499,0.5309864415906824,-6.33447265625,-9.37939453125,-0.31640625,43.02411764705882,200.41771777886905
0.09962841796875,0.40833056640625,0.4421479492187499,0.6100446558465626,-3.12451171875,-6.435546875,-2.77978515625,43.447647058823534,200.41771777886905
0.36964794921875,0.00647509765625,0.2316987304687499,0.4363093340190145,1.2421875,-3.58740234375,-4.50830078125,42.69470588235294,200.41771777886905
0.46925732421875,-0.39928662109375,0.0808198242187498,0.6214210216142954,1.19873046875,-2.77001953125,-2.0458984375,43.353529411764704,200.41771777886905
0.56203076171875,-0.31920849609375,0.1770112304687499,0.6701534278123576,-0.7294921875,-8.75830078125,2.28759765625,43.02411764705882,200.3964494797343
0.69435498046875,-0.12536083984375,0.2990815429687499,0.7663510608152485,-1.83642578125,-15.783203125,4.0830078125,43.02411764705882,200.3964494797343
0.48146435546875,-0.06676708984375,0.4343354492187499,0.6518535512837186,-2.75732421875,16.0,3.14599609375,43.447647058823534,200.3964494797343
0.52101513671875,0.09583056640625,0.6984956054687499,0.8766620677358842,-1.23876953125,16.0,1.5322265625,43.353529411764704,200.3964494797343
0.64747998046875,-0.07164990234375,0.7336518554687499,0.9811264335682844,0.93408203125,-13.4189453125,-0.2802734375,42.55352941176471,200.4181579140221
0.60206982421875,-0.30895458984375,0.6096284179687499,0.910817116558202,1.4306640625,-10.0517578125,-0.02197265625,43.02411764705882,200.4181579140221
0.53322216796875,-0.39049755859375,0.6726166992187499,0.9429885724381284,0.99365234375,-7.37841796875,2.34375,43.118235294117646,200.4181579140221
0.52589794921875,-0.33532177734375,0.7805268554687499,0.999115368444202,1.03955078125,-6.736328125,3.91845703125,43.777058823529416,200.4181579140221
0.63624951171875,-0.32604443359375,0.7287690429687499,1.0208931049965049,1.26953125,-5.83154296875,3.51123046875,43.91823529411765,200.4181579140221
0.61134716796875,-0.36852490234375,0.7463471679687499,1.032758470585381,0.99365234375,-5.2158203125,3.58935546875,43.25941176470588,200.27573263904355
0.31740185546875,-0.31627880859375,0.7785737304687499,0.8983057811216139,0.72265625,-2.8779296875,4.310546875,42.55352941176471,200.27573263904355
0.37111279296875,-0.18200146484375,0.7219331054687499,0.8318874004828359,0.7626953125,0.48583984375,3.6083984375,43.30647058823529,200.27573263904355
0.18312451171875,-0.05309521484375,0.5764252929687499,0.6071406813957073,1.09912109375,5.18359375,2.5234375,42.60058823529412,200.27573263904355
0.20314404296875,-0.03795849609375,0.3376557617187499,0.3958784700400589,1.76025390625,9.8876953125,1.79052734375,42.60058823529412,200.2540241950994
0.08009716796875,0.0221000976562499,0.0983979492187498,0.1287871385018147,2.6083984375,12.59326171875,1.75927734375,42.60058823529412,200.2540241950994
-0.48728564453125,0.08655322265625,-0.1921293945312501,0.5308977905033726,2.86572265625,14.2236328125,3.283203125,43.25941176470588,200.2540241950994
-0.45212939453125,0.39612353515625,-0.6218168945312501,0.8648647841300785,2.0498046875,15.99951171875,3.26708984375,42.97705882352941,200.2540241950994
-0.19431689453125,0.86633837890625,-1.07787158203125,1.3964628135459705,-0.806640625,15.99951171875,2.361328125,42.55352941176471,200.2540241950994
0.98341748046875,1.20569384765625,-0.91429736328125,1.804646021709156,-0.86669921875,15.99951171875,-3.48095703125,42.55352941176471,199.9031759386755
1.12062451171875,-0.00963818359375,-0.7868559570312501,1.369318986928699,0.8857421875,12.353515625,-6.07275390625,43.02411764705882,199.9031759386755
4.40089794921875,-0.92956005859375,0.3708588867187499,4.51326057034478,2.0107421875,7.72607421875,-8.8916015625,43.16529411764706,199.9031759386755
5.26320263671875,-1.94616162109375,-0.1979887695312501,5.614984114264435,4.6748046875,15.99951171875,16.0,43.25941176470588,199.9031759386755
6.02687451171875,-1.98082958984375,0.1120698242187498,6.34503442776366,5.26123046875,15.99951171875,-15.3154296875,43.02411764705882,200.0451583118816
4.91066357421875,-0.41637646484375,0.4431245117187499,4.9481658655021485,2.8603515625,15.99951171875,5.1689453125,43.02411764705882,200.0451583118816
2.38478466796875,0.00793994140625,-0.6306059570312501,2.466764039848897,-4.37255859375,15.99951171875,15.99951171875,42.55352941176471,200.0451583118816
-2.06589892578125,-0.39440380859375,-3.16869189453125,3.8031698697593592,-8.080078125,16.0,15.99951171875,42.69470588235294,200.0451583118816
3.56886669921875,0.0255180664062499,0.2229096679687499,3.575912388269543,2.2646484375,16.0,-12.001953125,43.30647058823529,200.0451583118816
0.81544873046875,0.09778369140625,0.7292573242187499,1.0983326123059534,4.7353515625,-12.57373046875,-15.52587890625,42.60058823529412,200.1220156573764
-0.53123095703125,-1.31579052734375,-0.1774809570312501,1.4300386469129462,1.2392578125,-7.1259765625,5.21826171875,43.16529411764706,200.1220156573764
0.06959912109375,-0.97362744140625,-0.1318266601562501,2.229470966681072,-3.37158203125,3.44482421875,7.03564453125,43.25941176470588,200.1220156573764
0.67042919921875,-0.63146435546875,-0.0861723632812501,2.228427792609596,-0.14599609375,9.9208984375,3.07177734375,43.777058823529416,200.1220156573764
1.27125927734375,-0.28930126953125,-0.0405180664062501,1.9638164682996824,0.26904296875,15.38427734375,-0.4609375,43.16529411764706,199.8923216879141
1.87208935546875,0.05286181640625,0.0051362304687498,1.8728425740986872,-0.52294921875,15.99951171875,-3.56591796875,43.02411764705882,199.8923216879141
1.89943310546875,0.04065478515625,-0.1052153320312501,1.9027793355513425,-0.51708984375,15.99951171875,-4.009765625,43.118235294117646,199.8923216879141
1.83546826171875,0.0250297851562499,-0.0329497070312501,1.8359346156972105,0.1396484375,13.47998046875,-3.8935546875,43.02411764705882,199.8923216879141
1.71437451171875,-0.09557568359375,-0.0607817382812501,1.7181120735952606,0.38427734375,8.58984375,-3.04150390625,43.25941176470588,199.8923216879141
1.87306591796875,-0.26012646484375,-0.0280668945312501,1.8912507663810347,0.25439453125,2.740234375,-2.02197265625,42.55352941176471,199.81546568770656
1.83253857421875,-0.40514599609375,-0.0104887695312501,1.876819362228759,0.60546875,-0.7724609375,-1.8291015625,43.777058823529416,199.81546568770656
1.40480419921875,-0.68639599609375,-0.0207426757812501,1.5636638258253377,0.728515625,-0.4833984375,-0.73486328125,43.16529411764706,199.81546568770656
1.42189404296875,-0.64293896484375,-0.0524809570312501,1.5613799770700554,0.583984375,3.43798828125,-0.64892578125,43.91823529411765,199.81546568770656
1.60792919921875,-0.42467724609375,0.0485932617187498,1.663775338840701,0.38330078125,2.45361328125,0.0654296875,43.25941176470588,199.9800326764397
1.52589794921875,-0.34215771484375,0.1018159179687498,1.5671001673182552,-0.2216796875,-1.6416015625,1.3447265625,43.118235294117646,199.9800326764397
1.59865185546875,-0.12096630859375,0.2316987304687499,1.619878052357432,-0.4248046875,-4.2470703125,-0.37109375,43.447647058823534,199.9800326764397
1.50441357421875,-0.21373974609375,0.2678315429687499,1.5429447873345554,-0.33251953125,-4.4208984375,-1.74658203125,42.60058823529412,199.9800326764397
1.36134716796875,-0.32897412109375,0.2360932617187499,1.4202922629920012,-0.84521484375,-3.3349609375,-1.49560546875,43.16529411764706,199.9800326764397
1.52052685546875,-0.30163037109375,0.2917573242187499,1.5773728586491915,-0.31494140625,-2.32421875,-1.326171875,43.30647058823529,200.0673054537332
1.37648388671875,-0.33581005859375,0.2649018554687499,1.441405313879438,-1.98095703125,-3.97021484375,-0.60205078125,43.16529411764706,200.0673054537332
1.46339794921875,-0.22985302734375,0.4343354492187499,1.5437011545000487,-0.16552734375,-4.447265625,-1.1162109375,42.97705882352941,200.0673054537332
1.52931591796875,-0.33678662109375,0.3957612304687499,1.6151963833052885,0.52197265625,-5.89697265625,-1.89404296875,42.55352941176471,200.0673054537332
1.53956982421875,-0.40758740234375,0.3894135742187499,1.6395260491922965,0.15283203125,-6.6337890625,-2.25,43.87117647058824,199.58490226812413
1.32179638671875,-0.43297802734375,0.4480073242187499,1.4612755464520963,-0.75634765625,-4.658203125,-2.1435546875,43.118235294117646,199.58490226812413
1.32081982421875,-0.48278271484375,0.4607026367187499,1.4798280566608946,-0.11181640625,-1.72216796875,-1.6982421875,44.01235294117648,199.58490226812413
1.29005810546875,-0.47448193359375,0.3698823242187499,1.423445100649108,-0.2412109375,-0.68359375,-0.3193359375,42.97705882352941,199.58490226812413
1.32619091796875,-0.30993115234375,0.3464448242187499,1.4052984331891505,-0.234375,-0.6318359375,-0.40576171875,43.25941176470588,199.58490226812413
1.35255810546875,-0.27477490234375,0.2951752929687499,1.4113975801334009,-0.10107421875,-1.3896484375,-0.7529296875,43.118235294117646,200.07859861635023
1.32374951171875,-0.29479443359375,0.2561127929687499,1.3801486479998244,0.0751953125,-2.09716796875,-0.421875,43.87117647058824,200.07859861635023
1.32423779296875,-0.31627880859375,0.2566010742187499,1.3854537626288523,0.11376953125,-2.20751953125,0.146484375,43.02411764705882,200.07859861635023
1.27199169921875,-0.33043896484375,0.3064057617187499,1.349458144287128,0.01953125,-2.97314453125,0.66015625,43.49470588235295,200.07859861635023
1.24122998046875,-0.29381787109375,0.3947846679687499,1.3352287219243426,-0.00634765625,-3.7685546875,0.34814453125,43.25941176470588,199.50848552039835
1.09425732421875,-0.27233349609375,0.3542573242187499,1.1819741437373543,0.12109375,-3.58740234375,-0.1015625,42.97705882352941,199.50848552039835
1.06203076171875,-0.28502880859375,0.5222260742187499,1.2173211709155511,0.18896484375,-2.50439453125,-0.40966796875,43.02411764705882,199.50848552039835
1.04689404296875,-0.30211865234375,0.5197846679687499,1.207244349066436,0.2607421875,-0.87353515625,-0.31884765625,42.55352941176471,199.50848552039835
1.06789013671875,-0.33873974609375,0.4733979492187499,1.216239934391799,0.427734375,0.666015625,-0.099609375,43.30647058823529,199.50848552039835
1.04884716796875,-0.33922802734375,0.4025971679687499,1.1735589103015056,0.6083984375,1.5390625,-0.037109375,43.91823529411765,200.02344971213344
1.08107373046875,-0.32750927734375,0.3425385742187499,1.180387822829285,0.634765625,1.59423828125,-0.06396484375,43.73,200.02344971213344
1.16994091796875,-0.35631787109375,0.3078706054687499,1.2611536331906743,0.9248046875,1.0029296875,-0.080078125,43.25941176470588,200.02344971213344
1.14699169921875,-0.36803662109375,0.3347260742187499,1.2502329612135157,0.947265625,-0.17236328125,0.34619140625,43.25941176470588,200.02344971213344
1.22169873046875,-0.32164990234375,0.3811127929687499,1.3195656136286444,0.9755859375,-1.6748046875,0.80712890625,42.55352941176471,199.76075656494663
1.22609326171875,-0.29381787109375,0.4304291992187499,1.3322548267303371,0.83056640625,-2.67822265625,0.78662109375,43.118235294117646,199.76075656494663
1.29884716796875,-0.29381787109375,0.4699799804687499,1.412166452354648,0.6806640625,-2.392578125,0.5244140625,44.01235294117648,199.76075656494663
1.18947216796875,-0.31969677734375,0.4978120117187499,1.3284829192833931,0.5859375,-1.255859375,0.39501953125,43.30647058823529,199.76075656494663
1.20802685546875,-0.32457958984375,0.4856049804687499,1.3418245007201606,0.5283203125,0.4462890625,0.09033203125,42.69470588235294,199.76075656494663
1.12990185546875,-0.33678662109375,0.4401948242187499,1.2585209233097578,0.50390625,2.0498046875,0.43798828125,44.01235294117648,200.0021800190415
1.14699169921875,-0.31090771484375,0.3850190429687499,1.2491970335678235,0.2763671875,2.111328125,0.94287109375,43.25941176470588,200.0021800190415
1.19435498046875,-0.22789990234375,0.3586518554687499,1.2676960748893942,0.162109375,0.8740234375,0.79833984375,43.777058823529416,200.0021800190415
1.20167919921875,-0.18102490234375,0.3591401367187499,1.2671955456463468,0.0146484375,-0.40185546875,0.32958984375,42.60058823529412,200.0021800190415
1.19923779296875,-0.18444287109375,0.3967377929687499,1.276554477157782,0.22119140625,-0.34912109375,0.15234375,44.01235294117648,199.72775616196685
1.18556591796875,-0.17321240234375,0.4314057617187499,1.2734520067198891,0.5126953125,0.2734375,0.189453125,42.60058823529412,199.72775616196685
1.20997998046875,-0.14635693359375,0.4382416992187499,1.2951940750637565,0.6240234375,0.6943359375,0.10986328125,43.16529411764706,199.72775616196685
1.26369091796875,-0.13903271484375,0.4372651367187499,1.3444127460505544,0.72412109375,0.65380859375,-0.2431640625,43.02411764705882,199.72775616196685
1.25490185546875,-0.18004833984375,0.4143159179687499,1.333736762416666,0.74462890625,0.5068359375,-0.66162109375,44.01235294117648,199.72775616196685
1.26710888671875,-0.23424755859375,0.3957612304687499,1.3479850893281058,0.62158203125,0.3369140625,-0.98486328125,43.118235294117646,199.782902939412
1.23195263671875,-0.24987255859375,0.3972260742187499,1.3183065457987029,0.56103515625,0.3583984375,-1.04443359375,42.97705882352941,199.782902939412
1.13478466796875,-0.23278271484375,0.3933198242187499,1.2233660609606765,0.65869140625,0.66748046875,-0.83984375,43.118235294117646,199.782902939412
1.15626904296875,-0.20299755859375,0.3923432617187499,1.237780006115384,0.7978515625,0.7666015625,-0.76416015625,43.118235294117646,199.782902939412
1.20607373046875,-0.23327099609375,0.3757416992187499,1.2846053967959077,0.89208984375,0.62646484375,-0.93701171875,43.73,200.10074631276635
1.08693310546875,-0.25133740234375,0.3747651367187499,1.176878487049818,0.95849609375,0.56787109375,-0.7158203125,43.118235294117646,200.10074631276635
1.06642529296875,-0.36217724609375,0.3586518554687499,1.1819756412476166,1.04296875,0.45703125,-0.80078125,44.01235294117648,200.10074631276635
1.13039013671875,-0.19957958984375,0.3293549804687499,1.1941895063317232,1.03271484375,0.3720703125,-1.3203125,43.30647058823529,200.10074631276635
1.12111279296875,-0.16930615234375,0.3015229492187499,1.1732325245599056,0.9208984375,0.44921875,-1.517578125,43.25941176470588,200.10074631276635
1.14064404296875,-0.11754833984375,0.2844331054687499,1.1814349903599075,0.86572265625,0.4033203125,-1.4990234375,43.25941176470588,199.94703133612217
1.09425732421875,-0.11461865234375,0.2497651367187499,1.1282371872047172,0.798828125,-0.18408203125,-1.58642578125,43.25941176470588,199.94703133612217
0.93361279296875,-0.07897412109375,0.2526948242187499,0.9704248725091424,0.9541015625,-1.33544921875,-1.037109375,43.25941176470588,199.94703133612217
0.90529248046875,-0.10485302734375,0.2834565429687499,0.9544088454578604,1.125,-2.91064453125,-0.849609375,42.55352941176471,199.94703133612217
0.83986279296875,-0.14489208984375,0.3386323242187499,0.9170796474234676,1.5693359375,-4.1611328125,-1.0478515625,43.353529411764704,199.8041737238157
0.75929638671875,-0.27575146484375,0.3781831054687499,0.8919598278563956,1.7861328125,-4.326171875,-0.94287109375,43.118235294117646,199.8041737238157
0.75001904296875,-0.38707958984375,0.4411713867187499,0.9523609432083564,1.814453125,-3.916015625,-0.61572265625,43.118235294117646,199.8041737238157
0.66749951171875,-0.40172802734375,0.4480073242187499,0.8986943688773812,2.00390625,-2.671875,0.45556640625,43.118235294117646,199.8041737238157
0.71339794921875,-0.31774365234375,0.4475190429687499,0.9000949707524922,1.98828125,-1.64794921875,0.8525390625,42.69470588235294,199.8041737238157
0.78908154296875,-0.21862255859375,0.3747651367187499,0.900496758617067,1.888671875,-0.67333984375,0.34375,42.97705882352941,200.2318759846919
0.75392529296875,-0.19713818359375,0.2858979492187499,0.8300629182032802,1.37939453125,-0.2177734375,0.32177734375,43.447647058823534,200.2318759846919
0.81300732421875,-0.23424755859375,0.2053315429687499,0.8706399201038232,0.6728515625,-0.3515625,0.4833984375,43.87117647058824,200.2318759846919
0.85109326171875,-0.23668896484375,0.1877534179687499,0.9031238852897284,0.033203125,-0.42431640625,0.21875,43.02411764705882,200.2318759846919
0.78956982421875,-0.17321240234375,0.2082612304687499,0.834742944719438,-0.2021484375,-1.24462890625,0.5078125,43.91823529411765,200.08989212009024
0.71388623046875,-0.17321240234375,0.2614838867187499,0.7797499018224487,-0.37109375,-2.939453125,0.50048828125,43.02411764705882,200.08989212009024
0.52003857421875,-0.18346630859375,0.3444916992187499,0.650211147163065,-0.193359375,-4.68798828125,0.56640625,43.87117647058824,200.08989212009024
0.38869091796875,-0.18590771484375,0.4397065429687499,0.6156168874221561,-0.0732421875,-5.69970703125,1.03515625,43.777058823529416,200.08989212009024
0.43117138671875,-0.16100537109375,0.5813081054687499,0.7414516894104923,0.22900390625,-5.5947265625,1.1953125,43.118235294117646,200.08989212009024
0.36720654296875,-0.06579052734375,0.5900971679687499,0.6981287175958085,0.796875,-4.4013671875,2.107421875,43.25941176470588,200.0451583118816
0.39503857421875,-0.01110302734375,0.5192963867187499,0.6525699116540146,1.248046875,-2.537109375,3.18212890625,43.91823529411765,200.0451583118816
0.47658154296875,0.07678759765625,0.3918549804687499,0.6217528672796427,0.74560546875,0.34814453125,3.4873046875,43.02411764705882,200.0451583118816
0.51564404296875,0.13391650390625,0.2507416992187499,0.5888071066102522,0.41015625,3.44384765625,3.3818359375,42.55352941176471,200.0451583118816
0.69581982421875,0.32971728515625,0.1037690429687498,0.7769470575176086,0.173828125,4.93896484375,2.2861328125,43.91823529411765,200.0125954327329
0.84718701171875,0.32922900390625,0.0295502929687498,0.9093903395421494,-0.16845703125,4.05712890625,0.9765625,42.55352941176471,200.0125954327329
0.82179638671875,0.26770556640625,-0.0090239257812501,0.8643477325390458,-0.2412109375,2.13720703125,0.60888671875,43.87117647058824,200.0125954327329
0.81544873046875,0.12122119140625,-0.0109770507812501,0.824482689274251,-0.19287109375,0.1962890625,1.34521484375,43.16529411764706,200.0125954327329
0.75246044921875,-0.02770458984375,-0.0051176757812501,0.7529876908305311,-0.20166015625,-1.3798828125,2.67578125,42.97705882352941,200.0125954327329
0.71046826171875,-0.17272412109375,-0.0270903320312501,0.7316643075938815,-0.43994140625,-1.9267578125,3.5859375,43.118235294117646,200.29788104309307
0.89845654296875,-0.16149365234375,-0.0407622070312501,0.9137646944770518,-0.783203125,-1.298828125,3.66748046875,43.16529411764706,200.29788104309307
1.04347607421875,-0.18053662109375,-0.1442778320312501,1.0687618452389476,-1.39697265625,0.4677734375,2.92138671875,42.69470588235294,200.29788104309307
1.05031201171875,-0.20153271484375,-0.1940825195312501,1.0869401002357848,-2.1044921875,2.10693359375,2.0517578125,43.118235294117646,200.29788104309307
0.92384716796875,-0.17077099609375,-0.2067778320312501,0.9619840927428454,-2.99365234375,1.755859375,2.48681640625,43.16529411764706,200.11160051908817
0.89894482421875,-0.18004833984375,-0.1569731445312501,0.9301396506838092,-3.94140625,-0.82177734375,3.63525390625,42.60058823529412,200.11160051908817
1.14894482421875,-0.14782177734375,0.0075776367187498,1.1584398592651934,-4.0771484375,-3.978515625,2.83740234375,42.55352941176471,200.11160051908817
1.44044873046875,0.11243212890625,0.3918549804687499,1.497025001273389,-3.05029296875,-7.34033203125,0.134765625,43.16529411764706,200.11160051908817
1.35548779296875,0.32874072265625,0.6296479492187499,1.5303183196888237,-0.79052734375,-7.9248046875,-0.9951171875,44.01235294117648,200.11160051908817
1.28615185546875,0.34338916015625,0.6999604492187499,1.5040104192155843,0.80126953125,-5.9921875,-0.82177734375,43.447647058823534,200.0021800190415
1.15187451171875,0.21399462890625,0.5212495117187499,1.2823063773588073,1.310546875,-2.00634765625,-0.3486328125,43.91823529411765,200.0021800190415
0.74025341796875,0.04504931640625,0.3391206054687499,0.8154798273265739,0.9853515625,3.01513671875,-0.43408203125,43.25941176470588,200.0021800190415
0.73048779296875,-0.08483349609375,0.1657807617187499,0.75385170868805,0.982421875,6.5390625,-1.85986328125,43.02411764705882,200.0021800190415
0.96535107421875,-0.12926708984375,-0.0114653320312501,0.9740349741413568,1.306640625,6.6533203125,-3.75146484375,43.58882352941177,199.782902939412
1.06740185546875,-0.14538037109375,-0.0934965820312501,1.0813065172322849,1.14404296875,3.61962890625,-3.6884765625,43.16529411764706,199.782902939412
1.22999951171875,-0.20299755859375,-0.0851958007812501,1.2495459703805,0.8701171875,-1.046875,-2.67431640625,43.25941176470588,199.782902939412
1.30128857421875,-0.20836865234375,0.0368745117187498,1.3183812719719263,0.43505859375,-4.4267578125,-2.21923828125,43.777058823529416,199.782902939412
1.27394482421875,-0.23620068359375,0.2458588867187499,1.3187769979274282,0.27490234375,-5.806640625,-2.10498046875,43.02411764705882,199.782902939412
1.20851513671875,-0.29577099609375,0.3767182617187499,1.2999638327742142,-0.14013671875,-5.76513671875,-1.61572265625,43.353529411764704,200.11160051908817
1.15626904296875,-0.32848583984375,0.4460541992187499,1.2821175434984124,-0.50048828125,-4.732421875,-0.61376953125,42.60058823529412,200.11160051908817
1.09181591796875,-0.35436474609375,0.4470307617187499,1.2318574892928476,-0.77587890625,-2.89013671875,-0.30908203125,43.30647058823529,200.11160051908817
1.07960888671875,-0.40416943359375,0.3327729492187499,1.1998525388835648,-0.86181640625,-1.65625,-0.21533203125,43.16529411764706,200.11160051908817
1.33644482421875,-0.44176708984375,0.2439057617187499,1.4285422466450566,-0.880859375,-2.337890625,-1.06103515625,42.69470588235294,200.05645118049136
1.41847607421875,-0.38756787109375,0.2375581054687499,1.4895358610349334,-0.841796875,-4.0556640625,-1.28466796875,43.87117647058824,200.05645118049136
1.37111279296875,-0.38610302734375,0.2756440429687499,1.4508637004180418,-0.69921875,-6.1005859375,-0.1025390625,43.91823529411765,200.05645118049136
1.31984326171875,-0.41247021484375,0.4138276367187499,1.4433887995096346,-0.5791015625,-8.01513671875,1.8583984375,43.30647058823529,200.05645118049136
1.24660107421875,-0.23424755859375,0.5554291992187499,1.3846977115223582,-0.70751953125,-9.9814453125,3.39990234375,43.91823529411765,200.05645118049136
1.19289013671875,-0.07750927734375,0.6804291992187499,1.3754920797680728,-1.3544921875,-11.8046875,2.7685546875,43.87117647058824,200.1880195116599
1.17580029296875,-0.02770458984375,0.7287690429687499,1.383610563429391,-2.28173828125,-11.693359375,-0.12646484375,42.60058823529412,200.1880195116599
1.11085888671875,-0.21911083984375,0.8142182617187499,1.394621240357165,-2.3515625,-9.12548828125,-2.65673828125,43.02411764705882,200.1880195116599
1.01955029296875,-0.38463818359375,0.7634370117187499,1.3305132103940265,-1.10400390625,-5.8681640625,-1.94140625,42.60058823529412,200.1880195116599
1.09865185546875,-0.51110302734375,0.5119721679687499,1.31543821780405,0.1767578125,-3.1875,0.08349609375,42.69470588235294,200.1003071095645
1.37404248046875,-0.60241162109375,0.3015229492187499,1.5302968954641083,0.09619140625,-2.27490234375,0.89990234375,42.69470588235294,200.1003071095645
1.42580029296875,-0.59508740234375,0.1042573242187498,1.548517058837667,-0.0234375,-1.69287109375,1.80712890625,42.69470588235294,200.1003071095645
1.37355419921875,-0.62096630859375,-0.1369536132812501,1.5136071441397203,-0.2724609375,-1.228515625,3.07861328125,44.01235294117648,200.1003071095645
1.32472607421875,-0.69860302734375,-0.3469145507812501,1.5373012284756131,-0.83056640625,-1.52734375,3.5771484375,43.16529411764706,200.1003071095645
1.15675732421875,-0.59215771484375,-0.5505278320312501,1.4113182349221325,-1.43310546875,-1.76904296875,4.31640625,43.87117647058824,199.8918835752125
1.09376904296875,-0.35387646484375,-0.7419340820312501,1.3682198119478606,-1.5380859375,-3.04248046875,4.7998046875,43.353529411764704,199.8918835752125
1.15236279296875,-0.17907177734375,-0.93968798828125,1.4976716006454325,-1.75927734375,-5.06396484375,3.4287109375,42.97705882352941,199.8918835752125
1.15138623046875,-0.08336865234375,-1.07835986328125,1.5797153473466692,-2.50341796875,-7.4482421875,1.5341796875,43.25941176470588,199.8918835752125
1.09328076171875,-0.05309521484375,-1.11253955078125,1.5607133554359622,-3.2607421875,-10.27734375,0.0859375,43.73,200.2865868814916
0.99660107421875,-0.00231396484375,-1.08763720703125,1.4751860051146102,-3.84033203125,-13.3017578125,-1.47607421875,43.16529411764706,200.2865868814916
0.82765576171875,-0.11657177734375,-0.94652392578125,1.262739316429038,-4.375,-14.8525390625,-2.61474609375,43.353529411764704,200.2865868814916
0.61915966796875,-0.28795849609375,-0.7541411132812501,1.0173532369107745,-4.14501953125,-13.9267578125,-2.71142578125,43.118235294117646,200.2865868814916
0.52443310546875,-0.35387646484375,-0.6130278320312501,0.8809436743213731,-3.62890625,-13.310546875,-2.70068359375,42.60058823529412,200.2865868814916
0.59132763671875,-0.52575146484375,-0.4621489257812501,0.9163321484775564,-3.2197265625,-13.126953125,-2.15185546875,43.353529411764704,199.9795941518484
0.56935498046875,-0.80504833984375,-0.3566801757812501,1.04856505333007,-4.14453125,-13.27783203125,-0.99609375,42.60058823529412,199.9795941518484
0.48878857421875,-0.93151318359375,-0.1891997070312501,1.0688440534692012,-5.30322265625,-12.6044921875,0.87060546875,43.118235294117646,199.9795941518484
0.40187451171875,-0.69567333984375,0.0241791992187498,0.8037718287010321,-4.90625,-9.2138671875,2.802734375,43.118235294117646,199.9795941518484
0.46632763671875,-0.54723583984375,0.0798432617187498,0.7233971769498949,-2.9541015625,-4.208984375,5.03466796875,43.447647058823534,200.2431699936033
0.56593701171875,-0.43346630859375,-0.0153715820312501,0.7130315753549658,-1.27783203125,0.275390625,6.14697265625,42.55352941176471,200.2431699936033
0.58107373046875,-0.42174755859375,-0.1516020507812501,0.7338261818862413,-0.361328125,2.01025390625,6.5,43.02411764705882,200.2431699936033
0.62892529296875,-0.32555615234375,-0.0959379882812501,0.7146593104830778,0.57666015625,0.0107421875,6.43896484375,43.16529411764706,200.2431699936033
0.68312451171875,-0.30016552734375,0.0769135742187498,0.7501160844933505,1.017578125,-3.65185546875,5.5810546875,42.55352941176471,200.2431699936033
0.36720654296875,-0.16100537109375,0.4753510742187499,0.6218697761437004,1.333984375,-4.763671875,5.88134765625,43.25941176470588,199.8484664656185
0.40138623046875,-0.05651318359375,0.6301362304687499,0.7492505020880392,1.1015625,-3.0986328125,4.80859375,42.60058823529412,199.8484664656185
0.02736279296875,-0.02526318359375,0.6774995117187499,0.6785223203870944,0.8076171875,2.119140625,3.59521484375,42.60058823529412,199.8484664656185
-0.70847705078125,-0.20250927734375,0.6750581054687499,0.999326365434758,-3.88232421875,8.83251953125,8.33154296875,42.60058823529412,199.8484664656185
-0.83347705078125,0.10754931640625,0.92701123046875,1.251239653724916,0.6015625,15.99951171875,-3.39404296875,43.16529411764706,199.81590377674712
0.67921826171875,0.22815478515625,0.3112885742187499,0.7812122819573929,3.0341796875,15.99951171875,-4.91650390625,43.16529411764706,199.81590377674712
0.76857373046875,0.29211962890625,0.1535737304687499,0.836435501069308,1.89208984375,15.99951171875,-3.228515625,43.118235294117646,199.81590377674712
0.52785107421875,-0.34020458984375,0.2165620117187499,0.6642778217164219,-0.2998046875,13.63330078125,3.25732421875,43.353529411764704,199.81590377674712
0.45753857421875,-0.04723583984375,0.5842377929687499,0.7435768757814264,0.65576171875,13.01220703125,2.3076171875,43.91823529411765,199.81590377674712
0.20705029296875,-0.12291943359375,0.7390229492187499,0.7772605293242624,2.3896484375,15.99951171875,1.42822265625,42.97705882352941,200.11204011051856
0.47218701171875,-0.22594677734375,0.6760346679687499,0.8550060774775387,4.21240234375,15.99951171875,1.7939453125,43.25941176470588,200.11204011051856
0.49269482421875,-0.49206005859375,0.4201752929687499,0.8132764400230739,4.15673828125,15.99951171875,2.31884765625,42.97705882352941,200.11204011051856
0.74904248046875,-0.10387646484375,0.5739838867187499,0.9493747730522312,5.08740234375,15.99951171875,1.240234375,42.93,200.11204011051856
1.47560498046875,0.25305712890625,0.3840424804687499,1.5456185155720168,5.80615234375,15.99951171875,-2.60107421875,43.25941176470588,200.12245473905568
1.21681591796875,0.15393603515625,0.1594331054687499,1.236833131938649,5.36572265625,15.99951171875,-7.1669921875,42.60058823529412,200.12245473905568
1.01857373046875,-0.36608349609375,0.1403901367187499,1.0914297783188611,5.173828125,15.99951171875,-10.73388671875,44.01235294117648,200.12245473905568
0.77052685546875,-0.60094677734375,0.0827729492187498,0.9806630539185048,6.1591796875,15.99951171875,-12.64990234375,43.447647058823534,200.12245473905568
0.72804638671875,-0.72155224609375,0.0524995117187498,1.0263748748814296,7.0068359375,15.99951171875,-13.9072265625,43.87117647058824,200.12245473905568
0.61134716796875,-0.47399365234375,0.3938081054687499,0.8680438734179654,8.01171875,15.99951171875,-11.9892578125,43.91823529411765,200.18845912677105
0.73537060546875,-0.51842724609375,0.3913666992187499,0.9811751271496874,6.244140625,15.99951171875,-6.18212890625,43.16529411764706,200.18845912677105
1.32472607421875,-0.48961865234375,0.1550385742187499,1.4207964512672864,6.0126953125,15.99951171875,2.10009765625,43.16529411764706,200.18845912677105
1.15236279296875,-0.00036083984375,0.0891206054687498,1.155803884377989,6.3662109375,9.1220703125,-0.66357421875,43.02411764705882,200.18845912677105
0.87257763671875,0.24963916015625,0.5583588867187499,1.065587203734635,4.1884765625,9.2861328125,-2.21142578125,43.353529411764704,199.9587633355879
1.13185498046875,0.04211962890625,0.6291596679687499,1.2956510516916435,3.064453125,12.5419921875,-3.0673828125,43.447647058823534,199.9587633355879
1.64015576171875,-0.16002880859375,0.6247651367187499,1.762399392401832,1.63330078125,14.8203125,-3.134765625,43.447647058823534,199.9587633355879
2.18996044921875,-0.13707958984375,0.7551362304687499,2.320549139678079,1.63623046875,15.2275390625,-3.6953125,43.25941176470588,199.9587633355879
2.45314404296875,-0.35582958984375,0.6980073242187499,2.575217392226228,2.14404296875,13.12109375,-3.78759765625,42.55352941176471,199.9587633355879
2.51222607421875,-0.43200146484375,0.8000581054687499,2.671703218124712,1.94775390625,9.361328125,-3.36669921875,43.91823529411765,199.8376122223441
2.66212841796875,-0.29235302734375,1.17066357421875,2.922815630578924,3.04296875,4.67724609375,-2.9931640625,43.16529411764706,199.8376122223441
2.69191357421875,-0.05846630859375,1.61695263671875,3.140756728830723,4.0927734375,1.05517578125,-3.15087890625,43.118235294117646,199.8376122223441
2.79835888671875,-0.07653271484375,1.86158154296875,3.361867867189469,3.91259765625,-3.0380859375,-4.15869140625,43.73,199.8376122223441
2.17775341796875,-0.20348583984375,2.12183544921875,3.0473270435010456,1.60888671875,-6.03466796875,-3.01953125,42.97705882352941,200.10074631276635
1.75929638671875,-0.36608349609375,2.37818310546875,2.980754230991019,-0.8662109375,-8.14794921875,0.24267578125,42.97705882352941,200.10074631276635
1.22316357421875,-0.40905224609375,2.54810498046875,2.8559222434827563,-1.07275390625,-6.900390625,3.76611328125,43.777058823529416,200.10074631276635
0.72511669921875,-0.12731396484375,2.43384716796875,2.542757383267156,-0.6015625,-1.6611328125,5.89453125,42.69470588235294,200.10074631276635
0.69874951171875,0.12170947265625,1.93384716796875,2.059812842207323,-0.37451171875,4.54296875,3.61865234375,42.55352941176471,200.10074631276635
0.91212841796875,0.18420947265625,1.16431591796875,1.4904841285696004,-0.314453125,7.07568359375,0.60791015625,43.118235294117646,199.82719646997467
1.18458935546875,0.17346728515625,0.6198823242187499,1.34818282735992,-0.47216796875,6.07470703125,-0.20849609375,43.02411764705882,199.82719646997467
1.37160107421875,0.33801806640625,0.3444916992187499,1.4540358492298844,-0.30517578125,2.8125,-0.3828125,42.97705882352941,199.82719646997467
1.69044873046875,0.49866259765625,0.2819916992187499,1.7848811207116753,-0.517578125,-3.4169921875,-2.5634765625,44.01235294117648,199.82719646997467
1.49757763671875,0.45667041015625,0.3498627929687499,1.6042726125619324,-0.54541015625,-8.4736328125,-5.58642578125,43.777058823529416,199.89319926026235
1.22658154296875,0.22815478515625,0.6115815429687499,1.38945632217833,-0.17431640625,-10.4814453125,-7.46337890625,43.16529411764706,199.89319926026235
1.08546826171875,-0.07311474609375,0.8366791992187499,1.3724500703852245,-0.1044921875,-11.4794921875,-7.787109375,43.25941176470588,199.89319926026235
0.90382763671875,-0.31627880859375,1.07837841796875,1.4421638929063738,-0.82861328125,-9.947265625,-5.890625,42.60058823529412,199.89319926026235
0.58058544921875,-0.38952099609375,1.34058544921875,1.5119442505924097,-0.892578125,-5.80810546875,-4.1220703125,42.93,199.89319926026235
0.60548779296875,-0.37877880859375,1.47046826171875,1.6347372149663784,-0.66796875,-0.66796875,-3.02880859375,42.55352941176471,200.08945285613208
0.72706982421875,-0.32897412109375,1.15357373046875,1.4027069734147892,-0.31640625,2.37353515625,-2.4365234375,43.25941176470588,200.08945285613208
0.79152294921875,-0.26305615234375,0.98560498046875,1.291171675630569,0.029296875,2.390625,-1.48974609375,43.87117647058824,200.08945285613208
0.88234326171875,-0.22106396484375,0.8757416992187499,1.2626648137187737,0.26171875,1.48583984375,-0.66796875,42.55352941176471,200.08945285613208
0.90773388671875,-0.19469677734375,0.8552338867187499,1.2622648870968525,0.34375,1.16650390625,0.0625,43.777058823529416,200.22102174973577
0.93312451171875,-0.15172802734375,0.8449799804687499,1.26796447743813,0.1826171875,1.609375,0.54443359375,42.69470588235294,200.22102174973577
0.89943310546875,-0.07506787109375,0.8327729492187499,1.2280577679548312,-0.02490234375,2.22216796875,0.30859375,43.16529411764706,200.22102174973577
0.86964794921875,-0.02575146484375,0.8200776367187499,1.1956078051636274,-0.37158203125,2.47705078125,-0.04638671875,42.60058823529412,200.22102174973577
0.88966748046875,0.00989306640625,0.8317963867187499,1.2179865875800524,-0.70556640625,2.30126953125,-0.453125,43.25941176470588,200.22102174973577
0.86476513671875,0.05823291015625,0.8684174804687499,1.2269306149465649,-0.9404296875,2.2685546875,-0.97021484375,43.777058823529416,200.1663110430807
0.78224560546875,0.09729541015625,0.91529248046875,1.2079465670778988,-1.15185546875,2.7080078125,-1.30810546875,43.16529411764706,200.1663110430807
0.79689404296875,0.11194384765625,0.96509716796875,1.2565763344773238,-1.24169921875,3.22998046875,-1.7119140625,43.91823529411765,200.1663110430807
0.81349560546875,0.09094775390625,0.99244091796875,1.2864624245255727,-1.232421875,3.51708984375,-1.79736328125,43.16529411764706,200.1663110430807
0.86476513671875,0.07629931640625,0.98755810546875,1.3148807318708744,-1.3974609375,3.9345703125,-1.64697265625,43.777058823529416,200.28746726302447
0.92970654296875,0.10413134765625,0.96167919921875,1.341649908066045,-1.55810546875,4.44287109375,-1.77001953125,43.25941176470588,200.28746726302447
0.98537060546875,0.15002978515625,0.91040966796875,1.349929601900355,-1.69189453125,4.818359375,-2.43310546875,43.118235294117646,200.28746726302447
0.99269482421875,0.22864306640625,0.8923432617187499,1.3542515137821354,-1.89208984375,4.42822265625,-3.08642578125,43.25941176470588,200.28746726302447
0.95509716796875,0.26965869140625,0.90357373046875,1.3421519647588611,-2.1181640625,4.248046875,-3.470703125,43.87117647058824,200.28746726302447
0.94630810546875,0.27112353515625,0.92603466796875,1.3514981346903403,-2.140625,4.66259765625,-3.59326171875,43.118235294117646,200.0243276221956
0.89552685546875,0.19055712890625,0.90699169921875,1.2887646451910666,-1.841796875,5.7568359375,-3.58154296875,44.01235294117648,200.0243276221956
0.70216748046875,0.12610400390625,0.8527924804687499,1.1118436963769067,-1.3134765625,6.97998046875,-2.947265625,43.87117647058824,200.0243276221956
0.70997998046875,0.0274711914062499,0.7380463867187499,1.0244699644071016,-0.888671875,7.6708984375,-3.21728515625,42.60058823529412,200.0243276221956
0.51466748046875,-0.01110302734375,0.6511323242187499,0.8300477072498655,-0.3828125,8.16943359375,-3.63720703125,44.01235294117648,200.52846350475625
0.36720654296875,-0.05944287109375,0.5324799804687499,0.6495452484030108,-0.2333984375,8.3037109375,-3.8994140625,43.02411764705882,200.52846350475625
0.46632763671875,-0.13903271484375,0.4558198242187499,0.6667557819136855,0.150390625,8.6708984375,-4.55615234375,42.97705882352941,200.52846350475625
0.46095654296875,-0.25524365234375,0.3742768554687499,0.6463075282766353,0.39990234375,9.666015625,-4.89892578125,43.25941176470588,200.52846350475625
0.46925732421875,-0.32897412109375,0.3274018554687499,0.6600139268581585,0.6416015625,10.2509765625,-5.10791015625,43.353529411764704,200.52846350475625
0.44533154296875,-0.40270458984375,0.2404877929687499,0.6467809122192235,0.775390625,9.8857421875,-5.58154296875,43.25941176470588,200.73645949623776
0.36232373046875,-0.38659130859375,0.1770112304687499,0.5586271576401207,0.56103515625,9.58349609375,-6.0986328125,43.118235294117646,200.73645949623776
0.27394482421875,-0.32213818359375,0.0993745117187498,0.4343893065266022,0.37060546875,9.74951171875,-6.11669921875,43.16529411764706,200.73645949623776
0.20802685546875,-0.25426708984375,0.0739838867187498,0.3367499681779327,0.259765625,9.61669921875,-5.65283203125,42.55352941176471,200.73645949623776
0.17287060546875,-0.19127880859375,0.0349213867187498,0.2601755793738858,0.23486328125,9.068359375,-4.9169921875,43.25941176470588,200.45160192058853
0.15480419921875,-0.11559521484375,0.0324799804687498,0.1959120795708665,0.2421875,8.51318359375,-4.34423828125,43.87117647058824,200.45160192058853
0.10939404296875,-0.03405224609375,0.0637299804687498,0.1311034801659562,0.45166015625,8.13818359375,-3.818359375,43.02411764705882,200.45160192058853
0.12941357421875,0.03186572265625,0.0861909179687498,0.1587204202765754,0.55419921875,8.3994140625,-3.68115234375,43.49470588235295,200.45160192058853
0.14357373046875,0.06995166015625,0.1076752929687498,0.1926152111211232,0.64892578125,8.84130859375,-3.73291015625,43.16529411764706,200.45160192058853
0.16115185546875,0.15100634765625,0.1101166992187498,0.2467762650668288,0.62353515625,9.271484375,-3.71142578125,43.118235294117646,200.5388763730224
0.22023388671875,0.23938525390625,0.0725190429687498,0.333267574540504,0.478515625,9.462890625,-3.9248046875,43.25941176470588,200.5388763730224
0.30665966796875,0.30286181640625,0.0334565429687498,0.4323017141569263,0.3291015625,9.21728515625,-4.201171875,42.60058823529412,200.5388763730224
0.32912060546875,0.27502978515625,0.0544526367187498,0.4323503733233426,0.11572265625,8.34716796875,-4.28515625,42.69470588235294,200.5388763730224
0.31251904296875,0.26917041015625,0.0969331054687498,0.42369433422882,0.18359375,7.36962890625,-3.91259765625,42.60058823529412,200.73645949623776
0.31496044921875,0.26135791015625,0.2448823242187499,0.4769438064259731,-0.12451171875,5.29296875,-3.84228515625,43.118235294117646,200.73645949623776
0.15919873046875,0.21887744140625,0.4538666992187499,0.5284378400522916,0.20556640625,3.8310546875,-3.55859375,42.60058823529412,200.73645949623776
0.01173779296875,0.18274462890625,0.6101166992187499,0.6370053075473098,0.19091796875,3.27685546875,-3.09130859375,44.01235294117648,200.73645949623776
0.18849560546875,0.08411181640625,0.7180268554687499,0.7471063887523185,-0.05078125,3.162109375,-3.2158203125,43.25941176470588,200.73645949623776
0.40089794921875,0.0015922851562499,0.7258393554687499,0.8291950741575281,-0.3623046875,2.5556640625,-2.833984375,43.118235294117646,200.51716800298345
0.43312451171875,-0.03893505859375,0.8044526367187499,0.9144707902186124,-0.6728515625,1.3828125,-2.44091796875,43.16529411764706,200.51716800298345
0.30372998046875,-0.07164990234375,0.8874604492187499,0.940729322636943,-0.5947265625,0.42431640625,-1.43994140625,43.25941176470588,200.51716800298345
0.20949169921875,0.03577197265625,1.01197216796875,1.034047423870226,-0.33837890625,0.04638671875,-0.5185546875,43.30647058823529,200.51716800298345
0.09865185546875,0.31311572265625,1.15601513671875,1.201725692778865,-0.24755859375,0.546875,-0.18212890625,43.25941176470588,200.4850471169185
0.07423779296875,0.56751025390625,1.20191357421875,1.331230775667727,0.0244140625,1.02490234375,-0.81884765625,43.118235294117646,200.4850471169185
0.03664013671875,0.65100634765625,1.20484326171875,1.3699631562989478,-0.1962890625,0.87353515625,-1.71728515625,43.353529411764704,200.4850471169185
0.01076123046875,0.61829150390625,1.23365185546875,1.3799627126793477,-0.1826171875,0.64794921875,-1.69140625,43.25941176470588,200.4850471169185
-0.02048876953125,0.51965869140625,1.22290966796875,1.3288991689524077,0.00830078125,0.9609375,-1.302734375,44.01235294117648,200.4850471169185
-0.07712939453125,0.41760791015625,1.15943310546875,1.2347592624405528,0.1103515625,1.310546875,-0.935546875,42.55352941176471,200.8246201891054
-0.08445361328125,0.33118212890625,1.05689404296875,1.1107830721459366,0.185546875,1.5205078125,-0.64794921875,43.30647058823529,200.8246201891054
-0.05710986328125,0.27014697265625,0.93677685546875,0.9766226498813444,0.154296875,1.4375,-0.33837890625,43.118235294117646,200.8246201891054
0.00392529296875,0.24915087890625,0.8274018554687499,0.8641095988459898,0.04248046875,1.111328125,-0.11962890625,44.01235294117648,200.8246201891054
0.03810498046875,0.24475634765625,0.7634370117187499,0.8026168015414364,-0.0927734375,0.6328125,-0.0859375,43.30647058823529,200.5506134316396
0.06544873046875,0.25012744140625,0.7273041992187499,0.7718929145066918,-0.13720703125,0.31689453125,-0.25830078125,43.02411764705882,200.5506134316396
0.07960888671875,0.26672900390625,0.7160737304687499,0.7682730789483977,-0.1083984375,0.26220703125,-0.35498046875,43.118235294117646,200.5506134316396
0.09035107421875,0.29700244140625,0.6872651367187499,0.7541267366714941,-0.0595703125,0.294921875,-0.39208984375,44.01235294117648,200.5506134316396
0.07570263671875,0.31213916015625,0.6569916992187499,0.7313001007463081,0.005859375,-0.0361328125,-0.279296875,42.55352941176471,200.5506134316396
0.06886669921875,0.33362353515625,0.6535737304687499,0.7370250379941494,0.0947265625,-0.52392578125,-0.18603515625,43.16529411764706,200.73690191044943
0.07716748046875,0.35315478515625,0.6540620117187499,0.7473086627988665,0.1337890625,-0.82177734375,-0.34423828125,43.02411764705882,200.73690191044943
0.09669873046875,0.35022509765625,0.6540620117187499,0.7482014292128664,0.1962890625,-0.888671875,-0.48828125,42.69470588235294,200.73690191044943
0.10109326171875,0.31946337890625,0.6843354492187499,0.7619656849783737,0.328125,-1.11962890625,-0.15576171875,42.55352941176471,200.73690191044943
0.15431591796875,0.27161181640625,0.7150971679687499,0.7803527029407707,0.3525390625,-1.443359375,0.0205078125,42.55352941176471,200.8788906972242
0.13673779296875,0.21643603515625,0.7707612304687499,0.8121666428349686,0.369140625,-1.25439453125,0.3525390625,44.01235294117648,200.8788906972242
-0.07566455078125,0.17493212890625,0.7951752929687499,0.8176980619498486,0.35205078125,-0.93798828125,0.453125,43.353529411764704,200.8788906972242
0.00929638671875,0.16174853515625,0.7873627929687499,0.8038589299017382,0.3701171875,-0.8095703125,0.38623046875,42.60058823529412,200.8788906972242
-0.04050830078125,0.15393603515625,0.7673432617187499,0.7836790839731403,0.06494140625,-1.03466796875,0.99560546875,42.55352941176471,200.8788906972242
0.02003857421875,0.14368212890625,0.7517182617187499,0.7655889521311103,-0.1328125,-1.216796875,1.61328125,42.60058823529412,200.73645949623776
0.03126904296875,0.10999072265625,0.6975190429687499,0.7068299140689126,-0.26806640625,-1.4072265625,2.54150390625,43.87117647058824,200.73645949623776
0.09230419921875,0.10803759765625,0.6413666992187499,0.6569196530531742,-0.43701171875,-1.81884765625,3.162109375,43.73,200.73645949623776
0.15187451171875,0.12756884765625,0.5808198242187499,0.6137518606144113,-0.55615234375,-2.57958984375,3.25390625,43.02411764705882,200.73645949623776
0.24513623046875,0.11536181640625,0.5227143554687499,0.5887532739493582,-0.6357421875,-3.81640625,3.32958984375,43.02411764705882,200.988317913844
0.31203076171875,0.09778369140625,0.4924409179687499,0.5911200421688654,-0.69775390625,-5.28515625,3.63232421875,43.25941176470588,200.988317913844
0.28371044921875,0.06751025390625,0.4646088867187499,0.54855325265322,-0.685546875,-6.66357421875,4.30712890625,43.30647058823529,200.988317913844
0.26271435546875,0.03381884765625,0.4445893554687499,0.5175154509985918,-0.69970703125,-8.15966796875,5.0283203125,43.16529411764706,200.988317913844
0.24367138671875,-0.00231396484375,0.4343354492187499,0.498024478903186,-0.74462890625,-9.6318359375,5.8203125,43.118235294117646,200.988317913844
0.22560498046875,-0.05748974609375,0.4206635742187499,0.4807915564906715,-0.845703125,-11.0390625,6.97607421875,43.16529411764706,200.7038971359405
0.25783154296875,-0.12145458984375,0.3689057617187499,0.4661756996809797,-1.03173828125,-12.2724609375,8.20458984375,43.118235294117646,200.7038971359405
0.26662060546875,-0.13317333984375,0.2976166992187499,0.421185689879803,-1.18115234375,-13.38623046875,9.310546875,43.91823529411765,200.7038971359405
0.32863232421875,-0.11706005859375,0.2424409179687499,0.4248292133845316,-1.22216796875,-14.728515625,10.0673828125,43.777058823529416,200.7038971359405
0.36964794921875,-0.09118115234375,0.1687104492187499,0.4164334575654964,-0.9619140625,-15.521484375,10.619140625,44.01235294117648,200.66003845613184
0.38331982421875,-0.06627880859375,0.1159760742187498,0.4059278481440924,-1.017578125,16.0,11.3564453125,44.01235294117648,200.66003845613184
0.42531201171875,0.03870166015625,0.1018159179687498,0.4390382750546007,-1.19873046875,16.0,11.958984375,43.16529411764706,200.66003845613184
0.49757763671875,0.11926806640625,0.1159760742187498,0.524651146971104,-1.140625,16.0,11.701171875,43.16529411764706,200.66003845613184
0.57765576171875,0.08020556640625,0.1472260742187499,0.6014936648538216,-1.185546875,16.0,10.9658203125,42.69470588235294,200.66003845613184
0.66261669921875,0.04553759765625,0.1765229492187499,0.6872371602909285,-0.94189453125,16.0,10.0546875,44.01235294117648,200.62703407643824
0.67726513671875,0.08655322265625,0.1975190429687499,0.7107695112356328,-0.865234375,16.0,9.30517578125,43.25941176470588,200.62703407643824
0.77833935546875,0.15051806640625,0.1784760742187499,0.8126017164975239,-1.05859375,-15.06689453125,8.69482421875,43.30647058823529,200.62703407643824
1.22462841796875,0.23499072265625,0.2092377929687499,1.2644033596276083,-1.234375,-13.81103515625,7.1806640625,42.60058823529412,200.62703407643824
1.42335888671875,0.26575244140625,0.2448823242187499,1.4685170183656024,-1.18603515625,-13.140625,5.6787109375,42.97705882352941,200.58317576547185
1.42824169921875,0.26672900390625,0.2902924804687499,1.4816505786212828,-1.34765625,-14.40576171875,5.466796875,44.01235294117648,200.58317576547185
1.39845654296875,0.32874072265625,0.4450776367187499,1.5039432396243575,-2.06640625,16.0,4.5810546875,42.60058823529412,200.58317576547185
1.22121044921875,0.30432666015625,0.6120698242187499,1.3994996059599627,-2.7080078125,16.0,1.81884765625,43.777058823529416,200.58317576547185
0.95460888671875,0.17883837890625,0.92994091796875,1.3446380194255954,-2.9853515625,-15.66552734375,-0.04736328125,43.25941176470588,200.58317576547185
0.90919873046875,0.0011040039062499,1.00025341796875,1.3517212917124517,-3.4814453125,-12.7939453125,-1.17919921875,43.02411764705882,200.64918435718016
1.00490185546875,-0.14879833984375,1.04712841796875,1.4589196718060014,-3.39453125,-10.009765625,-2.15869140625,42.55352941176471,200.64918435718016
1.01124951171875,-0.27916943359375,1.03394482421875,1.4729572455211346,-3.091796875,-8.60302734375,-1.6826171875,43.87117647058824,200.64918435718016
1.09962841796875,-0.35045849609375,1.06275341796875,1.568900456527759,-2.59228515625,-9.03125,-0.45361328125,44.01235294117648,200.64918435718016
1.03615185546875,-0.48229443359375,1.05835888671875,1.5576720198306837,-2.24853515625,-10.1962890625,0.44189453125,43.25941176470588,200.33044371100888
0.87892529296875,-0.41881787109375,1.09107373046875,1.4623132240004872,-1.7919921875,-10.21728515625,1.08251953125,43.30647058823529,200.33044371100888
0.82423779296875,-0.26549755859375,1.05542919921875,1.365206097093318,-1.47900390625,-9.1767578125,1.10205078125,43.02411764705882,200.33044371100888
0.87550732421875,-0.11803662109375,0.96509716796875,1.3083800144840207,-1.4296875,-7.19091796875,1.21484375,43.25941176470588,200.33044371100888
1.08644482421875,-0.06237255859375,0.6301362304687499,1.25750720120666,-1.689453125,-6.634765625,1.02880859375,43.16529411764706,200.33044371100888
1.12990185546875,-0.11071240234375,0.3840424804687499,1.1985091012708409,-2.02734375,-7.08349609375,0.63671875,43.87117647058824,200.18845912677105
1.21681591796875,-0.11315380859375,0.2312104492187499,1.2437455666048982,-2.3837890625,-7.90234375,0.22802734375,43.25941176470588,200.18845912677105
1.38869091796875,-0.19420849609375,0.1652924804687499,1.4119139526555426,-3.02685546875,-8.90673828125,-0.71337890625,42.60058823529412,200.18845912677105
1.45167919921875,-0.28063427734375,0.1970307617187499,1.491626366127963,-3.12548828125,-9.984375,-1.60009765625,43.02411764705882,200.18845912677105
1.32277294921875,-0.43444287109375,0.2536713867187499,1.4152095448621254,-3.40625,-10.9189453125,-1.78173828125,42.97705882352941,200.44074777718748
1.28859326171875,-0.42321240234375,0.4231049804687499,1.420774139735798,-3.1513671875,-11.39990234375,-1.8330078125,43.353529411764704,200.44074777718748
1.12746044921875,-0.38659130859375,0.5564057617187499,1.3153734359894136,-2.63134765625,-11.09814453125,-1.44775390625,43.30647058823529,200.44074777718748
0.95509716796875,-0.28844677734375,0.6364838867187499,1.1834373163266942,-2.0751953125,-9.82958984375,-0.6884765625,42.97705882352941,200.44074777718748
0.84474560546875,-0.18883740234375,0.5774018554687499,1.0405035344396747,-1.61669921875,-7.64013671875,-0.1826171875,43.16529411764706,200.44074777718748
0.81349560546875,-0.15709912109375,0.4113862304687499,0.9250372233508684,-1.5615234375,-5.9736328125,-0.21826171875,43.353529411764704,200.6048840562683
0.84474560546875,-0.11754833984375,0.2619721679687499,0.892211951807996,-1.736328125,-6.357421875,-0.6025390625,43.118235294117646,200.6048840562683
0.74855419921875,-0.14733349609375,0.1569916992187499,0.7789011117355151,-1.9765625,-6.9814453125,-0.60888671875,43.353529411764704,200.6048840562683
0.81300732421875,-0.21032177734375,0.0764252929687498,0.8432419490654653,-1.93994140625,-5.9365234375,-0.833984375,42.60058823529412,200.6048840562683
1.06203076171875,-0.30651318359375,-0.0070708007812501,1.105400229228026,-2.08203125,-5.02294921875,-1.7841796875,44.01235294117648,200.55017178057392
1.09669873046875,-0.33532177734375,-0.0598051757812501,1.1483751385427,-2.30029296875,-5.2578125,-1.998046875,43.118235294117646,200.55017178057392
1.13185498046875,-0.31823193359375,-0.0754301757812501,1.1781582965752615,-2.20068359375,-6.34033203125,-1.4853515625,42.55352941176471,200.55017178057392
1.01955029296875,-0.29772412109375,-0.0475981445312501,1.063197082170812,-2.10546875,-7.86767578125,-1.04296875,43.16529411764706,200.55017178057392
0.87501904296875,-0.35924755859375,0.0627534179687498,0.9479742218965016,-2.00390625,-8.96044921875,-1.0615234375,42.60058823529412,200.55017178057392
0.70314404296875,-0.13756787109375,0.1755463867187499,0.7376672679533197,-1.8486328125,-8.58056640625,-1.11181640625,42.60058823529412,200.47331024834253
0.59914013671875,-0.09801708984375,0.2121674804687499,0.6431106383020402,-1.59912109375,-7.033203125,-0.97412109375,43.25941176470588,200.47331024834253
0.67726513671875,-0.07018505859375,0.2321870117187499,0.7193919767938464,-1.232421875,-5.37744140625,-1.11767578125,44.01235294117648,200.47331024834253
0.67433544921875,-0.15856396484375,0.1770112304687499,0.7149851779806937,-0.89990234375,-3.78759765625,-0.97265625,43.447647058823534,200.47331024834253
0.89552685546875,-0.16784130859375,0.1145112304687498,0.918287468954944,0.1279296875,-1.74755859375,-0.53759765625,43.777058823529416,200.22146163156285
0.91115185546875,-0.21081005859375,-0.0656645507812501,0.9375235558415316,0.87890625,-0.08056640625,-0.09619140625,43.02411764705882,200.22146163156285
0.92872998046875,-0.19664990234375,-0.2468168945312501,0.980881817620931,0.95849609375,0.3798828125,0.13525390625,43.118235294117646,200.22146163156285
0.92238232421875,-0.22985302734375,-0.3317778320312501,1.0068257525697415,0.474609375,0.095703125,-0.46923828125,43.30647058823529,200.22146163156285
1.03273388671875,-0.31041943359375,-0.3561918945312501,1.1356813687208407,0.1162109375,-1.58056640625,-1.037109375,43.16529411764706,200.22146163156285
1.02003857421875,-0.39391552734375,-0.4387114257812501,1.1781832839960609,-0.1357421875,-2.4306640625,-0.953125,43.25941176470588,200.16719096533788
1.00880810546875,-0.33288037109375,-0.4821684570312501,1.1666145704879818,-0.69775390625,-1.3330078125,0.31787109375,43.25941176470588,200.16719096533788
1.11671826171875,-0.25475537109375,-0.4553129882812501,1.2325866673199346,-0.64306640625,-1.4521484375,1.8251953125,44.01235294117648,200.16719096533788
1.18068310546875,-0.21569287109375,-0.2648833007812501,1.2291050293659882,0.021484375,-5.22509765625,2.15478515625,43.87117647058824,200.16719096533788
1.20265576171875,-0.22545849609375,-0.1174223632812501,1.2292275729313578,1.1015625,-9.48486328125,0.91552734375,43.25941176470588,200.1663110430807
1.12697216796875,-0.27477490234375,0.0744721679687498,1.1623741300184582,1.6826171875,-10.8349609375,0.01318359375,42.69470588235294,200.1663110430807
0.98097607421875,-0.27819287109375,0.2121674804687499,1.041499098168343,2.1455078125,-8.71142578125,0.39404296875,42.55352941176471,200.1663110430807
0.98488232421875,-0.34752880859375,0.1608979492187499,1.0567202162464375,2.126953125,-4.845703125,0.7646484375,43.30647058823529,200.1663110430807
1.05665966796875,-0.17760693359375,0.1145112304687498,1.077583731631037,1.537109375,-0.4521484375,1.21484375,44.01235294117648,200.1663110430807
1.12404248046875,-0.01305615234375,0.0935151367187498,1.1280013483182945,1.29052734375,3.578125,0.59716796875,43.02411764705882,199.85975901751908
1.21779248046875,0.15979541015625,-0.2477934570312501,1.2529783301959907,1.25927734375,5.8671875,-0.30615234375,42.97705882352941,199.85975901751908
1.52492138671875,0.21692431640625,-0.3503325195312501,1.5796120628058234,2.2724609375,5.767578125,-1.30859375,43.25941176470588,199.85975901751908
1.41798779296875,0.0264946289062499,-0.4504301757812501,1.4880452579218129,3.09375,4.14501953125,-1.23388671875,42.55352941176471,199.85975901751908
1.49220654296875,-0.25280224609375,-0.3713286132812501,1.558356275551316,3.6201171875,1.7275390625,0.31201171875,43.16529411764706,200.0568901777385
1.84865185546875,-0.60338818359375,-0.2170317382812501,1.956704821440883,4.673828125,0.87841796875,0.189453125,43.91823529411765,200.0568901777385
1.49660107421875,-0.88854443359375,-0.1896879882812501,1.7508019644498185,5.63916015625,2.6572265625,3.2109375,43.25941176470588,200.0568901777385
1.41896435546875,-1.19127880859375,-0.2209379882812501,1.8658560063845109,4.8466796875,4.70458984375,8.27880859375,43.73,200.0568901777385
2.62453076171875,-0.96520458984375,0.0398041992187498,2.796670519338824,4.43798828125,4.57421875,5.671875,42.60058823529412,200.0568901777385
2.81398388671875,-0.10534130859375,-0.1120512695312501,2.818183385270123,2.25927734375,2.6064453125,-0.31103515625,43.02411764705882,200.16719096533788
2.00929638671875,0.93274462890625,0.0319916992187498,2.2154701490323414,0.48681640625,1.99951171875,0.56494140625,43.02411764705882,200.16719096533788
1.43068310546875,1.07629931640625,0.2219331054687499,1.804031227577081,0.94921875,5.53271484375,1.2109375,43.353529411764704,200.16719096533788
0.95705029296875,0.50354541015625,0.0310151367187498,1.08188039175626,0.84765625,8.06884765625,-0.64306640625,43.16529411764706,200.16719096533788
0.87257763671875,0.21887744140625,-0.0192778320312501,0.899817037661574,1.33056640625,10.84130859375,-3.95556640625,43.30647058823529,200.16719096533788
1.01466748046875,0.14758837890625,-0.1022856445312501,1.030434266989481,2.5078125,11.080078125,-5.1796875,43.91823529411765,200.16719096533788
1.15382763671875,0.13001025390625,-0.2399809570312501,1.1856693219925942,3.3564453125,11.662109375,-4.29541015625,43.25941176470588,200.16719096533788
1.27687451171875,0.04749072265625,-0.3688872070312501,1.3299404719485477,3.4833984375,11.55029296875,-4.0048828125,42.97705882352941,200.16719096533788
1.31251904296875,-0.06090771484375,-0.4108793945312501,1.3766763834443656,3.76318359375,10.1357421875,-4.39013671875,43.25941176470588,200.16719096533788
1.18019482421875,-0.17174755859375,-0.4641020507812501,1.2797451935971482,3.8095703125,8.12060546875,-4.29248046875,43.02411764705882,199.9370550757624
1.12501904296875,-0.22741162109375,-0.4538481445312501,1.2342455309804723,3.587890625,6.142578125,-3.3193359375,43.49470588235295,199.9370550757624
1.09962841796875,-0.29088818359375,-0.4279692382812501,1.2153008935543332,3.021484375,5.484375,-2.7001953125,42.60058823529412,199.9370550757624
1.03859326171875,-0.36413037109375,-0.3449614257812501,1.1533712653423862,2.34912109375,6.0078125,-1.94384765625,43.25941176470588,199.9370550757624
0.82423779296875,-0.36998974609375,-0.2766020507812501,0.9448645649345238,1.89990234375,6.3779296875,-1.24658203125,44.01235294117648,199.9913258277034
0.89601513671875,-0.24938427734375,-0.0993559570312501,0.9353647679985496,1.841796875,5.8583984375,-0.8349609375,43.118235294117646,199.9913258277034
0.94679638671875,-0.04967724609375,0.0905854492187498,0.9524163744357308,2.17529296875,5.54638671875,-0.2216796875,43.16529411764706,199.9913258277034
0.95851513671875,0.05237353515625,0.1442963867187499,0.970729468865458,2.1220703125,5.8623046875,0.2705078125,43.25941176470588,199.9913258277034
0.93898388671875,0.06751025390625,0.1545502929687499,0.954009521418242,2.009765625,6.28662109375,-0.17919921875,43.87117647058824,199.9913258277034
0.98976513671875,-0.01696240234375,0.0666596679687498,0.9921523372400336,2.0224609375,7.07275390625,-1.0302734375,42.55352941176471,200.49545968754697
1.08009716796875,-0.11315380859375,-0.0295317382812501,1.0864095913693406,1.40673828125,7.0126953125,-1.3779296875,43.87117647058824,200.49545968754697
1.10988232421875,-0.20983349609375,-0.1135161132812501,1.1352333582442962,1.12451171875,6.61767578125,-0.8427734375,43.30647058823529,200.49545968754697
1.14064404296875,-0.26940380859375,-0.1262114257812501,1.1788030237671814,0.841796875,5.59521484375,-0.08447265625,43.118235294117646,200.49545968754697
1.16896435546875,-0.31237255859375,-0.1457426757812501,1.2187268796833663,0.61376953125,4.68994140625,0.677734375,43.25941176470588,199.87061322732856
1.17726513671875,-0.24254833984375,-0.0949614257812501,1.2057365266428584,0.5009765625,3.98388671875,1.3798828125,42.55352941176471,199.87061322732856
1.17140576171875,-0.12536083984375,-0.0226958007812501,1.178313157919964,0.5283203125,2.982421875,2.126953125,43.30647058823529,199.87061322732856
1.15724560546875,-0.03893505859375,0.0393159179687498,1.1585676810485257,0.49169921875,2.369140625,2.87060546875,42.60058823529412,199.87061322732856
1.16066357421875,0.0294243164062499,0.1369721679687499,1.1690881479650193,0.65625,2.10791015625,2.736328125,43.30647058823529,199.87061322732856
1.17384716796875,0.03967822265625,0.1599213867187499,1.1853549616176,0.7314453125,2.14599609375,2.05908203125,43.02411764705882,199.8489048213504
1.17628857421875,0.0269829101562499,0.1057221679687498,1.1813382513395954,0.8779296875,2.34326171875,1.59423828125,43.353529411764704,199.8489048213504
1.18214794921875,0.03284228515625,0.2639252929687499,1.2116967235265683,0.99072265625,2.2802734375,1.17822265625,43.25941176470588,199.8489048213504
1.17921826171875,0.01331103515625,0.2722260742187499,1.2103057167147786,0.89208984375,2.14111328125,0.5390625,43.02411764705882,199.8489048213504
1.16017529296875,-0.01354443359375,0.2883393554687499,1.1955457941913537,0.7109375,1.77783203125,0.23681640625,43.87117647058824,199.8923216879141
1.13673779296875,-0.07164990234375,0.3127534179687499,1.1811524960480206,0.6240234375,1.55029296875,-0.0166015625,43.73,199.8923216879141
1.12160107421875,-0.10289990234375,0.3288666992187499,1.1733416661169258,0.3447265625,1.203125,-0.09814453125,42.60058823529412,199.8923216879141
1.11085888671875,-0.11315380859375,0.3381440429687499,1.1666844665103515,0.19873046875,0.951171875,-0.25830078125,42.55352941176471,199.8923216879141
1.08644482421875,-0.13366162109375,0.3464448242187499,1.1481514713891543,0.041015625,0.888671875,-0.39501953125,42.55352941176471,199.8923216879141
1.05910107421875,-0.16735302734375,0.3317963867187499,1.1224040998731457,-0.1884765625,0.7333984375,-0.306640625,42.60058823529412,200.10162606613952
1.04884716796875,-0.17711865234375,0.3132416992187499,1.1088605687342226,-0.431640625,0.4697265625,-0.22412109375,43.87117647058824,200.10162606613952
1.08937451171875,-0.18493115234375,0.3005463867187499,1.1451045753377065,-0.64404296875,0.23193359375,-0.4384765625,43.16529411764706,200.10162606613952
1.06447216796875,-0.18346630859375,0.2922456054687499,1.119003296101001,-0.78515625,0.01123046875,-0.3896484375,43.353529411764704,200.10162606613952
1.03126904296875,-0.18590771484375,0.2775971679687499,1.084037686193786,-0.8994140625,-0.41845703125,-0.07958984375,44.01235294117648,199.7611945087987
1.01027294921875,-0.17418896484375,0.2873627929687499,1.0646927266490032,-0.986328125,-0.83837890625,-0.03857421875,43.30647058823529,199.7611945087987
0.99220654296875,-0.14049755859375,0.3098237304687499,1.048906159693218,-0.97119140625,-1.0498046875,-0.13720703125,42.55352941176471,199.7611945087987
0.98683544921875,-0.24108349609375,0.3396088867187499,1.071120745696724,-0.8671875,-1.0703125,-0.20068359375,43.73,199.7611945087987
0.98195263671875,-0.08434521484375,0.3640229492187499,1.0506463741829886,-0.6923828125,-1.15380859375,-0.14404296875,42.55352941176471,199.7611945087987
0.97414013671875,-0.07262646484375,0.3620698242187499,1.0417860466390985,-0.52734375,-1.17431640625,-0.140625,43.87117647058824,199.91446864325644
0.95265576171875,-0.06725537109375,0.3508393554687499,1.0174303605763972,-0.44921875,-1.029296875,-0.162109375,43.16529411764706,199.91446864325644
0.95216748046875,-0.05504833984375,0.3376557617187499,1.0117631363138455,-0.3134765625,-0.83740234375,-0.0703125,43.68294117647059,199.91446864325644
0.98781201171875,-0.07067333984375,0.3186127929687499,1.0403275461621986,-0.18603515625,-0.8291015625,-0.09423828125,42.55352941176471,199.91446864325644
0.99122998046875,-0.08043896484375,0.2844331054687499,1.0343642940143525,-0.08642578125,-0.93408203125,-0.00927734375,43.16529411764706,199.9913258277034
0.99953076171875,-0.07213818359375,0.2639252929687499,1.0363021863447508,0.0029296875,-0.984375,0.0361328125,43.02411764705882,199.9913258277034
0.99660107421875,-0.05163037109375,0.2732026367187499,1.034658918225384,0.1240234375,-0.9560546875,0.072265625,42.55352941176471,199.9913258277034
1.00099560546875,-0.06383740234375,0.2702729492187499,1.0388045452274208,0.13818359375,-0.90576171875,0.12451171875,43.16529411764706,199.9913258277034
0.99660107421875,-0.04674755859375,0.2824799804687499,1.0369156063701943,0.15966796875,-0.82177734375,0.07177734375,43.25941176470588,199.9913258277034
0.99855419921875,-0.05895458984375,0.2829682617187499,1.0395466173198655,0.1884765625,-0.748046875,-0.0107421875,43.777058823529416,199.7724870493508
0.97999951171875,-0.07213818359375,0.2863862304687499,1.02353311304681,0.18212890625,-0.666015625,0.02490234375,42.69470588235294,199.7724870493508
0.95949169921875,-0.08190380859375,0.2888276367187499,1.0053626004901834,0.19970703125,-0.662109375,0.05517578125,43.16529411764706,199.7724870493508
0.97121044921875,-0.08678662109375,0.3103120117187499,1.0232669245556087,0.22705078125,-0.701171875,-0.0478515625,42.55352941176471,199.7724870493508
0.99367138671875,-0.09850537109375,0.3420502929687499,1.055502030238639,0.25390625,-0.56591796875,0.07177734375,42.69470588235294,200.1667507797144
0.98781201171875,-0.08825146484375,0.3479096679687499,1.051000489347668,0.27734375,-0.28466796875,0.41064453125,43.87117647058824,200.1667507797144
1.00539013671875,-0.08434521484375,0.3249604492187499,1.0599635540125127,0.23583984375,-0.32421875,0.41552734375,42.69470588235294,200.1667507797144
0.98146435546875,-0.08483349609375,0.3195893554687499,1.035667108314302,0.2060546875,-0.3935546875,0.123046875,42.97705882352941,200.1667507797144
0.98878857421875,-0.09948193359375,0.3151948242187499,1.0425676365739482,0.22705078125,-0.25390625,-0.07666015625,43.25941176470588,200.1667507797144
1.00734326171875,-0.11217724609375,0.3049409179687499,1.0584484611557483,0.27734375,-0.21630859375,0.33984375,43.353529411764704,200.1446026291089
1.01906201171875,-0.11901318359375,0.2780854492187499,1.0630066033024346,0.220703125,-0.408203125,0.5791015625,43.25941176470588,200.1446026291089
0.98878857421875,-0.11266552734375,0.2683198242187499,1.0307239657764704,0.1455078125,-0.49951171875,0.53076171875,43.118235294117646,200.1446026291089
0.97706982421875,-0.10729443359375,0.2815034179687499,1.0224586599012946,0.07763671875,-0.5888671875,0.43017578125,43.777058823529416,200.1446026291089
0.97804638671875,-0.08922802734375,0.3015229492187499,1.0273521617940131,-0.0107421875,-0.5322265625,0.25732421875,43.353529411764704,199.8819060732414
0.99660107421875,-0.07750927734375,0.3176362304687499,1.0488632723642837,-0.05224609375,-0.38330078125,0.0869140625,43.777058823529416,199.8819060732414
1.00685498046875,-0.08434521484375,0.3054291992187499,1.0555368599424524,-0.123046875,-0.22607421875,-0.03515625,43.353529411764704,199.8819060732414
1.00978466796875,-0.08727490234375,0.2766206054687499,1.0506193143159743,-0.1767578125,-0.22265625,-0.1435546875,43.25941176470588,199.8819060732414
1.00880810546875,-0.10094677734375,0.2492768554687499,1.0440416640095955,-0.20556640625,-0.2880859375,-0.1884765625,43.02411764705882,199.8819060732414
1.01027294921875,-0.10924755859375,0.2399995117187499,1.044119833451642,-0.220703125,-0.26904296875,-0.14599609375,43.16529411764706,200.11204011051856
1.01222607421875,-0.10534130859375,0.2321870117187499,1.0438434868482098,-0.22705078125,-0.23095703125,-0.0478515625,43.25941176470588,200.11204011051856
1.00783154296875,-0.10436474609375,0.2399995117187499,1.0412570215154482,-0.18994140625,-0.19970703125,-0.03173828125,43.25941176470588,200.11204011051856
1.00197216796875,-0.10485302734375,0.2409760742187499,1.035862853409189,-0.18115234375,-0.15380859375,-0.07666015625,43.118235294117646,200.11204011051856
1.00734326171875,-0.10045849609375,0.2502534179687499,1.042813084676554,-0.138671875,-0.05029296875,-0.00341796875,42.97705882352941,200.0351817937292
1.00539013671875,-0.08532177734375,0.2561127929687499,1.0410009103851432,-0.12451171875,-0.0087890625,0.1337890625,42.69470588235294,200.0351817937292
0.99367138671875,-0.07848583984375,0.2595307617187499,1.0299995476299284,-0.1123046875,0.037109375,0.203125,43.25941176470588,200.0351817937292
0.98927685546875,-0.08825146484375,0.2697846679687499,1.0291942406000016,-0.09033203125,-0.0107421875,0.22265625,44.01235294117648,200.0351817937292
1.00050732421875,-0.09704052734375,0.2722260742187499,1.04141192870404,-0.1005859375,-0.041015625,0.20458984375,43.16529411764706,200.0351817937292
1.01271435546875,-0.10875927734375,0.2863862304687499,1.0580340349832422,-0.10302734375,-0.060546875,0.173828125,42.60058823529412,199.8484664656185
1.00636669921875,-0.10729443359375,0.2951752929687499,1.054236445184776,-0.11474609375,-0.06005859375,0.2080078125,44.01235294117648,199.8484664656185
1.02003857421875,-0.10241162109375,0.3122651367187499,1.0716698879035698,-0.12158203125,0.04833984375,0.07275390625,43.91823529411765,199.8484664656185
0.99269482421875,-0.09215771484375,0.3122651367187499,1.044722725916258,-0.14892578125,0.12890625,0.14208984375,42.60058823529412,199.8484664656185
1.02247998046875,-0.11315380859375,0.3200776367187499,1.0773665988817858,-0.18798828125,0.21630859375,0.17919921875,42.55352941176471,199.9587633355879
1.03761669921875,-0.13805615234375,0.3269135742187499,1.09662226892675,-0.14111328125,0.40576171875,0.232421875,43.87117647058824,199.9587633355879
1.02638623046875,-0.16442333984375,0.2990815429687499,1.08164388692665,-0.1171875,0.4189453125,0.40966796875,43.02411764705882,199.9587633355879
1.01124951171875,-0.16979443359375,0.2883393554687499,1.0651738395881525,-0.09765625,0.24462890625,0.52197265625,42.55352941176471,199.9587633355879
0.99513623046875,-0.15319287109375,0.2893159179687499,1.047601008655299,-0.1435546875,0.2265625,0.525390625,43.447647058823534,199.9587633355879
0.95802685546875,-0.12194287109375,0.2976166992187499,1.0105746975180965,-0.1015625,0.27978515625,0.6357421875,43.02411764705882,200.06774439021908
0.96632763671875,-0.10582958984375,0.2956635742187499,1.0160737929366876,-0.0673828125,0.23681640625,0.58251953125,42.55352941176471,200.06774439021908
0.96583935546875,-0.08239208984375,0.2941987304687499,1.0130088894232545,-0.04736328125,0.18310546875,0.40185546875,42.60058823529412,200.06774439021908
0.95558544921875,-0.07116162109375,0.3054291992187499,1.005730840140988,-0.0185546875,0.220703125,0.451171875,42.55352941176471,200.06774439021908
0.95656201171875,-0.07116162109375,0.2805268554687499,0.9993848984346808,0.0048828125,0.2705078125,0.64697265625,42.55352941176471,200.10074631276635
0.97414013671875,-0.06286083984375,0.2580659179687499,1.0097021883552295,0.001953125,0.283203125,0.68994140625,43.447647058823534,200.10074631276635
0.96779248046875,-0.04967724609375,0.2312104492187499,0.9962672261292403,-0.02294921875,0.2373046875,0.658203125,42.97705882352941,200.10074631276635
0.97902294921875,-0.04528271484375,0.2209565429687499,1.0046682304329626,-0.05810546875,0.1591796875,0.53662109375,43.02411764705882,200.10074631276635
1.00001904296875,-0.06090771484375,0.2111909179687499,1.0238893689555066,-0.10595703125,0.10791015625,0.341796875,42.97705882352941,200.10074631276635
1.02345654296875,-0.07164990234375,0.2072846679687499,1.0466919018633558,-0.14306640625,0.134765625,-0.03173828125,43.91823529411765,200.0573296239804
1.00978466796875,-0.07116162109375,0.2024018554687499,1.0323253184334102,-0.19580078125,0.1962890625,-0.21728515625,43.16529411764706,200.0573296239804
1.01222607421875,-0.06823193359375,0.1989838867187499,1.0338528953695223,-0.26025390625,0.17431640625,-0.2255859375,43.16529411764706,200.0573296239804
1.01759716796875,-0.06383740234375,0.1984956054687499,1.038739483983556,-0.2646484375,0.068359375,-0.3173828125,43.118235294117646,200.0573296239804
1.00490185546875,-0.07116162109375,0.2107026367187499,1.0292168462289473,-0.2099609375,0.06787109375,-0.3525390625,42.60058823529412,200.19931332077533
0.98634716796875,0.00793994140625,0.2009370117187499,1.0066377010165917,-0.2861328125,0.15966796875,-0.36474609375,43.91823529411765,200.19931332077533
0.99171826171875,-0.15612255859375,0.2058198242187499,1.0248127458076208,-0.34765625,0.244140625,-0.23095703125,43.91823529411765,200.19931332077533
0.99855419921875,-0.20104443359375,0.2111909179687499,1.0402552364150417,-0.341796875,0.380859375,0.03076171875,43.447647058823534,200.19931332077533
0.98341748046875,-0.21618115234375,0.2063081054687499,1.0278167472376971,-0.392578125,0.64404296875,0.54150390625,43.25941176470588,200.19931332077533
1.00831982421875,-0.22936474609375,0.1965424804687499,1.0525901392716877,-0.32275390625,0.67333984375,0.74755859375,42.60058823529412,200.2219019623896
0.98634716796875,-0.22204052734375,0.1882416992187499,1.0284054010300734,-0.27587890625,0.599609375,0.55859375,43.25941176470588,200.2219019623896
0.96437451171875,-0.19713818359375,0.2048432617187499,1.005406596434993,-0.35302734375,0.658203125,0.59619140625,43.353529411764704,200.2219019623896
1.01564404296875,-0.17223583984375,0.2321870117187499,1.0559871282148627,-0.4345703125,0.63623046875,0.7158203125,43.118235294117646,200.2219019623896
1.05568310546875,-0.16832958984375,0.2419526367187499,1.09605782165188,-0.4599609375,0.47607421875,0.58837890625,42.55352941176471,199.83848950431528
1.03956982421875,-0.18395458984375,0.2424409179687499,1.0832000319683874,-0.45849609375,0.2412109375,0.556640625,43.16529411764706,199.83848950431528
0.95900341796875,-0.22252880859375,0.2810151367187499,1.023804734016676,-0.87451171875,0.34521484375,0.92919921875,43.02411764705882,199.83848950431528
0.99367138671875,-0.21373974609375,0.3186127929687499,1.0651674120471073,-0.916015625,0.42626953125,1.00732421875,42.55352941176471,199.83848950431528
0.94435498046875,-0.19909130859375,0.3244721679687499,1.018197361065155,-0.98046875,0.4765625,1.19482421875,43.447647058823534,199.83848950431528
0.93019482421875,-0.17809521484375,0.3454682617187499,1.0081312595136445,-1.02783203125,0.47900390625,1.359375,43.30647058823529,200.110722683192
0.93361279296875,-0.15514599609375,0.3542573242187499,1.0105450900684545,-1.091796875,0.423828125,1.20556640625,43.25941176470588,200.110722683192
0.93800732421875,-0.13366162109375,0.3503510742187499,1.0101826787505617,-1.025390625,0.29443359375,0.9599609375,43.16529411764706,200.110722683192
0.96974560546875,-0.11315380859375,0.3361909179687499,1.0325863920514806,-0.96533203125,0.23486328125,0.6923828125,43.16529411764706,200.110722683192
0.98683544921875,-0.10241162109375,0.3357026367187499,1.0473913329170443,-0.845703125,0.17333984375,0.515625,43.25941176470588,200.2431699936033
0.99464794921875,-0.12340771484375,0.3034760742187499,1.0472114087381046,-0.7314453125,0.0283203125,0.25146484375,43.118235294117646,200.2431699936033
1.00246044921875,-0.12829052734375,0.2902924804687499,1.0515013722628683,-0.66357421875,0.0068359375,-0.09375,42.74176470588235,200.2431699936033
1.02003857421875,-0.15612255859375,0.2834565429687499,1.0701404384228614,-0.662109375,0.08447265625,-0.45654296875,42.55352941176471,200.2431699936033
1.00636669921875,-0.17760693359375,0.2819916992187499,1.0601120103957389,-0.78173828125,0.1279296875,-0.36376953125,43.68294117647059,200.2431699936033
1.04591748046875,-0.17614208984375,0.3054291992187499,1.1037465322708964,-0.80859375,0.14111328125,-0.1689453125,43.02411764705882,200.19887376642544
1.04982373046875,-0.17370068359375,0.3230073242187499,1.1120411521320672,-0.75048828125,0.12060546875,-0.0859375,43.30647058823529,200.19887376642544
1.03615185546875,-0.17321240234375,0.3254487304687499,1.0997863792940643,-0.65087890625,0.10205078125,0.0009765625,43.118235294117646,200.19887376642544
1.03956982421875,-0.17711865234375,0.3254487304687499,1.1036273431724994,-0.59033203125,0.0244140625,0.11669921875,43.25941176470588,200.19887376642544
1.03322216796875,-0.18053662109375,0.3234956054687499,1.097629685593272,-0.53662109375,-0.046875,0.2392578125,42.60058823529412,200.07859861635023
1.01613232421875,-0.17370068359375,0.3122651367187499,1.0771287496920294,-0.48974609375,-0.09521484375,0.4248046875,42.60058823529412,200.07859861635023
0.99025341796875,-0.16491162109375,0.2912690429687499,1.0452919831140446,-0.43408203125,-0.29736328125,0.4921875,43.25941176470588,200.07859861635023
0.99513623046875,-0.18786083984375,0.2976166992187499,1.0555394412300356,-0.45654296875,-0.513671875,0.2744140625,43.25941176470588,200.07859861635023
0.94777294921875,-0.19079052734375,0.3244721679687499,1.0197827103757222,-0.4296875,-0.4384765625,0.2060546875,42.69470588235294,200.07859861635023
0.92140576171875,-0.18200146484375,0.3317963867187499,0.9960933456124476,-0.3798828125,-0.26806640625,0.271484375,42.69470588235294,200.24361020290752
0.92140576171875,-0.16344677734375,0.3405854492187499,0.9958422942274068,-0.294921875,-0.1640625,0.16845703125,43.30647058823529,200.24361020290752
0.93165966796875,-0.16295849609375,0.3435151367187499,1.0062543701886115,-0.19140625,0.0419921875,-0.03759765625,42.55352941176471,200.24361020290752
0.95265576171875,-0.18102490234375,0.3391206054687499,1.0272905142451123,-0.134765625,0.142578125,-0.12109375,43.25941176470588,200.24361020290752
0.95997998046875,-0.19030224609375,0.3347260742187499,1.0343200919111084,-0.15869140625,0.03173828125,-0.107421875,43.777058823529416,199.9036144396008
0.94386669921875,-0.19664990234375,0.3391206054687499,1.022036357004679,-0.109375,0.09814453125,-0.0068359375,42.69470588235294,199.9036144396008
0.96779248046875,-0.19274365234375,0.3425385742187499,1.0445597520479517,-0.02490234375,0.24658203125,0.0341796875,43.30647058823529,199.9036144396008
0.95705029296875,-0.19469677734375,0.3249604492187499,1.029296551988815,0.01806640625,0.2763671875,0.20947265625,42.60058823529412,199.9036144396008
0.95949169921875,-0.18786083984375,0.3073823242187499,1.0248901937566794,0.07666015625,0.1064453125,0.53173828125,43.30647058823529,199.9036144396008
0.96193310546875,-0.18053662109375,0.2956635742187499,1.0224117174957004,0.14306640625,-0.03759765625,0.5869140625,43.02411764705882,200.1233342493986
0.95167919921875,-0.16832958984375,0.2932221679687499,1.0099541518459638,0.22705078125,0.052734375,0.59033203125,42.69470588235294,200.1233342493986
0.95460888671875,-0.16539990234375,0.2819916992187499,1.0090364575802062,0.31298828125,0.13037109375,0.54638671875,43.25941176470588,200.1233342493986
0.96290966796875,-0.15368115234375,0.2736909179687499,1.01277818096164,0.3701171875,0.15673828125,0.47021484375,44.01235294117648,200.1233342493986
0.97658154296875,-0.16149365234375,0.2839448242187499,1.0297652028570228,0.42919921875,0.10888671875,0.40478515625,43.87117647058824,200.3204703896943
0.98488232421875,-0.15172802734375,0.2858979492187499,1.0367025726830428,0.46533203125,0.12060546875,0.46240234375,43.30647058823529,200.3204703896943
1.01369091796875,-0.13805615234375,0.2907807617187499,1.063570510007693,0.48193359375,0.09375,0.43408203125,43.777058823529416,200.3204703896943
1.01417919921875,-0.12780224609375,0.2868745117187499,1.0616919740246995,0.49267578125,0.0458984375,0.27197265625,43.118235294117646,200.3204703896943
0.99806591796875,-0.12926708984375,0.2873627929687499,1.046624541996927,0.4716796875,-0.0126953125,0.14794921875,43.16529411764706,200.3204703896943
0.98097607421875,-0.13659130859375,0.2858979492187499,1.030877723660993,0.45849609375,-0.03955078125,0.162109375,43.30647058823529,200.23319679488355
0.99660107421875,-0.16442333984375,0.2981049804687499,1.0531454387688406,0.4482421875,-0.05029296875,0.28857421875,43.16529411764706,200.23319679488355
0.98976513671875,-0.16832958984375,0.3044526367187499,1.0491240559084756,0.4755859375,0.103515625,0.53369140625,43.16529411764706,200.23319679488355
0.99318310546875,-0.18639599609375,0.2937104492187499,1.052341188174544,0.47021484375,0.04443359375,0.52587890625,43.25941176470588,200.23319679488355
0.95656201171875,-0.17321240234375,0.2995698242187499,1.0172293242782415,0.4990234375,-0.0947265625,0.216796875,43.25941176470588,199.9036144396008
0.97023388671875,-0.15514599609375,0.3244721679687499,1.0347493719870695,0.48095703125,-0.064453125,0.11865234375,42.97705882352941,199.9036144396008
0.98830029296875,-0.13952099609375,0.3425385742187499,1.0552422718318877,0.4345703125,-0.095703125,0.36669921875,43.91823529411765,199.9036144396008
0.99367138671875,-0.13610302734375,0.3508393554687499,1.0625418166742544,0.41357421875,-0.04931640625,0.5849609375,43.118235294117646,199.9036144396008
0.96046826171875,-0.14293896484375,0.3464448242187499,1.0309970153533912,0.43359375,0.00634765625,0.501953125,43.16529411764706,199.9036144396008
0.94386669921875,-0.16198193359375,0.3430268554687499,1.0172462417122252,0.43017578125,-0.01708984375,0.3154296875,43.87117647058824,200.25446434364733
0.93117138671875,-0.19274365234375,0.3469331054687499,1.0122217378779803,0.3896484375,-0.02880859375,0.20703125,43.91823529411765,200.25446434364733
0.93507763671875,-0.19811474609375,0.3640229492187499,1.0228061140163518,0.36669921875,0.01708984375,0.23291015625,43.25941176470588,200.25446434364733
0.94142529296875,-0.19664990234375,0.3654877929687499,1.028850860495471,0.30615234375,0.15185546875,0.333984375,44.01235294117648,200.25446434364733
0.93703076171875,-0.19616162109375,0.3586518554687499,1.0223195114192656,0.2158203125,0.19384765625,0.390625,43.87117647058824,200.2327560758233
0.92872998046875,-0.19909130859375,0.3542573242187499,1.0137430530177185,0.13232421875,0.13818359375,0.38037109375,43.118235294117646,200.2327560758233
0.91896435546875,-0.20202099609375,0.3640229492187499,1.008870991278232,0.03759765625,-0.01171875,0.3720703125,42.55352941176471,200.2327560758233
0.79982373046875,-0.19811474609375,0.3816010742187499,0.9080676364047132,-0.04931640625,-0.17333984375,0.3916015625,43.353529411764704,200.2327560758233
0.94386669921875,-0.18834912109375,0.3962495117187499,1.0408522531311706,-0.07470703125,-0.3466796875,0.28466796875,42.69470588235294,200.2327560758233
0.95460888671875,-0.14782177734375,0.3874604492187499,1.0407953709391062,-0.08837890625,-0.40966796875,-0.21630859375,42.55352941176471,199.86019776147955
0.96681591796875,-0.10143505859375,0.3767182617187499,1.0425635419781716,-0.0078125,-0.41796875,-0.76953125,43.91823529411765,199.86019776147955
1.00050732421875,-0.08776318359375,0.3640229492187499,1.0682836654034311,0.18603515625,-0.3125,-1.0517578125,43.02411764705882,199.86019776147955
1.05568310546875,-0.13414990234375,0.3801362304687499,1.1300294550081305,0.482421875,0.10791015625,-0.6044921875,43.25941176470588,199.86019776147955
1.08888623046875,-0.19127880859375,0.3479096679687499,1.1590090347307973,1.044921875,1.07470703125,0.5625,43.91823529411765,199.9587633355879
1.06007763671875,-0.23034130859375,0.2536713867187499,1.114078492187918,1.41650390625,1.2216796875,1.11865234375,42.69470588235294,199.9587633355879
1.03029248046875,-0.22545849609375,0.1970307617187499,1.072919032282854,1.24169921875,-0.091796875,0.99658203125,44.01235294117648,199.9587633355879
1.01369091796875,-0.22643505859375,0.2624604492187499,1.0713204937537557,0.92626953125,-1.20703125,0.4306640625,42.60058823529412,199.9587633355879
1.00685498046875,-0.24352490234375,0.3649995117187499,1.0983105086045504,0.75830078125,-1.2587890625,0.28662109375,44.01235294117648,199.9587633355879
0.97658154296875,-0.23229443359375,0.4011323242187499,1.081008490012452,0.5654296875,-1.0576171875,0.3994140625,42.69470588235294,199.80504957441968
0.94435498046875,-0.20397412109375,0.4250581054687499,1.0555028016243178,0.392578125,-1.14990234375,0.42578125,43.118235294117646,199.80504957441968
0.91261669921875,-0.17321240234375,0.4445893554687499,1.0298210868955529,0.3408203125,-1.16943359375,0.25,43.353529411764704,199.80504957441968
0.91554638671875,-0.16149365234375,0.4392182617187499,1.0282111006054755,0.4091796875,-0.79150390625,0.0732421875,43.25941176470588,199.80504957441968
0.92824169921875,-0.15026318359375,0.4060151367187499,1.0242362851202775,0.4580078125,-0.30029296875,-0.09228515625,43.02411764705882,200.22146163156285
0.95802685546875,-0.14782177734375,0.3874604492187499,1.0439311918729135,0.490234375,0.048828125,-0.20654296875,43.25941176470588,200.22146163156285
0.96046826171875,-0.14391552734375,0.3635346679687499,1.0369997182231132,0.54052734375,0.345703125,-0.17138671875,43.91823529411765,200.22146163156285
0.97169873046875,-0.14196240234375,0.3249604492187499,1.034384377313502,0.72412109375,0.53515625,-0.2158203125,43.02411764705882,200.22146163156285
0.99220654296875,-0.13512646484375,0.3029877929687499,1.0462000707796006,0.76611328125,0.43115234375,-0.361328125,43.353529411764704,200.22146163156285
0.99660107421875,-0.12047802734375,0.2858979492187499,1.0437750205739238,0.81640625,0.15966796875,-0.43701171875,43.25941176470588,199.9691784516416
0.98927685546875,-0.12536083984375,0.2941987304687499,1.0396811674460074,0.8056640625,-0.07958984375,-0.619140625,44.01235294117648,199.9691784516416
0.98537060546875,-0.14831005859375,0.3108002929687499,1.0438141241195165,0.79541015625,-0.01953125,-0.6533203125,42.69470588235294,199.9691784516416
0.98781201171875,-0.15905224609375,0.3049409179687499,1.0459728251417122,0.80419921875,0.18896484375,-0.63623046875,43.16529411764706,199.9691784516416
0.95656201171875,-0.16979443359375,0.2878510742187499,1.0132617000912116,0.865234375,0.32080078125,-0.65576171875,43.25941176470588,200.0681837756997
0.95216748046875,-0.16686474609375,0.2751557617187499,1.0050758416946275,0.82470703125,0.3505859375,-0.75830078125,42.60058823529412,200.0681837756997
0.93654248046875,-0.15563427734375,0.2893159179687499,0.9924905774852328,0.798828125,0.37744140625,-0.6474609375,42.60058823529412,200.0681837756997
0.94826123046875,-0.14635693359375,0.3078706054687499,1.0076725772455892,0.751953125,0.35009765625,-0.55615234375,43.25941176470588,200.0681837756997
0.96437451171875,-0.14733349609375,0.3234956054687499,1.0278009363109073,0.69970703125,0.326171875,-0.64111328125,43.118235294117646,200.0681837756997
0.94386669921875,-0.14391552734375,0.3430268554687499,1.014526218723551,0.64990234375,0.3095703125,-0.5615234375,42.60058823529412,200.17804507128457
0.93214794921875,-0.13756787109375,0.3518159179687499,1.0057828585366635,0.61865234375,0.11328125,-0.3876953125,43.73,200.17804507128457
0.92042919921875,-0.12633740234375,0.3640229492187499,0.9978295232971174,0.59326171875,-0.1484375,-0.36865234375,42.55352941176471,200.17804507128457
0.91408154296875,-0.12194287109375,0.3625581054687499,0.990890261758489,0.5947265625,-0.35595703125,-0.35498046875,43.25941176470588,200.17804507128457
0.88820263671875,-0.11754833984375,0.3606049804687499,0.9657937088286654,0.61083984375,-0.64013671875,-0.271484375,42.97705882352941,199.69563123615427
0.93214794921875,-0.15563427734375,0.3630463867187499,1.012385552260883,0.623046875,-0.7275390625,0.05810546875,43.73,199.69563123615427
0.92091748046875,-0.16198193359375,0.3635346679687499,1.0032370644363324,0.6767578125,-0.58642578125,0.482421875,44.01235294117648,199.69563123615427
0.91505810546875,-0.18297802734375,0.3361909179687499,0.991885390657277,0.634765625,-0.59521484375,0.33056640625,43.25941176470588,199.69563123615427
0.90871044921875,-0.20446240234375,0.2912690429687499,0.9759084024043708,0.53759765625,-0.63720703125,0.14990234375,43.25941176470588,199.69563123615427
0.92531201171875,-0.21959912109375,0.2771088867187499,0.9905631873407432,0.26611328125,-0.81103515625,0.22998046875,43.91823529411765,200.11160051908817
0.98097607421875,-0.21911083984375,0.2927338867187499,1.0469081844938122,-0.02392578125,-1.095703125,0.63720703125,43.353529411764704,200.11160051908817
1.02101513671875,-0.21325146484375,0.3210541992187499,1.0913404122925192,-0.14794921875,-1.25634765625,1.138671875,44.01235294117648,200.11160051908817
1.00246044921875,-0.19518505859375,0.3596284179687499,1.0827542465198694,-0.00244140625,-1.75927734375,1.29931640625,42.69470588235294,200.11160051908817
0.98341748046875,-0.18883740234375,0.4152924804687499,1.0840836451811855,-0.013671875,-1.95361328125,1.4638671875,44.01235294117648,200.06774439021908
0.97072216796875,-0.19323193359375,0.4294526367187499,1.0789206063149483,0.21630859375,-1.65625,1.62841796875,44.01235294117648,200.06774439021908
0.93898388671875,-0.21178662109375,0.4245698242187499,1.052047455217158,0.318359375,-1.224609375,2.08154296875,42.60058823529412,200.06774439021908
0.90675732421875,-0.23229443359375,0.4040620117187499,1.019527173849325,0.26025390625,-1.123046875,2.12841796875,43.16529411764706,200.06774439021908
0.89650341796875,-0.23668896484375,0.3845307617187499,1.0037947754478798,0.1162109375,-1.22998046875,1.96923828125,43.25941176470588,200.06774439021908
0.89992138671875,-0.21911083984375,0.3801362304687499,1.0011851058250028,0.10498046875,-1.34130859375,1.92626953125,42.69470588235294,200.0681837756997
0.91164013671875,-0.21471630859375,0.3640229492187499,1.0048400567307338,-0.015625,-1.47021484375,1.8681640625,44.01235294117648,200.0681837756997
0.80226513671875,-0.20641552734375,0.3405854492187499,0.8956758162094646,-0.2783203125,-1.3251953125,1.5830078125,43.87117647058824,200.0681837756997
0.94484326171875,-0.18444287109375,0.3479096679687499,1.0236156988727545,-0.56005859375,-1.36865234375,1.23583984375,44.01235294117648,200.0681837756997
0.95509716796875,-0.17760693359375,0.3586518554687499,1.0355607063584822,-0.49755859375,-1.2998046875,0.892578125,42.69470588235294,200.0460359789085
0.97951123046875,-0.16149365234375,0.3435151367187499,1.050488029211485,-0.46044921875,-0.89208984375,0.5244140625,43.02411764705882,200.0460359789085
1.03371044921875,-0.13659130859375,0.3239838867187499,1.091869972689409,-0.306640625,0.33984375,-0.0380859375,43.25941176470588,200.0460359789085
1.05861279296875,-0.14684521484375,0.2849213867187499,1.1060762899408614,0.0048828125,1.53173828125,-0.466796875,43.91823529411765,200.0460359789085
1.11232373046875,-0.15514599609375,0.2131440429687499,1.1431381126184634,0.14208984375,2.02099609375,-0.6552734375,43.91823529411765,200.0460359789085
1.13576123046875,-0.16588818359375,0.1643159179687499,1.1595137700734026,0.4150390625,1.8818359375,-0.69384765625,43.02411764705882,200.28746726302447
1.11867138671875,-0.19713818359375,0.1213471679687498,1.142372211701567,0.447265625,1.49853515625,-0.59521484375,42.60058823529412,200.28746726302447
1.14894482421875,-0.21911083984375,0.1120698242187498,1.17500783603196,0.4990234375,0.8544921875,-0.60400390625,42.69470588235294,200.28746726302447
1.08156201171875,-0.24352490234375,0.1193940429687498,1.115049640487394,0.47802734375,0.29833984375,-0.42578125,43.30647058823529,200.28746726302447
1.04396435546875,-0.25036083984375,0.1511323242187499,1.0841508682099148,0.4931640625,-0.26806640625,-0.17724609375,42.55352941176471,200.26531849803283
1.08790966796875,-0.23961865234375,0.2024018554687499,1.1322239422075933,0.59912109375,-0.49609375,-0.275390625,43.16529411764706,200.26531849803283
1.02833935546875,-0.24547802734375,0.2360932617187499,1.0832734281535117,0.66015625,-0.4560546875,-0.08056640625,43.118235294117646,200.26531849803283
1.01759716796875,-0.22545849609375,0.2663666992187499,1.0757726284729352,0.689453125,-0.4404296875,-0.00146484375,44.01235294117648,200.26531849803283
1.04249951171875,-0.19762646484375,0.2780854492187499,1.0969015309532868,0.67919921875,-0.37451171875,-0.1240234375,44.01235294117648,200.26531849803283
1.01515576171875,-0.18786083984375,0.2888276367187499,1.072032797739935,0.65869140625,-0.06591796875,-0.1748046875,44.01235294117648,200.0681837756997
1.01466748046875,-0.18737255859375,0.2912690429687499,1.0721456183871203,0.58740234375,0.05224609375,-0.28564453125,42.69470588235294,200.0681837756997
1.01076123046875,-0.17711865234375,0.2761323242187499,1.0626656776734706,0.52197265625,0.19140625,-0.3974609375,42.60058823529412,200.0681837756997
1.00294873046875,-0.18786083984375,0.2863862304687499,1.0598183448581064,0.50927734375,0.2294921875,-0.36962890625,43.16529411764706,200.0681837756997
1.01466748046875,-0.19420849609375,0.2761323242187499,1.069353120514569,0.51123046875,0.11962890625,-0.28515625,43.91823529411765,199.8054881731965
0.98488232421875,-0.19372021484375,0.2717377929687499,1.039885639060932,0.4755859375,0.0205078125,-0.17529296875,43.25941176470588,199.8054881731965
0.97951123046875,-0.20397412109375,0.2717377929687499,1.0367685955978314,0.46728515625,-0.08544921875,-0.15185546875,42.55352941176471,199.8054881731965
0.96339794921875,-0.19713818359375,0.2766206054687499,1.0215273032863263,0.5166015625,-0.11669921875,-0.173828125,43.25941176470588,199.8054881731965
0.95167919921875,-0.19176708984375,0.2727143554687499,1.008385360192976,0.55419921875,-0.08544921875,-0.1806640625,43.02411764705882,199.8054881731965
0.95509716796875,-0.18346630859375,0.2732026367187499,1.010203032741944,0.57373046875,0.0771484375,-0.25390625,43.777058823529416,200.24361020290752
0.95558544921875,-0.18053662109375,0.2649018554687499,1.0079236158287666,0.583984375,0.1806640625,-0.330078125,42.55352941176471,200.24361020290752
0.97316357421875,-0.17809521484375,0.2566010742187499,1.0220613284077773,0.58544921875,0.2255859375,-0.3427734375,43.777058823529416,200.24361020290752
0.98781201171875,-0.18639599609375,0.2600190429687499,1.0383284357861002,0.6044921875,0.19091796875,-0.21435546875,43.91823529411765,200.24361020290752
0.99269482421875,-0.18688427734375,0.2561127929687499,1.042095249903407,0.5869140625,0.140625,-0.08740234375,43.16529411764706,199.81590377674712
0.99904248046875,-0.18297802734375,0.2629487304687499,1.0491467347930366,0.57275390625,-0.01904296875,-0.13037109375,43.118235294117646,199.81590377674712
0.98390576171875,-0.18444287109375,0.2678315429687499,1.0362545324627923,0.525390625,-0.1796875,-0.33544921875,43.02411764705882,199.81590377674712
0.97121044921875,-0.17809521484375,0.2771088867187499,1.0255520354035834,0.478515625,-0.171875,-0.4599609375,43.91823529411765,199.81590377674712
1.00734326171875,-0.17614208984375,0.2854096679687499,1.0617086047097508,0.4423828125,-0.04052734375,-0.45947265625,43.118235294117646,199.81590377674712
1.05519482421875,-0.18834912109375,0.2883393554687499,1.1099779693250498,0.45068359375,0.29736328125,-0.26611328125,42.55352941176471,200.03562136148372
1.00001904296875,-0.20788037109375,0.2707612304687499,1.0566759100647471,0.3759765625,0.4912109375,-0.236328125,43.91823529411765,200.03562136148372
1.03419873046875,-0.19079052734375,0.2468354492187499,1.0802295026605702,0.2666015625,0.32470703125,-0.8115234375,43.91823529411765,200.03562136148372
1.01710888671875,-0.17077099609375,0.2605073242187499,1.0637374142713605,0.1572265625,0.0771484375,-1.03369140625,42.60058823529412,200.03562136148372
1.04201123046875,-0.17614208984375,0.2688081054687499,1.090445430914918,0.103515625,-0.0859375,-0.8525390625,42.97705882352941,199.9257616889504
1.03761669921875,-0.17370068359375,0.2785737304687499,1.0883123013573934,0.01513671875,-0.26171875,-0.7744140625,43.25941176470588,199.9257616889504
1.02687451171875,-0.18053662109375,0.2849213867187499,1.0808537972285173,-0.02001953125,-0.4677734375,-0.76416015625,44.01235294117648,199.9257616889504
1.04347607421875,-0.18737255859375,0.2893159179687499,1.0989333435523028,-0.0595703125,-0.47802734375,-1.00732421875,43.73,199.9257616889504
1.04445263671875,-0.18346630859375,0.3122651367187499,1.105464025804434,-0.09814453125,-0.38671875,-1.28076171875,43.49470588235295,199.9257616889504
1.03468701171875,-0.17516552734375,0.3200776367187499,1.097137123479354,-0.1435546875,-0.19287109375,-1.6015625,43.353529411764704,199.8710519105327
0.99074169921875,-0.17174755859375,0.3156831054687499,1.053908042256137,-0.19189453125,0.0751953125,-1.61865234375,43.16529411764706,199.8710519105327
0.95607373046875,-0.17516552734375,0.3054291992187499,1.0188458842226595,-0.28173828125,0.16552734375,-1.3984375,43.30647058823529,199.8710519105327
0.96730419921875,-0.17467724609375,0.2990815429687499,1.0274430998715656,-0.41943359375,0.08837890625,-1.33154296875,43.118235294117646,199.8710519105327
0.97462841796875,-0.16100537109375,0.3010346679687499,1.0326883140388294,-0.5068359375,0.0908203125,-1.24365234375,43.30647058823529,199.9795941518484
0.96486279296875,-0.14635693359375,0.2956635742187499,1.019704619184511,-0.56396484375,0.15625,-1.02001953125,43.118235294117646,199.9795941518484
0.96730419921875,-0.11852490234375,0.2800385742187499,1.0139759214854625,-0.583984375,0.1396484375,-0.86376953125,43.16529411764706,199.9795941518484
0.98927685546875,-0.10631787109375,0.2683198242187499,1.030518177689664,-0.560546875,0.0478515625,-0.74169921875,43.353529411764704,199.9795941518484
1.00490185546875,-0.10094677734375,0.2478120117187499,1.039917681421332,-0.57275390625,-0.0986328125,-0.69384765625,43.25941176470588,199.9795941518484
1.00197216796875,-0.10338818359375,0.2424409179687499,1.036057402172458,-0.49169921875,-0.14501953125,-0.56640625,43.87117647058824,200.3308838832376
1.00392529296875,-0.10827099609375,0.2468354492187499,1.039478879751073,-0.42578125,-0.16552734375,-0.41943359375,42.55352941176471,200.3308838832376
1.00734326171875,-0.10387646484375,0.2468354492187499,1.0423332029008896,-0.337890625,-0.2099609375,-0.22119140625,43.118235294117646,200.3308838832376
1.02638623046875,-0.11559521484375,0.2483002929687499,1.0623012676632697,-0.2802734375,-0.35009765625,-0.0205078125,43.25941176470588,200.3308838832376
0.99806591796875,-0.10534130859375,0.2649018554687499,1.037981387568117,-0.2119140625,-0.5,0.24267578125,43.02411764705882,200.1333089726837
0.98878857421875,-0.09362255859375,0.2810151367187499,1.0322003366828778,-0.107421875,-0.4921875,0.28515625,44.01235294117648,200.1333089726837
1.00148388671875,-0.10631787109375,0.2995698242187499,1.0507214400846945,-0.06884765625,-0.38916015625,0.09765625,43.16529411764706,200.1333089726837
0.94679638671875,-0.11364208984375,0.2956635742187499,0.9983761173062696,-0.00341796875,-0.22509765625,0.29541015625,44.01235294117648,200.1333089726837
0.95363232421875,-0.11071240234375,0.2966401367187499,1.0048219825123743,-0.01708984375,-0.185546875,0.54248046875,43.353529411764704,200.1333089726837
0.99074169921875,-0.11168896484375,0.3015229492187499,1.041613953604836,0.015625,-0.10546875,0.48583984375,43.16529411764706,200.29788104309307
0.99513623046875,-0.12194287109375,0.2917573242187499,1.044168816445609,0.0244140625,0.0078125,0.51123046875,43.16529411764706,200.29788104309307
0.96828076171875,-0.12487255859375,0.2907807617187499,1.018682600612246,0.0732421875,0.00927734375,0.6416015625,42.60058823529412,200.29788104309307
0.96779248046875,-0.12926708984375,0.2907807617187499,1.0187667628825865,0.0947265625,-0.09130859375,0.7431640625,42.60058823529412,200.29788104309307
0.97218701171875,-0.12536083984375,0.2888276367187499,1.0219023092514772,0.07861328125,-0.18994140625,0.6455078125,42.60058823529412,199.85932072253863
0.97316357421875,-0.12829052734375,0.2888276367187499,1.0231946077481489,0.06787109375,-0.24169921875,0.513671875,43.25941176470588,199.85932072253863
0.97023388671875,-0.12926708984375,0.3078706054687499,1.0260838587394985,0.0849609375,-0.25244140625,0.4208984375,44.01235294117648,199.85932072253863
0.97560498046875,-0.13073193359375,0.2966401367187499,1.028052181111985,0.05810546875,-0.1494140625,0.29833984375,42.60058823529412,199.85932072253863
0.99122998046875,-0.14000927734375,0.2932221679687499,1.0431292881089531,0.00048828125,-0.0068359375,0.14697265625,43.91823529411765,199.85932072253863
1.00148388671875,-0.15270458984375,0.2771088867187499,1.0502752030849567,-0.033203125,0.14453125,0.0498046875,43.73,200.155456829272
1.03468701171875,-0.16539990234375,0.2707612304687499,1.082241185614256,-0.091796875,0.23681640625,-0.1376953125,43.777058823529416,200.155456829272
1.04933544921875,-0.18395458984375,0.2546479492187499,1.095349147145792,-0.1806640625,0.21728515625,-0.3115234375,42.55352941176471,200.155456829272
1.05080029296875,-0.18493115234375,0.2546479492187499,1.0969167538385551,-0.25830078125,0.06787109375,-0.3291015625,43.30647058823529,200.155456829272
1.04445263671875,-0.17907177734375,0.2634370117187499,1.0919464597374289,-0.330078125,-0.2587890625,-0.21484375,44.01235294117648,200.101185964958
1.02199169921875,-0.17711865234375,0.2673432617187499,1.0711257955378135,-0.43994140625,-0.39208984375,-0.17578125,43.777058823529416,200.101185964958
0.99611279296875,-0.17663037109375,0.2702729492187499,1.0471324898923349,-0.51318359375,-0.21875,-0.1416015625,43.02411764705882,200.101185964958
0.98439404296875,-0.17760693359375,0.2609956054687499,1.033776842827762,-0.54150390625,0.08349609375,-0.07470703125,42.55352941176471,200.101185964958
0.99611279296875,-0.18053662109375,0.2551362304687499,1.0439964865696412,-0.58837890625,0.134765625,-0.1064453125,44.01235294117648,200.101185964958
0.98830029296875,-0.17858349609375,0.2600190429687499,1.0374196050131153,-0.6357421875,-0.060546875,-0.14306640625,43.25941176470588,200.0790379410746
0.97951123046875,-0.17223583984375,0.2775971679687499,1.032553932153356,-0.671875,-0.3994140625,-0.1923828125,42.60058823529412,200.0790379410746
0.97511669921875,-0.13707958984375,0.3127534179687499,1.033178634844012,-0.658203125,-0.578125,-0.11376953125,43.777058823529416,200.0790379410746
1.00783154296875,-0.13463818359375,0.3391206054687499,1.07184637170524,-0.61181640625,-0.40966796875,0.1123046875,43.87117647058824,200.0790379410746
1.00148388671875,-0.13073193359375,0.3454682617187499,1.0674310908313611,-0.5263671875,0.03759765625,0.2509765625,43.25941176470588,199.9036144396008
0.97462841796875,-0.13854443359375,0.3303315429687499,1.0383708593138563,-0.4345703125,0.40087890625,0.04345703125,42.60058823529412,199.9036144396008
0.96046826171875,-0.11364208984375,0.2941987304687499,1.0109236862209314,-0.35107421875,0.51513671875,-0.3330078125,43.25941176470588,199.9036144396008
0.97511669921875,-0.10289990234375,0.2775971679687499,1.0190687683674218,-0.29833984375,0.38623046875,-0.47314453125,43.25941176470588,199.9036144396008
0.98195263671875,-0.10192333984375,0.2736909179687499,1.02446379464693,-0.2578125,0.28271484375,-0.20361328125,43.02411764705882,199.9036144396008
0.98585888671875,-0.11071240234375,0.2761323242187499,1.0297689260380245,-0.16943359375,0.18701171875,0.001953125,42.60058823529412,199.9913258277034
0.96632763671875,-0.12291943359375,0.2673432617187499,1.010134005084411,-0.1005859375,0.0439453125,-0.02490234375,42.60058823529412,199.9913258277034
0.95460888671875,-0.14196240234375,0.2707612304687499,1.0023687416348197,-0.05078125,-0.01953125,-0.08251953125,44.01235294117648,199.9913258277034
0.96437451171875,-0.15123974609375,0.2858979492187499,1.017167290576514,-0.00830078125,-0.04443359375,-0.1787109375,43.87117647058824,199.9913258277034
0.94728466796875,-0.15514599609375,0.2956635742187499,1.004408020374386,0.0146484375,0.02685546875,-0.10009765625,43.777058823529416,199.86019776147955
0.95607373046875,-0.15368115234375,0.2976166992187499,1.0130501341651357,0.0419921875,0.224609375,0.07763671875,43.02411764705882,199.86019776147955
0.95607373046875,-0.14293896484375,0.2829682617187499,1.0072634029404453,0.03662109375,0.34423828125,0.13623046875,43.02411764705882,199.86019776147955
0.98390576171875,-0.13610302734375,0.2810151367187499,1.032261637890581,0.017578125,0.29443359375,0.0439453125,42.69470588235294,199.86019776147955
0.99708935546875,-0.14293896484375,0.2663666992187499,1.041906881113846,-0.04443359375,0.185546875,-0.02587890625,44.01235294117648,199.86019776147955
1.00294873046875,-0.13707958984375,0.2756440429687499,1.0491313589464222,-0.10107421875,0.0693359375,0.009765625,42.60058823529412,200.06862361017025
1.00685498046875,-0.14782177734375,0.2873627929687499,1.0574429555936309,-0.16943359375,-0.05126953125,0.00390625,43.118235294117646,200.06862361017025
0.99367138671875,-0.15661083984375,0.2941987304687499,1.048075700009094,-0.23388671875,-0.08837890625,-0.03564453125,42.60058823529412,200.06862361017025
1.00001904296875,-0.16100537109375,0.3034760742187499,1.0573828745749552,-0.27587890625,-0.03564453125,-0.07080078125,43.25941176470588,200.06862361017025
0.99953076171875,-0.15954052734375,0.3103120117187499,1.0586824207967769,-0.279296875,0.04052734375,-0.0859375,43.16529411764706,199.83805063884213
