AccX,AccY,AccZ,Magnitude,GyroX,GyroY,GyroZ,Temperature,Altitude
0.04201123046875,0.19788134765625,0.99927685546875,1.0195470588017332,-0.197265625,-1.51171875,-1.353515625,42.60058823529412,219.0188363142136
0.06642529296875,0.19006884765625,1.00757763671875,1.0274975330438028,-0.2451171875,-1.576171875,-1.3779296875,43.30647058823529,219.0188363142136
0.08742138671875,0.19934619140625,1.01246044921875,1.035595270419984,-0.0830078125,-1.5830078125,-1.31396484375,43.447647058823534,219.0188363142136
0.09914013671875,0.21448291015625,1.02222607421875,1.0491795996255284,-0.05322265625,-1.66064453125,-1.3310546875,43.25941176470588,219.0188363142136
0.12941357421875,0.21497119140625,1.01734326171875,1.047830042750846,-0.02392578125,-1.75244140625,-1.42578125,42.55352941176471,219.0188363142136
0.14747998046875,0.16956103515625,1.01294873046875,1.0375771874133388,-0.15234375,-1.5185546875,-1.8603515625,43.447647058823534,218.89783184901083
0.12404248046875,0.12512744140625,1.02710888671875,1.042111356204482,-0.126953125,-1.30322265625,-1.81396484375,43.49470588235295,218.89783184901083
0.10499951171875,0.07092822265625,1.01392529296875,1.0218122185372986,-0.1025390625,-1.37451171875,-1.47998046875,43.91823529411765,218.89783184901083
0.09621044921875,0.04260791015625,1.01197216796875,1.0174279106109332,-0.06640625,-1.52734375,-1.03662109375,43.25941176470588,218.89783184901083
0.11281201171875,0.04895556640625,1.02222607421875,1.0295966901087366,0.009765625,-1.603515625,-0.6826171875,43.87117647058824,219.0079895680376
0.12062451171875,0.08508837890625,1.01294873046875,1.0236481014540757,0.09228515625,-1.55712890625,-0.2919921875,43.54176470588236,219.0079895680376
0.14406201171875,0.08655322265625,0.99585888671875,1.009940714017087,0.06103515625,-1.49462890625,-0.22900390625,43.30647058823529,219.0079895680376
0.13234326171875,0.09045947265625,0.98853466796875,1.001448173842107,0.009765625,-1.1494140625,-0.0966796875,43.353529411764704,219.0079895680376
0.12941357421875,0.08948291015625,0.95972607421875,0.9725375066995806,-0.0341796875,-0.98681640625,-0.02783203125,43.447647058823534,219.0079895680376
0.09621044921875,0.08899462890625,0.92554638671875,0.9347794437626282,-0.08935546875,-0.99072265625,0.072265625,42.55352941176471,218.76598226378752
0.08595654296875,0.08948291015625,0.91626904296875,0.92463218502929,-0.111328125,-1.1669921875,0.20263671875,43.447647058823534,218.76598226378752
0.06935498046875,0.09778369140625,0.90650341796875,0.914396090548226,-0.171875,-1.39404296875,0.28076171875,42.69470588235294,218.76598226378752
0.05617138671875,0.11243212890625,0.8923432617187499,0.9011507670923642,-0.224609375,-1.435546875,0.34912109375,43.447647058823534,218.76598226378752
0.06056591796875,0.12903369140625,0.8811127929687499,0.8925680242258915,-0.27978515625,-1.36474609375,0.4912109375,42.69470588235294,219.19520525107453
0.09132763671875,0.15100634765625,0.8806245117187499,0.8981331665744222,-0.29345703125,-1.16162109375,0.5751953125,42.60058823529412,219.19520525107453
0.13576123046875,0.16809619140625,0.8513276367187499,0.8783200933058559,-0.26708984375,-0.93701171875,0.6650390625,43.447647058823534,219.19520525107453
0.20753857421875,0.18372119140625,0.7873627929687499,0.8347250467741064,-0.28369140625,-0.64306640625,0.68896484375,43.447647058823534,219.19520525107453
0.24757763671875,0.21252978515625,0.7067963867187499,0.7784759007576817,-0.37451171875,-0.36376953125,0.166015625,43.447647058823534,219.19520525107453
0.20509716796875,0.21497119140625,0.6091401367187499,0.6777382736758796,-0.408203125,0.388671875,-0.546875,43.54176470588236,219.0416578556872
0.14747998046875,0.15881884765625,0.5168549804687499,0.560457707454607,-0.4052734375,1.25048828125,-0.59765625,43.91823529411765,219.0416578556872
0.13869091796875,0.12708056640625,0.4558198242187499,0.4931088655012804,-0.15625,2.39404296875,0.56396484375,43.91823529411765,219.0416578556872
0.21290966796875,0.18518603515625,0.3776948242187499,0.4714634392750806,0.1494140625,2.89013671875,1.29541015625,42.55352941176471,219.0416578556872
0.21144482421875,0.19690478515625,0.2502534179687499,0.382239690915751,0.2783203125,2.7666015625,0.365234375,43.353529411764704,219.03081120367827
0.14943310546875,0.16956103515625,0.1897065429687499,0.295075871765971,0.32568359375,1.60595703125,-0.74462890625,44.01235294117648,219.03081120367827
0.08449169921875,0.00989306640625,0.1311127929687499,0.1562923046085649,0.31689453125,-0.3056640625,-0.8515625,43.30647058823529,219.03081120367827
0.01857373046875,-0.05748974609375,0.0437104492187498,0.0745698178913863,0.19384765625,-1.74951171875,-0.3173828125,43.447647058823534,219.03081120367827
0.01076123046875,0.00501025390625,-0.0920317382812501,0.0927941139107172,0.54345703125,-1.2470703125,0.59033203125,43.68294117647059,219.03081120367827
0.14845654296875,0.0167290039062499,-0.1931059570312501,0.2441497805915103,1.27734375,1.46240234375,0.88232421875,43.353529411764704,218.49312678435408
0.34328076171875,0.0167290039062499,-0.2492583007812501,0.4245600563480468,2.109375,3.5537109375,1.81201171875,43.49470588235295,218.49312678435408
0.45314404296875,-0.07018505859375,-0.3537504882812501,0.5791414974659435,2.78125,4.5078125,2.6591796875,43.49470588235295,218.49312678435408
0.55226513671875,-0.07946240234375,-0.4890043945312501,0.7419139791728514,2.79443359375,3.0048828125,3.2607421875,43.447647058823534,218.49312678435408
0.58253857421875,0.01233447265625,-0.5866606445312501,0.8268458390234202,2.67333984375,-0.91064453125,4.18603515625,44.01235294117648,218.7676714099181
0.71779248046875,0.10364306640625,-0.5295317382812501,0.8979820666799162,2.435546875,-7.36279296875,5.23193359375,44.01235294117648,218.7676714099181
0.83546826171875,0.13782275390625,-0.3557036132812501,0.9184374711078536,1.02099609375,-15.48681640625,5.9755859375,44.01235294117648,218.7676714099181
0.96535107421875,0.19641650390625,-0.0173247070312501,0.98528284516466,-0.81103515625,16.0,4.67529296875,43.91823529411765,218.7676714099181
0.85255810546875,0.32483447265625,0.3776948242187499,0.9874341183430724,-2.53662109375,16.0,3.1201171875,43.30647058823529,218.7676714099181
0.29542919921875,0.22864306640625,0.96900341796875,1.0385199505073577,-2.78369140625,16.0,0.6220703125,44.01235294117648,218.76710791149168
0.11818310546875,0.11731494140625,1.47583935546875,1.4852043108763875,-2.60107421875,16.0,-2.0556640625,43.49470588235295,218.76710791149168
-0.20554736328125,-0.13854443359375,1.50855419921875,1.5287838469228447,-1.84521484375,16.0,-1.72216796875,43.353529411764704,218.76710791149168
-0.21873095703125,-0.22936474609375,1.41382763671875,1.448916838422476,-1.6552734375,-11.37548828125,0.27978515625,43.353529411764704,218.76710791149168
-0.05759814453125,-0.14635693359375,1.13355419921875,1.144413832855436,-0.81640625,-5.62109375,2.18896484375,43.30647058823529,219.02052936545007
0.44386669921875,-0.08092724609375,0.6755463867187499,0.8123606258580147,-1.1845703125,-6.6591796875,2.3798828125,42.69470588235294,219.02052936545007
0.76955029296875,0.07776416015625,0.4787690429687499,0.909656371669164,-1.830078125,-11.93505859375,1.59375,42.69470588235294,219.02052936545007
1.17189404296875,0.13879931640625,0.5256440429687499,1.291860115526839,-2.38134765625,16.0,0.33203125,44.01235294117648,219.02052936545007
1.42433544921875,0.0269829101562499,0.7541596679687499,1.6118983696661566,-2.93310546875,16.0,-0.1728515625,43.447647058823534,219.02052936545007
1.52443310546875,-0.06676708984375,1.15357373046875,1.9128738821372648,-3.625,16.0,0.21240234375,43.353529411764704,218.5593321550688
1.65822216796875,-0.16588818359375,1.48218701171875,2.2302685904407955,-4.43115234375,16.0,0.92529296875,42.69470588235294,218.5593321550688
1.83302685546875,-0.13512646484375,1.58960888671875,2.4300417747656207,-3.97216796875,16.0,2.55859375,43.447647058823534,218.5593321550688
2.16408154296875,-0.31139599609375,1.42798779296875,2.611391492646973,-3.5244140625,16.0,3.96484375,43.30647058823529,218.5593321550688
2.32667919921875,-0.39928662109375,1.25855419921875,2.675224210086477,-3.23486328125,16.0,4.02001953125,42.97705882352941,218.5256667798716
2.21193310546875,-0.46813427734375,0.8991791992187499,2.4331709757023767,-4.09912109375,-13.86181640625,4.0166015625,43.447647058823534,218.5256667798716
2.41310498046875,-0.32164990234375,0.6965424804687499,2.5321346199478394,-5.7587890625,-13.58447265625,3.71337890625,43.353529411764704,218.5256667798716
2.17287060546875,-0.06286083984375,0.6228120117187499,2.2612414632756823,-5.51416015625,16.0,2.9033203125,43.447647058823534,218.5256667798716
2.05568310546875,0.00501025390625,0.3342377929687499,2.0826840939044184,-4.8740234375,16.0,2.2939453125,42.60058823529412,218.5256667798716
1.83400341796875,0.22766650390625,0.2868745117187499,1.8702132390708348,-4.48876953125,16.0,2.310546875,43.30647058823529,218.94403847869032
1.69923779296875,0.31458056640625,0.1433198242187499,1.734044573195245,-2.64111328125,16.0,2.01806640625,43.353529411764704,218.94403847869032
1.61915966796875,0.26086962890625,0.0153901367187498,1.6401121455469376,-1.3115234375,16.0,-0.09619140625,42.60058823529412,218.94403847869032
1.34181591796875,0.18518603515625,-0.0983793945312501,1.3581024742630972,-0.79833984375,16.0,-1.8125,42.60058823529412,218.94403847869032
1.00636669921875,-0.06090771484375,-0.0876372070312501,1.0120098631338372,-0.04541015625,16.0,-0.81396484375,42.60058823529412,218.59243515264657
0.75392529296875,-0.16784130859375,-0.0456450195312501,0.7737296168924168,0.1259765625,16.0,3.44921875,43.49470588235295,218.59243515264657
0.52833935546875,-0.20690380859375,-0.1296293945312501,0.5820270100899715,-0.34765625,16.0,7.57666015625,43.353529411764704,218.59243515264657
0.40529248046875,-0.17809521484375,-0.1706450195312501,0.4744466492299996,-1.6943359375,16.0,8.5390625,43.353529411764704,218.59243515264657
0.45705029296875,-0.12731396484375,0.0280854492187498,0.475281609579915,-2.54150390625,16.0,6.51513671875,43.49470588235295,218.59243515264657
0.48927685546875,0.0211235351562499,0.2981049804687499,0.573327676303141,-2.68603515625,16.0,4.37548828125,43.353529411764704,218.5799003785644
0.32179638671875,0.10217822265625,0.4992768554687499,0.602719405774525,-2.40234375,16.0,3.32275390625,43.353529411764704,218.5799003785644
0.44826123046875,0.15247119140625,1.05494091796875,1.1563243210081453,-1.59521484375,16.0,3.166015625,42.69470588235294,218.5799003785644
0.62257763671875,0.17786181640625,1.10816357421875,1.2834579255678429,-1.19921875,16.0,2.9619140625,43.49470588235295,218.5799003785644
0.73927685546875,0.22083056640625,1.36988232421875,1.5722194472458455,-2.28564453125,16.0,2.072265625,43.353529411764704,218.6352587250732
0.91749951171875,0.35120166015625,1.58814404296875,1.867444634070252,-2.3916015625,16.0,0.451171875,43.353529411764704,218.6352587250732
1.00001904296875,0.36975634765625,1.62085888671875,1.9400879808883336,-2.5068359375,-15.84228515625,-1.10400390625,43.54176470588236,218.6352587250732
0.89992138671875,0.31409228515625,1.69410107421875,1.9438340761334527,-2.61279296875,-9.595703125,-2.3935546875,43.30647058823529,218.6352587250732
0.64796826171875,0.28577197265625,1.55494091796875,1.7086163252539062,-0.96728515625,0.91796875,-2.34375,43.49470588235295,218.6352587250732
0.70363232421875,0.25647509765625,1.21509716796875,1.4273538632760063,0.6865234375,13.0498046875,-2.8759765625,43.447647058823534,218.7345679264815
0.78712841796875,0.07092822265625,0.7024018554687499,1.0573411586186856,1.5673828125,15.99951171875,-5.65380859375,43.353529411764704,218.7345679264815
0.97804638671875,-0.21081005859375,0.3156831054687499,1.0491288950630884,2.44189453125,15.99951171875,-9.8505859375,42.788823529411765,218.7345679264815
1.89601513671875,-0.15612255859375,0.4631440429687499,1.957996439349653,4.51708984375,15.99951171875,-7.39697265625,43.91823529411765,218.7345679264815
3.34035107421875,-0.49743115234375,0.1359956054687499,3.379922758742158,2.48046875,15.99951171875,-1.49560546875,43.30647058823529,218.73513160707856
4.68019482421875,-0.65221630859375,-0.1301176757812501,4.727212742768232,-3.63427734375,15.99951171875,-1.4326171875,43.353529411764704,218.73513160707856
5.38624951171875,-0.32848583984375,0.4626557617187499,5.416053646643457,-3.3623046875,15.99951171875,-2.74755859375,44.01235294117648,218.73513160707856
4.16261669921875,-0.49157177734375,-0.0524809570312501,4.191870089559863,3.80859375,15.99951171875,-6.95068359375,43.49470588235295,218.73513160707856
1.52687451171875,-0.78014599609375,-1.02806689453125,1.9992236216563195,6.07568359375,15.99951171875,-14.5439453125,43.777058823529416,218.73513160707856
-0.03220751953125,-1.25133740234375,-1.52074267578125,1.9696550217642368,6.9619140625,15.99951171875,-10.85400390625,44.01235294117648,218.43833110947705
0.51124951171875,-1.12731396484375,-1.92308642578125,2.2870230081021266,4.20947265625,15.99951171875,-6.63232421875,43.353529411764704,218.43833110947705
1.33449169921875,-0.61120068359375,-1.85814501953125,2.3679394596395413,2.84521484375,15.99951171875,-0.69091796875,42.60058823529412,218.43833110947705
2.70607373046875,-0.13122021484375,-1.70580126953125,3.2015327189724485,1.32470703125,15.99951171875,4.22900390625,43.447647058823534,218.43833110947705
3.80861279296875,0.32336962890625,-1.23656298828125,4.017360744027258,1.935546875,4.89453125,5.73779296875,43.447647058823534,218.2185886573073
3.67287060546875,0.48206103515625,-0.99046923828125,3.834500050608128,1.837890625,16.0,3.67431640625,44.01235294117648,218.2185886573073
1.95265576171875,0.29114306640625,-0.5632231445312501,2.0530097709035715,0.69189453125,16.0,2.841796875,43.30647058823529,218.2185886573073
1.33693310546875,0.08460009765625,-0.1393950195312501,1.346840107990507,-0.18603515625,16.0,0.314453125,44.01235294117648,218.2185886573073
0.53859326171875,0.05432666015625,0.2185151367187499,0.5837661796882281,1.240234375,-10.80078125,-2.33544921875,43.447647058823534,218.2185886573073
0.38966748046875,-0.02428662109375,0.3859956054687499,0.5490202115953491,1.1708984375,8.40869140625,-4.728515625,43.353529411764704,218.624974969978
1.06398388671875,-0.12731396484375,0.5329682617187499,1.1967981136519557,1.09912109375,15.99951171875,-6.755859375,43.353529411764704,218.624974969978
1.48976513671875,-0.11950146484375,0.4270112304687499,1.5543549638447691,0.96240234375,15.99951171875,-7.7099609375,43.54176470588236,218.624974969978
1.72169873046875,-0.20348583984375,0.4030854492187499,1.779924404261738,0.03515625,15.99951171875,-6.53076171875,43.54176470588236,218.624974969978
1.64162060546875,-0.14489208984375,0.4509370117187499,1.7085830733495844,-0.75732421875,15.99951171875,-4.1767578125,42.69470588235294,218.35155844819687
1.24855419921875,-0.02184521484375,0.6242768554687499,1.3960968426553704,-1.65234375,7.58740234375,-2.31494140625,43.353529411764704,218.35155844819687
0.56154248046875,0.04602587890625,1.13599560546875,1.2680435144522453,-1.16259765625,0.115234375,-0.15673828125,43.30647058823529,218.35155844819687
0.32423779296875,-0.01842724609375,1.54517529296875,1.5789352094968647,-0.74072265625,-3.1708984375,0.87548828125,43.353529411764704,218.35155844819687
0.12257763671875,-0.01305615234375,1.78882763671875,1.7930700081219266,-0.51611328125,-0.74072265625,1.36279296875,43.353529411764704,218.35155844819687
0.26320263671875,0.05774462890625,1.88111279296875,1.9003145555444008,0.212890625,7.35205078125,1.64990234375,42.788823529411765,218.284791807516
0.83449169921875,-0.10778271484375,1.49927685546875,1.719251173920887,1.07080078125,15.99951171875,1.25537109375,43.30647058823529,218.284791807516
1.30763623046875,-0.21959912109375,1.02808544921875,1.6778247751523363,1.19140625,15.99951171875,0.5380859375,43.30647058823529,218.284791807516
1.48048779296875,-0.06188427734375,0.7053315429687499,1.641086942979718,1.603515625,15.99951171875,0.3544921875,43.49470588235295,218.284791807516
1.79494091796875,0.10120166015625,0.5246674804687499,1.8727868645626249,1.99365234375,15.99951171875,1.73876953125,43.54176470588236,218.31789369482848
1.98048779296875,0.03430712890625,0.2507416992187499,1.9965921658964625,1.73291015625,15.99951171875,1.689453125,43.353529411764704,218.31789369482848
1.95314404296875,0.19202197265625,0.1848237304687499,1.971244252220281,0.6611328125,15.37255859375,0.36083984375,43.49470588235295,218.31789369482848
1.68703076171875,0.19836962890625,0.2409760742187499,1.7156610297502328,-0.02734375,4.2109375,-0.75439453125,42.60058823529412,218.31789369482848
1.08449169921875,0.11194384765625,0.3889252929687499,1.1575476466276822,-0.68359375,-3.990234375,-0.32177734375,43.49470588235295,218.31789369482848
0.59523388671875,0.10266650390625,0.6760346679687499,0.9065686202479432,-0.6455078125,-6.46484375,-0.20458984375,43.353529411764704,218.31845608521309
0.40724560546875,-0.05504833984375,0.8757416992187499,0.9673690229915908,-0.2021484375,-4.2451171875,-0.60400390625,43.91823529411765,218.31845608521309
0.08400341796875,-0.08239208984375,1.05835888671875,1.064879600610231,-0.42578125,1.17724609375,-0.1181640625,43.353529411764704,218.31845608521309
0.21144482421875,0.03821337890625,1.17505810546875,1.1945420575451242,0.32763671875,7.125,1.03271484375,43.353529411764704,218.31845608521309
0.53419873046875,0.09436572265625,1.03003857421875,1.164153184776581,0.740234375,11.3720703125,1.0625,43.63588235294118,218.3401492082801
0.76173779296875,0.15344775390625,0.8840424804687499,1.1769969352930003,0.59619140625,12.25927734375,0.19775390625,43.353529411764704,218.3401492082801
0.76417919921875,0.19543994140625,0.7463471679687499,1.0859100857577766,0.3759765625,10.890625,-0.56982421875,43.30647058823529,218.3401492082801
0.61671826171875,0.20715869140625,0.6633393554687499,0.9291260615633612,0.2294921875,8.39892578125,-0.796875,43.353529411764704,218.3401492082801
0.47706982421875,0.21155322265625,0.6394135742187499,0.8253484731260794,0.0654296875,5.83251953125,-0.54833984375,43.353529411764704,218.3401492082801
0.43068310546875,0.19934619140625,0.6638276367187499,0.8160232672148413,0.01806640625,3.541015625,-0.29052734375,44.01235294117648,217.9668714605109
0.45021435546875,0.18420947265625,0.7092377929687499,0.8600257802308132,-0.09423828125,1.982421875,-0.375,43.447647058823534,217.9668714605109
0.51808544921875,0.20325244140625,0.7898041992187499,0.9661856761168456,0.09521484375,1.00341796875,-0.69775390625,44.01235294117648,217.9668714605109
0.49464794921875,0.18909228515625,0.8137299804687499,0.9708702112463848,0.28662109375,0.705078125,-1.39794921875,43.447647058823534,217.9668714605109
0.43849560546875,0.13098681640625,0.8283784179687499,0.9463861502811942,0.408203125,0.37353515625,-1.587890625,42.74176470588235,218.36071854063425
0.58058544921875,0.11340869140625,0.8103120117187499,1.0032679360304022,0.5693359375,-0.427734375,-1.46630859375,43.353529411764704,218.36071854063425
0.63136669921875,0.10559619140625,0.8073823242187499,1.0303594916254983,0.19677734375,-0.931640625,-1.89794921875,43.30647058823529,218.36071854063425
0.59230419921875,0.13928759765625,0.7893159179687499,0.9966167355768536,0.17578125,-1.10009765625,-1.87646484375,43.353529411764704,218.36071854063425
0.59572216796875,0.15833056640625,0.7883393554687499,1.000715948233461,0.13330078125,-1.33447265625,-1.74169921875,43.447647058823534,218.36071854063425
0.57912060546875,0.15686572265625,0.7585541992187499,0.9671566593760073,-0.0458984375,-1.66357421875,-1.39404296875,43.447647058823534,218.36240498311045
0.56642529296875,0.16565478515625,0.7658784179687499,0.966875830430264,-0.32080078125,-1.7724609375,-1.2158203125,43.447647058823534,218.36240498311045
0.57521435546875,0.15686572265625,0.7541596679687499,0.9613715278041742,-0.26708984375,-1.91796875,-1.263671875,42.788823529411765,218.36240498311045
0.60206982421875,0.10706103515625,0.7609956054687499,0.9762501984769444,-0.44140625,-2.04052734375,-1.60009765625,43.87117647058824,218.36240498311045
0.59132763671875,0.06946337890625,0.7995698242187499,0.9968979078911028,-0.46826171875,-2.48974609375,-1.583984375,43.87117647058824,218.1866104846136
0.56984326171875,0.0284477539062499,0.8191010742187499,0.998227021981916,-0.755859375,-3.09423828125,-1.17578125,42.60058823529412,218.1866104846136
0.53273388671875,0.05823291015625,0.8703706054687499,1.022125949552094,-0.4755859375,-3.20263671875,-0.93212890625,42.74176470588235,218.1866104846136
0.49318310546875,0.06067431640625,0.8689057617187499,1.0009536307637863,-0.376953125,-2.6650390625,-0.87744140625,43.49470588235295,218.1866104846136
0.48732373046875,0.06946337890625,0.8859956054687499,1.0135569999743423,-0.46240234375,-2.0859375,-0.8095703125,43.91823529411765,218.1866104846136
0.49171826171875,0.08215869140625,0.8767182617187499,1.0085493591849846,-0.4208984375,-1.5341796875,-0.73095703125,43.49470588235295,218.2630985779741
0.49855419921875,0.10120166015625,0.8674409179687499,1.0056101688743495,-0.3173828125,-1.185546875,-0.6337890625,43.353529411764704,218.2630985779741
0.51515576171875,0.11145556640625,0.8361909179687499,0.9884447649759616,-0.29833984375,-1.15185546875,-0.58447265625,43.447647058823534,218.2630985779741
0.54249951171875,0.10706103515625,0.8166596679687499,0.986255949919005,-0.24267578125,-1.439453125,-0.57373046875,43.87117647058824,218.2630985779741
0.56105419921875,0.10022509765625,0.8127534179687499,0.9926706417946908,-0.20166015625,-1.85302734375,-0.43212890625,43.353529411764704,218.0439199456132
0.57863232421875,0.08801806640625,0.8088471679687499,0.9983968588571154,-0.1982421875,-2.3017578125,-0.2001953125,43.49470588235295,218.0439199456132
0.57326123046875,0.08167041015625,0.8357026367187499,1.0167090986473497,-0.1923828125,-2.4677734375,0.013671875,42.60058823529412,218.0439199456132
0.56544873046875,0.07971728515625,0.8581635742187499,1.030791847298621,-0.220703125,-2.36376953125,0.1474609375,43.447647058823534,218.0439199456132
0.54738232421875,0.06018603515625,0.8733002929687499,1.032425866294648,-0.18701171875,-2.22802734375,0.29248046875,43.447647058823534,218.0439199456132
0.53664013671875,0.05774462890625,0.8845307617187499,1.03620063063665,-0.1083984375,-1.890625,0.48095703125,43.49470588235295,218.1763262054525
0.55665966796875,0.06653369140625,0.8708588867187499,1.0357084138946837,-0.04541015625,-1.40771484375,0.681640625,43.353529411764704,218.1763262054525
0.58107373046875,0.06506884765625,0.8625581054687499,1.0420590772533105,-0.01953125,-1.0126953125,0.69091796875,43.353529411764704,218.1763262054525
0.58497998046875,0.07434619140625,0.8464448242187499,1.031599619121946,-0.0546875,-0.802734375,0.7001953125,43.49470588235295,218.1763262054525
0.59279248046875,0.07239306640625,0.8298432617187499,1.0223910797654714,-0.03125,-0.68505859375,0.64794921875,43.353529411764704,218.36240498311045
0.60109326171875,0.06751025390625,0.8337495117187499,1.0300529073583675,-0.05029296875,-0.53955078125,0.53662109375,42.74176470588235,218.36240498311045
0.60451123046875,0.07190478515625,0.8469331054687499,1.0430243578316611,-0.05224609375,-0.501953125,0.48876953125,43.25941176470588,218.36240498311045
0.59425732421875,0.09387744140625,0.8674409179687499,1.0556554776815588,-0.06982421875,-0.57373046875,0.568359375,43.49470588235295,218.36240498311045
0.60744091796875,0.11877978515625,0.8835541992187499,1.0787776087505567,-0.07275390625,-0.53173828125,0.58544921875,43.353529411764704,218.36240498311045
0.61232373046875,0.12366259765625,0.8986909179687499,1.0944762012002691,0.00634765625,-0.16455078125,0.51513671875,43.353529411764704,218.1757639250748
0.60109326171875,0.11536181640625,0.8913666992187499,1.081275196443701,0.09326171875,0.4951171875,0.359375,43.54176470588236,218.1757639250748
0.58986279296875,0.10413134765625,0.8791596679687499,1.063815385241501,0.14892578125,1.04833984375,0.28759765625,43.353529411764704,218.1757639250748
0.59279248046875,0.10120166015625,0.8684174804687499,1.056311327830184,0.18408203125,1.1767578125,0.310546875,42.60058823529412,218.1757639250748
0.58644482421875,0.09290087890625,0.8542573242187499,1.040338253231079,0.15185546875,0.98291015625,0.65625,43.353529411764704,218.2745073695011
0.58009716796875,0.09778369140625,0.8523041992187499,1.035614224794306,0.11572265625,0.7646484375,1.048828125,43.353529411764704,218.2745073695011
0.54982373046875,0.09973681640625,0.8532807617187499,1.0199713846244691,0.06103515625,1.07958984375,1.14111328125,43.353529411764704,218.2745073695011
0.54249951171875,0.11047900390625,0.97583935546875,1.1219508804759968,-0.00048828125,1.8408203125,0.791015625,43.91823529411765,218.2745073695011
0.56691357421875,0.14807666015625,0.8527924804687499,1.0346848373589663,0.04443359375,2.1953125,0.3076171875,43.30647058823529,218.2745073695011
0.58693310546875,0.18225634765625,0.8503510742187499,1.049192449449179,0.162109375,1.70556640625,0.0576171875,43.447647058823534,218.27394518592217
0.56105419921875,0.18518603515625,0.8449799804687499,1.0310513321221468,0.2880859375,0.978515625,0.15283203125,43.353529411764704,218.27394518592217
0.53859326171875,0.18713916015625,0.8498627929687499,1.0234112241447582,0.33642578125,0.8681640625,0.44677734375,43.49470588235295,218.27394518592217
0.56154248046875,0.19348681640625,0.8576752929687499,1.0432516540428074,0.4990234375,1.2958984375,0.46435546875,43.353529411764704,218.27394518592217
0.59279248046875,0.20960009765625,0.8825776367187499,1.0836412739803964,0.3759765625,1.740234375,0.310546875,43.447647058823534,218.11012265926763
0.61671826171875,0.19739306640625,0.8967377929687499,1.1060940766232876,0.38427734375,2.1123046875,0.2734375,43.54176470588236,218.11012265926763
0.64308544921875,0.19690478515625,0.91480419921875,1.1354281625547995,0.40380859375,2.3037109375,0.19189453125,43.353529411764704,218.11012265926763
0.61378857421875,0.17297900390625,0.92994091796875,1.1275851455861086,0.40185546875,2.68017578125,-0.123046875,43.54176470588236,218.11012265926763
0.56789013671875,0.14026416015625,0.93726513671875,1.1048254063494358,0.4501953125,3.12744140625,-0.322265625,43.447647058823534,218.11012265926763
0.54933544921875,0.12952197265625,0.91382763671875,1.0740699822637758,0.55712890625,3.89208984375,-0.36279296875,43.447647058823534,218.2533770434104
0.57716748046875,0.11292041015625,0.8835541992187499,1.0613865188976102,0.50830078125,4.283203125,-0.53759765625,43.353529411764704,218.2533770434104
0.57570263671875,0.09143603515625,0.8566987304687499,1.0362078890052826,0.50927734375,4.29541015625,-0.5400390625,43.353529411764704,218.2533770434104
0.58888623046875,0.09680712890625,0.8449799804687499,1.0344804396583505,0.59814453125,4.09228515625,-0.3818359375,43.87117647058824,218.2533770434104
0.59035107421875,0.12512744140625,0.8469331054687499,1.039936032918875,0.5849609375,3.81103515625,-0.16357421875,43.447647058823534,218.26366082227
0.60451123046875,0.12903369140625,0.8576752929687499,1.0572087917955453,0.61669921875,3.23974609375,-0.12255859375,43.63588235294118,218.26366082227
0.57716748046875,0.12854541015625,0.8923432617187499,1.070477799731382,0.59033203125,2.42529296875,-0.12353515625,43.447647058823534,218.26366082227
0.47853466796875,0.12317431640625,0.92408154296875,1.0478998228483554,0.4677734375,1.8046875,0.03857421875,43.447647058823534,218.26366082227
0.39162060546875,0.13733447265625,0.94703076171875,1.0339703669105205,0.45947265625,1.763671875,0.208984375,43.353529411764704,218.26366082227
0.34523388671875,0.15344775390625,0.96265576171875,1.0341367246588404,0.49609375,2.322265625,0.17919921875,43.54176470588236,218.1649173791767
0.34621044921875,0.15881884765625,0.95191357421875,1.0252924237996803,0.49267578125,3.11083984375,-0.06787109375,43.49470588235295,218.1649173791767
0.35402294921875,0.14319384765625,0.92066357421875,0.9967237046811852,0.3984375,3.837890625,-0.24267578125,43.447647058823534,218.1649173791767
0.36671826171875,0.17053759765625,0.90601513671875,0.9921838456938724,0.447265625,4.3232421875,-0.30029296875,43.447647058823534,218.1649173791767
0.39259716796875,0.18665087890625,0.8728120117187499,0.9750753277024754,0.4697265625,4.357421875,-0.294921875,43.54176470588236,218.3846610193293
0.41310498046875,0.20374072265625,0.8562104492187499,0.9722460286923011,0.4306640625,3.9296875,-0.42822265625,43.49470588235295,218.3846610193293
0.41505810546875,0.21936572265625,0.8664643554687499,0.9854719836147972,0.41259765625,3.3583984375,-0.5537109375,43.353529411764704,218.3846610193293
0.40236279296875,0.20715869140625,0.8640229492187499,0.9753697746841604,0.34375,2.5498046875,-0.81640625,43.353529411764704,218.3846610193293
0.38478466796875,0.19690478515625,0.8884370117187499,0.9880035723179306,0.2353515625,1.8740234375,-1.06884765625,43.54176470588236,218.3846610193293
0.35597607421875,0.18323291015625,0.90259716796875,0.9874081792276834,0.24462890625,1.37646484375,-1.2158203125,43.68294117647059,218.47368777800085
0.35695263671875,0.14710009765625,0.91626904296875,0.994284960508714,0.13671875,1.4150390625,-1.14013671875,43.447647058823534,218.47368777800085
0.37990185546875,0.15540087890625,0.93140576171875,1.0178366990418053,0.076171875,1.81689453125,-0.8974609375,42.55352941176471,218.47368777800085
0.40871044921875,0.17883837890625,0.92603466796875,1.0278947433226813,-0.00537109375,2.4501953125,-1.0908203125,42.69470588235294,218.47368777800085
0.38820263671875,0.19543994140625,0.92456982421875,1.021629785053352,-0.04248046875,2.8515625,-1.35546875,43.447647058823534,218.2864795251816
0.36574169921875,0.16614306640625,0.91040966796875,0.9950961122390438,-0.07763671875,3.06201171875,-1.48828125,42.74176470588235,218.2864795251816
0.37355419921875,0.14905322265625,0.90503857421875,0.9903809488081254,-0.13330078125,2.923828125,-1.60693359375,43.447647058823534,218.2864795251816
0.35646435546875,0.13245166015625,0.8903901367187499,0.9681967127417508,-0.1376953125,2.70166015625,-1.7626953125,42.74176470588235,218.2864795251816
0.33400341796875,0.14465869140625,0.8982026367187499,0.9691503478938088,-0.18408203125,2.2880859375,-1.83203125,44.01235294117648,218.2864795251816
0.31544873046875,0.14417041015625,0.91236279296875,0.9760629460811968,-0.24658203125,1.9609375,-1.94580078125,43.49470588235295,218.5062269629961
0.29494091796875,0.15002978515625,0.93531201171875,0.9921227952182404,-0.3330078125,1.771484375,-2.0498046875,43.353529411764704,218.5062269629961
0.27833935546875,0.16663134765625,0.93921826171875,0.9936648056414634,-0.4619140625,1.69677734375,-2.013671875,43.54176470588236,218.5062269629961
0.25978466796875,0.16711962890625,0.93824169921875,0.9877826330880108,-0.46630859375,2.08740234375,-2.1708984375,43.353529411764704,218.5062269629961
0.23146435546875,0.18079150390625,0.93189404296875,0.9770812776109722,-0.33984375,2.83349609375,-2.2783203125,43.353529411764704,218.823032426272
0.25148388671875,0.17200244140625,0.91138623046875,0.9609650598314784,-0.10693359375,3.3310546875,-2.43310546875,43.447647058823534,218.823032426272
0.25294873046875,0.13342822265625,0.8806245117187499,0.925897230521209,-0.10302734375,3.373046875,-2.705078125,43.30647058823529,218.823032426272
0.20851513671875,0.10754931640625,0.8967377929687499,0.9269218343737272,0.1357421875,3.05322265625,-2.67431640625,43.91823529411765,218.823032426272
0.15138623046875,0.05627978515625,0.8816010742187499,0.8962732055888009,0.34814453125,2.71533203125,-2.36474609375,43.353529411764704,218.823032426272
0.12306591796875,0.0186821289062499,0.90992138671875,0.918395977840786,0.53515625,2.08349609375,-2.03173828125,43.30647058823529,218.41720060559865
0.14601513671875,-0.01549755859375,0.8967377929687499,0.9086799567569576,0.86474609375,0.634765625,-1.57421875,43.447647058823534,218.41720060559865
0.01320263671875,-0.10778271484375,0.92554638671875,0.9318945955436968,-0.2529296875,0.587890625,-1.36083984375,43.49470588235295,218.41720060559865
0.13771435546875,-0.01207958984375,1.08765576171875,1.096406045310295,-0.00244140625,-1.64794921875,-0.69287109375,43.447647058823534,218.41720060559865
0.15626904296875,-0.02770458984375,1.08960888671875,1.101106300093344,0.0751953125,-2.80859375,-0.53125,43.49470588235295,218.42804716164
0.11622998046875,0.00452197265625,1.11158154296875,1.1176508324451144,0.2275390625,-2.28466796875,-0.06103515625,44.01235294117648,218.42804716164
0.10255810546875,0.07483447265625,1.12622998046875,1.1333632834187457,0.5078125,-0.40234375,0.5439453125,43.353529411764704,218.42804716164
0.21242138671875,0.10022509765625,1.03589794921875,1.062192297529658,0.64453125,1.68701171875,0.490234375,43.353529411764704,218.42804716164
0.26222607421875,0.12512744140625,0.96216748046875,1.0050799227248717,0.609375,3.1064453125,0.24853515625,43.353529411764704,218.42804716164
0.27589794921875,0.11780322265625,0.90113232421875,0.9497561494421588,0.4853515625,3.10888671875,-0.04345703125,42.55352941176471,218.2859165029233
0.28175732421875,0.13147509765625,0.8615815429687499,0.9159670552148926,0.544921875,1.8779296875,-0.1435546875,43.49470588235295,218.2859165029233
0.29103466796875,0.12659228515625,0.8366791992187499,0.894851310009708,0.56298828125,-0.1904296875,0.07177734375,43.353529411764704,218.2859165029233
0.32667919921875,0.13245166015625,0.8718354492187499,0.94040405783621,0.302734375,-2.49560546875,0.2099609375,43.353529411764704,218.2859165029233
0.27785107421875,0.19983447265625,0.92164013671875,0.9831355845036182,0.2021484375,-4.11279296875,-0.0380859375,43.30647058823529,218.516509389662
0.23683544921875,0.25354541015625,0.99341748046875,1.052261657345181,0.0966796875,-4.16845703125,-0.37109375,44.01235294117648,218.516509389662
0.21828076171875,0.29309619140625,1.02417919921875,1.0874258137756925,0.1201171875,-2.94482421875,-0.89794921875,43.91823529411765,218.516509389662
0.18507763671875,0.30286181640625,1.02955029296875,1.0890146083512056,0.02392578125,-1.2294921875,-1.232421875,43.353529411764704,218.516509389662
0.16652294921875,0.31116259765625,1.03394482421875,1.0925172558479057,0.0390625,0.3134765625,-1.17333984375,43.447647058823534,218.516509389662
0.19972607421875,0.24768603515625,1.00171826171875,1.0510367988777038,0.10595703125,0.7900390625,-1.2119140625,44.01235294117648,218.26478665997604
0.22365185546875,0.20422900390625,0.97925732421875,1.025024168264934,0.15576171875,0.68310546875,-1.32470703125,43.49470588235295,218.26478665997604
0.21925732421875,0.11096728515625,0.92554638671875,0.9576135058397248,-0.1142578125,0.33984375,-1.49462890625,43.353529411764704,218.26478665997604
0.23878857421875,0.07385791015625,0.96607373046875,0.997884475664332,-0.220703125,-0.61669921875,-1.55615234375,42.60058823529412,218.26478665997604
0.23244091796875,0.0235649414062499,0.97437451171875,1.001992902118966,-0.29150390625,-1.40478515625,-1.48486328125,42.74176470588235,218.37437795373555
0.23976513671875,0.01428759765625,1.01783154296875,1.045787983338255,-0.26953125,-1.7216796875,-1.263671875,43.447647058823534,218.37437795373555
0.27736279296875,0.0035454101562499,1.04712841796875,1.0832454073636033,-0.07958984375,-1.74462890625,-1.01416015625,43.353529411764704,218.37437795373555
0.29298779296875,-0.03795849609375,1.04322216796875,1.0842486735042922,-0.07958984375,-0.98046875,-0.9609375,43.49470588235295,218.37437795373555
0.29494091796875,-0.01354443359375,1.06910107421875,1.1091215910211605,0.07177734375,-0.4814453125,-0.9345703125,42.55352941176471,218.37437795373555
0.27492138671875,0.00501025390625,1.08960888671875,1.1237679464800727,0.13623046875,-0.08447265625,-0.939453125,43.49470588235295,218.3738145178511
0.24513623046875,0.0001274414062499,1.09595654296875,1.123037190749155,0.1982421875,0.15283203125,-0.8330078125,43.91823529411765,218.3738145178511
0.22462841796875,-0.01452099609375,1.08179638671875,1.1049670618640366,0.27197265625,0.30908203125,-0.580078125,43.30647058823529,218.3738145178511
0.22804638671875,-0.01696240234375,1.06519482421875,1.0894644974165808,0.2568359375,0.36376953125,-0.40771484375,42.69470588235294,218.3738145178511
0.20997998046875,-0.01061474609375,1.05884716796875,1.0795191476522006,0.22412109375,0.29150390625,-0.1796875,43.54176470588236,218.44002032413127
0.20558544921875,-0.01696240234375,1.05103466796875,1.0710868187481009,0.20166015625,0.19873046875,0.1884765625,43.447647058823534,218.44002032413127
0.21486279296875,-0.02770458984375,1.04761669921875,1.069782366924568,0.25146484375,0.18994140625,0.431640625,43.447647058823534,218.44002032413127
0.19728466796875,-0.02379833984375,1.03687451171875,1.0557444549922368,0.24560546875,0.29443359375,0.58984375,42.69470588235294,218.44002032413127
0.16701123046875,-0.02477490234375,1.01978466796875,1.033666926970657,0.251953125,0.43408203125,0.8046875,43.447647058823534,218.44002032413127
0.13722607421875,-0.00914990234375,1.00464794921875,1.0140178588308149,0.2783203125,0.529296875,1.00146484375,43.353529411764704,218.21971228257968
0.15040966796875,0.00891650390625,0.97339794921875,0.9849904262497416,0.24462890625,0.50390625,1.40576171875,42.60058823529412,218.21971228257968
0.19386669921875,0.04700244140625,0.96949169921875,0.9898018394699922,0.23095703125,0.1640625,1.63134765625,43.30647058823529,218.21971228257968
0.21437451171875,0.07239306640625,0.94312451171875,0.9698871232999656,0.171875,0.08740234375,1.74267578125,43.54176470588236,218.21971228257968
0.23292919921875,0.10217822265625,0.94019482421875,0.9739931768352406,0.1015625,0.02001953125,1.8896484375,43.447647058823534,218.3081724449553
0.24806591796875,0.13635791015625,0.95533154296875,0.9963877439586012,0.11962890625,-0.08984375,2.11279296875,42.69470588235294,218.3081724449553
0.26857373046875,0.13684619140625,0.93677685546875,0.9840780486029632,0.09521484375,-0.0546875,2.1142578125,42.60058823529412,218.3081724449553
0.28615185546875,0.13684619140625,0.94751904296875,0.999200731224222,-0.04296875,-0.107421875,1.970703125,43.63588235294118,218.3081724449553
0.26955029296875,0.14514697265625,0.95923779296875,1.0069072189483852,-0.1357421875,-0.0517578125,2.06396484375,42.69470588235294,218.3081724449553
0.25783154296875,0.16321337890625,0.96656201171875,1.0135866189435605,-0.080078125,0.283203125,2.099609375,43.49470588235295,218.5239817208256
0.26124951171875,0.17493212890625,0.96265576171875,1.012698707744443,-0.05322265625,0.5224609375,2.15380859375,43.447647058823534,218.5239817208256
0.28419873046875,0.17542041015625,0.93335888671875,0.9913122868785096,-0.12744140625,0.7421875,2.24560546875,44.01235294117648,218.5239817208256
0.32716748046875,0.17151416015625,0.93140576171875,1.0019842116387156,-0.2216796875,0.63720703125,2.23291015625,43.30647058823529,218.5239817208256
0.35451123046875,0.17786181640625,0.93775341796875,1.0181819636861924,-0.240234375,0.375,2.02685546875,44.01235294117648,218.49481643729413
0.33497998046875,0.17297900390625,0.94263623046875,1.0152321833450595,-0.310546875,0.04638671875,1.9375,43.49470588235295,218.49481643729413
0.25197216796875,0.18518603515625,0.96753857421875,1.0168159782620527,-0.2431640625,-0.2880859375,2.34814453125,43.447647058823534,218.49481643729413
0.23488232421875,0.18665087890625,0.92749951171875,0.974814649595192,-0.41796875,-0.0830078125,2.96142578125,43.447647058823534,218.49481643729413
0.42335888671875,0.15686572265625,0.94800732421875,1.0500273752053328,-0.7724609375,-0.5078125,2.15478515625,43.447647058823534,218.49481643729413
0.36183544921875,0.12805712890625,0.93531201171875,1.0110054796292756,-0.9013671875,-0.32958984375,0.994140625,43.447647058823534,218.4839699815689
0.30177685546875,0.12512744140625,0.95728466796875,1.0114939854579073,-0.97314453125,-0.275390625,0.26025390625,43.87117647058824,218.4839699815689
0.25197216796875,0.14856494140625,1.01929638671875,1.0604370038921758,-0.62451171875,-1.07763671875,0.25732421875,43.447647058823534,218.4839699815689
0.18849560546875,0.17346728515625,0.99097607421875,1.0235502293363603,-0.2373046875,-1.84814453125,0.505859375,43.30647058823529,218.4839699815689
0.15089794921875,0.20618212890625,0.92408154296875,0.9587533360642057,-0.41064453125,-1.69580078125,0.845703125,43.30647058823529,218.2533770434104
0.20705029296875,0.26038134765625,0.8884370117187499,0.948677286445434,-0.57275390625,-1.17236328125,0.64013671875,42.69470588235294,218.2533770434104
0.30177685546875,0.27405322265625,0.8640229492187499,0.955358621734032,-0.6982421875,-1.2529296875,-0.1025390625,43.30647058823529,218.2533770434104
0.35402294921875,0.27698291015625,0.8498627929687499,0.961414867767714,-1.05029296875,-2.306640625,-1.068359375,43.353529411764704,218.2533770434104
0.34328076171875,0.25354541015625,0.8454682617187499,0.9470710311012742,-0.97509765625,-2.75146484375,-1.85009765625,42.69470588235294,218.2533770434104
0.35988232421875,0.17883837890625,0.8562104492187499,0.9458302101361948,-1.0791015625,-4.07421875,-2.24755859375,43.54176470588236,218.08842962336288
0.29445263671875,0.15100634765625,0.8825776367187499,0.9425754914802092,-1.08349609375,-4.677734375,-2.0302734375,43.353529411764704,218.08842962336288
0.29640576171875,0.09778369140625,0.93335888671875,0.984163013581576,-1.001953125,-4.4794921875,-1.59228515625,43.353529411764704,218.08842962336288
0.27589794921875,0.07190478515625,1.00806591796875,1.0476100760691724,-0.82958984375,-3.50927734375,-0.71826171875,43.353529411764704,218.08842962336288
0.35060498046875,0.03333056640625,1.05054638671875,1.1080083436663624,-0.765625,-1.81494140625,-0.01611328125,43.447647058823534,218.4617132615302
0.46486279296875,0.0294243164062499,1.10718701171875,1.2011770417392176,-0.82373046875,-0.63720703125,-0.00341796875,42.60058823529412,218.4617132615302
0.40333935546875,0.05237353515625,1.07935498046875,1.153443885378654,-0.60107421875,1.36181640625,-0.2607421875,43.447647058823534,218.4617132615302
0.36232373046875,0.10608447265625,1.04419873046875,1.110352822175049,-0.365234375,2.6083984375,-0.02685546875,43.447647058823534,218.4617132615302
0.31886669921875,0.14465869140625,0.99585888671875,1.055621632559099,-0.21044921875,2.751953125,0.1796875,43.353529411764704,218.4617132615302
0.31105419921875,0.15881884765625,0.93335888671875,0.9965625683515016,-0.15625,2.146484375,0.1083984375,43.49470588235295,218.45086678601035
0.32472607421875,0.13684619140625,0.8977143554687499,0.9643987595360076,-0.2626953125,1.0927734375,0.1279296875,43.447647058823534,218.45086678601035
0.36671826171875,0.11877978515625,0.8879487304687499,0.9680102627456236,-0.3388671875,-0.24658203125,0.41455078125,42.69470588235294,218.45086678601035
0.41408154296875,0.10022509765625,0.90650341796875,1.001627196723717,-0.29833984375,-1.298828125,0.8935546875,44.01235294117648,218.45086678601035
0.37697216796875,0.08801806640625,0.96119091796875,1.0362157961653369,-0.27099609375,-1.173828125,1.15087890625,42.55352941176471,218.49481643729413
0.34914013671875,0.07874072265625,1.01636669921875,1.077543597147342,-0.078125,-0.1328125,1.24169921875,43.447647058823534,218.49481643729413
0.35499951171875,0.10413134765625,1.02271435546875,1.0875719028032669,0.0732421875,1.10498046875,1.013671875,44.01235294117648,218.49481643729413
0.33156201171875,0.13293994140625,0.99878857421875,1.0607473835112695,0.21142578125,1.9091796875,0.87353515625,43.87117647058824,218.49481643729413
0.31935498046875,0.12561572265625,0.97925732421875,1.037647252376603,0.21826171875,1.87890625,0.55517578125,43.91823529411765,218.49481643729413
0.28664013671875,0.13538134765625,0.96558544921875,1.0162902818655413,0.201171875,1.24169921875,0.61865234375,44.01235294117648,218.1551961002707
0.29640576171875,0.13831103515625,0.94605419921875,1.0010019310098737,0.2041015625,0.70166015625,0.65869140625,44.01235294117648,218.1551961002707
0.32960888671875,0.13586962890625,0.93726513671875,1.0027803901011991,0.169921875,0.30615234375,0.51708984375,43.447647058823534,218.1551961002707
0.35792919921875,0.10901416015625,0.93872998046875,1.0105500358709645,0.0537109375,-0.01416015625,0.32275390625,43.49470588235295,218.1551961002707
0.30958935546875,0.11926806640625,0.94458935546875,1.001159073848262,0.0615234375,0.23583984375,0.25439453125,43.447647058823534,218.3629680300186
0.30372998046875,0.12463916015625,0.92701123046875,0.9834310564016108,0.06298828125,0.654296875,0.32666015625,43.30647058823529,218.3629680300186
0.31251904296875,0.14661181640625,0.91919873046875,0.9818805849101024,0.14453125,0.70458984375,0.361328125,43.25941176470588,218.3629680300186
0.32326123046875,0.14221728515625,0.90357373046875,0.9701386837533064,0.0390625,0.39404296875,0.31591796875,42.60058823529412,218.3629680300186
0.28859326171875,0.25842822265625,0.91040966796875,0.9894023350011384,0.046875,0.0732421875,0.2158203125,42.69470588235294,218.3629680300186
0.29054638671875,0.12463916015625,0.92359326171875,0.9762052223646706,-0.01513671875,-0.32470703125,0.216796875,43.447647058823534,218.5056629066552
0.27785107421875,0.12317431640625,0.91626904296875,0.9653611193587244,-0.0107421875,-0.70751953125,0.4521484375,43.447647058823534,218.5056629066552
0.30470654296875,0.12024462890625,0.94312451171875,0.998393055220988,0.00439453125,-1.0322265625,0.70947265625,43.447647058823534,218.5056629066552
0.28517529296875,0.12415087890625,0.95630810546875,1.005616020675007,-0.0029296875,-0.72900390625,0.80029296875,42.788823529411765,218.5056629066552
0.30421826171875,0.11438525390625,0.95142529296875,1.005406795866751,0.037109375,-0.328125,0.82861328125,43.30647058823529,218.46227711105064
0.31691357421875,0.10852587890625,0.94996044921875,1.0072918817286112,0.01904296875,-0.00341796875,0.806640625,42.60058823529412,218.46227711105064
0.30568310546875,0.09924853515625,0.93921826171875,0.9926849328189032,-0.04345703125,0.04248046875,0.77392578125,43.447647058823534,218.46227711105064
0.30519482421875,0.13147509765625,0.96363232421875,1.0193217540663322,-0.00244140625,-0.00244140625,1.04248046875,43.353529411764704,218.46227711105064
0.31349560546875,0.12317431640625,0.92652294921875,0.9858479509028638,-0.11181640625,-0.19677734375,1.244140625,42.69470588235294,218.46227711105064
0.35939404296875,0.12366259765625,0.95484326171875,1.0277072397478848,0.01708984375,-0.3837890625,1.1943359375,43.447647058823534,218.1997083917479
0.32130810546875,0.11389697265625,0.96607373046875,1.0244558905692245,-0.02978515625,-0.001953125,1.14208984375,43.353529411764704,218.1997083917479
0.32374951171875,0.12170947265625,0.97779248046875,1.0371620302217113,0.05517578125,0.2275390625,1.08935546875,43.447647058823534,218.1997083917479
0.31935498046875,0.11829150390625,0.93921826171875,0.9990552670361076,0.09716796875,0.1845703125,1.18994140625,43.63588235294118,218.1997083917479
0.33644482421875,0.11829150390625,0.94996044921875,1.0146984057935031,0.1357421875,-0.08544921875,1.38623046875,43.49470588235295,218.5062269629961
0.28908154296875,0.11877978515625,0.92603466796875,0.9773520256933788,0.1640625,0.04541015625,1.560546875,42.55352941176471,218.5062269629961
0.33888623046875,0.09631884765625,0.95289013671875,1.0159334674431315,0.0498046875,-0.27978515625,1.49365234375,44.01235294117648,218.5062269629961
0.31593701171875,0.11047900390625,0.97290966796875,1.028870753644477,0.111328125,-0.2158203125,1.41455078125,43.30647058823529,218.5062269629961
0.28908154296875,0.10315478515625,0.98023388671875,1.0271647973220133,0.23583984375,0.09619140625,1.38037109375,43.91823529411765,218.5062269629961
0.17970654296875,0.10168994140625,0.97046826171875,0.9921914798930688,0.2900390625,0.47021484375,1.58935546875,43.353529411764704,218.2761966184467
0.30617138671875,0.12366259765625,0.97339794921875,1.0278798196519094,0.31298828125,0.60009765625,1.6845703125,43.91823529411765,218.2761966184467
0.29933544921875,0.14319384765625,0.96167919921875,1.0173166033126602,0.28515625,0.39453125,1.677734375,43.447647058823534,218.2761966184467
0.30128857421875,0.16126025390625,0.99537060546875,1.052398364059875,0.23974609375,0.03564453125,1.53955078125,43.30647058823529,218.2761966184467
0.29005810546875,0.14172900390625,0.8562104492187499,0.9150503529575582,0.1005859375,-0.1533203125,1.4814453125,44.01235294117648,218.39663461303263
0.29201123046875,0.15393603515625,0.98560498046875,1.039415239047564,0.080078125,-0.1787109375,1.4091796875,43.91823529411765,218.39663461303263
0.31935498046875,0.16077197265625,0.99781201171875,1.0599358666788272,0.04052734375,0.0283203125,1.3828125,43.353529411764704,218.39663461303263
0.32228466796875,0.15198291015625,0.97388623046875,1.0370248801662962,0.13330078125,0.1689453125,1.2880859375,42.788823529411765,218.39663461303263
0.32130810546875,0.15686572265625,0.95923779296875,1.0237103579841045,0.103515625,0.2802734375,1.05419921875,43.54176470588236,218.39663461303263
0.29738232421875,0.16418994140625,0.94996044921875,1.008870377549377,0.0263671875,0.3388671875,0.8544921875,43.30647058823529,218.35324912020133
0.27882763671875,0.15295947265625,0.93042919921875,0.9832801971118332,-0.037109375,0.21533203125,0.8115234375,43.447647058823534,218.35324912020133
0.29054638671875,0.16223681640625,0.92847607421875,0.9863091847030616,-0.12255859375,-0.18212890625,0.90380859375,44.01235294117648,218.35324912020133
0.29884716796875,0.14710009765625,0.93775341796875,0.99515302413523,-0.009765625,-0.33837890625,0.94384765625,42.69470588235294,218.35324912020133
0.31398388671875,0.13586962890625,0.92603466796875,0.9872115494959162,0.01416015625,-0.572265625,0.953125,43.447647058823534,218.31901892530573
0.30470654296875,0.14172900390625,0.95142529296875,1.0090308597743165,0.04248046875,-0.72119140625,0.935546875,43.447647058823534,218.31901892530573
0.28078076171875,0.13001025390625,0.95630810546875,1.0051197415519002,0.04150390625,-0.65869140625,0.91650390625,44.01235294117648,218.31901892530573
0.31154248046875,0.12024462890625,0.96460888671875,1.0207780328035128,0.04736328125,-0.517578125,0.88134765625,43.30647058823529,218.31901892530573
0.30910107421875,0.12854541015625,0.96021435546875,1.0168967523813273,0.1259765625,-0.30078125,0.9697265625,43.49470588235295,218.31901892530573
0.34328076171875,0.12219775390625,0.94654248046875,1.0142566932280366,0.16943359375,0.0126953125,1.04443359375,43.353529411764704,218.23224746447843
0.36818310546875,0.15295947265625,0.93140576171875,1.0131495903324323,0.1474609375,0.1240234375,1.09375,43.353529411764704,218.23224746447843
0.37111279296875,0.16370166015625,0.90894482421875,0.995340962744442,0.015625,-0.14208984375,0.822265625,42.60058823529412,218.23224746447843
0.37843701171875,0.17590869140625,0.90113232421875,0.9930749746634252,0.0068359375,-0.41015625,0.498046875,43.353529411764704,218.23224746447843
0.36720654296875,0.17102587890625,0.8923432617187499,0.979983159645906,-0.09814453125,-0.5849609375,0.3193359375,43.49470588235295,218.485098786866
0.35939404296875,0.17835009765625,0.91773388671875,1.001602876537064,-0.0322265625,-0.75830078125,0.3046875,43.447647058823534,218.485098786866
0.33400341796875,0.17737353515625,0.92701123046875,1.0011840368303015,-0.0400390625,-0.8017578125,0.4423828125,43.353529411764704,218.485098786866
0.32765576171875,0.16418994140625,0.93482373046875,1.0040976257784855,0.07177734375,-0.98388671875,0.4970703125,43.49470588235295,218.485098786866
0.34181591796875,0.15247119140625,0.95581982421875,1.0264877604507627,0.0986328125,-1.11083984375,0.3896484375,43.30647058823529,218.485098786866
0.34083935546875,0.14856494140625,0.97193310546875,1.0406233562425569,0.0537109375,-1.05810546875,0.2197265625,42.69470588235294,218.29788938949008
0.33546826171875,0.14075244140625,0.97339794921875,1.0391601281446896,0.05712890625,-0.94384765625,0.06689453125,43.353529411764704,218.29788938949008
0.31691357421875,0.13733447265625,0.97925732421875,1.038383300106439,0.05810546875,-0.640625,-0.046875,44.01235294117648,218.29788938949008
0.30714794921875,0.12708056640625,0.97193310546875,1.027201681547273,0.091796875,-0.38818359375,0.01318359375,43.447647058823534,218.29788938949008
0.30470654296875,0.12952197265625,0.94751904296875,1.0037003315318516,0.13818359375,-0.26220703125,0.09326171875,43.353529411764704,218.4839699815689
0.30861279296875,0.12952197265625,0.92310498046875,0.9819066159014054,0.08984375,-0.27587890625,0.24951171875,43.68294117647059,218.4839699815689
0.33009716796875,0.12463916015625,0.90113232421875,0.967749206301576,0.08349609375,-0.5556640625,0.11083984375,42.88294117647059,218.4839699815689
0.36622998046875,0.09143603515625,0.90259716796875,0.9783489125789652,0.0009765625,-1.1875,0.07080078125,43.49470588235295,218.4839699815689
0.37453076171875,0.08167041015625,0.91529248046875,0.9923223630309628,-0.0224609375,-1.93017578125,0.24853515625,43.447647058823534,218.4839699815689
0.39259716796875,0.06848681640625,0.94996044921875,1.0301688382971188,-0.0537109375,-2.2548828125,0.24169921875,43.447647058823534,218.5507417100258
0.36085888671875,0.06360400390625,0.97876904296875,1.0451092980692327,-0.04248046875,-2.32177734375,0.2099609375,43.63588235294118,218.5507417100258
0.32619091796875,0.04944384765625,0.98951123046875,1.0430616876580836,-0.0283203125,-1.7529296875,0.15380859375,43.49470588235295,218.5507417100258
0.30861279296875,0.05725634765625,1.00708935546875,1.054869240820571,0.0107421875,-1.103515625,0.1044921875,43.353529411764704,218.5507417100258
0.32863232421875,0.07874072265625,1.00074169921875,1.0562590849223863,0.0595703125,-0.77685546875,0.03076171875,43.447647058823534,218.2328112400543
0.32521435546875,0.09436572265625,0.96851513671875,1.0260072303199084,0.052734375,-0.79296875,-0.03076171875,43.353529411764704,218.2328112400543
0.33546826171875,0.09583056640625,0.95484326171875,1.016586497317392,0.05712890625,-0.91455078125,-0.02880859375,43.30647058823529,218.2328112400543
0.34621044921875,0.09436572265625,0.92652294921875,0.9935850945891324,0.04736328125,-1.201171875,-0.07177734375,43.447647058823534,218.2328112400543
0.35744091796875,0.09778369140625,0.92701123046875,0.9983363569251402,0.03515625,-1.55419921875,-0.2021484375,43.447647058823534,218.2328112400543
0.35695263671875,0.10413134765625,0.92652294921875,0.9983502881525026,0.123046875,-1.79345703125,-0.27587890625,42.60058823529412,218.56215316730027
0.36964794921875,0.08704150390625,0.93628857421875,1.0103722699958015,-0.02880859375,-1.876953125,-0.36474609375,43.30647058823529,218.56215316730027
0.37794873046875,0.08997119140625,0.93921826171875,1.0164010041769882,-0.046875,-1.74267578125,-0.43310546875,43.353529411764704,218.56215316730027
0.38966748046875,0.09680712890625,0.93189404296875,1.0147112263410596,-0.05322265625,-1.5712890625,-0.5693359375,43.91823529411765,218.56215316730027
0.39894482421875,0.10120166015625,0.93677685546875,1.023205563770658,-0.09033203125,-1.28955078125,-0.75341796875,43.447647058823534,218.1340667422378
0.39747998046875,0.09827197265625,0.94361279296875,1.0286169445121316,-0.12109375,-1.06103515625,-0.82177734375,43.353529411764704,218.1340667422378
0.40089794921875,0.07825244140625,0.93628857421875,1.0215081519432028,-0.1103515625,-0.8984375,-0.98193359375,43.353529411764704,218.1340667422378
0.40285107421875,0.07336962890625,0.93238232421875,1.0183363339096765,-0.00146484375,-0.810546875,-1.01708984375,43.54176470588236,218.1340667422378
0.42238232421875,0.06213916015625,0.94605419921875,1.0379242028668507,-0.15234375,-0.72021484375,-1.02001953125,43.91823529411765,218.1340667422378
0.42335888671875,0.05188525390625,0.92945263671875,1.0226470703229398,-0.1630859375,-0.37939453125,-1.02734375,42.69470588235294,218.06729907993457
0.42775341796875,0.05188525390625,0.92066357421875,1.0165070009843058,-0.1884765625,0.0908203125,-1.0078125,43.63588235294118,218.06729907993457
0.43165966796875,0.05237353515625,0.92017529296875,1.0177404511592232,-0.21240234375,0.37841796875,-0.9990234375,43.25941176470588,218.06729907993457
0.43312451171875,0.05090869140625,0.91333935546875,1.0121152680205816,-0.2802734375,0.81005859375,-1.06298828125,43.353529411764704,218.06729907993457
0.42872998046875,0.06311572265625,0.90699169921875,1.0051999468020631,-0.3125,0.92626953125,-1.125,42.788823529411765,218.37494183933788
0.41701123046875,0.05676806640625,0.90259716796875,0.9958928794432528,-0.32177734375,0.9814453125,-0.94677734375,43.91823529411765,218.37494183933788
0.40138623046875,0.09436572265625,0.93628857421875,1.0230601594407478,-0.3330078125,1.07666015625,-0.83544921875,43.91823529411765,218.37494183933788
0.40724560546875,0.09045947265625,0.91724560546875,1.0076563899060975,-0.3251953125,0.984375,-0.93701171875,42.69470588235294,218.37494183933788
0.39699169921875,0.09045947265625,0.91968701171875,1.005788011941881,-0.3671875,0.9912109375,-1.13037109375,43.353529411764704,218.37494183933788
0.40040966796875,0.08704150390625,0.92749951171875,1.0139819869423845,-0.43505859375,0.8330078125,-1.02490234375,43.447647058823534,218.2430938493385
0.44337841796875,0.08460009765625,0.93482373046875,1.0380929655341224,-0.45068359375,0.2998046875,-0.921875,42.69470588235294,218.2430938493385
0.47023388671875,0.06360400390625,0.93140576171875,1.0453143405188765,-0.47509765625,-0.00341796875,-1.05078125,43.68294117647059,218.2430938493385
0.47169873046875,0.06702197265625,0.93726513671875,1.0514074251463998,-0.53369140625,-0.43994140625,-1.3095703125,43.447647058823534,218.2430938493385
0.45216748046875,0.07629931640625,0.96705029296875,1.070263185019677,-0.4658203125,-0.5087890625,-1.4140625,43.30647058823529,218.40748102034368
0.42091748046875,0.05823291015625,0.96656201171875,1.0558431321400084,-0.4375,-0.181640625,-1.43994140625,43.49470588235295,218.40748102034368
0.39503857421875,0.04797900390625,0.94263623046875,1.023191342285964,-0.32763671875,0.2314453125,-1.435546875,42.69470588235294,218.40748102034368
0.38576123046875,0.03821337890625,0.94117138671875,1.0178779732552874,-0.333984375,0.46044921875,-1.3427734375,43.353529411764704,218.40748102034368
0.38380810546875,0.03967822265625,0.92749951171875,1.0045587924134602,-0.20068359375,0.25390625,-1.189453125,42.60058823529412,218.40748102034368
0.37550732421875,0.03772509765625,0.90796826171875,0.983277833485362,-0.28173828125,-0.03955078125,-1.05810546875,42.69470588235294,218.10040109568092
0.41212841796875,0.05530322265625,0.91822216796875,1.007988208801483,-0.2626953125,-0.50830078125,-0.91357421875,43.49470588235295,218.10040109568092
0.41310498046875,0.06116259765625,0.91333935546875,1.0042835090193496,-0.3095703125,-1.02392578125,-0.8134765625,43.353529411764704,218.10040109568092
0.41212841796875,0.07434619140625,0.92847607421875,1.0185504452263034,-0.28076171875,-1.1015625,-0.7919921875,43.30647058823529,218.10040109568092
0.39796826171875,0.07288134765625,0.94849560546875,1.0311810421866594,-0.37451171875,-0.83447265625,-0.8095703125,43.30647058823529,218.639208314806
0.38624951171875,0.07336962890625,0.96558544921875,1.042557934837095,-0.16357421875,-0.39599609375,-0.779296875,43.49470588235295,218.639208314806
0.38673779296875,0.07385791015625,0.96265576171875,1.04006116501545,-0.166015625,-0.0673828125,-0.82470703125,43.30647058823529,218.639208314806
0.38478466796875,0.06116259765625,0.94996044921875,1.0267545759020364,-0.25,0.091796875,-0.82861328125,43.447647058823534,218.639208314806
0.38087841796875,0.06653369140625,0.93726513671875,1.0138841343442242,-0.10205078125,0.08203125,-0.7216796875,43.447647058823534,218.639208314806
0.40626904296875,0.05872119140625,0.91333935546875,1.0013448416219983,-0.08056640625,-0.20068359375,-0.4951171875,43.353529411764704,218.2990175610884
0.43751904296875,0.06409228515625,0.90552685546875,1.00772497237687,-0.08935546875,-0.58251953125,-0.42626953125,42.69470588235294,218.2990175610884
0.43019482421875,0.05676806640625,0.90992138671875,1.0080908342784785,-0.11865234375,-0.82666015625,-0.5263671875,44.01235294117648,218.2990175610884
0.41798779296875,0.05481494140625,0.92652294921875,1.0179210422725662,-0.109375,-0.8212890625,-0.64892578125,42.60058823529412,218.2990175610884
0.39601513671875,0.06897509765625,0.94361279296875,1.0256659571523978,-0.05224609375,-0.6669921875,-0.63037109375,43.447647058823534,218.33099232714773
0.39210888671875,0.06360400390625,0.94410107421875,1.024266413926436,-0.01171875,-0.5244140625,-0.43603515625,43.447647058823534,218.33099232714773
0.39943310546875,0.05823291015625,0.93677685546875,1.0200435061856894,0.0556640625,-0.4404296875,-0.11572265625,43.447647058823534,218.33099232714773
0.41798779296875,0.04846728515625,0.94019482421875,1.0300627069693524,0.1005859375,-0.4921875,0.07958984375,44.01235294117648,218.33099232714773
0.42433544921875,0.05823291015625,0.94507763671875,1.0376046379593924,0.11083984375,-0.47705078125,0.08740234375,42.88294117647059,218.33099232714773
0.42091748046875,0.05579150390625,0.94605419921875,1.0369680636990282,0.11962890625,-0.27880859375,0.05859375,43.353529411764704,218.36465986897656
0.42189404296875,0.06311572265625,0.95533154296875,1.0462487920805408,0.17236328125,-0.04541015625,0.00048828125,43.02411764705882,218.36465986897656
0.41896435546875,0.05237353515625,0.93970654296875,1.03020507921306,0.2177734375,0.109375,0.267578125,43.353529411764704,218.36465986897656
0.42384716796875,0.05383837890625,0.92603466796875,1.0198456741676043,0.2216796875,0.185546875,0.419921875,43.87117647058824,218.36465986897656
0.43556591796875,0.06409228515625,0.92603466796875,1.0253612515560078,0.20849609375,0.14599609375,0.47021484375,42.69470588235294,218.5838457975824
0.42580029296875,0.07043994140625,0.92310498046875,1.019014464962986,0.18505859375,0.1123046875,0.48779296875,43.353529411764704,218.5838457975824
0.42580029296875,0.07385791015625,0.92847607421875,1.0241233816203903,0.162109375,0.10498046875,0.5068359375,43.447647058823534,218.5838457975824
0.42677685546875,0.07825244140625,0.93775341796875,1.033268310683099,0.17431640625,0.1865234375,0.5322265625,42.60058823529412,218.5838457975824
0.43605419921875,0.07922900390625,0.92408154296875,1.0248644777587852,0.15869140625,0.2099609375,0.5703125,43.30647058823529,218.5838457975824
0.43996044921875,0.08752978515625,0.92017529296875,1.0236939141932946,0.1533203125,0.20068359375,0.54443359375,43.49470588235295,218.6066695495564
0.43898388671875,0.09241259765625,0.91626904296875,1.0201940502214004,0.13427734375,0.142578125,0.525390625,43.353529411764704,218.6066695495564
0.42824169921875,0.10071337890625,0.91333935546875,1.013766696971521,0.09228515625,0.0849609375,0.46484375,43.447647058823534,218.6066695495564
0.41945263671875,0.09876025390625,0.91773388671875,1.0138686251353486,0.099609375,0.06494140625,0.45361328125,43.30647058823529,218.6066695495564
0.41847607421875,0.10120166015625,0.92456982421875,1.0198987011305622,0.07861328125,-0.0078125,0.48193359375,43.353529411764704,218.2767606008381
0.41408154296875,0.09290087890625,0.92994091796875,1.022195777941533,0.0458984375,-0.072265625,0.458984375,43.447647058823534,218.2767606008381
0.40968701171875,0.10071337890625,0.93433544921875,1.025167968641508,0.04638671875,-0.01416015625,0.4736328125,43.447647058823534,218.2767606008381
0.42335888671875,0.10950244140625,0.93628857421875,1.03337303325094,0.0673828125,0.01220703125,0.40869140625,43.447647058823534,218.2767606008381
0.43458935546875,0.10754931640625,0.93287060546875,1.034737807318273,0.05712890625,0.10009765625,0.30322265625,44.01235294117648,218.2767606008381
0.42335888671875,0.10803759765625,0.92652294921875,1.024377686646914,0.0556640625,0.232421875,0.26904296875,43.447647058823534,218.24422172874463
0.41749951171875,0.10413134765625,0.91871044921875,1.0144841395279764,0.03076171875,0.3173828125,0.2666015625,42.60058823529412,218.24422172874463
0.41994091796875,0.10168994140625,0.92554638671875,1.0214339590672403,0.0458984375,0.32470703125,0.2421875,43.91823529411765,218.24422172874463
0.40871044921875,0.11536181640625,0.93677685546875,1.0285443388240785,0.03271484375,0.27685546875,0.20458984375,43.353529411764704,218.24422172874463
0.39894482421875,0.11829150390625,0.94214794921875,1.029947868042081,0.05859375,0.27783203125,0.13232421875,43.30647058823529,218.34240278109425
0.41164013671875,0.11340869140625,0.94214794921875,1.0343847889742992,0.0146484375,0.29296875,0.06103515625,42.60058823529412,218.34240278109425
0.40968701171875,0.11243212890625,0.92749951171875,1.0201665429820517,0.0244140625,0.365234375,-0.0126953125,44.01235294117648,218.34240278109425
0.40724560546875,0.11975634765625,0.92945263671875,1.02179879128966,0.0380859375,0.5341796875,-0.07275390625,42.74176470588235,218.34240278109425
0.40773388671875,0.11536181640625,0.92798779296875,1.020155191606816,0.0205078125,0.63134765625,-0.00439453125,42.74176470588235,218.34240278109425
0.40333935546875,0.11682666015625,0.91675732421875,1.0083526643500935,0.001953125,0.603515625,-0.15234375,42.69470588235294,218.32071014380728
0.39455029296875,0.11145556640625,0.93238232421875,1.0185426233006758,-0.00146484375,0.515625,-0.1953125,43.447647058823534,218.32071014380728
0.37648388671875,0.11194384765625,0.93287060546875,1.01218531333673,-0.00390625,0.53466796875,-0.18212890625,43.447647058823534,218.32071014380728
0.37550732421875,0.11487353515625,0.94214794921875,1.0207078121765876,-0.005859375,0.59521484375,-0.25,43.30647058823529,218.32071014380728
0.38234326171875,0.11536181640625,0.93531201171875,1.0170070195095295,0.0205078125,0.62060546875,-0.16162109375,43.447647058823534,218.3104285452643
0.39308544921875,0.10852587890625,0.92896435546875,1.014528861349617,0.017578125,0.50244140625,-0.18896484375,43.16529411764706,218.3104285452643
0.39699169921875,0.10413134765625,0.91724560546875,1.004880713102322,0.01708984375,0.31298828125,-0.19287109375,43.777058823529416,218.3104285452643
0.39015576171875,0.10950244140625,0.91431591796875,1.0000929461441597,-0.01123046875,0.248046875,-0.24267578125,44.01235294117648,218.3104285452643
0.37257763671875,0.11047900390625,0.91773388671875,0.9966218904474,-0.01513671875,0.06396484375,-0.3173828125,43.49470588235295,218.3104285452643
0.35158154296875,0.10852587890625,0.92749951171875,0.9978190176515882,-0.00830078125,0.00439453125,-0.15185546875,43.447647058823534,218.56215316730027
0.38234326171875,0.10120166015625,0.92505810546875,1.006061948536742,-0.0146484375,-0.1318359375,-0.10107421875,43.49470588235295,218.56215316730027
0.38087841796875,0.09485400390625,0.93091748046875,1.010283626895789,-0.0107421875,-0.2626953125,-0.142578125,44.01235294117648,218.56215316730027
0.38331982421875,0.08704150390625,0.93580029296875,1.0150036942601506,-0.03125,-0.22900390625,-0.28857421875,43.447647058823534,218.56215316730027
0.37941357421875,0.09241259765625,0.94947216796875,1.0266411964529287,-0.04638671875,-0.1357421875,-0.5048828125,43.63588235294118,218.5404605915813
0.37208935546875,0.09387744140625,0.94068310546875,1.0159469313760758,-0.0341796875,-0.13623046875,-0.49169921875,43.447647058823534,218.5404605915813
0.36281201171875,0.08948291015625,0.92945263671875,1.0017594276875434,-0.02587890625,-0.15283203125,-0.27099609375,43.447647058823534,218.5404605915813
0.36378857421875,0.08801806640625,0.92896435546875,1.0015308684596176,0.0224609375,-0.14501953125,-0.0810546875,43.447647058823534,218.5404605915813
0.37697216796875,0.08752978515625,0.93824169921875,1.014922147194279,0.01220703125,-0.1357421875,-0.076171875,43.353529411764704,218.5404605915813
0.37941357421875,0.08850634765625,0.94263623046875,1.0199760275953695,-0.00634765625,-0.14453125,-0.12939453125,43.353529411764704,218.2333754653333
0.37111279296875,0.08997119140625,0.95191357421875,1.0256505121970358,0.01171875,-0.09619140625,-0.14599609375,43.54176470588236,218.2333754653333
0.38429638671875,0.09338916015625,0.94458935546875,1.0240382309975762,0.01708984375,-0.06689453125,-0.14453125,43.777058823529416,218.2333754653333
0.39845654296875,0.08997119140625,0.93970654296875,1.0246515597099075,0.01806640625,-0.0615234375,-0.18408203125,43.447647058823534,218.2333754653333
0.39699169921875,0.09680712890625,0.93482373046875,1.0202300899812609,0.0068359375,-0.0205078125,-0.27001953125,44.01235294117648,218.3212747827272
0.37794873046875,0.10120166015625,0.93628857421875,1.0147528334988285,-0.0029296875,0.04833984375,-0.34033203125,43.353529411764704,218.3212747827272
0.36574169921875,0.10266650390625,0.93384716796875,1.0081557095483835,-0.037109375,0.13330078125,-0.43212890625,42.93,218.3212747827272
0.35890576171875,0.09876025390625,0.92652294921875,0.9985047365814312,-0.00634765625,0.123046875,-0.4462890625,43.353529411764704,218.3212747827272
0.36769482421875,0.09192431640625,0.92456982421875,0.999239172350596,-0.01416015625,-0.01171875,-0.42041015625,42.69470588235294,218.3212747827272
0.37990185546875,0.08899462890625,0.92261669921875,1.0017320187755114,-0.02392578125,-0.216796875,-0.4091796875,43.447647058823534,218.0798353328193
0.38527294921875,0.08508837890625,0.92554638671875,1.0061368652388902,-0.02392578125,-0.3701171875,-0.3837890625,43.447647058823534,218.0798353328193
0.39015576171875,0.08704150390625,0.92994091796875,1.0122192710658895,-0.02294921875,-0.49755859375,-0.36865234375,42.788823529411765,218.0798353328193
0.39015576171875,0.08313525390625,0.93872998046875,1.0199740021565522,-0.041015625,-0.205078125,-0.3701171875,42.60058823529412,218.0798353328193
0.38869091796875,0.07971728515625,0.94068310546875,1.0209408308900196,-0.01953125,-0.06494140625,-0.3798828125,43.447647058823534,218.5079218303161
0.39455029296875,0.07190478515625,0.94019482421875,1.022157785910678,-0.005859375,-0.03125,-0.310546875,43.353529411764704,218.5079218303161
0.38869091796875,0.07483447265625,0.94556591796875,1.0250735257693535,-0.01416015625,-0.07421875,-0.2685546875,43.353529411764704,218.5079218303161
0.39503857421875,0.06995166015625,0.93091748046875,1.0136844012421635,-0.015625,-0.17431640625,-0.18505859375,43.447647058823534,218.5079218303161
0.39601513671875,0.07190478515625,0.92798779296875,1.011513534530185,-0.02685546875,-0.2783203125,-0.109375,43.353529411764704,218.5079218303161
0.39064404296875,0.07581103515625,0.92261669921875,1.0047744299273016,-0.02099609375,-0.29736328125,-0.06201171875,43.353529411764704,218.1671694417992
0.38624951171875,0.07483447265625,0.92456982421875,1.004797613182178,-0.00390625,-0.25927734375,0.01806640625,43.91823529411765,218.1671694417992
0.38624951171875,0.07141650390625,0.92701123046875,1.006796316912388,-0.0048828125,-0.2705078125,0.05322265625,43.49470588235295,218.1671694417992
0.38966748046875,0.07971728515625,0.93921826171875,1.0199639866355756,0.0185546875,-0.31103515625,0.09521484375,43.447647058823534,218.1671694417992
0.39113232421875,0.08460009765625,0.93824169921875,1.0200191947826744,0.00927734375,-0.3154296875,0.11572265625,42.69470588235294,218.35437848340788
0.39503857421875,0.08557666015625,0.93677685546875,1.020259632067348,0.01025390625,-0.28125,0.13037109375,44.01235294117648,218.35437848340788
0.39162060546875,0.08704150390625,0.93921826171875,1.0213098771557838,-0.01025390625,-0.2021484375,0.16845703125,42.69470588235294,218.35437848340788
0.38331982421875,0.09534228515625,0.94410107421875,1.0234017184463329,0.01025390625,-0.07177734375,0.18310546875,42.55352941176471,218.35437848340788
0.37990185546875,0.09436572265625,0.94068310546875,1.0188792932999309,0.0244140625,0.04443359375,0.20458984375,43.447647058823534,218.35437848340788
0.38039013671875,0.09094775390625,0.93091748046875,1.0097403158712572,-0.00390625,0.05615234375,0.21826171875,43.91823529411765,218.365224714712
0.39455029296875,0.09094775390625,0.93580029296875,1.019638963527148,0.0400390625,0.02734375,0.1962890625,42.69470588235294,218.365224714712
0.40187451171875,0.08655322265625,0.92798779296875,1.014965973528363,0.02099609375,-0.09228515625,0.2490234375,43.49470588235295,218.365224714712
0.40675732421875,0.09778369140625,0.92261669921875,1.0130324500172396,0.00537109375,-0.17041015625,0.2236328125,42.60058823529412,218.365224714712
0.41408154296875,0.10217822265625,0.92359326171875,1.0173143204068495,-0.00732421875,-0.16015625,0.2177734375,43.447647058823534,218.33212103382587
0.41115185546875,0.10559619140625,0.93970654296875,1.031137619715807,-0.00146484375,-0.11962890625,0.22412109375,43.777058823529416,218.33212103382587
0.41261669921875,0.09827197265625,0.93140576171875,1.023438622510804,0.0107421875,-0.03125,0.23779296875,43.63588235294118,218.33212103382587
0.40236279296875,0.09778369140625,0.92798779296875,1.016178533216313,-0.01220703125,-0.0419921875,0.17041015625,43.353529411764704,218.33212103382587
0.39650341796875,0.10022509765625,0.94019482421875,1.0252932937207928,-0.0341796875,-0.080078125,0.09716796875,43.91823529411765,218.33212103382587
0.38820263671875,0.10120166015625,0.92847607421875,1.0114400049288303,-0.0068359375,-0.10595703125,0.04931640625,43.353529411764704,218.1351949366856
0.37697216796875,0.10461962890625,0.91382763671875,0.994049411149424,-0.02978515625,-0.10888671875,0.2470703125,43.91823529411765,218.1351949366856
0.54591748046875,0.09631884765625,0.90943310546875,1.0650689128961142,0.0107421875,-0.33935546875,0.28271484375,43.30647058823529,218.1351949366856
0.39406201171875,0.10559619140625,0.92359326171875,1.0096830878110283,-0.0419921875,-0.2490234375,0.2919921875,43.447647058823534,218.1351949366856
0.40040966796875,0.09192431640625,0.93384716796875,1.0202198367375803,0.02294921875,-0.138671875,0.07763671875,43.30647058823529,218.17857982399005
0.40236279296875,0.09534228515625,0.93970654296875,1.0266617531605566,-0.017578125,-0.0361328125,-0.11572265625,43.447647058823534,218.17857982399005
0.40382763671875,0.08606494140625,0.92164013671875,1.009903201266373,-0.05517578125,-0.173828125,-0.00048828125,43.87117647058824,218.17857982399005
0.41164013671875,0.08460009765625,0.91382763671875,1.0058258936377875,-0.0341796875,-0.251953125,0.21728515625,43.353529411764704,218.17857982399005
0.42677685546875,0.07483447265625,0.91333935546875,1.0109042788066558,0.03369140625,-0.57373046875,0.45263671875,43.30647058823529,218.17857982399005
0.43312451171875,0.06604541015625,0.90943310546875,1.0094688762794262,-0.01123046875,-0.77734375,0.48095703125,43.353529411764704,218.2881712901901
0.42531201171875,0.05823291015625,0.91382763671875,1.0096347501787424,-0.04833984375,-0.9736328125,0.490234375,43.447647058823534,218.2881712901901
0.40773388671875,0.03626025390625,0.90503857421875,0.9933058689125076,-0.03515625,-1.05078125,0.55615234375,42.60058823529412,218.2881712901901
0.41115185546875,0.03723681640625,0.92310498046875,1.0112147317546751,-0.025390625,-1.11376953125,0.73291015625,43.30647058823529,218.2881712901901
0.41164013671875,0.03186572265625,0.92701123046875,1.014796949075736,-0.06005859375,-1.08447265625,0.9423828125,43.447647058823534,218.26647878931595
0.41066357421875,0.0191704101562499,0.92945263671875,1.0163140654931004,-0.03662109375,-1.0712890625,1.07080078125,43.68294117647059,218.26647878931595
0.40871044921875,0.0181938476562499,0.94117138671875,1.0262450129336689,0.05615234375,-0.95458984375,1.23876953125,43.353529411764704,218.26647878931595
0.40382763671875,0.04260791015625,0.97095654296875,1.05244895482848,0.1787109375,-0.70458984375,1.46826171875,43.353529411764704,218.26647878931595
0.40382763671875,0.04749072265625,0.94312451171875,1.0270423426134845,0.22216796875,-0.43896484375,1.43701171875,43.353529411764704,218.26647878931595
0.41505810546875,0.07092822265625,0.95972607421875,1.0480353912057627,0.33251953125,-0.10546875,1.3984375,43.49470588235295,218.33212103382587
0.42042919921875,0.06506884765625,0.93824169921875,1.0301903477726428,0.31640625,0.1962890625,1.42529296875,42.60058823529412,218.33212103382587
0.42287060546875,0.06897509765625,0.92066357421875,1.0154794581671458,0.38525390625,0.3173828125,1.4580078125,43.447647058823534,218.33212103382587
0.42531201171875,0.07483447265625,0.90650341796875,1.004111025932399,0.28271484375,0.30322265625,1.48388671875,43.447647058823534,218.33212103382587
0.41310498046875,0.09290087890625,0.91382763671875,1.0071580053897282,0.4052734375,0.12060546875,1.43603515625,43.447647058823534,218.3109936946092
0.39894482421875,0.08997119140625,0.8840424804687499,0.9740548728523098,0.25390625,-0.076171875,1.5517578125,43.54176470588236,218.3109936946092
0.41749951171875,0.09338916015625,0.8942963867187499,0.9913593721846262,0.3671875,-0.44921875,1.74853515625,42.74176470588235,218.3109936946092
0.42677685546875,0.10754931640625,0.8982026367187499,1.00023663021895,0.2822265625,-0.74658203125,1.61279296875,42.788823529411765,218.3109936946092
0.42775341796875,0.10950244140625,0.8889252929687499,0.9925482092762322,0.15966796875,-1.08203125,1.45068359375,43.16529411764706,218.3109936946092
0.54738232421875,0.11731494140625,0.8977143554687499,1.0579609011484998,0.115234375,-1.38330078125,1.234375,43.30647058823529,218.38748239224216
0.42677685546875,0.13586962890625,0.92896435546875,1.0312971512393438,0.0927734375,-1.58544921875,0.93701171875,43.447647058823534,218.38748239224216
0.41261669921875,0.12903369140625,0.91773388671875,1.0144642531030863,0.00146484375,-1.61962890625,0.765625,43.353529411764704,218.38748239224216
0.40919873046875,0.11292041015625,0.92408154296875,1.016917557180816,-0.01953125,-1.57421875,0.625,43.447647058823534,218.38748239224216
0.42140576171875,0.10168994140625,0.93042919921875,1.0264609855965352,-0.1220703125,-1.40625,0.53515625,43.447647058823534,218.431998531468
0.43458935546875,0.10999072265625,0.94654248046875,1.0473340127624622,0.0625,-1.15966796875,0.587890625,43.353529411764704,218.431998531468
0.43947216796875,0.08997119140625,0.90699169921875,1.0118619195097367,0.01953125,-0.78076171875,0.51513671875,43.353529411764704,218.431998531468
0.46290966796875,0.08752978515625,0.92505810546875,1.0381133476079911,0.0615234375,-0.57958984375,0.3466796875,43.353529411764704,218.431998531468
0.46095654296875,0.09045947265625,0.92652294921875,1.03880153356065,-0.033203125,-0.26904296875,0.22412109375,43.353529411764704,218.431998531468
0.45412060546875,0.07581103515625,0.93091748046875,1.03854715482979,-0.0625,-0.14453125,0.10205078125,43.447647058823534,218.2019669209428
0.45265576171875,0.08167041015625,0.93531201171875,1.0422935545121856,-0.076171875,-0.06689453125,0.0625,42.69470588235294,218.2019669209428
0.46632763671875,0.08069384765625,0.93726513671875,1.049970903561466,-0.16064453125,-0.06396484375,0.00927734375,44.01235294117648,218.2019669209428
0.45607373046875,0.07532275390625,0.92749951171875,1.0363069569959584,-0.12109375,-0.10986328125,0.107421875,42.69470588235294,218.2019669209428
0.46925732421875,0.07532275390625,0.93335888671875,1.0473942739034936,-0.10986328125,-0.24951171875,0.15771484375,43.447647058823534,218.3109936946092
0.47169873046875,0.07483447265625,0.92212841796875,1.0384703702316782,-0.03271484375,-0.037109375,0.1982421875,43.447647058823534,218.3109936946092
0.45363232421875,0.05823291015625,0.90455029296875,1.0135998174384315,-0.09375,0.22802734375,0.2587890625,43.353529411764704,218.3109936946092
0.46925732421875,0.06409228515625,0.91089794921875,1.0266670985477306,0.041015625,0.36962890625,0.24169921875,43.30647058823529,218.3109936946092
0.45460888671875,0.06995166015625,0.91138623046875,1.020875768999497,0.02294921875,0.5,0.2119140625,43.49470588235295,218.3109936946092
0.47316357421875,0.08948291015625,0.92798779296875,1.045491417026704,-0.03173828125,0.455078125,0.08154296875,43.87117647058824,218.45369083436145
0.44289013671875,0.09338916015625,0.90406201171875,1.0110397269496365,-0.0439453125,0.375,0.0400390625,42.55352941176471,218.45369083436145
0.45656201171875,0.10217822265625,0.8938081054687499,1.0088519163541785,-0.02294921875,0.02001953125,0.11083984375,42.69470588235294,218.45369083436145
0.47755810546875,0.09729541015625,0.8767182617187499,1.003076792358153,-0.0732421875,-0.32275390625,0.12060546875,43.91823529411765,218.45369083436145
0.44484326171875,0.08069384765625,0.8376557617187499,0.9518740461252032,-0.18701171875,-0.44287109375,0.1650390625,44.01235294117648,218.33212103382587
0.46730419921875,0.07678759765625,0.8869721679687499,1.0054795753830506,-0.11181640625,-0.59375,-0.0927734375,44.01235294117648,218.33212103382587
0.46339794921875,0.08997119140625,0.90894482421875,1.0242134387408015,-0.18896484375,-0.4794921875,-0.29443359375,43.447647058823534,218.33212103382587
0.44630810546875,0.07971728515625,0.90406201171875,1.011372281404202,-0.23876953125,-0.3798828125,-0.25341796875,44.01235294117648,218.33212103382587
0.45021435546875,0.08118212890625,0.90796826171875,1.0167053989295332,-0.177734375,-0.29931640625,-0.1279296875,42.69470588235294,218.33212103382587
0.45607373046875,0.07483447265625,0.8942963867187499,1.006662541877681,-0.15869140625,-0.22998046875,0.05078125,43.49470588235295,218.24478634300485
0.45705029296875,0.07825244140625,0.91968701171875,1.0299721425422257,-0.0908203125,-0.28662109375,0.06201171875,43.54176470588236,218.24478634300485
0.46388623046875,0.07727587890625,0.91968701171875,1.0329502387837488,-0.11376953125,-0.34765625,0.05029296875,43.353529411764704,218.24478634300485
0.46632763671875,0.07092822265625,0.92115185546875,1.0348975883489098,-0.15625,-0.49560546875,0.00830078125,43.353529411764704,218.24478634300485
0.48488232421875,0.07434619140625,0.92115185546875,1.0436277906178584,-0.15771484375,-0.56298828125,-0.09521484375,43.447647058823534,218.3115592936572
0.46925732421875,0.07483447265625,0.92212841796875,1.0373637037491863,-0.10205078125,-0.32568359375,-0.09423828125,43.49470588235295,218.3115592936572
0.46779248046875,0.06848681640625,0.92212841796875,1.0362630303306777,-0.0224609375,-0.033203125,0.0166015625,43.353529411764704,218.3115592936572
0.46046826171875,0.06751025390625,0.91724560546875,1.0285563451675883,0.0087890625,0.26416015625,0.0654296875,43.353529411764704,218.3115592936572
0.46730419921875,0.07141650390625,0.91626904296875,1.0310298204904345,0.01123046875,0.416015625,0.05615234375,43.54176470588236,218.3115592936572
0.45558544921875,0.07288134765625,0.90503857421875,1.015856590863075,0.01513671875,0.45947265625,0.00634765625,43.447647058823534,218.2670437318404
0.45216748046875,0.08167041015625,0.91138623046875,1.0206617203444954,0.06201171875,0.4150390625,-0.00927734375,43.49470588235295,218.2670437318404
0.44826123046875,0.07678759765625,0.90113232421875,1.0093928529799794,0.033203125,0.32373046875,-0.0625,43.447647058823534,218.2670437318404
0.44386669921875,0.08118212890625,0.90601513671875,1.0121618510359864,0.01806640625,0.23095703125,-0.05859375,43.447647058823534,218.2670437318404
0.44826123046875,0.07727587890625,0.90601513671875,1.013791457926918,0.01025390625,0.08056640625,-0.013671875,43.447647058823534,218.4753831918229
0.45509716796875,0.08020556640625,0.90699169921875,1.0179294217318997,0.02001953125,-0.0546875,0.0341796875,43.91823529411765,218.4753831918229
0.44777294921875,0.07971728515625,0.90259716796875,1.0107111888318778,0.02490234375,-0.119140625,0.1123046875,43.353529411764704,218.4753831918229
0.45851513671875,0.07434619140625,0.90357373046875,1.0159768566114298,0.056640625,-0.2421875,0.1708984375,42.55352941176471,218.4753831918229
0.46437451171875,0.07825244140625,0.8996674804687499,1.015464773949867,0.02294921875,-0.38525390625,0.1298828125,43.353529411764704,218.4753831918229
0.46632763671875,0.06702197265625,0.90699169921875,1.0220505623686849,-0.00830078125,-0.4736328125,0.08447265625,42.55352941176471,218.2778899147352
0.45656201171875,0.06799853515625,0.91236279296875,1.022486448478319,-0.0185546875,-0.4267578125,0.10400390625,43.447647058823534,218.2778899147352
0.45412060546875,0.06946337890625,0.92359326171875,1.0315402068812716,0.005859375,-0.2763671875,0.14306640625,43.447647058823534,218.2778899147352
0.45949169921875,0.06409228515625,0.92261669921875,1.0326964783249653,0.05419921875,-0.11279296875,0.24951171875,44.01235294117648,218.2778899147352
0.45119091796875,0.06653369140625,0.92310498046875,1.0296226403473443,0.07275390625,0.08203125,0.06298828125,43.447647058823534,218.33268606172692
0.46437451171875,0.06946337890625,0.92456982421875,1.0369658663615648,0.07177734375,0.22314453125,0.0,43.63588235294118,218.33268606172692
0.44777294921875,0.06799853515625,0.90992138671875,1.0164060924864755,0.06787109375,0.37939453125,-0.00146484375,42.69470588235294,218.33268606172692
0.43996044921875,0.07239306640625,0.91236279296875,1.0154860013482223,0.08447265625,0.423828125,0.060546875,43.25941176470588,218.33268606172692
0.43703076171875,0.07141650390625,0.90943310546875,1.0115160784887192,0.1025390625,0.38037109375,0.0771484375,43.30647058823529,218.33268606172692
0.43703076171875,0.07483447265625,0.91822216796875,1.0196705520585758,0.08935546875,0.35595703125,0.03515625,43.777058823529416,218.3109936946092
0.43947216796875,0.06848681640625,0.90747998046875,1.0106167153734291,0.06494140625,0.28662109375,0.04443359375,43.63588235294118,218.3109936946092
0.44679638671875,0.06848681640625,0.91040966796875,1.0164463678607758,0.06787109375,0.23828125,0.03662109375,43.91823529411765,218.3109936946092
0.44435498046875,0.07043994140625,0.91187451171875,1.0168226291418812,0.0830078125,0.19580078125,0.08447265625,43.49470588235295,218.3109936946092
0.45509716796875,0.07483447265625,0.91236279296875,1.022310861032325,0.0400390625,0.18017578125,0.02978515625,43.87117647058824,218.33268606172692
0.44240185546875,0.06555712890625,0.91773388671875,1.020907745932279,0.03466796875,0.287109375,-0.0615234375,43.49470588235295,218.33268606172692
0.43947216796875,0.06458056640625,0.92261669921875,1.0239765669456535,0.02294921875,0.48193359375,-0.08056640625,43.447647058823534,218.33268606172692
0.44289013671875,0.06897509765625,0.93189404296875,1.034086913474919,0.03759765625,0.55322265625,-0.060546875,43.777058823529416,218.33268606172692
0.42726513671875,0.06555712890625,0.92505810546875,1.0210708754533917,0.083984375,0.77294921875,-0.06640625,43.91823529411765,218.33268606172692
0.42970654296875,0.06067431640625,0.92798779296875,1.0244464015459918,0.07275390625,0.99560546875,-0.115234375,43.30647058823529,218.2778899147352
0.42580029296875,0.07141650390625,0.92310498046875,1.0190824360613209,0.0517578125,1.10498046875,-0.26318359375,43.30647058823529,218.2778899147352
0.42384716796875,0.07483447265625,0.92408154296875,1.019398508017534,0.0419921875,1.05029296875,-0.177734375,43.30647058823529,218.2778899147352
0.43947216796875,0.06360400390625,0.91968701171875,1.0212763853415114,0.0478515625,0.99462890625,-0.25,42.88294117647059,218.2778899147352
0.43947216796875,0.06946337890625,0.92017529296875,1.0220976065026035,0.05322265625,0.9267578125,-0.08935546875,43.353529411764704,218.3440976826368
0.44191357421875,0.06067431640625,0.91480419921875,1.0177601400420506,0.02001953125,1.013671875,-0.21240234375,43.87117647058824,218.3440976826368
0.42872998046875,0.06409228515625,0.92066357421875,1.0176141872352844,-0.03955078125,1.08935546875,-0.45361328125,43.30647058823529,218.3440976826368
0.41701123046875,0.07385791015625,0.91822216796875,1.0111801555504047,-0.0419921875,1.009765625,-0.44384765625,43.63588235294118,218.3440976826368
0.40675732421875,0.08167041015625,0.91382763671875,1.0035948018656051,-0.0556640625,0.8388671875,-0.27197265625,42.69470588235294,218.3440976826368
0.40822216796875,0.08118212890625,0.90308544921875,0.9943838318604584,0.001953125,0.6455078125,-0.01708984375,43.447647058823534,218.24535140697805
0.42091748046875,0.06995166015625,0.90455029296875,1.0001379867961355,0.05712890625,0.53271484375,0.04345703125,43.30647058823529,218.24535140697805
0.42482373046875,0.06702197265625,0.91040966796875,1.0068827689056403,0.03369140625,0.3203125,-0.0009765625,42.69470588235294,218.24535140697805
0.41847607421875,0.07434619140625,0.92554638671875,1.0184722356737494,0.04052734375,0.18701171875,-0.0615234375,43.30647058823529,218.24535140697805
0.40822216796875,0.07336962890625,0.93726513671875,1.0249362796658943,0.0458984375,0.244140625,-0.119140625,43.30647058823529,218.17914435288347
0.40675732421875,0.06946337890625,0.93042919921875,1.0178286577678557,0.05224609375,0.369140625,-0.0888671875,43.353529411764704,218.17914435288347
0.40187451171875,0.06799853515625,0.94263623046875,1.0269810061266536,0.10986328125,0.51416015625,-0.0341796875,43.49470588235295,218.17914435288347
0.40187451171875,0.07288134765625,0.92945263671875,1.0152324945099085,0.10595703125,0.744140625,-0.00537109375,42.97705882352941,218.17914435288347
0.39162060546875,0.06409228515625,0.90747998046875,0.990451631628634,0.09375,0.86083984375,0.0146484375,43.447647058823534,218.17914435288347
0.39845654296875,0.06799853515625,0.93042919921875,1.0144406893342002,0.12451171875,0.80029296875,0.0361328125,42.69470588235294,218.15745200339097
0.38234326171875,0.06897509765625,0.91285107421875,0.992089218558869,0.09228515625,0.63330078125,-0.0078125,43.16529411764706,218.15745200339097
0.39503857421875,0.07483447265625,0.91724560546875,1.0014964673778213,0.052734375,0.51708984375,-0.1083984375,43.54176470588236,218.15745200339097
0.39406201171875,0.06213916015625,0.90845654296875,0.9921892131884344,0.01513671875,0.35009765625,-0.13671875,43.49470588235295,218.15745200339097
0.39845654296875,0.06653369140625,0.91040966796875,0.9960121044734942,-0.0185546875,0.1064453125,-0.068359375,43.54176470588236,218.33381746665825
0.41701123046875,0.06897509765625,0.90894482421875,1.0024153948876704,-0.02685546875,-0.19189453125,-0.01220703125,43.30647058823529,218.33381746665825
0.41847607421875,0.06848681640625,0.92066357421875,1.0136242329424865,-0.048828125,-0.38720703125,-0.10400390625,43.30647058823529,218.33381746665825
0.40040966796875,0.07092822265625,0.93531201171875,1.019885912363434,-0.02587890625,-0.4560546875,-0.15625,42.60058823529412,218.33381746665825
0.38722607421875,0.06799853515625,0.94019482421875,1.0190849527031525,-0.03369140625,-0.3095703125,-0.14453125,43.30647058823529,218.33381746665825
0.39259716796875,0.06116259765625,0.94263623046875,1.0229547705746709,-0.01220703125,-0.12646484375,-0.107421875,43.447647058823534,218.19112083353835
0.39699169921875,0.05774462890625,0.93726513671875,1.019511053360643,0.013671875,0.0634765625,-0.05029296875,43.447647058823534,218.19112083353835
0.41017529296875,0.06018603515625,0.92554638671875,1.0141509965276192,0.01953125,0.1484375,0.02294921875,43.30647058823529,218.19112083353835
0.41212841796875,0.07336962890625,0.93335888671875,1.0229329141053825,0.037109375,0.1650390625,-0.0166015625,44.01235294117648,218.19112083353835
0.41310498046875,0.08606494140625,0.92652294921875,1.0180902093902866,0.041015625,0.17919921875,-0.12939453125,43.447647058823534,218.31212534242312
0.40382763671875,0.09241259765625,0.92847607421875,1.016702841925844,0.01318359375,0.0927734375,-0.15087890625,43.63588235294118,218.31212534242312
0.40724560546875,0.09192431640625,0.92505810546875,1.0149047056811775,0.00634765625,-0.00341796875,-0.12451171875,43.63588235294118,218.31212534242312
0.42140576171875,0.08801806640625,0.91968701171875,1.0154576286324402,0.0224609375,-0.01416015625,-0.115234375,43.447647058823534,218.31212534242312
0.44044873046875,0.08167041015625,0.92505810546875,1.0278120638327108,0.02490234375,-0.27490234375,-0.12158203125,43.353529411764704,218.31212534242312
0.43312451171875,0.07629931640625,0.91968701171875,1.019432502846476,0.02685546875,-0.4619140625,-0.2236328125,43.54176470588236,218.45425699316857
0.42140576171875,0.06799853515625,0.93091748046875,1.0241161907886434,-0.0126953125,-0.43603515625,-0.294921875,43.25941176470588,218.45425699316857
0.40919873046875,0.07629931640625,0.93580029296875,1.02420084701278,0.00390625,-0.22802734375,-0.26123046875,43.63588235294118,218.45425699316857
0.40431591796875,0.06751025390625,0.94068310546875,1.0261158320675745,0.03466796875,0.0771484375,-0.17529296875,43.54176470588236,218.45425699316857
0.39747998046875,0.07288134765625,0.94507763671875,1.0278490964803766,0.0615234375,0.29736328125,-0.04248046875,43.49470588235295,218.28930138205948
0.38966748046875,0.06653369140625,0.92749951171875,1.0082275644245824,0.0546875,0.5439453125,-0.0361328125,43.91823529411765,218.28930138205948
0.40040966796875,0.06995166015625,0.93287060546875,1.0175798266028528,0.05908203125,0.4599609375,0.0361328125,43.25941176470588,218.28930138205948
0.40431591796875,0.05969775390625,0.92115185546875,1.0077479467495256,0.00634765625,0.33740234375,0.09423828125,43.447647058823534,218.28930138205948
0.40968701171875,0.06653369140625,0.93384716796875,1.0219298962191272,0.0517578125,0.033203125,0.12841796875,43.54176470588236,218.28930138205948
0.40187451171875,0.06262744140625,0.90357373046875,0.9908939428513478,-0.00390625,0.08251953125,0.06103515625,43.447647058823534,218.4103062831377
0.41554638671875,0.06897509765625,0.92896435546875,1.0200054594673345,-0.01611328125,-0.0654296875,0.03564453125,43.777058823529416,218.4103062831377
0.38527294921875,0.06506884765625,0.93384716796875,1.012294291922206,0.013671875,-0.0341796875,0.02685546875,43.30647058823529,218.4103062831377
0.40138623046875,0.05676806640625,0.93189404296875,1.0162480143616808,0.0107421875,-0.01708984375,0.095703125,43.54176470588236,218.4103062831377
0.41945263671875,0.06165087890625,0.92212841796875,1.0149197823206395,0.029296875,-0.07666015625,0.173828125,43.91823529411765,218.344663549232
0.41896435546875,0.05676806640625,0.92212841796875,1.0144331243322051,-0.0361328125,-0.11474609375,0.140625,44.01235294117648,218.344663549232
0.42287060546875,0.08215869140625,0.94458935546875,1.0381804515631967,0.05078125,-0.19384765625,-0.080078125,43.353529411764704,218.344663549232
0.39601513671875,0.07825244140625,0.93628857421875,1.0196017493654022,-0.041015625,0.0244140625,-0.251953125,42.74176470588235,218.344663549232
0.39308544921875,0.07581103515625,0.92945263671875,1.012000833666853,-0.005859375,-0.0087890625,-0.11328125,43.16529411764706,218.344663549232
0.39796826171875,0.06653369140625,0.93726513671875,1.02042707036613,0.02587890625,-0.1162109375,0.15234375,43.447647058823534,218.13632492994083
0.41066357421875,0.05774462890625,0.94556591796875,1.032508556178458,0.0576171875,-0.12744140625,0.24169921875,43.54176470588236,218.13632492994083
0.42335888671875,0.06262744140625,0.94214794921875,1.0347935550620369,0.06787109375,-0.0703125,0.14794921875,43.353529411764704,218.13632492994083
0.42580029296875,0.07141650390625,0.94068310546875,1.0350318407840389,0.044921875,-0.064453125,0.04931640625,42.60058823529412,218.13632492994083
0.42726513671875,0.08606494140625,0.94410107421875,1.0398507150238203,0.0234375,-0.03662109375,0.00830078125,43.353529411764704,218.1357597084616
0.41505810546875,0.08362353515625,0.93824169921875,1.02935106387482,0.02490234375,0.05224609375,0.04638671875,43.353529411764704,218.1357597084616
0.41945263671875,0.07874072265625,0.93384716796875,1.026747850729669,0.03759765625,0.2216796875,0.09912109375,43.353529411764704,218.1357597084616
0.41359326171875,0.08118212890625,0.93335888671875,1.024113634129421,0.02392578125,0.36962890625,0.05859375,43.447647058823534,218.1357597084616
0.40968701171875,0.07239306640625,0.92115185546875,1.0107447474354043,0.03662109375,0.4375,0.0009765625,42.69470588235294,218.1357597084616
0.41164013671875,0.07532275390625,0.91675732421875,1.0077525047959814,0.01318359375,0.3115234375,-0.01708984375,43.30647058823529,218.344663549232
0.41847607421875,0.06946337890625,0.91724560546875,1.0105873967422825,-0.01025390625,0.0869140625,-0.041015625,43.447647058823534,218.344663549232
0.40968701171875,0.07678759765625,0.90796826171875,0.9990726435116846,-0.01318359375,-0.10498046875,-0.04931640625,43.353529411764704,218.344663549232
0.41847607421875,0.07483447265625,0.91822216796875,1.0118568934095902,-0.046875,-0.2646484375,-0.10595703125,43.353529411764704,218.344663549232
0.40138623046875,0.07776416015625,0.92261669921875,1.0091480289293642,-0.0283203125,-0.2763671875,-0.05078125,44.01235294117648,218.1254788636641
0.41261669921875,0.07336962890625,0.93287060546875,1.0226843156456684,-0.0234375,-0.21728515625,-0.04150390625,43.91823529411765,218.1254788636641
0.41701123046875,0.06995166015625,0.92896435546875,1.0206695718140844,-0.0517578125,-0.1015625,-0.126953125,43.353529411764704,218.1254788636641
0.41310498046875,0.06458056640625,0.93580029296875,1.0249627128661003,-0.0556640625,-0.13232421875,-0.16943359375,43.49470588235295,218.1254788636641
0.40773388671875,0.06702197265625,0.93189404296875,1.019394611776105,-0.0224609375,-0.15283203125,-0.17041015625,42.788823529411765,218.1254788636641
0.40675732421875,0.06116259765625,0.93384716796875,1.0204229109937273,-0.0224609375,-0.09765625,-0.15087890625,44.01235294117648,218.31212534242312
0.40871044921875,0.06702197265625,0.92749951171875,1.0157713917795907,-0.00048828125,-0.03564453125,-0.1123046875,43.353529411764704,218.31212534242312
0.40919873046875,0.06458056640625,0.93238232421875,1.0202700863448593,-0.025390625,0.02001953125,-0.08642578125,43.49470588235295,218.31212534242312
0.39943310546875,0.06848681640625,0.93824169921875,1.0220248215766388,0.01611328125,0.048828125,-0.109375,43.54176470588236,218.31212534242312
0.39894482421875,0.07190478515625,0.94019482421875,1.023862089535022,0.01416015625,0.0615234375,-0.10107421875,43.30647058823529,218.2025326775017
0.40529248046875,0.07434619140625,0.93384716796875,1.0207153785577945,0.01123046875,0.01806640625,-0.107421875,43.30647058823529,218.2025326775017
0.40919873046875,0.07043994140625,0.93872998046875,1.0264596254083314,0.00927734375,-0.01123046875,-0.07373046875,44.01235294117648,218.2025326775017
0.41456982421875,0.07043994140625,0.93970654296875,1.0295039151923415,0.0029296875,0.01953125,-0.05029296875,43.353529411764704,218.2025326775017
0.40040966796875,0.07239306640625,0.93384716796875,1.018645763447627,0.0048828125,0.10205078125,-0.1064453125,42.60058823529412,218.2025326775017
0.38869091796875,0.07043994140625,0.93482373046875,1.01485852319632,0.001953125,0.19091796875,-0.10302734375,44.01235294117648,218.25789527056875
0.39015576171875,0.07629931640625,0.92701123046875,1.0086589738368388,-0.0146484375,0.16796875,-0.0859375,43.447647058823534,218.25789527056875
0.39845654296875,0.07190478515625,0.92652294921875,1.011129413177158,-0.01806640625,0.00830078125,-0.06640625,43.447647058823534,218.25789527056875
0.40431591796875,0.07581103515625,0.93287060546875,1.019542172311674,-0.03125,-0.14453125,-0.0205078125,44.01235294117648,218.25789527056875
0.40968701171875,0.07239306640625,0.93091748046875,1.0196526659000231,-0.025390625,-0.228515625,-0.06787109375,43.447647058823534,218.35607590103788
0.41115185546875,0.06604541015625,0.93335888671875,1.0220404374949985,-0.0224609375,-0.24169921875,-0.12060546875,43.353529411764704,218.35607590103788
0.40919873046875,0.06213916015625,0.93824169921875,1.0254766513163758,-0.00390625,-0.14453125,-0.14453125,44.01235294117648,218.35607590103788
0.39943310546875,0.06165087890625,0.93921826171875,1.02248646923092,0.01904296875,0.04541015625,-0.1015625,43.30647058823529,218.35607590103788
0.39015576171875,0.06555712890625,0.93238232421875,1.012845523299741,0.02490234375,0.22900390625,-0.052734375,43.777058823529416,218.35607590103788
0.38576123046875,0.06848681640625,0.93287060546875,1.0118051875246832,0.03759765625,0.30078125,-0.03125,43.49470588235295,218.31212534242312
0.38820263671875,0.06946337890625,0.93042919921875,1.0105567489870655,0.033203125,0.32568359375,-0.056640625,42.69470588235294,218.31212534242312
0.37892529296875,0.07727587890625,0.92212841796875,0.9999383772701876,0.03759765625,0.30810546875,0.0419921875,44.01235294117648,218.31212534242312
0.42970654296875,0.06458056640625,0.91675732421875,1.014525679387283,-0.0146484375,0.0419921875,0.01953125,43.30647058823529,218.31212534242312
0.44581982421875,0.06262744140625,0.91871044921875,1.0230867028689443,-0.025390625,-0.345703125,-0.05517578125,43.25941176470588,218.1254788636641
0.41749951171875,0.06360400390625,0.92456982421875,1.016454952988174,-0.05615234375,-0.34765625,-0.2265625,43.63588235294118,218.1254788636641
0.37648388671875,0.06995166015625,0.94458935546875,1.01925580801992,-0.0458984375,-0.02392578125,-0.376953125,43.353529411764704,218.1254788636641
0.36818310546875,0.07483447265625,0.94068310546875,1.0129381532772288,-0.0556640625,0.17431640625,-0.27490234375,44.01235294117648,218.1254788636641
0.39162060546875,0.06702197265625,0.93335888671875,1.0144049757682134,-0.07421875,0.0625,-0.0712890625,43.54176470588236,218.1254788636641
0.39259716796875,0.05969775390625,0.94019482421875,1.02061876604649,0.0029296875,-0.080078125,0.1455078125,43.353529411764704,218.36748859475367
0.40187451171875,0.06799853515625,0.94019482421875,1.0247405678708663,0.03759765625,-0.02783203125,0.15576171875,43.447647058823534,218.36748859475367
0.41408154296875,0.06848681640625,0.93091748046875,1.0211568555766195,0.01220703125,-0.01171875,0.00048828125,43.49470588235295,218.36748859475367
0.41359326171875,0.06702197265625,0.93287060546875,1.0226430939020326,-0.0107421875,-0.1044921875,-0.06298828125,43.49470588235295,218.36748859475367
0.40138623046875,0.07678759765625,0.94361279296875,1.028305569477291,-0.013671875,-0.20166015625,-0.00341796875,43.353529411764704,218.2573289182032
0.38576123046875,0.08313525390625,0.94800732421875,1.0268598171840275,0.00146484375,-0.11767578125,0.02880859375,43.447647058823534,218.2573289182032
0.38039013671875,0.07239306640625,0.93824169921875,1.0150048760126702,0.0146484375,0.12255859375,0.013671875,43.353529411764704,218.2573289182032
0.38429638671875,0.06946337890625,0.92994091796875,1.0086124056180954,0.009765625,0.27587890625,0.01953125,43.353529411764704,218.2573289182032
0.39064404296875,0.06946337890625,0.92798779296875,1.0092518383510902,0.01171875,0.19970703125,0.05029296875,43.447647058823534,218.2573289182032
0.39552685546875,0.06995166015625,0.92749951171875,1.0107373904205446,0.0087890625,0.03759765625,0.03564453125,43.87117647058824,218.1797093314701
0.39210888671875,0.07288134765625,0.92359326171875,1.006024643322562,0.0078125,-0.05810546875,0.01806640625,43.91823529411765,218.1797093314701
0.39113232421875,0.07483447265625,0.93384716796875,1.0152119121000085,0.0087890625,-0.0126953125,0.00732421875,43.447647058823534,218.1797093314701
0.38576123046875,0.07629931640625,0.92701123046875,1.006967295413317,0.013671875,0.080078125,0.0185546875,43.49470588235295,218.1797093314701
0.39210888671875,0.07483447265625,0.92310498046875,1.0057198329096269,0.01904296875,0.025390625,0.08154296875,43.447647058823534,218.36635575531184
0.40480419921875,0.07336962890625,0.92310498046875,1.0106296785258115,-0.0078125,-0.177734375,0.05126953125,44.01235294117648,218.36635575531184
0.39894482421875,0.07581103515625,0.93140576171875,1.0160811871033122,-0.03076171875,-0.30224609375,-0.009765625,43.49470588235295,218.36635575531184
0.38771435546875,0.07239306640625,0.93726513671875,1.016872221082209,-0.0263671875,-0.3173828125,0.02587890625,43.447647058823534,218.36635575531184
0.39259716796875,0.07483447265625,0.93726513671875,1.018920345808856,-0.017578125,-0.23486328125,0.0390625,44.01235294117648,218.36635575531184
0.40333935546875,0.07532275390625,0.92847607421875,1.015098011682926,0.0029296875,-0.16015625,0.01171875,43.353529411764704,218.3452298655452
0.40480419921875,0.07239306640625,0.93580029296875,1.0221689606367586,-0.0205078125,-0.14794921875,0.03125,43.353529411764704,218.3452298655452
0.40236279296875,0.06897509765625,0.93921826171875,1.0241017158506731,-0.12451171875,-0.25048828125,0.0771484375,43.54176470588236,218.3452298655452
0.38234326171875,0.07581103515625,0.93482373046875,1.0128322121065785,0.04248046875,-0.0771484375,0.09912109375,43.54176470588236,218.3452298655452
0.40187451171875,0.07336962890625,0.92798779296875,1.0139268067834266,0.0078125,0.0068359375,0.0654296875,43.49470588235295,218.1032213683833
0.41505810546875,0.08313525390625,0.92505810546875,1.0173088026016472,-0.01513671875,-0.2421875,0.046875,43.447647058823534,218.1032213683833
0.40138623046875,0.07141650390625,0.93775341796875,1.0225422709854963,-0.03271484375,-0.47265625,0.0751953125,43.447647058823534,218.1032213683833
0.39064404296875,0.07581103515625,0.94019482421875,1.0209389741047987,0.0068359375,-0.28857421875,0.09521484375,43.447647058823534,218.1032213683833
0.40773388671875,0.08020556640625,0.92310498046875,1.012325372707578,-0.0048828125,-0.11328125,0.0244140625,43.54176470588236,218.1032213683833
0.41310498046875,0.07922900390625,0.92505810546875,1.016201485160052,-0.02392578125,-0.095703125,-0.02099609375,43.447647058823534,218.36748859475367
0.39943310546875,0.07336962890625,0.93384716796875,1.0183321861325532,-0.03076171875,-0.13232421875,0.123046875,43.49470588235295,218.36748859475367
0.40138623046875,0.07776416015625,0.93189404296875,1.0176368104266678,-0.0615234375,-0.22021484375,0.01708984375,43.447647058823534,218.36748859475367
0.40333935546875,0.08118212890625,0.93042919921875,1.017335573192318,-0.0615234375,-0.37353515625,0.01318359375,43.447647058823534,218.36748859475367
0.39699169921875,0.06995166015625,0.91382763671875,0.9987875618159155,-0.0498046875,-0.322265625,0.001953125,43.447647058823534,218.2025326775017
0.41456982421875,0.07727587890625,0.92261669921875,1.0144265741249092,-0.04833984375,-0.3671875,0.0439453125,43.30647058823529,218.2025326775017
0.42677685546875,0.07483447265625,0.93287060546875,1.0285845853449125,-0.05029296875,-0.62158203125,0.0849609375,43.447647058823534,218.2025326775017
0.40187451171875,0.07043994140625,0.93531201171875,1.0204280806504076,-0.03173828125,-0.677734375,0.10009765625,43.49470588235295,218.2025326775017
0.39552685546875,0.06799853515625,0.92505810546875,1.008363918768331,-0.0048828125,-0.32373046875,0.099609375,44.01235294117648,218.2025326775017
0.42238232421875,0.07336962890625,0.92066357421875,1.0155842393181953,-0.03466796875,-0.20751953125,0.03857421875,43.54176470588236,218.3018458599675
0.41603466796875,0.06995166015625,0.94068310546875,1.030952367776909,-0.04736328125,-0.357421875,-0.0029296875,43.49470588235295,218.3018458599675
0.38673779296875,0.07141650390625,0.95044873046875,1.0286006157834973,-0.021484375,-0.4638671875,0.13232421875,44.01235294117648,218.3018458599675
0.42140576171875,0.07434619140625,0.92603466796875,1.0201227271590254,0.01318359375,-0.40283203125,0.20458984375,43.447647058823534,218.3018458599675
0.44435498046875,0.06702197265625,0.90992138671875,1.0148399989625414,-0.0205078125,-0.4052734375,0.08837890625,43.353529411764704,218.344663549232
0.44435498046875,0.05676806640625,0.90992138671875,1.0142144211354225,-0.046875,-0.376953125,0.04443359375,43.30647058823529,218.344663549232
0.42140576171875,0.06213916015625,0.92749951171875,1.0206367794045066,-0.07421875,-0.54248046875,-0.080078125,43.447647058823534,218.344663549232
0.40187451171875,0.06897509765625,0.93091748046875,1.0163011574863812,-0.0859375,-0.5224609375,-0.10009765625,43.30647058823529,218.344663549232
0.39650341796875,0.07532275390625,0.92994091796875,1.0137448340827606,-0.08544921875,-0.32861328125,-0.03857421875,43.353529411764704,218.344663549232
0.42189404296875,0.07141650390625,0.93531201171875,1.0285443402148902,-0.064453125,-0.2666015625,0.076171875,43.353529411764704,218.24648288403367
0.29982373046875,0.05481494140625,0.91871044921875,0.9679503275774464,-0.00732421875,-0.244140625,0.1943359375,43.353529411764704,218.24648288403367
0.42189404296875,0.05139697265625,0.92554638671875,1.0184656824158969,0.03955078125,-0.197265625,0.224609375,43.25941176470588,218.24648288403367
0.43165966796875,0.06506884765625,0.92945263671875,1.0268623217304451,0.00634765625,-0.24951171875,0.15625,43.30647058823529,218.24648288403367
0.44191357421875,0.08069384765625,0.92994091796875,1.0327580622008825,-0.0498046875,-0.2509765625,-0.02685546875,43.49470588235295,218.33438384368344
0.42580029296875,0.07483447265625,0.93824169921875,1.03305545540542,-0.0966796875,-0.353515625,-0.11279296875,43.353529411764704,218.33438384368344
0.40724560546875,0.07483447265625,0.93580029296875,1.023313915566355,-0.04296875,-0.09375,-0.03662109375,43.447647058823534,218.33438384368344
0.41652294921875,0.07336962890625,0.92456982421875,1.0167122648653435,0.0068359375,0.20068359375,0.001953125,43.30647058823529,218.33438384368344
0.42091748046875,0.07434619140625,0.92164013671875,1.015932784760749,-0.0126953125,0.26318359375,-0.033203125,42.69470588235294,218.33438384368344
0.41115185546875,0.06360400390625,0.92603466796875,1.0152002383019298,-0.021484375,0.142578125,-0.0888671875,43.447647058823534,218.31212534242312
0.40040966796875,0.07092822265625,0.92261669921875,1.0082560630362312,-0.04736328125,0.02490234375,-0.11669921875,43.353529411764704,218.31212534242312
0.42384716796875,0.07629931640625,0.90552685546875,1.0027197482119885,-0.0810546875,-0.13134765625,-0.1669921875,43.447647058823534,218.31212534242312
0.43312451171875,0.06702197265625,0.91040966796875,1.0104130595955845,-0.09521484375,-0.27734375,-0.19775390625,42.60058823529412,218.31212534242312
0.43361279296875,0.07043994140625,0.91871044921875,1.0183372373998671,-0.072265625,-0.3447265625,-0.18798828125,42.60058823529412,218.026733673311
0.43507763671875,0.06946337890625,0.92896435546875,1.0281500302549798,-0.05517578125,-0.33837890625,-0.13720703125,42.69470588235294,218.026733673311
0.43263623046875,0.06116259765625,0.92164013671875,1.0199683881754502,-0.056640625,-0.1982421875,-0.16845703125,43.447647058823534,218.026733673311
0.41408154296875,0.06409228515625,0.93775341796875,1.0271089611896118,-0.033203125,0.06298828125,-0.1591796875,43.447647058823534,218.026733673311
0.41164013671875,0.06262744140625,0.93482373046875,1.0233597635350111,-0.02685546875,0.21826171875,-0.140625,43.30647058823529,218.026733673311
0.42238232421875,0.06409228515625,0.92359326171875,1.0176144465961865,-0.0234375,0.1904296875,-0.1533203125,43.447647058823534,218.40002664184783
0.42091748046875,0.06702197265625,0.91675732421875,1.010993304474178,-0.056640625,0.123046875,-0.08056640625,44.01235294117648,218.40002664184783
0.41994091796875,0.07336962890625,0.91333935546875,1.0079296876659347,-0.0439453125,-0.13525390625,-0.01708984375,43.447647058823534,218.40002664184783
0.42042919921875,0.07385791015625,0.91431591796875,1.009053665718234,-0.02734375,-0.21923828125,0.01904296875,42.60058823529412,218.40002664184783
0.42384716796875,0.06897509765625,0.91480419921875,1.0105793926258724,-0.0419921875,-0.29931640625,0.01025390625,43.353529411764704,218.03814505653764
0.42677685546875,0.06702197265625,0.92017529296875,1.0165397183448637,-0.0615234375,-0.27685546875,-0.05810546875,44.01235294117648,218.03814505653764
0.41115185546875,0.06897509765625,0.91968701171875,1.0097661174134578,-0.0361328125,-0.1416015625,-0.11865234375,43.353529411764704,218.03814505653764
0.42677685546875,0.07190478515625,0.92994091796875,1.025718720412532,-0.0654296875,-0.1904296875,-0.11474609375,43.49470588235295,218.03814505653764
0.42140576171875,0.06897509765625,0.92603466796875,1.019745353696913,-0.0517578125,-0.28515625,-0.056640625,43.54176470588236,218.03814505653764
0.40529248046875,0.05872119140625,0.92261669921875,1.0094214911135897,-0.0380859375,-0.11376953125,-0.05029296875,43.25941176470588,218.3235378354724
0.41408154296875,0.06995166015625,0.90747998046875,0.9999383350674976,-0.009765625,0.07470703125,-0.0888671875,43.353529411764704,218.3235378354724
0.43751904296875,0.06506884765625,0.8947846679687499,0.9981465172646494,-0.0712890625,-0.064453125,-0.185546875,42.69470588235294,218.3235378354724
0.44289013671875,0.06751025390625,0.90747998046875,1.0120421051205342,-0.109375,-0.43701171875,-0.18212890625,43.353529411764704,218.3235378354724
0.42140576171875,0.07141650390625,0.90601513671875,1.001771711021751,-0.080078125,-0.66552734375,-0.11376953125,43.447647058823534,218.45539065992665
0.42726513671875,0.07825244140625,0.8776948242187499,0.9792993138472592,-0.03173828125,-0.71728515625,-0.087890625,44.01235294117648,218.45539065992665
0.43996044921875,0.08606494140625,0.8523041992187499,0.9630134054217212,-0.1171875,-0.86572265625,-0.060546875,42.69470588235294,218.45539065992665
0.47462841796875,0.09631884765625,0.8552338867187499,0.982839995395693,-0.1591796875,-1.60400390625,0.08203125,43.447647058823534,218.45539065992665
0.48097607421875,0.08606494140625,0.8757416992187499,1.0028303355307344,-0.25927734375,-2.5888671875,0.17041015625,43.30647058823529,218.45539065992665
0.46583935546875,0.07239306640625,0.91529248046875,1.0295666010365123,-0.275390625,-3.283203125,0.2021484375,43.49470588235295,218.31269184089703
0.43410107421875,0.07434619140625,0.92652294921875,1.0258732252298517,-0.267578125,-3.13427734375,0.25244140625,43.353529411764704,218.31269184089703
0.46339794921875,0.07239306640625,0.95630810546875,1.065130793841335,-0.234375,-2.60791015625,0.138671875,44.01235294117648,218.31269184089703
0.46925732421875,0.08606494140625,0.96314404296875,1.0748283853613056,-0.20166015625,-2.19091796875,0.08740234375,43.447647058823534,218.31269184089703
0.45460888671875,0.08362353515625,0.94898388671875,1.055572144747821,-0.10693359375,-1.6806640625,0.14306640625,43.447647058823534,218.37776801295544
0.46193310546875,0.05481494140625,0.94751904296875,1.0555468765136815,-0.037109375,-1.07958984375,0.0849609375,43.447647058823534,218.37776801295544
0.46046826171875,0.04358447265625,0.92603466796875,1.0351187528911856,-0.02734375,-0.265625,-0.15380859375,43.54176470588236,218.37776801295544
0.45167919921875,0.04993212890625,0.91529248046875,1.0218941438850888,-0.10546875,0.12548828125,-0.38818359375,43.353529411764704,218.37776801295544
0.44581982421875,0.06458056640625,0.92115185546875,1.025400753879823,-0.11669921875,0.43310546875,-0.41162109375,42.55352941176471,218.37776801295544
0.45460888671875,0.07092822265625,0.90308544921875,1.0135400244901367,-0.015625,0.31591796875,-0.25927734375,43.63588235294118,218.11519860364945
0.45265576171875,0.05774462890625,0.9006440429687499,1.0096491335705675,0.0458984375,-0.0166015625,-0.005859375,43.54176470588236,218.11519860364945
0.47609326171875,0.05969775390625,0.8938081054687499,1.014456280515373,0.05859375,-0.353515625,0.1103515625,43.447647058823534,218.11519860364945
0.48244091796875,0.06165087890625,0.8918549804687499,1.0158520445356978,0.0322265625,-0.60595703125,0.04150390625,43.447647058823534,218.11519860364945
0.47414013671875,0.06799853515625,0.9006440429687499,1.020094290821278,-0.0146484375,-0.70068359375,0.025390625,43.54176470588236,218.25789527056875
0.46046826171875,0.06409228515625,0.92310498046875,1.0335674366160383,0.02197265625,-0.57373046875,0.08154296875,43.447647058823534,218.25789527056875
0.46779248046875,0.04651416015625,0.93189404296875,1.0437527864388143,0.1181640625,-0.46728515625,0.1728515625,42.69470588235294,218.25789527056875
0.47951123046875,0.04358447265625,0.91675732421875,1.0355069376450845,0.123046875,-0.44189453125,0.169921875,43.49470588235295,218.25789527056875
0.48292919921875,0.03333056640625,0.8938081054687499,1.016476496293279,0.07763671875,-0.2978515625,0.03125,42.69470588235294,218.25789527056875
0.48878857421875,0.03870166015625,0.8889252929687499,1.0151848429055794,0.02880859375,-0.35009765625,0.00390625,43.447647058823534,218.5535720201752
0.48634716796875,0.03967822265625,0.8801362304687499,1.0063536720895507,0.0078125,-0.52880859375,0.02490234375,43.353529411764704,218.5535720201752
0.49269482421875,0.0274711914062499,0.8933198242187499,1.0205504223268158,-0.02099609375,-0.79150390625,0.0244140625,42.69470588235294,218.5535720201752
0.49318310546875,0.03186572265625,0.8923432617187499,1.0200595553863816,-0.0380859375,-0.80615234375,-0.001953125,44.01235294117648,218.5535720201752
0.50050732421875,0.03870166015625,0.8982026367187499,1.028967140730926,-0.02783203125,-0.6650390625,-0.0107421875,43.353529411764704,218.026733673311
0.50734326171875,0.05090869140625,0.8918549804687499,1.0273237981566623,-0.0029296875,-0.47705078125,0.0439453125,43.16529411764706,218.026733673311
0.50929638671875,0.06018603515625,0.8996674804687499,1.0355707333473616,0.0185546875,-0.349609375,0.11669921875,43.353529411764704,218.026733673311
0.50099560546875,0.05920947265625,0.8884370117187499,1.02167640774512,0.0244140625,-0.17919921875,0.09521484375,43.447647058823534,218.026733673311
0.50587841796875,0.06458056640625,0.8869721679687499,1.0231340332894323,0.05517578125,-0.0205078125,0.0517578125,43.447647058823534,218.026733673311
0.51564404296875,0.05676806640625,0.8830659179687499,1.0241663965834134,0.00048828125,0.03076171875,-0.02099609375,43.447647058823534,218.11519860364945
0.50783154296875,0.05676806640625,0.8894135742187499,1.0257543543178833,-0.0048828125,0.04052734375,-0.0576171875,43.63588235294118,218.11519860364945
0.50392529296875,0.04895556640625,0.8918549804687499,1.0255450524295415,-0.017578125,0.1572265625,-0.1162109375,43.353529411764704,218.11519860364945
0.49757763671875,0.05432666015625,0.8972260742187499,1.027399395962611,-0.01171875,0.28759765625,-0.10302734375,43.68294117647059,218.11519860364945
0.49806591796875,0.05139697265625,0.90113232421875,1.0308980420934784,-0.02685546875,0.39208984375,-0.14501953125,43.447647058823534,218.31269184089703
0.49611279296875,0.05579150390625,0.8962495117187499,1.025916069915796,-0.04541015625,0.37744140625,-0.16650390625,43.54176470588236,218.31269184089703
0.48683544921875,0.06165087890625,0.8986909179687499,1.0239408925936349,-0.05615234375,0.3671875,-0.173828125,43.447647058823534,218.31269184089703
0.48146435546875,0.06751025390625,0.90162060546875,1.0243462677118809,-0.056640625,0.3798828125,-0.17529296875,44.01235294117648,218.31269184089703
0.48292919921875,0.06799853515625,0.90894482421875,1.0315159260600453,-0.0498046875,0.39453125,-0.13818359375,43.353529411764704,218.31269184089703
0.48439404296875,0.06506884765625,0.90699169921875,1.0302938834384288,-0.0283203125,0.353515625,-0.080078125,43.49470588235295,218.2247908566221
0.49367138671875,0.06067431640625,0.9006440429687499,1.0288598071998316,-0.02294921875,0.43408203125,-0.13720703125,43.447647058823534,218.2247908566221
0.47853466796875,0.05920947265625,0.8923432617187499,1.014286787272244,0.03076171875,0.9052734375,-0.19580078125,43.49470588235295,218.2247908566221
