AccX,AccY,AccZ,Magnitude,GyroX,GyroY,GyroZ,Temperature,Altitude
-0.24113916015625,0.1356982421875,0.9771044921875,1.0155271026154995,0.6796875,-0.806640625,0.5986328125,29.56529411764706,171.31046486124507
-0.24504541015625,0.1435107421875,0.9981005859375,1.037712564157644,0.5859375,-0.578125,0.64697265625,29.61235294117647,171.31046486124507
-0.24602197265625,0.1518115234375,1.0078662109375005,1.0485074386133848,0.52490234375,-0.169921875,0.7109375,29.47117647058824,171.31046486124507
-0.24699853515625,0.1508349609375,0.9897998046875,1.031243480061699,0.51318359375,0.24755859375,0.7412109375,29.659411764705883,171.48054898242123
-0.24992822265625,0.1518115234375,0.9707568359375,1.01384401642852,0.533203125,0.4423828125,0.80517578125,29.61235294117647,171.48054898242123
-0.24016259765625,0.1474169921875,0.9321826171875,0.9738450978903906,0.57763671875,0.494140625,0.85302734375,29.61235294117647,171.48054898242123
-0.23137353515625,0.1488818359375,0.9370654296875,0.9766223084479692,0.58544921875,0.3818359375,0.85595703125,29.51823529411765,171.48054898242123
-0.22404931640625,0.1566943359375,0.9360888671875,0.9751992505992708,0.6328125,0.1875,0.849609375,29.56529411764706,171.48054898242123
-0.24895166015625,0.1747607421875,0.9390185546875,0.9870532367364389,0.65771484375,0.0810546875,0.8515625,29.47117647058824,171.48054898242123
-0.24016259765625,0.1649951171875,0.9575732421875,1.000923561598085,0.66748046875,0.05224609375,0.86767578125,29.51823529411765,171.48054898242123
-0.23235009765625,0.1625537109375,0.9648974609375,1.0057024345918903,0.66748046875,0.091796875,0.59912109375,29.61235294117647,171.48054898242123
-0.23674462890625,0.1640185546875,0.9644091796875,1.006496483582159,0.6943359375,0.1669921875,0.515625,29.61235294117647,171.5947291988452
-0.25041650390625,0.1513232421875,0.9663623046875,1.009684729495154,0.67138671875,0.13525390625,0.48779296875,29.56529411764706,171.5947291988452
-0.25041650390625,0.1488818359375,0.9556201171875,0.999041558131693,0.67138671875,0.30224609375,0.42919921875,29.56529411764706,171.5947291988452
-0.24602197265625,0.1479052734375,0.9609912109375,1.0029490956371698,0.654296875,0.3046875,0.37841796875,29.56529411764706,171.5947291988452
-0.26311181640625,0.1498583984375,0.9492724609375,0.9963952893351044,0.6591796875,0.27392578125,0.3251953125,29.56529411764706,171.5947291988452
-0.25578759765625,0.1518115234375,0.9443896484375,0.9901241547599348,0.64794921875,0.236328125,0.296875,29.56529411764706,171.5947291988452
-0.25822900390625,0.1459521484375,0.9487841796875,0.9940702529083236,0.64892578125,0.19287109375,0.26025390625,29.56529411764706,171.5947291988452
-0.25383447265625,0.1532763671875,0.9522021484375,0.9973036226425054,0.63671875,0.1494140625,0.27392578125,29.56529411764706,171.5947291988452
-0.26555322265625,0.1508349609375,0.9380419921875,0.9865051842799564,0.66259765625,0.1298828125,0.30810546875,29.61235294117647,171.47302589632372
-0.26115869140625,0.1503466796875,0.9443896484375,0.9913020701410774,0.669921875,0.1318359375,0.32666015625,29.56529411764706,171.47302589632372
-0.25676416015625,0.1493701171875,0.9468310546875,0.9923347781721628,0.67138671875,0.16552734375,0.31787109375,29.659411764705883,171.47302589632372
-0.25481103515625,0.2631396484375,0.9439013671875,1.0124825574772351,0.6708984375,0.2421875,0.3154296875,29.61235294117647,171.47302589632372
-0.25236962890625,0.1469287109375,0.8042529296875001,0.8556291548345935,0.64404296875,0.32861328125,0.318359375,29.61235294117647,171.47302589632372
-0.25090478515625,0.1400927734375,0.9219287109375,0.9656768322967032,0.60986328125,0.322265625,0.33544921875,29.56529411764706,171.47302589632372
-0.24846337890625,0.1479052734375,0.9185107421875,0.9629496373549162,0.60205078125,0.23291015625,0.298828125,29.61235294117647,171.47302589632372
-0.24651025390625,0.1386279296875,0.9229052734375,0.9652663631915872,0.55712890625,0.01171875,0.22705078125,29.659411764705883,171.47302589632372
-0.25285791015625,0.1435107421875,0.9102099609375,0.9555179898053404,0.4892578125,-0.23876953125,0.154296875,29.61235294117647,171.47302589632372
-0.26848291015625,0.1464404296875,0.9199755859375,0.9694756063017136,0.44189453125,-0.419921875,0.0615234375,29.61235294117647,171.28803641502083
-0.27238916015625,0.1449755859375,0.9287646484375,0.9786815351664616,0.39697265625,-0.47802734375,-0.046875,29.61235294117647,171.28803641502083
-0.27434228515625,0.1610888671875,0.9390185546875,0.991448011044405,0.43359375,-0.60986328125,-0.09326171875,29.51823529411765,171.28803641502083
-0.25139306640625,0.1654833984375,0.9219287109375,0.9698122380370552,0.53173828125,-0.68017578125,-0.052734375,29.61235294117647,171.28803641502083
-0.24016259765625,0.1498583984375,0.9224169921875,0.9648775675553272,0.443359375,-0.63720703125,-0.0517578125,29.659411764705883,171.28803641502083
-0.26018212890625,0.1464404296875,0.9365771484375,0.9830138832308356,0.43505859375,-0.701171875,-0.064453125,29.56529411764706,171.28803641502083
-0.23967431640625,0.1435107421875,0.9346240234375,0.9754799722467452,0.45849609375,-0.59716796875,-0.2197265625,29.61235294117647,171.28803641502083
-0.22795556640625,0.1410693359375,0.9307177734375,0.9685555593717374,0.55859375,-0.68603515625,-0.22412109375,29.61235294117647,171.28803641502083
-0.22258447265625,0.1376513671875,0.9102099609375,0.9470870706255546,0.62744140625,-1.0234375,0.068359375,29.61235294117647,171.28803641502083
-0.20891259765625,0.1259326171875,0.8936083984375001,0.926304198030652,0.61572265625,-1.43701171875,0.29345703125,29.659411764705883,171.04816191446082
-0.19231103515625,0.1215380859375,0.8906787109375001,0.9192734123716982,0.56298828125,-1.93310546875,0.4228515625,29.659411764705883,171.04816191446082
-0.19670556640625,0.1132373046875,0.9004443359375001,0.9286095891977526,0.52685546875,-2.46923828125,0.41015625,29.56529411764706,171.04816191446082
-0.20207666015625,0.1059130859375,0.9331591796875,0.9606448943224322,0.52880859375,-2.74072265625,0.25048828125,29.56529411764706,171.04816191446082
-0.20793603515625,0.1020068359375,0.9634326171875,0.9908810206857518,0.57177734375,-2.9541015625,0.1201171875,29.61235294117647,171.04816191446082
-0.21916650390625,0.1068896484375,0.9766162109375,1.0065975247553016,0.57373046875,-3.05615234375,-0.232421875,29.61235294117647,171.04816191446082
-0.22942041015625,0.1186083984375,0.9854052734375,1.0186879942821574,0.47509765625,-2.89697265625,-0.3916015625,29.56529411764706,171.04816191446082
-0.25236962890625,0.1313037109375,0.9761279296875,1.0167383287828988,0.34912109375,-2.41748046875,-0.3125,29.51823529411765,171.04816191446082
-0.25676416015625,0.1327685546875,0.9668505859375,1.0091359564410731,0.21728515625,-1.67529296875,-0.1455078125,29.659411764705883,171.55016903015715
-0.23235009765625,0.1225146484375,0.9390185546875,0.9750652557701124,0.1416015625,-1.3173828125,-0.03369140625,29.659411764705883,171.55016903015715
-0.21623681640625,0.1151904296875,0.9102099609375,0.9426077491994996,0.07763671875,-1.314453125,0.01220703125,29.61235294117647,171.55016903015715
-0.18693994140625,0.1010302734375,0.8784716796875001,0.9038064781007082,0.06201171875,-1.5439453125,0.00244140625,29.659411764705883,171.55016903015715
-0.29045556640625,0.0981005859375,0.8618701171875001,0.9147722448338992,0.0107421875,-1.95849609375,-0.02197265625,29.56529411764706,171.55016903015715
-0.15178369140625,0.0951708984375,0.8564990234375001,0.8750350656034876,-0.03466796875,-2.49951171875,-0.05029296875,29.56529411764706,171.55016903015715
-0.15373681640625,0.1024951171875,0.8193896484375001,0.8399640788346477,-0.11083984375,-3.04296875,0.0390625,29.56529411764706,171.55016903015715
-0.15617822265625,0.1098193359375,0.8257373046875001,0.847522282969832,-0.20947265625,-3.779296875,0.07568359375,29.61235294117647,171.55016903015715
-0.13029931640625,0.1078662109375,0.8228076171875001,0.8400151226137069,-0.33642578125,-4.537109375,-0.09130859375,29.61235294117647,171.391092092682
-0.10783837890625,0.1156787109375,0.7949755859375001,0.8105534296799695,-0.49267578125,-5.17578125,-0.43310546875,29.61235294117647,171.391092092682
-0.10344384765625,0.1215380859375,0.9233935546875,0.9370847308486558,-0.5390625,-5.51220703125,-0.8642578125,29.51823529411765,171.391092092682
-0.10783837890625,0.1064013671875,0.7749560546875001,0.7896247549319314,-0.60400390625,-5.9306640625,-1.14697265625,29.61235294117647,171.391092092682
-0.10295556640625,0.1230029296875,0.7627490234375001,0.7794328977664465,-0.7412109375,-5.96435546875,-1.5283203125,29.56529411764706,171.391092092682
-0.08928369140625,0.1410693359375,0.7402880859375001,0.7588798226820773,-0.7890625,-5.84033203125,-1.93896484375,29.56529411764706,171.391092092682
-0.08391259765625,0.1552294921875,0.7075732421875001,0.7292444119428955,-0.86376953125,-5.65234375,-2.1171875,30.31823529411765,171.391092092682
-0.05656884765625,0.1542529296875,0.6357958984375001,0.6566813727465404,-1.0634765625,-5.609375,-2.40673828125,29.56529411764706,171.391092092682
-0.08537744140625,0.1332568359375,0.6016162109375001,0.6220842041781369,-1.30712890625,-5.505859375,-2.6455078125,29.56529411764706,171.391092092682
-0.08830712890625,0.1288623046875,0.5674365234375001,0.5885472374549691,-1.39990234375,-5.63916015625,-2.62890625,29.61235294117647,170.96737130229212
-0.09660791015625,0.1156787109375,0.5669482421875001,0.5866386978272197,-1.6005859375,-5.576171875,-2.6513671875,29.659411764705883,170.96737130229212
-0.05461572265625,0.0565966796875,0.5239794921875001,0.529849572563746,-2.16455078125,-5.830078125,-2.736328125,29.56529411764706,170.96737130229212
-0.00676416015625,0.0443896484375,0.5020068359375001,0.5040109701970825,-2.494140625,-6.43359375,-2.97998046875,29.61235294117647,170.96737130229212
0.0327866210937499,0.0365771484375,0.4893115234375,0.4917708991789685,-2.7587890625,-7.5263671875,-3.2998046875,29.70647058823529,170.96737130229212
0.0386459960937499,0.0287646484375,0.4756396484375,0.478073209016736,-2.78076171875,-9.2158203125,-3.48583984375,29.61235294117647,170.96737130229212
0.0401108398437499,0.1083544921875,0.4673388671875,0.4814095888474571,-2.8466796875,-10.12548828125,-3.7275390625,29.61235294117647,170.96737130229212
0.07966162109375,0.1786669921875,0.5107958984375001,0.5469737816689071,-2.75,-11.28173828125,-4.35205078125,29.61235294117647,170.96737130229212
0.10847021484375,0.2382373046875,0.4775927734375,0.5446261636138473,-2.525390625,-12.22607421875,-5.3046875,29.56529411764706,170.96737130229212
0.13825537109375,0.2631396484375,0.4697802734375,0.5559231309516577,-2.55517578125,-12.7626953125,-6.1123046875,29.61235294117647,170.8851736767098
0.17634130859375,0.2543505859375,0.4893115234375,0.5789786219300613,-2.3115234375,-13.67431640625,-6.80078125,29.659411764705883,170.8851736767098
0.18464208984375,0.2226123046875,0.4741748046875,0.5554193775342886,-1.9736328125,-14.24267578125,-7.08935546875,29.56529411764706,170.8851736767098
0.19782568359375,0.1703662109375,0.4307177734375,0.503664022214703,-1.5703125,-14.5341796875,-6.994140625,29.56529411764706,170.8851736767098
0.20612646484375,0.1298388671875,0.3901904296875,0.4599943720973452,-1.337890625,-14.3779296875,-6.4755859375,29.61235294117647,170.8851736767098
0.2905991210937499,0.0766162109375,0.3384326171875,0.4526085829226622,-1.10302734375,-14.50244140625,-6.177734375,29.56529411764706,170.8851736767098
0.3506577148437499,0.1366748046875,0.3340380859375,0.5032119613767101,-0.947265625,-14.46826171875,-6.0107421875,29.56529411764706,170.8851736767098
0.4761459960937499,-0.1875439453125,0.2388232421875,0.5647338151983079,-1.52734375,-14.57470703125,-5.61962890625,29.56529411764706,170.8851736767098
0.62653662109375,-0.1133251953125,0.2944873046875,0.7015080256749012,-2.05224609375,-15.40625,-4.93017578125,29.61235294117647,170.6807708656808
0.74128271484375,-0.2627392578125,0.3608935546875,0.8653185186605932,-1.98974609375,16.0,-4.3935546875,29.51823529411765,170.6807708656808
0.71393896484375,-0.3227978515625,0.3999560546875,0.8797000307927252,-1.712890625,16.0,-3.92919921875,29.56529411764706,170.6807708656808
0.71589208984375,-0.3765087890625,0.4380419921875,0.9198593041665424,-1.41015625,16.0,-3.17041015625,29.61235294117647,170.6807708656808
0.80085302734375,-0.3647900390625,0.4780810546875,1.0014982969810693,-1.08056640625,16.0,-2.13818359375,29.61235294117647,170.6807708656808
0.79255224609375,-0.3633251953125,0.5200732421875001,1.015194778146801,-0.7060546875,16.0,-1.07568359375,29.56529411764706,170.6807708656808
0.75007177734375,-0.3452587890625,0.5557177734375001,0.9953057551862384,-0.169921875,16.0,0.369140625,29.61235294117647,170.6807708656808
0.74909521484375,-0.2905712890625,0.6235888671875001,1.0170734438620628,0.490234375,16.0,1.60888671875,29.56529411764706,170.6807708656808
0.78181005859375,-0.2847119140625,0.7026904296875001,1.0890645902341598,1.37646484375,16.0,2.2080078125,29.61235294117647,170.6807708656808
0.79352880859375,-0.2783642578125,0.6821826171875001,1.0828424415807256,2.4208984375,16.0,2.47802734375,29.659411764705883,171.0017277639753
0.79645849609375,-0.2949658203125,0.6846240234375001,1.0908991816938425,3.0029296875,16.0,2.59912109375,29.659411764705883,171.0017277639753
0.77790380859375,-0.2998486328125,0.6191943359375001,1.0384821441321317,3.27197265625,16.0,2.9462890625,29.51823529411765,171.0017277639753
0.69538427734375,0.0668505859375,0.2041552734375,0.7278101879538489,1.6123046875,-13.2275390625,0.45751953125,29.61235294117647,171.0017277639753
1.82526708984375,-0.0977001953125,0.5952685546875001,1.922365711728785,-0.25390625,-11.17138671875,-5.83837890625,29.61235294117647,171.0017277639753
1.08063818359375,0.0106982421875,0.6846240234375001,1.2792980066014534,0.62255859375,-10.65771484375,-6.7783203125,29.659411764705883,171.0017277639753
0.3042709960937499,0.1615771484375,0.5772021484375001,0.6721981360595569,1.77392578125,-9.068359375,-2.85302734375,29.56529411764706,171.0017277639753
-0.00432275390625,0.1010302734375,0.3872607421875,0.400245780479699,1.72705078125,-6.38818359375,2.63134765625,29.61235294117647,171.0017277639753
-0.02141259765625,-0.0391064453125,0.2466357421875,0.2506332035619921,0.01904296875,-3.83203125,6.78369140625,29.51823529411765,170.92768529912345
0.10700537109375,-0.0610791015625,0.2383349609375,0.2682990117307051,-1.05419921875,-3.07568359375,8.31298828125,29.56529411764706,170.92768529912345
0.56696630859375,-0.0708447265625,0.2900927734375,0.6407991788093985,-1.5517578125,-4.5595703125,7.20654296875,29.51823529411765,170.92768529912345
0.85114599609375,0.0185107421875,0.4185107421875,0.9486534644268612,-0.74609375,-7.8505859375,4.31884765625,29.56529411764706,170.92768529912345
1.27546240234375,0.1464404296875,0.5098193359375001,1.3813634187046155,0.62353515625,-13.08154296875,0.0986328125,29.56529411764706,170.92768529912345
1.42585302734375,-0.0166455078125,0.5244677734375001,1.5193420858681437,1.16552734375,16.0,-3.54638671875,29.70647058823529,170.92768529912345
1.29694677734375,-0.1069775390625,0.3794482421875,1.35554273471012,1.2724609375,16.0,-4.9326171875,29.659411764705883,170.92768529912345
1.23493505859375,-0.1924267578125,0.3862841796875,1.3081697609802116,2.6201171875,-14.5068359375,-4.28857421875,29.61235294117647,170.92768529912345
1.27155615234375,-0.2920361328125,0.4473193359375,1.3792152622904403,5.14892578125,-8.48681640625,-1.33447265625,29.56529411764706,170.87419237038122
1.43903662109375,-0.4482861328125,0.4356005859375,1.5689278900542232,7.14599609375,-2.72412109375,2.6787109375,29.47117647058824,170.87419237038122
1.70466162109375,-0.6040478515625,0.4448779296875,1.8624342731302703,8.17041015625,2.20361328125,7.9736328125,29.659411764705883,170.87419237038122
2.02448583984375,-0.7705517578125,0.3862841796875,2.200342790265333,7.75927734375,5.541015625,12.2783203125,29.51823529411765,170.87419237038122
2.21540380859375,-0.8706494140625,0.3423388671875,2.4048368629340096,5.78662109375,6.56103515625,14.31298828125,29.56529411764706,170.87419237038122
2.44684912109375,-0.8232861328125,0.2808154296875,2.5968688806771114,3.24560546875,6.19970703125,13.6318359375,29.61235294117647,170.87419237038122
2.43268896484375,-0.6348095703125,0.2568896484375,2.5272417932812123,1.12939453125,5.50732421875,11.130859375,29.51823529411765,170.87419237038122
2.13239599609375,-0.3691845703125,0.0898974609375,2.165985107196375,0.068359375,5.48681640625,8.51318359375,29.56529411764706,170.87419237038122
1.81208349609375,-0.1768017578125,-0.0072705078124999,1.820702699142501,-1.22412109375,5.93994140625,6.51220703125,29.61235294117647,170.87419237038122
1.33161474609375,-0.0483837890625,-0.1952587890624999,1.3467237347594794,-1.92578125,7.68798828125,5.41796875,29.70647058823529,170.46006680320005
1.18317724609375,-0.4766064453125,-0.3163525390624999,1.3142073764664,-3.0908203125,7.083984375,2.96435546875,29.56529411764706,170.46006680320005
1.54059912109375,-0.3364697265625,0.2178271484375,1.5918876202183028,-1.3046875,-0.0556640625,2.78125,29.61235294117647,170.46006680320005
2.47028662109375,0.0365771484375,0.9692919921875,2.653899177486102,3.25927734375,-13.8720703125,5.49755859375,29.61235294117647,170.46006680320005
3.61188818359375,0.2816943359375,1.3564990234375005,3.868485175139013,9.3837890625,16.0,7.921875,29.61235294117647,170.46006680320005
4.95222021484375,0.1796435546875,0.8145068359375001,5.021969558732586,14.60205078125,16.0,-0.75341796875,29.56529411764706,170.46006680320005
4.66462255859375,-0.1680126953125,0.1314013671875,4.669496568070976,10.388671875,-13.486328125,-10.7958984375,29.56529411764706,170.46006680320005
3.46491552734375,-0.3037548828125,-0.0224072265624999,3.478276688859366,2.1923828125,-2.97119140625,-15.2158203125,29.659411764705883,170.46006680320005
1.43757177734375,0.0736865234375,0.6748583984375001,1.589803817045739,-2.18115234375,2.234375,-12.9384765625,29.51823529411765,170.56704955946984
0.20368505859375,-0.2427197265625,0.7954638671875001,0.8562495154788742,-2.55517578125,4.4267578125,-6.7939453125,29.51823529411765,170.56704955946984
-0.47111962890625,-0.2104931640625,0.6973193359375001,0.8674764164691288,-0.66748046875,5.298828125,-0.2099609375,29.659411764705883,170.56704955946984
-0.60295556640625,-0.4482861328125,0.5664599609375001,0.940953112156808,2.015625,4.85986328125,3.68994140625,29.70647058823529,170.56704955946984
-0.16252587890625,-0.4941845703125,0.5230029296875001,0.7376754810286889,4.51025390625,3.333984375,3.6376953125,29.61235294117647,170.56704955946984
0.3223374023437499,-0.4863720703125,0.2402880859375,0.6310289660334868,6.388671875,2.18798828125,0.76513671875,29.70647058823529,170.56704955946984
0.87604833984375,-0.3345166015625,0.1660693359375,0.9523345393309208,7.556640625,1.31396484375,-4.53076171875,29.61235294117647,170.56704955946984
1.13923193359375,-0.3794384765625,0.1616748046875,1.2115946923317908,6.734375,0.37841796875,-9.48876953125,29.61235294117647,170.56704955946984
0.87360693359375,-0.4727001953125,0.0107958984375,0.99335346201371,3.7705078125,-0.18017578125,-10.29736328125,29.659411764705883,170.56704955946984
0.55817724609375,-0.4551220703125,0.1314013671875,0.7320957971748527,0.14306640625,0.72802734375,-6.8505859375,29.61235294117647,170.33253805622883
0.10456396484375,-0.4394970703125,0.3115771484375,0.5487910503876311,-1.68017578125,3.81689453125,-1.81494140625,29.61235294117647,170.33253805622883
0.0557358398437499,-0.3696728515625,0.5781787109375001,0.6885166104073217,-1.35986328125,8.21435546875,3.68310546875,29.659411764705883,170.33253805622883
0.2891342773437499,-0.2368603515625,0.6064990234375001,0.7124201863423333,-0.2373046875,12.11083984375,6.82861328125,29.61235294117647,170.33253805622883
0.70710302734375,-0.2441845703125,0.5562060546875001,0.9321941701858204,0.509765625,14.4541015625,6.77978515625,29.56529411764706,170.33253805622883
1.02546240234375,-0.1440869140625,0.4522021484375,1.129965026218139,0.7880859375,15.99951171875,5.076171875,29.61235294117647,170.33253805622883
1.24665380859375,-0.0698681640625,0.3579638671875,1.298909315172771,0.7451171875,15.99951171875,1.91552734375,29.56529411764706,170.33253805622883
1.39802099609375,-0.0893994140625,0.2827685546875,1.429130160717958,0.2216796875,15.99951171875,-2.0693359375,29.56529411764706,170.33253805622883
1.46638037109375,-0.1509228515625,0.2476123046875,1.4947778942991683,-0.24462890625,15.99951171875,-5.25341796875,29.61235294117647,170.33253805622883
1.43220068359375,-0.1943798828125,0.2368701171875,1.464612504843867,-0.3828125,15.7392578125,-6.53466796875,29.51823529411765,170.59999377706228
1.45368505859375,-0.1558056640625,0.2671435546875,1.4862171218714122,0.11767578125,14.654296875,-5.7587890625,29.61235294117647,170.59999377706228
1.31208349609375,-0.1265087890625,0.2632373046875,1.344195466816786,0.95947265625,13.80615234375,-4.36865234375,29.61235294117647,170.59999377706228
1.39802099609375,-0.1675244140625,0.2446826171875,1.4291244585338498,1.451171875,11.91552734375,-3.36279296875,29.51823529411765,170.59999377706228
1.48005224609375,-0.2270947265625,0.2378466796875,1.5161456754012852,1.59326171875,9.689453125,-3.21533203125,29.56529411764706,170.59999377706228
1.41950537109375,-0.2114697265625,0.2603076171875,1.458586644454918,1.7939453125,6.998046875,-3.1845703125,29.51823529411765,170.59999377706228
1.24274755859375,-0.1533642578125,0.2935107421875,1.2861145538965657,2.08544921875,3.5849609375,-2.6455078125,29.659411764705883,170.59999377706228
0.99274755859375,-0.1597119140625,0.3257373046875,1.056958089165524,2.78857421875,-0.36328125,-1.64306640625,29.61235294117647,170.59999377706228
0.71833349609375,-0.1680126953125,0.3608935546875,0.8212645342466824,3.82275390625,-3.46240234375,-0.5703125,29.659411764705883,170.59999377706228
0.61872412109375,-0.1792431640625,0.4048388671875,0.7608167704986714,4.4697265625,-6.26025390625,0.05908203125,29.61235294117647,170.20784528202915
0.62946630859375,-0.1699658203125,0.4585498046875,0.797109865142872,4.51904296875,-8.3466796875,0.49072265625,29.61235294117647,170.20784528202915
0.70124365234375,-0.1250439453125,0.5366748046875001,0.8918511614602987,3.9267578125,-9.2890625,1.068359375,29.61235294117647,170.20784528202915
0.87214208984375,-0.0210400390625,0.6982958984375001,1.1174487325579687,2.794921875,-10.73779296875,1.63330078125,30.412352941176472,170.20784528202915
1.04157568359375,0.0443896484375,0.9517138671875,1.4115982539445062,2.1240234375,-10.9072265625,2.33740234375,29.56529411764706,170.20784528202915
1.26911474609375,0.0883349609375,1.1426318359375005,1.7099891276187504,2.0126953125,-9.24365234375,2.515625,29.61235294117647,170.20784528202915
1.32087255859375,-0.0010205078125,1.0938037109375005,1.7149670304536009,1.96337890625,-4.69287109375,2.94140625,29.659411764705883,170.20784528202915
1.35602880859375,-0.0786572265625,0.9316943359375,1.6471355210318028,0.65234375,2.9814453125,3.02587890625,29.659411764705883,170.20784528202915
1.24079443359375,-0.1846142578125,0.8398974609375001,1.509662543588518,-1.05908203125,11.2412109375,2.859375,29.51823529411765,170.48344554176654
1.11335302734375,-0.2119580078125,0.8892138671875001,1.440549361240317,-2.0244140625,15.99951171875,2.6923828125,29.659411764705883,170.48344554176654
0.96833349609375,-0.2187939453125,0.7456591796875001,1.2415909803211318,-2.650390625,15.99951171875,2.22607421875,29.51823529411765,170.48344554176654
0.90534521484375,-0.2012158203125,0.6323779296875001,1.1225148597414454,-2.6513671875,15.99951171875,1.19189453125,29.61235294117647,170.48344554176654
0.93708349609375,-0.1924267578125,0.5415576171875001,1.0992898564561209,-2.1748046875,13.2822265625,-0.20849609375,29.56529411764706,170.48344554176654
0.96100927734375,-0.1465283203125,0.4844287109375,1.0861310030447189,-1.2919921875,7.23291015625,-1.2216796875,29.51823529411765,170.48344554176654
0.86481787109375,-0.1113720703125,0.3892138671875,0.9548827795179192,-0.69287109375,0.65087890625,-1.2705078125,29.56529411764706,170.48344554176654
0.81257177734375,-0.0864697265625,0.4517138671875,0.9336998044108508,-0.19775390625,-5.98828125,-0.9580078125,29.56529411764706,170.48344554176654
0.79938818359375,-0.0737744140625,0.5259326171875001,0.9597235279294104,0.048828125,-10.95751953125,-1.033203125,29.61235294117647,170.41897309478455
0.80573583984375,-0.0459423828125,0.6338427734375001,1.0261956965346062,0.111328125,-13.8662109375,-1.67529296875,29.659411764705883,170.41897309478455
0.72614599609375,-0.0566845703125,0.7070849609375001,1.015120825389019,-0.619140625,-14.44580078125,-2.89111328125,29.56529411764706,170.41897309478455
0.58356787109375,-0.0669384765625,0.8125537109375001,1.0026344064392076,-1.2041015625,-12.6376953125,-3.873046875,29.61235294117647,170.41897309478455
0.4668686523437499,-0.0317822265625,0.9326708984375,1.043480451785635,-1.4462890625,-8.611328125,-3.8271484375,29.659411764705883,170.41897309478455
0.4199936523437499,-0.0185986328125,0.9717333984375,1.0587758850627598,-1.4345703125,-3.49462890625,-3.62255859375,29.56529411764706,170.41897309478455
0.52009130859375,-0.0171337890625,1.0107958984375005,1.1368803298062953,-1.265625,2.03369140625,-3.341796875,29.659411764705883,170.41897309478455
0.64020849609375,0.0429248046875,0.9824755859375,1.1734426847065498,-0.83056640625,7.67822265625,-3.29638671875,29.51823529411765,170.41897309478455
0.61530615234375,0.0492724609375,0.9204638671875,1.1082793724132356,-0.06298828125,12.94189453125,-3.33447265625,29.56529411764706,170.41897309478455
0.62165380859375,0.0385302734375,0.8364794921875001,1.0428978763812595,0.7001953125,15.99951171875,-3.36767578125,29.61235294117647,170.16533693310834
0.62311865234375,0.0307177734375,0.7529833984375001,0.9778570625741452,1.58740234375,15.99951171875,-3.130859375,29.61235294117647,170.16533693310834
0.59968115234375,0.0761279296875,0.6519091796875001,0.8890436011330727,2.73681640625,15.99951171875,-2.0947265625,29.61235294117647,170.16533693310834
0.65876318359375,0.1181201171875,0.5230029296875001,0.8493841054579898,3.61181640625,15.99951171875,-0.2138671875,29.61235294117647,170.16533693310834
0.91511083984375,0.1020068359375,0.5488818359375001,1.0719629254781315,3.79638671875,15.99951171875,0.90380859375,29.51823529411765,170.16533693310834
1.18561865234375,0.0658740234375,0.3926318359375,1.2506761108859905,3.45703125,15.15087890625,0.66015625,29.61235294117647,170.16533693310834
1.36725927734375,0.0336474609375,0.3887255859375,1.4218430519127443,2.671875,10.89453125,-0.4716796875,29.51823529411765,170.16533693310834
1.35016943359375,0.0199755859375,0.4253466796875,1.4157246629785027,2.046875,6.69775390625,-1.52685546875,29.61235294117647,170.16533693310834
1.31891943359375,-0.0088330078125,0.4712451171875,1.4006064596492958,1.43212890625,3.41943359375,-2.28271484375,29.659411764705883,170.16533693310834
0.99811865234375,-0.0727978515625,0.5518115234375001,1.1428194646343026,1.1123046875,1.78564453125,-2.1923828125,29.61235294117647,170.45050123322406
0.91511083984375,-0.1045361328125,0.6621630859375001,1.1343789510746394,0.76025390625,1.18701171875,-2.2060546875,29.61235294117647,170.45050123322406
0.99616552734375,-0.1201611328125,0.7974169921875001,1.2816623249265753,1.0673828125,1.59521484375,-2.7587890625,29.56529411764706,170.45050123322406
0.98054052734375,-0.0430126953125,0.8047412109375001,1.269219537472836,1.4365234375,3.9208984375,-3.39794921875,29.56529411764706,170.45050123322406
0.96345068359375,0.0321826171875,0.7876513671875001,1.2448564643358042,1.60009765625,7.15185546875,-3.6982421875,29.56529411764706,170.45050123322406
0.94831396484375,0.0111865234375,0.7500537109375001,1.2091340221478368,1.57080078125,9.79345703125,-3.349609375,29.56529411764706,170.45050123322406
0.91413427734375,-0.0518017578125,0.7012255859375001,1.1532745646638685,1.49267578125,11.958984375,-2.30078125,29.61235294117647,170.45050123322406
0.92585302734375,-0.1162548828125,0.7534716796875001,1.1993492394254632,1.77490234375,11.5078125,-0.78515625,29.56529411764706,170.49442700598976
0.97516943359375,-0.1919384765625,0.7485888671875001,1.2442592555724683,1.890625,8.71484375,0.10400390625,29.61235294117647,170.49442700598976
0.97468115234375,-0.3125439453125,0.7100146484375001,1.2457158052627697,1.35888671875,4.7568359375,0.08740234375,29.56529411764706,170.49442700598976
0.90778662109375,-0.4058056640625,0.7295458984375001,1.2332850458628748,-0.15576171875,0.58203125,-0.40234375,29.70647058823529,170.49442700598976
0.77253271484375,-0.3921337890625,0.8438037109375001,1.2093719058338772,-1.232421875,-2.86083984375,-0.9599609375,29.61235294117647,170.49442700598976
0.55329443359375,-0.3086376953125,0.9849169921875,1.1710907047335457,-1.1787109375,-4.548828125,-1.20703125,29.56529411764706,170.49442700598976
0.4019272460937499,-0.2051220703125,1.1045458984375005,1.193164790226772,-0.55517578125,-4.87939453125,-1.5849609375,29.61235294117647,170.49442700598976
0.2764389648437499,-0.1040478515625,1.1475146484375005,1.1849195437148026,-0.0634765625,-3.83984375,-2.20556640625,29.659411764705883,170.49442700598976
0.18952490234375,-0.0093212890625,1.1939013671875005,1.20888669841734,0.361328125,-1.19384765625,-2.716796875,29.51823529411765,170.49442700598976
0.12995458984375,0.0502490234375,1.2481005859375005,1.2558535871650849,0.8984375,2.3095703125,-2.63330078125,29.659411764705883,170.37788037761567
0.14313818359375,0.0356005859375,1.2417529296875005,1.250482418792484,1.56591796875,5.4013671875,-1.89599609375,29.659411764705883,170.37788037761567
0.20026708984375,-0.0068798828125,1.2026904296875005,1.219269662430712,1.89697265625,8.39404296875,-0.8798828125,29.51823529411765,170.37788037761567
0.3164780273437499,0.0028857421875,1.1216357421875005,1.1654327125372226,2.25634765625,11.0478515625,-0.33642578125,29.61235294117647,170.37788037761567
0.4439194335937499,0.0307177734375,0.9380419921875,1.038234474593407,2.16357421875,12.32421875,-0.9228515625,29.56529411764706,170.37788037761567
0.4702866210937499,0.0766162109375,0.7339404296875001,0.8750474867617575,1.34912109375,12.17236328125,-2.0341796875,29.61235294117647,170.37788037761567
0.4453842773437499,0.1161669921875,0.6162646484375001,0.7691840101644734,0.45556640625,11.0830078125,-2.5546875,29.56529411764706,170.37788037761567
0.4785874023437499,0.1171435546875,0.6465380859375001,0.8128837620808328,0.6953125,9.14208984375,-1.75439453125,29.51823529411765,170.37788037761567
0.58845068359375,0.0419482421875,0.7476123046875001,0.9523434360380336,1.4873046875,5.35693359375,0.58203125,29.61235294117647,170.283298417579
0.68024755859375,-0.0176220703125,0.8169482421875001,1.0632270259676917,1.46875,0.18994140625,3.302734375,29.61235294117647,170.283298417579
0.81696630859375,0.0287646484375,0.9546435546875,1.2568236435090714,1.056640625,-5.38232421875,4.46875,29.61235294117647,170.283298417579
0.82184912109375,0.1278857421875,1.0991748046875005,1.3783961666216362,0.7509765625,-9.0068359375,2.8359375,29.659411764705883,170.283298417579
0.65046240234375,0.1894091796875,1.1826708984375005,1.3629701494250188,0.67138671875,-8.19677734375,-0.322265625,29.659411764705883,170.283298417579
0.4175522460937499,0.2216357421875,1.2598193359375005,1.345591706140813,0.85400390625,-4.63330078125,-2.3125,29.56529411764706,170.283298417579
0.23151708984375,0.1483935546875,1.2744677734375005,1.3037978813808722,1.10546875,0.32373046875,-2.0234375,29.659411764705883,170.283298417579
0.11432958984375,0.0404833984375,1.2564013671875005,1.2622418770320962,1.41015625,5.4912109375,-0.2265625,29.61235294117647,170.283298417579
0.12995458984375,-0.0342236328125,1.2969287109375005,1.303872514365706,1.78369140625,9.4912109375,1.82275390625,29.61235294117647,170.58086269567767
0.3155014648437499,-0.0786572265625,1.0547412109375005,1.1037242208355134,1.84326171875,10.61328125,2.7763671875,29.61235294117647,170.58086269567767
0.4961655273437499,-0.0659619140625,0.9316943359375,1.057632043883462,1.69091796875,9.8349609375,2.4443359375,29.56529411764706,170.58086269567767
0.60798193359375,-0.0298291015625,0.8350146484375001,1.0333350231080056,1.58154296875,7.36376953125,1.14404296875,29.51823529411765,170.58086269567767
0.63727880859375,-0.0034619140625,0.7798388671875001,1.007117134949023,1.5224609375,3.98193359375,0.2939453125,29.659411764705883,170.58086269567767
0.55622412109375,-0.0127392578125,0.7481005859375001,0.9323100601496044,1.38720703125,0.544921875,0.49951171875,29.56529411764706,170.58086269567767
0.4356186523437499,-0.0561962890625,0.8096240234375001,0.921093205110811,1.1806640625,-2.57470703125,1.58642578125,29.56529411764706,170.58086269567767
0.3457749023437499,-0.0430126953125,0.8936083984375001,0.9591383345518568,1.1728515625,-4.45751953125,2.8232421875,29.56529411764706,170.58086269567767
0.3252670898437499,-0.0073681640625,0.9849169921875,1.0372629613925035,1.31103515625,-5.146484375,3.43310546875,29.659411764705883,170.58086269567767
0.3609116210937499,0.0248583984375,1.0386279296875005,1.0998286750855055,1.31787109375,-4.236328125,2.939453125,29.51823529411765,170.22839079329125
0.3994858398437499,0.0585498046875,1.0840380859375005,1.1567867511463163,1.27734375,-2.3544921875,1.87890625,29.51823529411765,170.22839079329125
0.3697006835937499,0.0819873046875,1.1338427734375005,1.1954078586223404,1.3173828125,-0.3740234375,0.953125,29.56529411764706,170.22839079329125
0.3062241210937499,0.0673388671875,1.1401904296875005,1.1825150956011945,1.39013671875,1.3291015625,0.67431640625,29.70647058823529,170.22839079329125
0.2544663085937499,0.0600146484375,1.1377490234375005,1.1674021160548715,1.498046875,2.14697265625,0.89404296875,29.659411764705883,170.22839079329125
0.2544663085937499,0.0536669921875,1.0693896484375005,1.100557798775268,1.583984375,2.62939453125,1.32373046875,29.51823529411765,170.22839079329125
0.3013413085937499,0.0507373046875,1.0317919921875005,1.076092734616397,1.55859375,2.70458984375,1.61767578125,29.47117647058824,170.22839079329125
0.3355209960937499,0.0712451171875,0.9766162109375,1.035098753264017,1.43408203125,2.455078125,1.67236328125,29.56529411764706,170.22839079329125
0.3872788085937499,0.0775927734375,0.9380419921875,1.0178056264251103,1.39111328125,1.79443359375,1.333984375,29.61235294117647,170.22839079329125
0.4131577148437499,0.0941943359375,0.9258349609375,1.01820540420475,1.33935546875,0.94775390625,0.892578125,29.61235294117647,170.6315225977771
0.4131577148437499,0.1137255859375,0.9155810546875,1.0109013176044497,1.3359375,0.24755859375,0.5986328125,29.659411764705883,170.6315225977771
0.3555405273437499,0.1181201171875,0.9272998046875,1.0001231706353657,1.27490234375,-0.55615234375,0.1328125,29.61235294117647,170.6315225977771
0.3057358398437499,0.0966357421875,0.9424365234375,0.9954895635525536,1.14404296875,-0.81640625,-0.1572265625,29.56529411764706,170.6315225977771
0.2539780273437499,0.0854052734375,0.9585498046875,0.9952972556833468,1.02734375,-0.5009765625,-0.30810546875,29.659411764705883,170.6315225977771
0.22516943359375,0.0771044921875,0.9937060546875,1.021811185915979,0.97509765625,0.119140625,-0.326171875,29.56529411764706,170.6315225977771
0.23835302734375,0.0629443359375,1.0093310546875005,1.039001122726595,0.9521484375,0.8525390625,-0.27392578125,29.61235294117647,170.6315225977771
0.2754624023437499,0.0404833984375,1.0200732421875005,1.0573872800828268,0.93603515625,1.41845703125,-0.37158203125,29.56529411764706,170.6315225977771
0.3086655273437499,0.0312060546875,1.0093310546875005,1.0559343746540957,0.9921875,1.685546875,-0.25244140625,29.51823529411765,170.32438984875603
0.3115952148437499,0.0097216796875,0.9888232421875,1.036801568893329,1.01904296875,1.83837890625,-0.34326171875,29.61235294117647,170.32438984875603
0.2798569335937499,0.0023974609375,0.9761279296875,1.0154562453476017,0.96875,1.78173828125,-0.35498046875,29.61235294117647,170.32438984875603
0.2515366210937499,0.0038623046875,0.9790576171875,1.0108607257785938,0.94580078125,1.60546875,-0.2138671875,29.56529411764706,170.32438984875603
0.2788803710937499,0.0023974609375,0.9814990234375,1.0203530478266338,0.986328125,1.32958984375,-0.0595703125,29.61235294117647,170.32438984875603
0.3252670898437499,-0.0073681640625,0.9927294921875,1.0446840738883338,0.94580078125,0.8994140625,0.20751953125,29.51823529411765,170.32438984875603
0.3692124023437499,-0.0142041015625,1.0142138671875005,1.0794208275464512,0.8837890625,0.46533203125,0.4619140625,29.51823529411765,170.32438984875603
0.3858139648437499,-0.0112744140625,1.0186083984375005,1.0892853607977646,0.82568359375,0.16455078125,0.5400390625,29.61235294117647,170.32438984875603
0.3755600585937499,0.0165576171875,1.0439990234375005,1.1096186161183144,0.849609375,0.0595703125,0.33447265625,29.56529411764706,170.37646370418602
0.3394272460937499,0.0316943359375,1.0303271484375005,1.0852600698121428,0.8779296875,0.13037109375,0.2431640625,29.659411764705883,170.37646370418602
0.3155014648437499,0.0385302734375,1.0093310546875005,1.0581941855095889,0.83642578125,0.62353515625,-0.01025390625,29.56529411764706,170.37646370418602
0.3091538085937499,0.0546435546875,1.0166552734375005,1.064025347651636,0.8662109375,0.9375,-0.0869140625,29.61235294117647,170.37646370418602
0.2905991210937499,0.0526904296875,1.0088427734375005,1.051184033401469,0.875,1.03857421875,0.03271484375,29.51823529411765,170.37646370418602
0.2896225585937499,0.0414599609375,1.0186083984375005,1.059793953641338,0.9443359375,0.796875,0.21630859375,29.51823529411765,170.37646370418602
0.2808334960937499,0.0570849609375,1.0103076171875005,1.0501655234488316,1.03466796875,0.4169921875,0.4326171875,29.56529411764706,170.37646370418602
0.2862045898437499,0.0356005859375,1.0029833984375005,1.0436264496973808,0.99267578125,-0.04638671875,0.55078125,29.70647058823529,170.37646370418602
0.2940170898437499,0.0067919921875,1.0117724609375005,1.0536487521890718,0.9755859375,-0.61474609375,0.5234375,29.61235294117647,170.37646370418602
0.2813217773437499,0.0038623046875,1.0225146484375005,1.0605154718695105,1.05908203125,-0.552734375,0.4130859375,29.659411764705883,170.20784528202915
0.2925522460937499,-0.0098095703125,1.0361865234375005,1.0767383877793657,1.0859375,-0.26806640625,0.318359375,29.56529411764706,170.20784528202915
0.2993881835937499,0.0014208984375,1.0327685546875005,1.075288887220194,1.06640625,0.1669921875,0.36083984375,29.51823529411765,170.20784528202915
0.2891342773437499,0.0243701171875,1.0313037109375005,1.071344891778686,1.10546875,0.3798828125,0.3017578125,29.51823529411765,170.20784528202915
0.2627670898437499,0.0434130859375,1.0156787109375005,1.0500164205321898,1.19775390625,0.7431640625,0.4921875,29.61235294117647,170.20784528202915
0.24811865234375,0.0482958984375,0.9932177734375,1.0248789708638328,1.265625,0.54248046875,0.673828125,29.61235294117647,170.20784528202915
0.23786474609375,0.0458544921875,0.9766162109375,1.006211456580543,1.20263671875,0.3779296875,0.697265625,29.56529411764706,170.20784528202915
0.24323583984375,0.0414599609375,0.9863818359375,1.0167751611899587,1.24169921875,0.19873046875,0.4541015625,29.61235294117647,170.20784528202915
0.24470068359375,0.0326708984375,0.9810107421875,1.0115967024675554,1.0595703125,0.11962890625,0.099609375,29.61235294117647,170.20784528202915
0.23884130859375,0.0331591796875,0.9712451171875,1.000730622869553,0.93017578125,0.1748046875,-0.2568359375,29.56529411764706,170.5039923859786
0.22028662109375,0.0199755859375,0.9736865234375,0.9984941989767658,0.8203125,0.35107421875,-0.51611328125,29.56529411764706,170.5039923859786
0.21149755859375,0.0126513671875,0.9766162109375,0.9993350278303814,0.78759765625,0.38623046875,-0.3447265625,29.51823529411765,170.5039923859786
0.20612646484375,0.0146044921875,0.9790576171875,1.000627417410647,0.78662109375,0.64404296875,-0.048828125,29.659411764705883,170.5039923859786
0.21296240234375,0.0077685546875,0.9644091796875,0.987673225879628,0.77001953125,0.666015625,0.19677734375,29.56529411764706,170.5039923859786
0.21882177734375,0.1381396484375,0.9751513671875,1.0089032270926506,0.73681640625,0.634765625,0.23779296875,29.61235294117647,170.5039923859786
0.24665380859375,0.0385302734375,0.9751513671875,1.006599658351135,0.70751953125,0.56103515625,0.2451171875,29.61235294117647,170.5039923859786
0.2974350585937499,0.0526904296875,0.9790576171875,1.0245963660067248,0.66162109375,0.5390625,-0.111328125,29.56529411764706,170.5039923859786
0.21491552734375,0.0605029296875,0.9956591796875,1.0203854617203236,0.66650390625,0.48388671875,-0.18701171875,29.70647058823529,170.6315225977771
0.3843491210937499,0.0702685546875,0.9971240234375,1.070942685104855,0.67333984375,0.0390625,-0.11669921875,29.56529411764706,170.6315225977771
0.4126694335937499,0.0570849609375,1.0112841796875005,1.0937323467256708,0.69677734375,-0.388671875,0.138671875,29.56529411764706,170.6315225977771
0.4077866210937499,0.0668505859375,1.0166552734375005,1.0974273890292348,0.7021484375,-1.09033203125,0.40234375,29.659411764705883,170.6315225977771
0.3848374023437499,0.0517138671875,1.0332568359375005,1.1038087874780425,0.6279296875,-1.400390625,0.29541015625,29.659411764705883,170.6315225977771
0.4517319335937499,0.0478076171875,1.0439990234375005,1.138543485786972,0.81982421875,-1.18359375,0.181640625,29.56529411764706,170.6315225977771
0.2964584960937499,0.0272998046875,1.0586474609375005,1.0997124013993658,0.89697265625,-0.7177734375,0.14208984375,29.61235294117647,170.6315225977771
0.2647202148437499,0.0307177734375,1.0674365234375005,1.1002004841483282,0.92919921875,-0.11669921875,0.29833984375,29.56529411764706,170.6315225977771
0.2578842773437499,0.0160693359375,1.0371630859375005,1.0688637850025506,0.88525390625,0.556640625,0.3779296875,29.659411764705883,170.59042807197713
0.2530014648437499,0.0097216796875,1.0127490234375005,1.0439180220413096,0.83837890625,0.93115234375,0.712890625,29.56529411764706,170.59042807197713
0.24567724609375,0.0136279296875,0.9824755859375,1.012818496414343,0.7275390625,1.10888671875,0.75634765625,29.56529411764706,170.59042807197713
0.23932958984375,0.0175341796875,0.9810107421875,1.009934738643721,0.68798828125,1.119140625,0.97314453125,29.61235294117647,170.59042807197713
0.23102880859375,0.0253466796875,0.9849169921875,1.0119675123595129,0.7802734375,0.86279296875,0.94091796875,29.659411764705883,170.59042807197713
0.22516943359375,0.0233935546875,0.9863818359375,1.0120265107660371,0.79150390625,0.44189453125,0.91650390625,29.61235294117647,170.59042807197713
0.21931005859375,0.0238818359375,1.0112841796875005,1.0350666335914611,0.75439453125,0.33203125,0.96484375,29.56529411764706,170.59042807197713
0.22516943359375,0.0087451171875,1.0332568359375005,1.0575431149183128,0.75830078125,0.541015625,0.89697265625,29.70647058823529,170.59042807197713
0.21198583984375,0.0058154296875,1.0439990234375005,1.0653195654146057,1.02392578125,1.09228515625,0.7919921875,29.56529411764706,170.59042807197713
0.21198583984375,0.0243701171875,1.0557177734375005,1.077066347101155,1.2275390625,1.69873046875,0.74365234375,29.61235294117647,170.55889967994102
0.23347021484375,0.0468310546875,1.0361865234375005,1.0631951844585374,1.263671875,1.99853515625,0.78466796875,29.56529411764706,170.55889967994102
0.2920639648437499,0.0707568359375,1.0068896484375005,1.0507781181213902,1.3515625,2.14794921875,0.6826171875,29.00058823529412,170.55889967994102
0.3306381835937499,0.0785693359375,0.9805224609375,1.0377471008886343,1.16064453125,2.24267578125,0.46337890625,29.56529411764706,170.55889967994102
0.3482163085937499,0.1137255859375,0.9902880859375,1.0558686469524714,1.04931640625,2.06005859375,0.142578125,29.56529411764706,170.55889967994102
0.3579819335937499,0.1278857421875,0.9917529296875,1.062110964719839,1.00244140625,1.58544921875,-0.21533203125,29.56529411764706,170.55889967994102
0.3692124023437499,0.1283740234375,1.0083544921875005,1.0814695880387422,1.078125,0.6953125,-0.49560546875,29.659411764705883,170.55889967994102
0.3672592773437499,0.0946826171875,1.0034716796875005,1.072753273929929,1.15673828125,0.12060546875,-0.5908203125,29.56529411764706,170.55889967994102
0.3487045898437499,0.0580615234375,1.0127490234375005,1.0726726508845053,1.19921875,-0.3017578125,-0.59228515625,29.56529411764706,170.55889967994102
0.3242905273437499,0.0321826171875,1.0234912109375005,1.0741202566939307,1.2587890625,-0.29052734375,-0.5810546875,29.51823529411765,170.44093599202884
0.3135483398437499,0.0375537109375,1.0156787109375005,1.0636381369975465,1.26953125,-0.29736328125,-0.53564453125,29.56529411764706,170.44093599202884
0.2832749023437499,0.0370654296875,1.0103076171875005,1.0499238056748998,1.2587890625,-0.22900390625,-0.4443359375,29.51823529411765,170.44093599202884
0.24372412109375,0.0351123046875,1.0225146484375005,1.0517464178273457,1.19091796875,-0.349609375,-0.36572265625,29.61235294117647,170.44093599202884
0.3316147460937499,0.0517138671875,1.0391162109375005,1.0919730599787782,1.1875,-0.2158203125,-0.04736328125,29.659411764705883,170.44093599202884
0.19440771484375,0.0507373046875,1.0176318359375005,1.0372768131946497,1.1650390625,0.17529296875,0.119140625,29.56529411764706,170.44093599202884
0.19196630859375,0.0580615234375,1.0024951171875005,1.0223593615377002,1.0908203125,0.52734375,-0.19775390625,29.51823529411765,170.44093599202884
0.19294287109375,0.0590380859375,0.9863818359375,1.0068076148721246,0.9267578125,1.2041015625,-0.4736328125,29.659411764705883,170.44093599202884
0.19782568359375,0.0522021484375,0.9756396484375,0.9968614693095896,0.7607421875,1.6025390625,-0.56787109375,29.56529411764706,170.55748371189188
0.18952490234375,0.0434130859375,0.9736865234375,0.9929097796692458,0.6962890625,1.57373046875,-0.421875,29.56529411764706,170.55748371189188
0.20417333984375,0.0272998046875,0.9785693359375,1.0000149885257157,0.716796875,1.1708984375,-0.0908203125,29.659411764705883,170.55748371189188
0.23688818359375,0.0180224609375,0.9863818359375,1.0145885603987574,0.70263671875,0.8056640625,0.10986328125,29.659411764705883,170.55748371189188
0.2622788085937499,0.0238818359375,1.0161669921875005,1.049740859229788,0.69677734375,0.51171875,0.05615234375,29.659411764705883,170.55748371189188
0.2905991210937499,0.0360888671875,1.0151904296875005,1.0565802686234629,0.78515625,0.2744140625,-0.04248046875,29.61235294117647,170.55748371189188
0.3062241210937499,0.0385302734375,1.0249560546875005,1.0704170721505586,0.796875,0.0830078125,-0.02490234375,29.56529411764706,170.55748371189188
0.3213608398437499,0.0404833984375,1.0352099609375005,1.0846987407378836,0.81591796875,0.07958984375,0.09521484375,29.51823529411765,170.55748371189188
0.3111069335937499,0.0531787109375,1.0435107421875005,1.0901973071365512,0.88134765625,0.2080078125,0.19873046875,29.61235294117647,170.20784528202915
0.3042709960937499,0.0492724609375,1.0356982421875005,1.0805921817878372,0.92578125,0.4111328125,0.2392578125,29.61235294117647,170.20784528202915
0.3076889648437499,0.0399951171875,1.0249560546875005,1.0708907612478624,0.93505859375,0.5078125,0.16015625,29.56529411764706,170.20784528202915
0.3028061523437499,0.0356005859375,1.0122607421875005,1.0571805795559757,0.92138671875,0.3955078125,0.10693359375,29.659411764705883,170.20784528202915
0.2949936523437499,0.0229052734375,1.0059130859375005,1.048526128875507,0.94189453125,0.15478515625,0.0537109375,29.56529411764706,170.20784528202915
0.2725327148437499,0.0297412109375,0.9956591796875,1.0327128460439132,0.94921875,-0.06689453125,-0.03515625,29.61235294117647,170.20784528202915
0.24177099609375,0.0282763671875,0.9946826171875,1.0240343140874046,0.94970703125,-0.18359375,-0.076171875,29.659411764705883,170.20784528202915
0.21100927734375,0.0360888671875,1.0073779296875005,1.029872620609696,0.953125,-0.18212890625,0.0517578125,29.56529411764706,170.20784528202915
0.19538427734375,0.0424365234375,1.0049365234375005,1.0246332468221253,0.87841796875,-0.03759765625,0.189453125,29.61235294117647,170.20784528202915
0.20514990234375,0.0492724609375,1.0127490234375005,1.034492553048159,1.072265625,0.2041015625,0.171875,29.659411764705883,170.33537134873157
0.20661474609375,0.0507373046875,0.9946826171875,1.0171811226744782,1.076171875,0.34716796875,0.05224609375,29.56529411764706,170.33537134873157
0.20905615234375,0.0565966796875,0.9868701171875,1.0103565148907057,1.02197265625,0.48046875,-0.21533203125,29.659411764705883,170.33537134873157
0.18659521484375,0.0590380859375,0.9829638671875,1.0022580675604231,0.96630859375,0.5029296875,-0.4150390625,29.56529411764706,170.33537134873157
0.16071630859375,0.0595263671875,0.9873583984375,1.0021226108633652,0.92041015625,0.5068359375,-0.421875,29.56529411764706,170.33537134873157
0.15046240234375,0.0473193359375,0.9819873046875,0.99457383870683,0.81689453125,0.498046875,-0.2041015625,29.56529411764706,170.33537134873157
0.14899755859375,0.0316943359375,0.9995654296875,1.011106251401787,0.73193359375,0.1572265625,0.02392578125,29.659411764705883,170.33537134873157
0.16462255859375,0.0224169921875,1.0303271484375005,1.0436364985683655,0.69287109375,0.03564453125,0.34619140625,29.51823529411765,170.33537134873157
0.15973974609375,0.0102099609375,1.0576708984375005,1.0697143353185607,0.74560546875,0.171875,0.26025390625,29.56529411764706,170.33537134873157
0.16413427734375,0.0063037109375,1.0474169921875005,1.060217974424999,0.7578125,0.2587890625,0.138671875,29.659411764705883,170.41082494536747
0.16559912109375,0.0170458984375,1.0527880859375005,1.0658688406424637,0.7646484375,0.609375,0.236328125,29.56529411764706,170.41082494536747
0.16901708984375,0.0165576171875,1.0532763671875005,1.066879579438034,0.869140625,0.8486328125,0.43115234375,29.659411764705883,170.41082494536747
0.18464208984375,0.0385302734375,1.0708544921875005,1.0873392417967749,0.84619140625,1.15576171875,0.55029296875,29.61235294117647,170.41082494536747
0.18610693359375,0.0468310546875,1.0718310546875005,1.088875910380669,0.974609375,1.37744140625,0.38525390625,29.61235294117647,170.41082494536747
0.17731787109375,0.0580615234375,1.0493701171875005,1.0658285090760198,0.96435546875,1.64990234375,0.2568359375,29.56529411764706,170.41082494536747
0.18708349609375,0.0717333984375,1.0308154296875005,1.0501077873456035,0.982421875,1.51953125,0.3466796875,29.56529411764706,170.41082494536747
0.21247412109375,0.0561083984375,1.0181201171875005,1.0415670777879225,0.939453125,1.31787109375,0.49365234375,29.51823529411765,170.41082494536747
0.21735693359375,0.0590380859375,1.0049365234375005,1.0298674421065517,0.9580078125,1.1005859375,0.72607421875,29.56529411764706,170.55889967994102
0.24567724609375,0.0790576171875,0.9932177734375,1.0262012285880968,1.044921875,0.84912109375,0.80078125,30.31823529411765,170.55889967994102
0.3032944335937499,0.0766162109375,0.9941943359375,1.0422475400966795,0.9443359375,0.05859375,0.564453125,29.56529411764706,170.55889967994102
0.3277084960937499,0.0751513671875,1.0078662109375005,1.0624664161994446,0.921875,-0.60595703125,0.22900390625,29.56529411764706,170.55889967994102
0.2837631835937499,0.0692919921875,1.0225146484375005,1.063418605636481,0.931640625,-0.9208984375,0.2353515625,29.51823529411765,170.55889967994102
0.23932958984375,0.0565966796875,1.0205615234375005,1.0497750520218598,0.91748046875,-0.93798828125,0.4580078125,29.51823529411765,170.55889967994102
0.22663427734375,0.0497607421875,1.0190966796875005,1.0451781042866628,0.908203125,-0.65869140625,0.576171875,29.56529411764706,170.55889967994102
0.23591162109375,0.0448779296875,1.0112841796875005,1.0394056059240482,0.90283203125,-0.22265625,0.42041015625,29.61235294117647,170.55889967994102
0.2549545898437499,0.0424365234375,0.9966357421875,1.0296045376791447,0.85400390625,0.11669921875,0.2490234375,29.51823529411765,170.40940808738142
0.2525131835937499,0.0468310546875,0.9849169921875,1.0178494668031548,0.9951171875,0.24267578125,-0.06103515625,29.61235294117647,170.40940808738142
0.23981787109375,0.0341357421875,1.0088427734375005,1.0375170368276838,0.90478515625,-0.2861328125,-0.03955078125,29.61235294117647,170.40940808738142
0.21198583984375,0.0356005859375,1.0151904296875005,1.0376979360789174,0.9453125,-1.095703125,0.13916015625,29.61235294117647,170.40940808738142
0.14313818359375,0.0609912109375,1.0400927734375005,1.051666032907335,0.876953125,-1.24072265625,0.3486328125,29.61235294117647,170.40940808738142
0.08893896484375,0.0805224609375,1.0474169921875005,1.0542657927230774,1.10107421875,-0.837890625,0.35400390625,29.61235294117647,170.40940808738142
0.07917333984375,0.0888232421875,1.0352099609375005,1.0420257431171909,1.0966796875,0.22509765625,-0.24951171875,29.51823529411765,170.40940808738142
0.10065771484375,0.0766162109375,1.0068896484375005,1.0148048006718229,1.06982421875,1.193359375,-0.68359375,29.51823529411765,170.40940808738142
0.15485693359375,0.0878466796875,0.9844287109375,1.0003987184779104,0.91650390625,1.65966796875,-0.71826171875,29.61235294117647,170.40940808738142
0.21540380859375,0.0863818359375,0.9722216796875,0.99953770153557,0.79248046875,1.580078125,-0.46435546875,29.56529411764706,170.19686376576138
0.2779038085937499,0.0712451171875,0.9551318359375,0.997287931128875,0.7919921875,1.17578125,-0.32470703125,29.61235294117647,170.19686376576138
0.21003271484375,0.0585498046875,0.9297412109375,0.9549662508429864,0.73828125,0.3486328125,-0.33642578125,29.51823529411765,170.19686376576138
0.3545639648437499,0.0605029296875,0.9605029296875,1.0256422805270662,0.63037109375,-0.892578125,-0.42919921875,29.61235294117647,170.19686376576138
0.3433334960937499,0.0575732421875,0.9966357421875,1.055687155534994,0.73095703125,-2.0361328125,-0.51904296875,29.56529411764706,170.19686376576138
0.3047592773437499,0.0585498046875,1.0249560546875005,1.0709067236676568,0.7705078125,-2.76025390625,-0.49462890625,29.659411764705883,170.19686376576138
0.24372412109375,0.0624560546875,1.0537646484375005,1.083384576347041,0.80029296875,-2.9658203125,-0.3896484375,29.659411764705883,170.19686376576138
0.3306381835937499,0.0653857421875,1.0840380859375005,1.135224856799138,0.77978515625,-2.54443359375,-0.26904296875,29.51823529411765,170.19686376576138
0.19489599609375,0.0648974609375,1.0928271484375005,1.1119655147942078,0.8427734375,-1.623046875,-0.2265625,29.659411764705883,170.54933453743857
0.21784521484375,0.0639208984375,1.0864794921875005,1.1099459923038533,0.93408203125,-0.51416015625,-0.2587890625,29.56529411764706,170.54933453743857
0.2515366210937499,0.0522021484375,1.0371630859375005,1.0685050317542495,0.99755859375,0.3154296875,-0.26513671875,29.61235294117647,170.54933453743857
0.2676499023437499,0.0375537109375,1.0127490234375005,1.0481924135879854,1.01123046875,0.884765625,-0.265625,29.70647058823529,170.54933453743857
0.2652084960937499,0.0395068359375,0.9824755859375,1.0184078816708633,0.97021484375,1.1220703125,-0.12841796875,29.56529411764706,170.54933453743857
0.2725327148437499,0.0150927734375,0.9639208984375,1.0018210273869768,0.93310546875,0.55126953125,-0.369140625,29.659411764705883,170.54933453743857
0.24958349609375,0.0204638671875,0.9531787109375,0.9855254163983396,0.88525390625,-0.037109375,-0.43310546875,29.61235294117647,170.54933453743857
0.20954443359375,0.0248583984375,0.9673388671875,0.990086508136839,0.791015625,-0.6474609375,-0.38525390625,29.56529411764706,170.54933453743857
0.18561865234375,0.0360888671875,1.0098193359375005,1.0273712968863988,0.8134765625,-0.87890625,-0.26806640625,29.51823529411765,170.54933453743857
0.18757177734375,0.0492724609375,1.0313037109375005,1.0493799556195982,0.8828125,-0.9833984375,-0.11474609375,29.659411764705883,170.56846515123408
0.23835302734375,0.0624560546875,1.0210498046875005,1.0503597612548954,0.99462890625,-0.78759765625,0.3642578125,29.659411764705883,170.56846515123408
0.2808334960937499,0.0439013671875,1.0474169921875005,1.0853004828582171,0.7138671875,-0.421875,0.26904296875,29.51823529411765,170.56846515123408
0.2974350585937499,0.0722216796875,1.0425341796875005,1.086536286055022,0.8134765625,0.10986328125,-0.10498046875,29.61235294117647,170.56846515123408
0.2666733398437499,0.0531787109375,1.0186083984375005,1.0542797137609183,0.7158203125,0.4404296875,-0.44677734375,29.56529411764706,170.56846515123408
0.22223974609375,0.0375537109375,1.0044482421875005,1.0294255957486929,0.68701171875,0.32568359375,-0.388671875,29.56529411764706,170.56846515123408
0.19343115234375,0.0253466796875,0.9844287109375,1.0035725941785576,0.74072265625,0.0439453125,0.03662109375,29.51823529411765,170.56846515123408
0.19684912109375,0.0175341796875,0.9834521484375,1.0031127315506618,0.78759765625,-0.1640625,0.54248046875,29.56529411764706,170.56846515123408
0.20661474609375,0.0214404296875,1.0098193359375005,1.030962868662991,0.828125,-0.31494140625,0.83447265625,29.56529411764706,170.4423525967725
0.23835302734375,0.0277880859375,1.0166552734375005,1.044591924328481,0.8994140625,-0.36767578125,0.76318359375,29.659411764705883,170.4423525967725
0.2603256835937499,0.0458544921875,1.0313037109375005,1.0646405215779575,0.91357421875,-0.28125,0.39599609375,29.51823529411765,170.4423525967725
0.2520249023437499,0.0487841796875,1.0430224609375005,1.0741472439145754,0.880859375,-0.2490234375,0.0859375,29.51823529411765,170.4423525967725
0.22370458984375,0.0541552734375,1.0469287109375005,1.071931090576025,0.9228515625,-0.00146484375,-0.0009765625,29.56529411764706,170.4423525967725
0.18903662109375,0.0487841796875,1.0483935546875005,1.0664163285568244,0.9072265625,0.18115234375,0.12451171875,29.56529411764706,170.4423525967725
0.16120458984375,0.0458544921875,1.0493701171875005,1.062669843877473,0.90380859375,0.47705078125,0.33544921875,29.56529411764706,170.4423525967725
0.16169287109375,0.0507373046875,1.0522998046875005,1.0658582164597894,0.87548828125,0.74609375,0.44677734375,29.51823529411765,170.4423525967725
0.17878271484375,0.0541552734375,1.0513232421875005,1.0677905283020774,1.0224609375,0.90625,0.41064453125,29.56529411764706,170.4423525967725
0.20270849609375,0.0619677734375,1.0293505859375005,1.0509487942346507,0.88037109375,0.9697265625,0.2861328125,29.56529411764706,170.35875181672114
0.21735693359375,0.0673388671875,1.0230029296875005,1.048004558083877,0.9990234375,0.982421875,0.1708984375,29.51823529411765,170.35875181672114
0.20954443359375,0.0580615234375,0.9971240234375,1.0205568716490998,0.90234375,0.8818359375,0.09912109375,29.56529411764706,170.35875181672114
0.21003271484375,0.0561083984375,0.9897998046875,1.0133930861414393,0.857421875,0.69189453125,0.06640625,29.61235294117647,170.35875181672114
0.20026708984375,0.0536669921875,0.9907763671875,1.0122375527030192,0.85302734375,0.5126953125,0.11669921875,29.56529411764706,170.35875181672114
0.20075537109375,0.0570849609375,0.9849169921875,1.0067884054198764,0.8515625,0.318359375,0.14892578125,29.61235294117647,170.35875181672114
0.22028662109375,0.0663623046875,0.9976123046875,1.0237970801776313,0.8818359375,0.14306640625,0.10498046875,29.51823529411765,170.35875181672114
0.24518896484375,0.0702685546875,1.0015185546875005,1.033486678018812,0.88720703125,0.11572265625,-0.0166015625,29.61235294117647,170.35875181672114
0.23884130859375,0.0810107421875,1.0176318359375005,1.0484190309957522,0.875,-0.11865234375,-0.1572265625,29.51823529411765,170.58086269567767
0.22419287109375,0.0707568359375,1.0215380859375005,1.048240923787083,0.8974609375,-0.0751953125,-0.22412109375,29.61235294117647,170.58086269567767
0.20514990234375,0.0668505859375,1.0161669921875005,1.0388218515622534,0.88720703125,0.1044921875,-0.18701171875,29.70647058823529,170.58086269567767
0.17780615234375,0.0517138671875,1.0176318359375005,1.0343422573714671,0.92041015625,0.23681640625,-0.10400390625,29.56529411764706,170.58086269567767
0.16608740234375,0.0424365234375,1.0132373046875005,1.0276359858184934,0.90673828125,0.33447265625,-0.009765625,29.61235294117647,170.58086269567767
0.18220068359375,0.0531787109375,1.0073779296875005,1.0251026083375645,0.88671875,0.33251953125,0.05908203125,29.56529411764706,170.58086269567767
0.20075537109375,0.0478076171875,1.0073779296875005,1.0282988770321642,0.84521484375,0.33251953125,0.09814453125,29.56529411764706,170.58086269567767
0.19929052734375,0.0448779296875,1.0112841796875005,1.0317104414263756,0.83447265625,0.2880859375,0.078125,29.659411764705883,170.58086269567767
0.19880224609375,0.0507373046875,1.0127490234375005,1.0333233722375983,0.830078125,0.23095703125,0.1171875,29.61235294117647,170.53835300310772
0.20856787109375,0.0575732421875,1.0068896484375005,1.029874749277383,0.79052734375,0.16552734375,0.2314453125,29.70647058823529,170.53835300310772
0.22468115234375,0.0634326171875,1.0190966796875005,1.0454967047733144,0.78759765625,0.06982421875,0.38916015625,29.56529411764706,170.53835300310772
0.22468115234375,0.0678271484375,1.0088427734375005,1.035782739671185,0.80712890625,-0.0107421875,0.40283203125,29.56529411764706,170.53835300310772
0.22956396484375,0.0551318359375,0.9971240234375,1.0246928571063671,0.79638671875,0.01171875,0.25390625,29.70647058823529,170.53835300310772
0.21052099609375,0.0609912109375,1.0005419921875005,1.0242671993862047,0.7802734375,0.09912109375,0.09716796875,29.56529411764706,170.53835300310772
0.18952490234375,0.0551318359375,1.0088427734375005,1.0279703057283878,0.77197265625,0.18994140625,0.12060546875,29.61235294117647,170.53835300310772
0.16364599609375,0.0380419921875,1.0088427734375005,1.0227369880493111,0.77001953125,0.28271484375,-0.0341796875,29.56529411764706,170.53835300310772
0.15436865234375,0.0458544921875,1.0249560546875005,1.0375293872082685,0.82861328125,0.1298828125,0.23583984375,29.659411764705883,170.31482554270954
0.20710302734375,0.0541552734375,1.0259326171875005,1.048027763270244,0.8388671875,-0.0966796875,0.5986328125,29.61235294117647,170.31482554270954
0.2661850585937499,0.0434130859375,1.0303271484375005,1.0650414143386753,0.69873046875,-0.23486328125,0.609375,29.61235294117647,170.31482554270954
0.2764389648437499,0.0756396484375,1.0537646484375005,1.092043859923328,0.79638671875,0.11083984375,0.35888671875,29.61235294117647,170.31482554270954
0.2705795898437499,0.0741748046875,1.0117724609375005,1.0499517745125089,0.779296875,0.4833984375,-0.31689453125,29.659411764705883,170.31482554270954
0.21638037109375,0.0692919921875,1.0098193359375005,1.0350637354333478,0.70458984375,0.4765625,-0.595703125,29.659411764705883,170.31482554270954
0.17585302734375,0.0668505859375,0.9951708984375,1.0127973169213325,0.66845703125,0.275390625,-0.42724609375,29.659411764705883,170.31482554270954
0.16169287109375,0.0512255859375,0.9771044921875,0.9917166096573016,0.63232421875,-0.07177734375,-0.11083984375,29.56529411764706,170.31482554270954
0.16022802734375,0.0600146484375,0.9858935546875,1.000630241371857,0.74658203125,-0.302734375,0.4521484375,29.659411764705883,170.46573283872743
0.21003271484375,0.0678271484375,0.9995654296875,1.023643156376359,0.63427734375,-0.42578125,0.5078125,29.56529411764706,170.46573283872743
0.2681381835937499,0.0790576171875,1.0059130859375005,1.044035118564805,0.66455078125,-0.48779296875,0.140625,29.659411764705883,170.46573283872743
0.2954819335937499,0.0795458984375,1.0156787109375005,1.0607734757667129,0.642578125,-0.59423828125,-0.3037109375,29.659411764705883,170.46573283872743
0.2774155273437499,0.0702685546875,1.0166552734375005,1.0561652283603924,0.67822265625,-0.77685546875,-0.83056640625,29.61235294117647,170.46573283872743
0.23249365234375,0.0517138671875,1.0366748046875005,1.0636833519020077,0.7236328125,-0.9091796875,-0.8408203125,29.56529411764706,170.46573283872743
0.18757177734375,0.0399951171875,1.0293505859375005,1.047065141156275,0.7431640625,-0.93212890625,-0.54296875,29.51823529411765,170.46573283872743
0.16120458984375,0.0331591796875,1.0254443359375005,1.0385675409382582,0.791015625,-0.7880859375,-0.0859375,29.61235294117647,170.46573283872743
0.17097021484375,0.0463427734375,1.0376513671875005,1.052662731761549,0.82275390625,-0.5439453125,0.15185546875,29.56529411764706,170.46573283872743
0.20368505859375,0.0595263671875,1.0254443359375005,1.0471709877528033,0.7744140625,-0.21435546875,0.025390625,29.51823529411765,170.62337255825315
0.23298193359375,0.0683154296875,1.0171435546875005,1.045719173658394,0.75244140625,-0.03515625,-0.2294921875,29.61235294117647,170.62337255825315
0.2510483398437499,0.0570849609375,0.9961474609375,1.0288798402319714,0.7177734375,-0.06982421875,-0.35107421875,29.659411764705883,170.62337255825315
0.24274755859375,0.0619677734375,0.9937060546875,1.0248014955446856,0.71923828125,-0.22607421875,-0.22607421875,29.56529411764706,170.62337255825315
0.23639990234375,0.0497607421875,0.9946826171875,1.0235988248460235,0.71142578125,-0.3291015625,-0.0625,29.61235294117647,170.62337255825315
0.2666733398437499,0.0424365234375,1.0054248046875005,1.0410545454421587,0.71826171875,-0.33447265625,-0.02685546875,29.56529411764706,170.62337255825315
0.2554428710937499,0.0497607421875,1.0195849609375005,1.0522740538593514,0.71630859375,-0.3408203125,-0.0361328125,29.56529411764706,170.62337255825315
0.2559311523437499,0.0531787109375,1.0273974609375005,1.0601293660576507,0.7529296875,-0.31103515625,-0.10986328125,29.61235294117647,170.62337255825315
0.2515366210937499,0.0556201171875,1.0327685546875005,1.0644130573882116,0.76123046875,-0.24560546875,-0.14208984375,29.61235294117647,170.46431567314738
0.23786474609375,0.0365771484375,1.0220263671875005,1.0499787714275668,0.779296875,-0.1806640625,-0.13037109375,29.659411764705883,170.46431567314738
0.22126318359375,0.0297412109375,1.0283740234375005,1.0523284031722715,0.81982421875,-0.048828125,-0.052734375,29.61235294117647,170.46431567314738
0.21931005859375,0.0287646484375,1.0225146484375005,1.0461646682379366,0.857421875,0.00048828125,0.03564453125,29.659411764705883,170.46431567314738
0.23444677734375,0.0238818359375,1.0190966796875005,1.045989328838829,0.82958984375,0.19677734375,0.056640625,29.56529411764706,170.46431567314738
0.24860693359375,0.0224169921875,1.0088427734375005,1.0392649664482534,0.8193359375,0.1787109375,0.01416015625,29.56529411764706,170.46431567314738
0.2578842773437499,0.0326708984375,1.0020068359375005,1.035176017579282,0.82568359375,0.11181640625,0.01220703125,29.61235294117647,170.46431567314738
0.2622788085937499,0.0404833984375,1.0010302734375005,1.035611262648665,0.84716796875,0.06494140625,0.01318359375,29.659411764705883,170.46431567314738
0.2652084960937499,0.0360888671875,1.0117724609375005,1.046576067682952,0.892578125,-0.0439453125,0.02880859375,29.659411764705883,170.46431567314738
0.2530014648437499,0.0385302734375,0.9897998046875,1.022349243919936,0.91845703125,-0.18505859375,0.01708984375,29.56529411764706,170.54933453743857
0.23298193359375,0.0502490234375,0.9829638671875,1.0114462466852652,0.93017578125,-0.2353515625,-0.01513671875,29.659411764705883,170.54933453743857
0.19587255859375,0.0492724609375,0.9907763671875,1.011153620571157,0.93310546875,-0.14990234375,-0.14501953125,29.659411764705883,170.54933453743857
0.16169287109375,0.0644091796875,0.9805224609375,0.99585010086533,0.95361328125,0.1181640625,-0.23388671875,29.70647058823529,170.54933453743857
0.14118505859375,0.0614794921875,0.9746630859375,0.9867527956985804,1.02490234375,0.3515625,-0.38037109375,29.56529411764706,170.54933453743857
0.13239599609375,0.0639208984375,0.9780810546875,0.98906881993991,1.17724609375,0.513671875,-0.41015625,29.61235294117647,170.54933453743857
0.13825537109375,0.0605029296875,0.9863818359375,0.9978598490792554,1.33203125,0.55517578125,-0.314453125,29.56529411764706,170.54933453743857
0.12556005859375,0.0717333984375,0.9937060546875,1.0041726603966352,1.45068359375,0.400390625,-0.23876953125,29.61235294117647,170.54933453743857
0.14997412109375,0.0639208984375,0.9966357421875,1.009881637054823,1.35400390625,-0.2333984375,0.119140625,29.56529411764706,170.54791819310452
0.20319677734375,0.0487841796875,0.9956591796875,1.017352460363002,1.1083984375,-1.0224609375,0.42236328125,29.47117647058824,170.54791819310452
0.2832749023437499,0.0731982421875,1.0444873046875005,1.0846918376251202,0.91162109375,-2.21337890625,0.78466796875,29.56529411764706,170.54791819310452
0.3389389648437499,0.0927294921875,1.0986865234375005,1.1535122268072782,0.85986328125,-2.45166015625,0.8056640625,29.659411764705883,170.54791819310452
0.3404038085937499,0.0937060546875,1.1172412109375005,1.1717011141956464,0.91455078125,-1.73193359375,0.29541015625,29.56529411764706,170.54791819310452
0.3037827148437499,0.0717333984375,1.0923388671875005,1.1360606581770638,1.11962890625,0.0732421875,-0.4775390625,29.659411764705883,170.54791819310452
0.2622788085937499,0.0370654296875,1.0557177734375005,1.088441103903702,1.03759765625,0.9580078125,-0.716796875,29.70647058823529,170.54791819310452
0.19343115234375,0.0111865234375,1.0215380859375005,1.0397503594731288,1.02099609375,0.92822265625,-0.2158203125,29.56529411764706,170.54791819310452
0.15583349609375,0.0028857421875,0.9849169921875,0.9971729476437102,0.9697265625,0.25146484375,0.7578125,29.61235294117647,170.56988118079218
0.16755224609375,0.0214404296875,0.9863818359375,1.0007410121823122,0.9296875,-0.40869140625,1.4619140625,29.51823529411765,170.56988118079218
0.20124365234375,0.0277880859375,0.9985888671875,1.0190441163166275,0.8427734375,-0.87060546875,1.46923828125,29.61235294117647,170.56988118079218
0.23493505859375,0.0419482421875,1.0205615234375005,1.048093488148906,0.798828125,-0.77783203125,1.19384765625,29.56529411764706,170.56988118079218
0.23493505859375,0.0634326171875,1.0288623046875005,1.0572491762524951,0.82080078125,-0.4755859375,1.02734375,29.61235294117647,170.56988118079218
0.22614599609375,0.0561083984375,1.0078662109375005,1.0344488692409932,0.78759765625,-0.18896484375,0.99951171875,29.659411764705883,170.56988118079218
0.22126318359375,0.0605029296875,0.9981005859375,1.0241204912331328,0.78662109375,0.1962890625,1.05517578125,29.659411764705883,170.56988118079218
0.21589208984375,0.0551318359375,0.9736865234375,0.9988565260910832,0.78173828125,0.560546875,1.07080078125,29.659411764705883,170.56988118079218
0.23054052734375,0.0595263671875,0.9473193359375,0.9767836236237488,0.70703125,0.546875,0.95068359375,29.56529411764706,170.4423525967725
0.24616552734375,0.0702685546875,0.9556201171875,0.9893153920786576,0.61181640625,0.158203125,0.86767578125,29.56529411764706,170.4423525967725
0.2554428710937499,0.0888232421875,0.9546435546875,0.9922121473010213,0.6513671875,-0.25634765625,0.61474609375,29.51823529411765,170.4423525967725
0.23688818359375,0.0976123046875,0.9727099609375,1.005887091904347,0.6943359375,-0.734375,0.30615234375,29.61235294117647,170.4423525967725
0.24665380859375,0.1024951171875,1.0005419921875005,1.03558081696776,0.72412109375,-1.11865234375,0.15283203125,29.659411764705883,170.4423525967725
0.24860693359375,0.0829638671875,1.0161669921875005,1.0494206814719174,0.73583984375,-1.35888671875,-0.0869140625,29.56529411764706,170.4423525967725
0.23835302734375,0.0854052734375,1.0503466796875005,1.0804324939140904,0.42529296875,-1.25390625,-0.25390625,29.61235294117647,170.4423525967725
0.20173193359375,0.0702685546875,1.1064990234375005,1.126931023478139,0.384765625,-0.99169921875,-0.6103515625,29.51823529411765,170.4423525967725
0.17731787109375,0.0409716796875,1.1431201171875005,1.157516266954551,0.45751953125,-0.18115234375,-0.765625,29.61235294117647,170.4423525967725
0.16804052734375,0.0043505859375,1.1465380859375005,1.1587951194810893,0.712890625,0.8603515625,-0.7939453125,29.47117647058824,170.69741129482273
0.15192724609375,-0.0229931640625,1.0991748046875005,1.1098629757582872,0.77392578125,1.9736328125,-0.7392578125,29.51823529411765,170.69741129482273
0.16218115234375,-0.0181103515625,1.0825732421875005,1.0948038800212667,0.9921875,2.8505859375,-0.7021484375,29.61235294117647,170.69741129482273
0.16169287109375,0.0009326171875,1.0054248046875005,1.0183439950322566,1.07666015625,3.03173828125,-0.54150390625,29.61235294117647,170.69741129482273
0.18073583984375,0.0170458984375,0.9561083984375,0.9731902568461568,1.03662109375,2.43408203125,-0.3095703125,29.47117647058824,170.69741129482273
0.21296240234375,0.0346240234375,0.9575732421875,0.9815795036391614,0.9453125,1.3720703125,-0.13427734375,29.61235294117647,170.69741129482273
0.21979833984375,0.0736865234375,0.9741748046875,1.0013778327995395,0.99658203125,0.109375,-0.1748046875,29.56529411764706,170.69741129482273
0.22809912109375,0.0995654296875,0.9985888671875,1.0291366330587073,1.06689453125,-0.89794921875,-0.4970703125,29.659411764705883,170.69741129482273
0.08649755859375,0.1225146484375,1.0054248046875005,1.0165484270832066,1.1240234375,-1.34619140625,-0.822265625,29.56529411764706,170.69741129482273
0.19782568359375,0.1332568359375,1.0391162109375005,1.066140180861089,0.94580078125,-1.07421875,-1.08154296875,29.56529411764706,170.58086269567767
0.19831396484375,0.1264208984375,1.0591357421875005,1.0849328055657916,0.9541015625,-0.5380859375,-1.1259765625,29.659411764705883,170.58086269567767
0.19929052734375,0.1122607421875,1.0767138671875005,1.100741541107312,1.00537109375,0.21044921875,-1.12060546875,29.659411764705883,170.58086269567767
0.20759130859375,0.1015185546875,1.0747607421875005,1.099322892191794,1.08203125,0.7666015625,-0.84375,29.659411764705883,170.58086269567767
0.23835302734375,0.0839404296875,1.0327685546875005,1.06323518044286,1.13232421875,1.171875,-0.8974609375,29.61235294117647,170.58086269567767
0.2661850585937499,0.0775927734375,0.9917529296875,1.029781043451481,1.0625,1.05908203125,-1.00537109375,29.61235294117647,170.58086269567767
0.2842514648437499,0.0634326171875,0.9785693359375,1.0209899791017705,1.0205078125,0.68359375,-1.302734375,29.61235294117647,170.58086269567767
0.2696030273437499,0.0575732421875,0.9634326171875,1.002099235819313,0.97802734375,0.25048828125,-1.2607421875,29.61235294117647,170.58086269567767
0.23054052734375,0.0536669921875,0.9668505859375,0.9954040065853034,0.97900390625,-0.068359375,-1.12255859375,29.61235294117647,170.58086269567767
0.20612646484375,0.0668505859375,0.9873583984375,1.0108579164819524,1.0888671875,-0.27734375,-0.80615234375,29.56529411764706,170.52595526149997
0.21931005859375,0.0658740234375,0.9736865234375,1.000250835884701,1.14794921875,-0.45068359375,-0.6865234375,29.56529411764706,170.52595526149997
0.2783920898437499,0.0648974609375,0.9937060546875,1.0340046224491948,1.078125,-0.56640625,-0.568359375,29.61235294117647,170.52595526149997
0.3252670898437499,0.0507373046875,1.0264208984375005,1.077920597526376,0.92626953125,-0.67333984375,-0.68115234375,29.56529411764706,170.52595526149997
0.3291733398437499,0.0478076171875,1.0273974609375005,1.0799010133645852,0.8857421875,-0.46484375,-0.8203125,29.659411764705883,170.52595526149997
0.3360092773437499,0.0282763671875,1.0186083984375005,1.0729701099144378,0.78564453125,0.1005859375,-1.06298828125,29.56529411764706,170.52595526149997
0.3194077148437499,-0.0059033203125,1.0171435546875005,1.0661318625455023,0.666015625,0.4130859375,-1.17626953125,29.56529411764706,170.52595526149997
0.2818100585937499,-0.0361767578125,1.0024951171875005,1.0419799071552276,0.55322265625,0.45751953125,-0.9599609375,29.61235294117647,170.52595526149997
0.2676499023437499,-0.0474072265625,1.0020068359375005,1.0382204075341843,0.4873046875,0.25146484375,-0.3828125,29.659411764705883,170.52595526149997
0.2652084960937499,-0.0518017578125,0.9902880859375,1.026493770883453,0.4189453125,0.01708984375,0.17236328125,29.56529411764706,170.34493593605958
0.2573959960937499,-0.0225048828125,0.9692919921875,1.0031381433652649,0.40283203125,-0.166015625,0.57763671875,29.61235294117647,170.34493593605958
0.2822983398437499,-0.0015087890625,0.9922412109375,1.0316187521588045,0.43994140625,-0.29296875,0.55322265625,29.56529411764706,170.34493593605958
0.2915756835937499,0.0111865234375,1.0151904296875005,1.056292159442108,0.474609375,-0.28759765625,0.29833984375,29.61235294117647,170.34493593605958
0.2696030273437499,0.0243701171875,1.0220263671875005,1.0572689299280134,0.4951171875,-0.16064453125,0.248046875,29.659411764705883,170.34493593605958
0.2686264648437499,0.0336474609375,1.0327685546875005,1.067662501352042,0.48486328125,0.00830078125,0.14599609375,29.61235294117647,170.34493593605958
0.2534897460937499,0.0424365234375,1.0425341796875005,1.073748306500562,0.5361328125,0.46435546875,0.35107421875,29.659411764705883,170.34493593605958
0.23737646484375,0.0424365234375,1.0352099609375005,1.062924318946273,0.634765625,0.67919921875,0.544921875,29.61235294117647,170.34493593605958
0.23395849609375,0.0424365234375,1.0137255859375005,1.0412382052154248,0.62646484375,0.763671875,0.619140625,29.56529411764706,170.27231686466857
0.2515366210937499,0.0419482421875,1.0024951171875005,1.0344209910663364,0.55517578125,0.77197265625,0.36083984375,29.61235294117647,170.27231686466857
0.2549545898437499,0.0424365234375,0.9966357421875,1.0296045376791447,0.458984375,0.7353515625,0.0322265625,29.61235294117647,170.27231686466857
0.2725327148437499,0.0316943359375,1.0059130859375005,1.042659938834771,0.46044921875,0.5966796875,0.02197265625,29.56529411764706,170.27231686466857
0.2710678710937499,0.0224169921875,0.9990771484375,1.0354397427219215,0.4775390625,0.52734375,0.00048828125,29.51823529411765,170.27231686466857
0.2935288085937499,0.0097216796875,0.9976123046875,1.0399442210976115,0.56005859375,0.4130859375,0.224609375,29.56529411764706,170.27231686466857
0.20807958984375,0.0121630859375,0.9893115234375,1.0110303391962543,0.6484375,0.2314453125,0.298828125,29.61235294117647,170.27231686466857
0.3286850585937499,0.0043505859375,0.9937060546875,1.0466635173079135,0.59130859375,-0.23583984375,0.3017578125,29.659411764705883,170.27231686466857
0.2676499023437499,0.0185107421875,0.9971240234375,1.0325867691952764,0.62060546875,-0.6513671875,0.4287109375,29.70647058823529,170.50540848423745
0.18952490234375,0.0263232421875,1.0044482421875005,1.0225110624933254,0.45166015625,-1.0947265625,0.59521484375,29.659411764705883,170.50540848423745
0.14362646484375,0.0395068359375,1.0210498046875005,1.0318585441530674,0.3759765625,-0.95068359375,0.783203125,29.659411764705883,170.50540848423745
0.14362646484375,0.0468310546875,1.0176318359375005,1.028783875554134,0.59814453125,-0.32763671875,0.93115234375,29.51823529411765,170.50540848423745
0.17634130859375,0.0351123046875,0.9927294921875,1.008881051321649,0.68212890625,0.5126953125,0.98193359375,29.61235294117647,170.50540848423745
0.24470068359375,0.0004443359375,0.9570849609375,0.9878715728465972,0.71240234375,1.12158203125,0.89501953125,29.61235294117647,170.50540848423745
0.3184311523437499,-0.0268994140625,0.9614794921875,1.013195337117679,0.70361328125,0.63623046875,0.873046875,29.61235294117647,170.50540848423745
0.3565170898437499,-0.0410595703125,0.9473193359375,1.0130173976324246,0.74609375,-0.2841796875,0.95849609375,29.51823529411765,170.50540848423745
0.3462631835937499,-0.0405712890625,0.9443896484375,1.006685665878171,0.49365234375,-1.537109375,1.3447265625,29.659411764705883,170.66729873626767
0.3008530273437499,-0.0298291015625,0.9780810546875,1.0237406257937298,0.43310546875,-2.27978515625,1.83984375,29.51823529411765,170.66729873626767
0.2666733398437499,-0.0156689453125,1.0107958984375005,1.0454991794969042,0.474609375,-2.59130859375,2.30810546875,29.47117647058824,170.66729873626767
0.22663427734375,-0.0010205078125,1.0356982421875005,1.0602051622085211,0.53076171875,-2.15380859375,2.72314453125,29.70647058823529,170.66729873626767
0.22712255859375,0.0116748046875,1.0479052734375005,1.0722995942295162,0.5869140625,-1.60107421875,2.95458984375,29.659411764705883,170.66729873626767
0.24714208984375,0.0160693359375,1.0596240234375005,1.088182203114756,0.61669921875,-0.8681640625,3.04638671875,29.659411764705883,170.66729873626767
0.2798569335937499,0.0272998046875,1.0674365234375005,1.1038504944895433,0.69287109375,-0.13427734375,2.97998046875,29.70647058823529,170.66729873626767
0.3037827148437499,0.0238818359375,1.1724169921875005,1.2113694248640956,0.7431640625,0.27294921875,2.7666015625,29.56529411764706,170.66729873626767
0.2910874023437499,0.0287646484375,1.0327685546875005,1.073391898774289,0.62548828125,0.7978515625,2.58544921875,29.56529411764706,170.66729873626767
0.2691147460937499,0.0229052734375,1.0098193359375005,1.0453145408677735,0.7041015625,0.92529296875,2.4365234375,29.61235294117647,170.64250401222844
0.24274755859375,0.0199755859375,1.0127490234375005,1.0416266057039745,0.66455078125,0.873046875,2.44970703125,29.61235294117647,170.64250401222844
0.24421240234375,0.0204638671875,1.0015185546875005,1.0310663813266887,0.69482421875,0.43115234375,2.5048828125,29.659411764705883,170.64250401222844
0.2564194335937499,0.0434130859375,0.9868701171875,1.0205627125036592,0.63720703125,0.23779296875,2.6015625,29.56529411764706,170.64250401222844
0.3013413085937499,0.0595263671875,1.0015185546875005,1.0475635484489112,0.66455078125,-0.0947265625,2.48486328125,29.61235294117647,170.64250401222844
0.3570053710937499,0.0761279296875,1.0068896484375005,1.0710159012819949,0.759765625,-0.1728515625,2.15380859375,29.56529411764706,170.64250401222844
0.3882553710937499,0.0585498046875,1.0020068359375005,1.076191438396334,0.9853515625,-0.16796875,1.7470703125,29.70647058823529,170.64250401222844
0.3794663085937499,0.0565966796875,1.0000537109375005,1.0711233767728543,0.94287109375,-0.35205078125,1.14404296875,29.659411764705883,170.64250401222844
0.3467514648437499,0.0575732421875,0.9766162109375,1.037945316504288,0.88134765625,-0.5126953125,1.03857421875,29.56529411764706,170.64250401222844
0.3057358398437499,0.0634326171875,0.9795458984375,1.0281090738992378,0.87451171875,-1.029296875,1.228515625,29.61235294117647,170.64391959682055
0.2984116210937499,0.0727099609375,0.9907763671875,1.0372916869427773,0.720703125,-1.25390625,1.23193359375,29.56529411764706,170.64391959682055
0.2930405273437499,0.0751513671875,0.9897998046875,1.0349995806837151,0.72314453125,-1.29833984375,0.95654296875,29.56529411764706,170.64391959682055
0.2988999023437499,0.0707568359375,1.0142138671875005,1.059706303580579,0.7802734375,-1.296875,0.55078125,29.659411764705883,170.64391959682055
0.3057358398437499,0.0453662109375,1.0249560546875005,1.0705453801219054,0.88427734375,-1.21337890625,0.279296875,29.659411764705883,170.64391959682055
0.2730209960937499,0.0224169921875,1.0347216796875005,1.0703700015705222,0.958984375,-0.89599609375,0.42236328125,29.56529411764706,170.64391959682055
0.2622788085937499,0.0009326171875,1.0166552734375005,1.049942373761748,0.970703125,-0.5625,0.810546875,29.61235294117647,170.64391959682055
0.2974350585937499,-0.0039501953125,1.0230029296875005,1.0653723350420186,0.91943359375,-0.58544921875,0.96875,29.61235294117647,170.64391959682055
0.3242905273437499,0.0126513671875,1.0181201171875005,1.0685939248556906,0.89892578125,-0.83447265625,0.8359375,29.56529411764706,170.50540848423745
0.3306381835937499,0.0189990234375,1.0278857421875005,1.0799220667872758,0.923828125,-0.89990234375,0.6142578125,29.56529411764706,170.50540848423745
0.3013413085937499,0.0199755859375,1.0303271484375005,1.0736757616272663,0.990234375,-0.6396484375,0.2666015625,29.70647058823529,170.50540848423745
0.2603256835937499,0.0165576171875,1.0181201171875005,1.0510053231298926,0.99267578125,-0.34521484375,0.33203125,29.70647058823529,170.50540848423745
0.24860693359375,0.0194873046875,1.0054248046875005,1.035888121543909,0.97900390625,-0.19287109375,0.54150390625,29.56529411764706,170.50540848423745
0.2608139648437499,-0.0019970703125,0.9902880859375,1.0240597666626237,0.90966796875,-0.1083984375,0.6865234375,29.56529411764706,170.50540848423745
0.3023178710937499,0.0004443359375,0.9863818359375,1.0316711776939955,0.83984375,-0.083984375,0.548828125,29.56529411764706,170.50540848423745
0.3355209960937499,0.0111865234375,0.9775927734375,1.0336281283922102,0.7998046875,-0.23779296875,0.19970703125,29.56529411764706,170.50540848423745
0.3394272460937499,0.0219287109375,0.9990771484375,1.0553894410520577,0.8349609375,-0.45458984375,-0.15380859375,29.61235294117647,170.2737346740906
0.3194077148437499,0.0150927734375,0.9990771484375,1.0490015389129554,0.884765625,-0.57470703125,-0.337890625,29.61235294117647,170.2737346740906
0.2891342773437499,0.1352099609375,1.0225146484375005,1.0711753218502924,0.96240234375,-0.57275390625,-0.29736328125,29.659411764705883,170.2737346740906
0.2822983398437499,-0.0019970703125,1.0420458984375005,1.0796091864275643,1.0791015625,-0.5595703125,-0.15283203125,29.51823529411765,170.2737346740906
0.2715561523437499,-0.0063916015625,1.0405810546875005,1.0754499187878652,1.08447265625,-0.61962890625,0.01806640625,29.56529411764706,170.2737346740906
0.2793686523437499,-0.0156689453125,1.0522998046875005,1.0888651150188071,1.03466796875,-0.28955078125,0.1201171875,29.659411764705883,170.2737346740906
0.2940170898437499,-0.0210400390625,1.0410693359375005,1.081995422630469,0.984375,0.04736328125,0.02880859375,29.61235294117647,170.2737346740906
0.2852280273437499,-0.0068798828125,1.0347216796875005,1.0733365337978775,0.9599609375,0.40283203125,-0.14990234375,29.659411764705883,170.2737346740906
0.2842514648437499,-0.0088330078125,1.0093310546875005,1.0486305809241951,0.9404296875,0.68701171875,-0.2353515625,29.47117647058824,170.2737346740906
0.2725327148437499,-0.0107861328125,1.0029833984375005,1.0394066186350706,0.9423828125,0.6943359375,-0.23828125,29.61235294117647,170.42038957649058
0.2617905273437499,-0.0073681640625,1.0112841796875005,1.0446455198462257,0.97314453125,0.45751953125,0.00048828125,29.61235294117647,170.42038957649058
0.2588608398437499,0.0092333984375,1.0088427734375005,1.0415651355380444,1.0234375,0.0546875,0.42724609375,29.56529411764706,170.42038957649058
0.2832749023437499,0.0224169921875,1.0083544921875005,1.0476287385096437,1.0390625,-0.22802734375,0.53515625,29.70647058823529,170.42038957649058
0.3067124023437499,0.0321826171875,1.0230029296875005,1.0684770529822902,1.0810546875,-0.30322265625,0.3408203125,29.659411764705883,170.42038957649058
0.3179428710937499,0.0395068359375,1.0405810546875005,1.0887871191099203,1.15869140625,-0.248046875,0.12109375,29.61235294117647,170.42038957649058
0.3096420898437499,0.0351123046875,1.0356982421875005,1.081564582728905,1.22802734375,0.173828125,-0.13916015625,29.61235294117647,170.42038957649058
0.2822983398437499,0.0297412109375,1.0356982421875005,1.073893728995958,1.2373046875,0.54833984375,-0.29541015625,29.659411764705883,170.42038957649058
0.2573959960937499,0.0229052734375,1.0225146484375005,1.0546627691473731,1.23779296875,0.90673828125,-0.17529296875,29.56529411764706,170.42038957649058
0.24177099609375,0.0146044921875,0.9917529296875,1.0209017481070146,1.1845703125,1.5859375,-0.09814453125,29.659411764705883,170.61239104880335
0.22516943359375,0.0321826171875,0.9575732421875,0.9842172061224332,1.10498046875,1.81982421875,-0.11767578125,29.70647058823529,170.61239104880335
0.22370458984375,0.0375537109375,0.9331591796875,0.960333316800675,1.048828125,1.525390625,-0.1806640625,29.61235294117647,170.61239104880335
0.2578842773437499,0.0605029296875,0.8994677734375001,0.9376604825065908,1.11962890625,0.6337890625,-0.33056640625,29.61235294117647,170.61239104880335
0.2705795898437499,0.0595263671875,0.9150927734375,0.956112695673522,0.80859375,-0.140625,-0.52880859375,29.659411764705883,170.61239104880335
0.2754624023437499,0.0839404296875,0.9512255859375,0.9938589669481542,0.78076171875,-0.77490234375,-0.6279296875,29.56529411764706,170.61239104880335
0.2573959960937499,0.0922412109375,0.9844287109375,1.021695173091455,0.68359375,-1.08544921875,-1.0634765625,29.659411764705883,170.61239104880335
0.23395849609375,0.0956591796875,1.0361865234375005,1.0665691575825864,0.69384765625,-0.9228515625,-1.3095703125,29.61235294117647,170.61239104880335
0.21735693359375,0.1015185546875,1.0630419921875005,1.089774440277017,0.77880859375,-0.29736328125,-1.36865234375,29.61235294117647,170.39984340875904
0.21979833984375,0.0702685546875,1.1748583984375005,1.197305824071305,0.81396484375,0.31201171875,-1.18359375,29.61235294117647,170.39984340875904
0.23981787109375,0.0492724609375,1.1753466796875005,1.2005749473294898,0.82958984375,0.744140625,-1.24169921875,29.56529411764706,170.39984340875904
0.2627670898437499,0.0409716796875,1.0493701171875005,1.0825446248942705,0.87060546875,0.95556640625,-1.4765625,29.659411764705883,170.39984340875904
0.2925522460937499,0.0111865234375,1.0527880859375005,1.0927372551958965,0.896484375,1.12451171875,-1.71630859375,29.659411764705883,170.39984340875904
0.2881577148437499,-0.0151806640625,1.0410693359375005,1.0803197135175764,0.826171875,0.96484375,-1.7529296875,29.56529411764706,170.39984340875904
0.2656967773437499,-0.0278759765625,1.0225146484375005,1.0568387075753007,0.84130859375,0.9853515625,-1.537109375,29.659411764705883,170.39984340875904
0.23542333984375,-0.0303173828125,1.0059130859375005,1.033539756905408,0.83251953125,0.69287109375,-1.2021484375,30.412352941176472,170.39984340875904
0.23835302734375,-0.0122509765625,1.0088427734375005,1.0366899216196388,0.91943359375,0.53466796875,-0.9453125,29.56529411764706,170.37788037761567
0.22663427734375,0.0023974609375,1.0024951171875005,1.0277963336531466,0.970703125,0.5595703125,-0.84033203125,29.56529411764706,170.37788037761567
0.24323583984375,0.0224169921875,1.0020068359375005,1.0313505197500554,0.9775390625,0.5498046875,-0.89599609375,29.51823529411765,170.37788037761567
0.2583725585937499,0.0331591796875,1.0015185546875005,1.0348407247567948,0.94873046875,0.45068359375,-1.09130859375,29.659411764705883,170.37788037761567
0.2793686523437499,0.0409716796875,1.0034716796875005,1.042439894854198,0.90576171875,0.265625,-1.39697265625,29.61235294117647,170.37788037761567
0.2671616210937499,0.0556201171875,0.9868701171875,1.023905052931697,0.9111328125,0.21630859375,-1.62939453125,29.659411764705883,170.37788037761567
0.2627670898437499,0.0746630859375,1.0015185546875005,1.0381042988495923,0.93017578125,0.2451171875,-1.8876953125,29.56529411764706,170.37788037761567
0.2627670898437499,0.0761279296875,0.9902880859375,1.0273813792030766,0.88525390625,0.32080078125,-2.20361328125,29.61235294117647,170.37788037761567
0.2608139648437499,0.0902880859375,1.0000537109375005,1.0374407392615923,0.8515625,0.2197265625,-2.3505859375,29.659411764705883,170.37788037761567
0.2559311523437499,0.1073779296875,1.0249560546875005,1.0618689601662434,0.8662109375,0.04150390625,-2.70263671875,29.61235294117647,170.38886188617514
0.2622788085937499,0.1200732421875,1.0142138671875005,1.0544370656052449,0.88427734375,0.09716796875,-3.13818359375,29.56529411764706,170.38886188617514
0.24372412109375,0.1137255859375,0.9922412109375,1.0280455129917474,0.830078125,0.46240234375,-3.7607421875,29.47117647058824,170.38886188617514
0.2559311523437499,0.1029833984375,0.9814990234375,1.0195325733405989,0.802734375,0.89990234375,-4.1279296875,29.56529411764706,170.38886188617514
0.24860693359375,0.0707568359375,0.9805224609375,1.0140198388915795,0.712890625,1.19287109375,-4.22216796875,29.51823529411765,170.38886188617514
0.2573959960937499,0.0272998046875,0.9932177734375,1.0263915060118214,0.59326171875,1.1015625,-3.96630859375,29.659411764705883,170.38886188617514
0.2622788085937499,-0.0132275390625,1.0044482421875005,1.038210678263601,0.51416015625,0.81201171875,-3.76318359375,29.61235294117647,170.38886188617514
0.2783920898437499,-0.0034619140625,1.0147021484375005,1.0522046334151098,0.572265625,0.4306640625,-3.6318359375,29.56529411764706,170.38886188617514
0.3184311523437499,0.0063037109375,1.0078662109375005,1.0569921639747697,0.607421875,0.013671875,-3.6728515625,29.61235294117647,170.38886188617514
0.3530991210937499,0.0312060546875,1.0210498046875005,1.0808309353542396,0.6044921875,-0.42724609375,-3.82373046875,29.61235294117647,170.4614826553837
0.4556381835937499,0.0502490234375,1.0337451171875005,1.1308227473897192,0.67626953125,-0.5732421875,-4.05078125,29.61235294117647,170.4614826553837
0.2891342773437499,0.0522021484375,1.0391162109375005,1.0798547098891087,0.7294921875,-0.3818359375,-4.2216796875,29.56529411764706,170.4614826553837
0.23932958984375,0.0546435546875,1.0449755859375005,1.0734237494340646,0.7802734375,0.0078125,-4.02783203125,29.56529411764706,170.4614826553837
0.21003271484375,0.0526904296875,1.0420458984375005,1.0643071347762856,0.81884765625,0.66943359375,-3.6494140625,29.56529411764706,170.4614826553837
0.21100927734375,0.0346240234375,1.0269091796875005,1.0489357470553604,0.85400390625,1.33251953125,-3.35986328125,29.56529411764706,170.4614826553837
0.2500717773437499,0.1361865234375,1.0015185546875005,1.0412118316525194,0.85498046875,1.5009765625,-3.34814453125,29.56529411764706,170.4614826553837
0.2808334960937499,-0.0015087890625,0.9805224609375,1.0199480503317828,0.82666015625,1.4365234375,-3.38916015625,29.56529411764706,170.4614826553837
0.3067124023437499,-0.0225048828125,0.9692919921875,1.0169099928807326,0.81689453125,0.890625,-3.53857421875,29.659411764705883,170.67686410887288
0.2754624023437499,-0.0420361328125,0.9849169921875,1.023576110050685,0.78466796875,0.19287109375,-3.45263671875,29.61235294117647,170.67686410887288
0.22321630859375,-0.0278759765625,1.0064013671875005,1.0312353283166762,0.82861328125,-0.84228515625,-2.87451171875,29.659411764705883,170.67686410887288
0.21833349609375,-0.0127392578125,1.0103076171875005,1.033708510922309,0.76416015625,-1.03955078125,-2.15966796875,29.56529411764706,170.67686410887288
0.24372412109375,0.0316943359375,1.0493701171875005,1.0777678882670183,0.7646484375,-0.701171875,-1.83251953125,29.47117647058824,170.67686410887288
0.2652084960937499,0.0487841796875,1.0630419921875005,1.0967104083312331,0.7119140625,0.1552734375,-2.10400390625,29.659411764705883,170.67686410887288
0.2647202148437499,0.0570849609375,1.0615771484375005,1.09557360638017,0.666015625,1.1298828125,-2.58544921875,29.56529411764706,170.67686410887288
0.23249365234375,0.0712451171875,1.0449755859375005,1.0728947480105488,0.7236328125,1.91162109375,-2.72119140625,29.61235294117647,170.67686410887288
0.23102880859375,0.0536669921875,1.0015185546875005,1.0292200308165598,0.845703125,2.17578125,-2.4208984375,29.61235294117647,170.6343540817225
0.24518896484375,0.0170458984375,0.9863818359375,1.0165418424256447,0.79638671875,1.75,-1.9140625,29.61235294117647,170.6343540817225
0.24811865234375,0.0023974609375,0.9707568359375,1.0019667898584323,0.6904296875,1.0380859375,-1.4169921875,29.659411764705883,170.6343540817225
0.2637436523437499,-0.0059033203125,0.9761279296875,1.01114850465119,0.64404296875,0.314453125,-1.19189453125,29.56529411764706,170.6343540817225
0.2783920898437499,0.0072802734375,0.9941943359375,1.0324618809811343,0.7275390625,-0.1181640625,-1.21875,29.61235294117647,170.6343540817225
0.2725327148437499,0.0092333984375,0.9961474609375,1.032796737136131,0.7900390625,-0.31201171875,-1.32373046875,29.659411764705883,170.6343540817225
0.2559311523437499,-0.0098095703125,1.0200732421875005,1.0517349484716356,0.83544921875,-0.38671875,-1.27978515625,29.61235294117647,170.6343540817225
0.20905615234375,0.0053271484375,1.0293505859375005,1.050378732702221,0.84423828125,-0.3583984375,-0.92236328125,29.70647058823529,170.6343540817225
0.18317724609375,0.0033740234375,1.0327685546875005,1.048892832977686,0.74755859375,-0.373046875,-0.54638671875,29.659411764705883,170.6343540817225
0.15583349609375,0.0155810546875,1.0313037109375005,1.04312712166995,0.65576171875,0.04833984375,-0.31884765625,29.61235294117647,170.7207903212427
0.15925146484375,0.0287646484375,1.0464404296875005,1.0588795998314318,0.6845703125,0.443359375,-0.23681640625,29.61235294117647,170.7207903212427
0.16950537109375,0.0302294921875,1.0322802734375005,1.0465411869371146,0.70703125,0.865234375,-0.23779296875,29.56529411764706,170.7207903212427
0.18464208984375,0.0233935546875,1.0234912109375005,1.040276030007947,0.70556640625,1.00439453125,-0.2392578125,29.51823529411765,170.7207903212427
0.19489599609375,0.0287646484375,1.0215380859375005,1.0403614349417032,0.73681640625,1.162109375,-0.14306640625,29.56529411764706,170.7207903212427
0.18366552734375,0.0482958984375,0.9927294921875,1.0107311039040972,0.791015625,1.02978515625,0.0908203125,29.61235294117647,170.7207903212427
0.19684912109375,0.0551318359375,0.9937060546875,1.014515065896913,0.76220703125,0.78662109375,0.3017578125,29.56529411764706,170.7207903212427
0.22223974609375,0.0668505859375,1.0073779296875005,1.0337648663044587,0.70068359375,0.60107421875,0.33447265625,29.61235294117647,170.7207903212427
0.22028662109375,0.0712451171875,1.0303271484375005,1.0560189841869856,0.70849609375,0.4599609375,0.2119140625,29.61235294117647,170.7207903212427
0.20905615234375,0.0761279296875,1.0488818359375005,1.0722187473976097,0.787109375,0.49267578125,0.06689453125,29.56529411764706,170.4724640915629
0.19929052734375,0.0673388671875,1.0293505859375005,1.0506254642321025,0.79541015625,0.71240234375,-0.0849609375,29.51823529411765,170.4724640915629
0.21052099609375,0.0609912109375,1.0342333984375005,1.057202790410387,0.8037109375,0.908203125,-0.1806640625,29.56529411764706,170.4724640915629
0.19245458984375,0.0531787109375,1.0332568359375005,1.0523718133152724,0.77880859375,0.8798828125,-0.123046875,29.61235294117647,170.4724640915629
0.18268896484375,0.0272998046875,1.0449755859375005,1.0611760044484038,0.73388671875,0.75830078125,0.220703125,29.61235294117647,170.4724640915629
0.16950537109375,0.0180224609375,1.0625537109375005,1.0761399855757272,0.7783203125,0.72607421875,0.2802734375,29.56529411764706,170.4724640915629
0.12800146484375,0.0224169921875,1.0635302734375005,1.0714399372148329,0.8154296875,1.06005859375,0.34326171875,29.56529411764706,170.4724640915629
0.10554052734375,0.0214404296875,1.0674365234375005,1.0728556410372827,0.822265625,1.537109375,0.56005859375,29.61235294117647,170.8345094804987
0.10505224609375,0.0282763671875,1.0444873046875005,1.0501377323970524,0.86572265625,1.7548828125,0.8642578125,29.56529411764706,170.8345094804987
0.13483740234375,0.0336474609375,1.0234912109375005,1.0328831180557951,0.94140625,2.02099609375,1.0771484375,29.56529411764706,170.8345094804987
0.14899755859375,0.0443896484375,0.9946826171875,1.0067592672979364,1.01806640625,1.892578125,1.0732421875,29.56529411764706,170.8345094804987
0.16804052734375,0.0448779296875,0.9790576171875,0.9943869795888656,0.9697265625,1.54443359375,1.00732421875,29.61235294117647,170.8345094804987
0.16120458984375,0.0536669921875,0.9697802734375,0.9845510878495118,0.9140625,1.2333984375,0.9248046875,29.70647058823529,170.8345094804987
0.15681005859375,0.0702685546875,0.9878466796875,1.0026804709495762,0.828125,0.7978515625,0.87646484375,29.56529411764706,170.8345094804987
0.14020849609375,0.0785693359375,1.0103076171875005,1.0230117517768873,0.83740234375,0.64599609375,0.94482421875,29.61235294117647,170.8345094804987
0.12458349609375,0.0707568359375,1.0200732421875005,1.0300859171728087,0.81201171875,0.6396484375,0.99267578125,29.61235294117647,170.8345094804987
0.10407568359375,0.0697802734375,1.0488818359375005,1.056339973794488,0.7744140625,0.9228515625,0.9541015625,29.56529411764706,170.60282576750234
0.08796240234375,0.0639208984375,1.0684130859375005,1.0739319287951323,0.75732421875,1.12548828125,0.83544921875,29.56529411764706,170.60282576750234
0.08503271484375,0.0639208984375,1.0728076171875005,1.078068934412952,0.80126953125,1.57177734375,0.728515625,29.56529411764706,170.60282576750234
0.10261083984375,0.0683154296875,1.0762255859375005,1.0832624309064462,0.86474609375,1.89794921875,0.71435546875,29.47117647058824,170.60282576750234
0.12897802734375,0.0614794921875,1.0781787109375005,1.0876048879147096,0.84716796875,2.13916015625,0.64599609375,29.61235294117647,170.60282576750234
0.16169287109375,0.0790576171875,1.0806201171875005,1.0955065171272291,0.9208984375,2.322265625,0.5927734375,29.659411764705883,170.60282576750234
0.17292333984375,0.0746630859375,1.0801318359375005,1.0964314118403131,0.919921875,2.40234375,0.451171875,29.61235294117647,170.60282576750234
0.17194677734375,0.0673388671875,1.0781787109375005,1.093878215338365,0.94677734375,2.4248046875,0.37353515625,29.56529411764706,170.60282576750234
0.15729833984375,0.0673388671875,1.0723193359375005,1.0858849151623469,1.09814453125,2.46484375,0.61474609375,29.56529411764706,170.60282576750234
0.13825537109375,0.0746630859375,1.1743701171875005,1.1848351345993096,1.18603515625,2.49169921875,0.927734375,29.56529411764706,170.30242689087837
0.12116552734375,0.0556201171875,1.0303271484375005,1.03891708776966,1.1669921875,2.51953125,0.9736328125,29.61235294117647,170.30242689087837
0.10554052734375,0.0565966796875,1.0469287109375005,1.0537560025209358,1.1337890625,2.548828125,0.88427734375,29.659411764705883,170.30242689087837
0.11091162109375,0.0634326171875,1.1724169921875005,1.1793585918569824,1.04736328125,2.4755859375,0.7294921875,29.56529411764706,170.30242689087837
0.10944677734375,0.0473193359375,1.0752490234375005,1.081840181832694,0.9462890625,2.51806640625,0.60400390625,29.659411764705883,170.30242689087837
0.12507177734375,0.0356005859375,1.0967333984375005,1.104415908276989,0.95068359375,2.80517578125,0.20947265625,29.659411764705883,170.30242689087837
0.10261083984375,0.0497607421875,1.0918505859375005,1.0977899698615183,1.18359375,3.35888671875,0.072265625,29.61235294117647,170.30242689087837
0.09919287109375,0.0546435546875,1.0776904296875005,1.0836243841778093,1.43017578125,3.9052734375,-0.0068359375,29.70647058823529,170.30242689087837
0.13679052734375,0.0697802734375,1.0308154296875005,1.042190666343649,1.560546875,4.6630859375,-0.1494140625,29.56529411764706,170.30242689087837
0.17194677734375,0.1064013671875,0.9746630859375,0.9954170363558588,1.60986328125,4.90771484375,-0.263671875,29.61235294117647,170.60282576750234
0.20075537109375,0.1288623046875,1.0483935546875005,1.0751917308567138,1.65966796875,4.669921875,-0.6484375,29.659411764705883,170.60282576750234
0.17829443359375,0.1264208984375,0.8579638671875001,0.885366108461122,1.654296875,4.13427734375,-0.99267578125,29.56529411764706,170.60282576750234
0.09089208984375,0.1049365234375,0.7842333984375001,0.7964264367612014,1.47412109375,3.37841796875,-1.23828125,29.659411764705883,170.60282576750234
0.0127670898437499,0.0619677734375,0.7271044921875001,0.7298520028657332,1.240234375,2.1416015625,-1.17236328125,29.56529411764706,170.60282576750234
-0.09514306640625,0.0287646484375,0.7109912109375001,0.7179053629241738,0.7861328125,0.88916015625,-0.80029296875,29.659411764705883,170.60282576750234
-0.13420556640625,-0.0059033203125,0.7754443359375001,0.7869942194086846,0.59228515625,-0.27587890625,-0.5087890625,29.61235294117647,170.60282576750234
-0.09856103515625,0.0106982421875,0.8711474609375001,0.8767705678995088,0.5419921875,-2.10107421875,-0.2939453125,29.659411764705883,170.60282576750234
-0.03215478515625,0.0790576171875,0.9922412109375,0.995904944121941,0.7041015625,-3.66845703125,-0.1142578125,29.56529411764706,170.53835300310772
0.0054428710937499,0.1107958984375,1.0835498046875005,1.0892132643310195,0.939453125,-4.328125,-0.0673828125,29.51823529411765,170.53835300310772
0.0293686523437499,0.1483935546875,1.1279833984375005,1.1380815928411692,1.056640625,-4.2685546875,-0.2109375,29.659411764705883,170.53835300310772
0.0093491210937499,0.1400927734375,1.1143115234375005,1.1231222384496886,1.0263671875,-2.94921875,-0.38134765625,29.659411764705883,170.53835300310772
-0.03410791015625,0.1322802734375,1.0879443359375005,1.0964872540866195,0.95849609375,-0.40478515625,-0.833984375,29.61235294117647,170.53835300310772
-0.05852197265625,0.0922412109375,0.9883349609375,0.994353688226742,0.876953125,2.12060546875,-1.03857421875,29.56529411764706,170.53835300310772
-0.05998681640625,0.0707568359375,0.8848193359375001,0.889668592917229,0.73779296875,3.138671875,-0.94091796875,29.659411764705883,170.53835300310772
-0.01213525390625,0.0507373046875,0.8037646484375001,0.8054558638138898,0.40234375,1.876953125,-0.6611328125,29.56529411764706,170.53835300310772
0.0498764648437499,0.0346240234375,0.7656787109375001,0.768082269764914,0.240234375,-1.1298828125,-0.3173828125,29.56529411764706,170.601409553378
0.08161474609375,0.0248583984375,0.7778857421875001,0.7825504039047086,-0.10205078125,-4.232421875,-0.00927734375,29.659411764705883,170.601409553378
0.07526708984375,0.0214404296875,0.8604052734375001,0.8639572103974774,-0.228515625,-6.869140625,0.24755859375,29.659411764705883,170.601409553378
0.0601303710937499,0.0380419921875,0.9707568359375,0.9733610271717542,-0.10009765625,-8.3564453125,0.39306640625,29.659411764705883,170.601409553378
0.0137436523437499,0.0492724609375,1.0498583984375005,1.051103857930479,0.107421875,-8.38134765625,0.72216796875,29.659411764705883,170.601409553378
-0.03313134765625,0.0580615234375,1.1108935546875005,1.1129031029463583,0.18798828125,-7.17919921875,0.7666015625,29.61235294117647,170.601409553378
-0.01018212890625,0.0746630859375,1.1514208984375005,1.1538840225557307,0.1982421875,-5.43017578125,0.7373046875,29.56529411764706,170.601409553378
0.0176499023437499,0.0922412109375,1.1577685546875005,1.161571343599326,0.099609375,-3.3134765625,0.29931640625,29.56529411764706,170.601409553378
0.0518295898437499,0.1039599609375,1.1597216796875005,1.1655249264596168,-0.00537109375,-1.83837890625,0.11962890625,29.56529411764706,170.601409553378
0.08307958984375,0.0937060546875,1.1123583984375005,1.119385657183503,-0.12060546875,-0.9443359375,-0.2255859375,29.61235294117647,170.35875181672114
0.09089208984375,0.0917529296875,1.0952685546875005,1.1028568261518126,-0.1376953125,-0.89453125,-0.32763671875,29.56529411764706,170.35875181672114
0.11530615234375,0.0746630859375,1.0679248046875005,1.0767234898695517,0.02099609375,-1.01416015625,-0.1787109375,29.70647058823529,170.35875181672114
0.13483740234375,0.0424365234375,1.0606005859375005,1.0699792458189274,0.22802734375,-1.3623046875,0.0673828125,29.56529411764706,170.35875181672114
0.17194677734375,0.0063037109375,1.0850146484375005,1.0985728097556562,0.25927734375,-1.40185546875,0.27685546875,29.61235294117647,170.35875181672114
0.20417333984375,-0.0019970703125,1.1118701171875005,1.1304626922138252,0.57958984375,-1.21435546875,0.3564453125,29.56529411764706,170.35875181672114
0.2515366210937499,-0.0039501953125,1.1182177734375005,1.146166333751689,0.54931640625,-1.29345703125,0.2060546875,29.659411764705883,170.35875181672114
0.2788803710937499,-4.394531249999993e-05,1.1235888671875005,1.1576813921715543,0.51904296875,-1.33642578125,-0.02978515625,29.61235294117647,170.35875181672114
0.23542333984375,0.0229052734375,1.1025927734375005,1.127678865870524,0.5146484375,-1.15380859375,-0.05419921875,29.56529411764706,170.35875181672114
0.17341162109375,0.0009326171875,1.0791552734375005,1.0929998006830317,0.47119140625,-0.900390625,0.06103515625,29.61235294117647,170.7523189279748
0.12751318359375,0.0009326171875,1.0806201171875005,1.088117787482292,0.537109375,-0.5322265625,0.4326171875,29.56529411764706,170.7523189279748
0.09675146484375,0.0087451171875,1.0772021484375005,1.081573756903523,0.7197265625,-0.15576171875,0.84912109375,29.56529411764706,170.7523189279748
0.10749365234375,0.0043505859375,1.1714404296875005,1.1763700494311446,0.8876953125,0.18310546875,1.10400390625,29.56529411764706,170.7523189279748
0.14704443359375,0.0038623046875,1.0381396484375005,1.0485088995837577,0.9736328125,0.458984375,1.02099609375,29.51823529411765,170.7523189279748
0.17878271484375,0.0028857421875,1.0298388671875005,1.0452462288881543,1.05810546875,0.5146484375,0.77587890625,29.56529411764706,170.7523189279748
0.17780615234375,-0.0059033203125,0.9888232421875,1.0046995975375923,0.97802734375,0.59326171875,0.44140625,29.56529411764706,170.7523189279748
0.15534521484375,0.0077685546875,0.9795458984375,0.9918178529158026,0.9482421875,0.564453125,0.33642578125,29.659411764705883,170.7523189279748
0.11579443359375,0.0111865234375,0.9570849609375,0.9641291986091134,0.9052734375,0.29736328125,0.482421875,29.51823529411765,170.37929748883917
0.11677099609375,0.0160693359375,0.9722216796875,0.9793409434617664,0.916015625,-0.14404296875,0.6650390625,29.56529411764706,170.37929748883917
0.12360693359375,0.0321826171875,0.9844287109375,0.9926803522783932,0.84912109375,-0.39111328125,0.68994140625,29.61235294117647,170.37929748883917
0.18610693359375,0.0526904296875,1.0083544921875005,1.0267379675589257,0.78662109375,-0.8076171875,0.51171875,29.61235294117647,170.37929748883917
0.21589208984375,0.0644091796875,1.0288623046875005,1.0532405133168743,0.79541015625,-0.81689453125,0.3671875,29.56529411764706,170.37929748883917
0.22223974609375,0.0629443359375,1.0454638671875005,1.070676044265991,0.79736328125,-0.423828125,0.0859375,29.56529411764706,170.37929748883917
0.21052099609375,0.0487841796875,1.0508349609375005,1.0728248231247284,0.82470703125,0.1875,0.00927734375,29.56529411764706,170.37929748883917
0.19636083984375,0.0419482421875,1.0420458984375005,1.0612148175073608,0.85400390625,0.4658203125,0.0498046875,29.56529411764706,170.37929748883917
0.21003271484375,0.0351123046875,1.0376513671875005,1.059276628209644,0.9306640625,0.39599609375,0.095703125,29.56529411764706,170.21882681231645
0.22223974609375,0.0375537109375,1.0244677734375005,1.048968543265708,0.998046875,0.17236328125,0.14599609375,29.51823529411765,170.21882681231645
0.23444677734375,0.0263232421875,1.0269091796875005,1.0536606037109797,0.96826171875,-0.13134765625,0.20849609375,29.61235294117647,170.21882681231645
0.23200537109375,0.0263232421875,1.0376513671875005,1.0635975578768968,1.01953125,-0.67041015625,0.27197265625,29.56529411764706,170.21882681231645
0.21491552734375,0.0307177734375,1.0366748046875005,1.05916330949116,1.08837890625,-0.81689453125,0.32177734375,29.659411764705883,170.21882681231645
0.08307958984375,0.0307177734375,1.0356982421875005,1.0394790275536303,1.1337890625,-0.736328125,0.34326171875,29.659411764705883,170.21882681231645
0.18903662109375,0.0248583984375,1.0356982421875005,1.0531019100531998,1.13427734375,-0.32568359375,0.3740234375,29.659411764705883,170.21882681231645
0.17731787109375,0.0102099609375,1.0439990234375005,1.0589994483709702,1.09912109375,0.12060546875,0.46923828125,29.56529411764706,170.21882681231645
0.16511083984375,0.0063037109375,1.0230029296875005,1.0362607395606092,1.07470703125,0.26416015625,0.6181640625,29.51823529411765,170.21882681231645
0.15827490234375,0.0038623046875,1.0088427734375005,1.0211902876675287,1.0322265625,0.26220703125,0.716796875,29.56529411764706,170.61239104880335
0.16315771484375,0.0268115234375,0.9971240234375,1.010740132684095,0.9521484375,0.15966796875,0.791015625,29.61235294117647,170.61239104880335
0.16706396484375,0.0468310546875,0.9907763671875,1.0058535309923196,0.91748046875,0.03857421875,0.8046875,29.56529411764706,170.61239104880335
0.16364599609375,0.0668505859375,1.0015185546875005,1.016999718909028,0.921875,-0.05517578125,0.869140625,29.51823529411765,170.61239104880335
0.16511083984375,0.0707568359375,0.9927294921875,1.0088508135124077,0.9189453125,-0.12109375,0.59814453125,29.56529411764706,170.61239104880335
0.17097021484375,0.0780810546875,0.9932177734375,1.0108456909622634,0.94091796875,0.0966796875,0.4873046875,29.51823529411765,170.61239104880335
0.16755224609375,0.0834521484375,0.9951708984375,1.012621910362795,0.93701171875,0.03759765625,0.431640625,29.56529411764706,170.61239104880335
0.17341162109375,0.0922412109375,1.0132373046875005,1.0320997369130414,0.921875,-0.0947265625,0.482421875,29.61235294117647,170.61239104880335
0.16364599609375,0.0917529296875,1.0313037109375005,1.0482299157805095,0.8828125,-0.23828125,0.1875,29.659411764705883,170.15293784091057
0.17243505859375,0.0814990234375,1.0400927734375005,1.0574350654344726,0.86376953125,-0.0439453125,0.02197265625,29.61235294117647,170.15293784091057
0.20173193359375,0.0902880859375,1.0435107421875005,1.0666594491938082,0.87841796875,0.0390625,0.06689453125,29.61235294117647,170.15293784091057
0.08259130859375,0.0673388671875,1.0737841796875005,1.0790589936775847,0.91796875,0.17431640625,0.1298828125,29.61235294117647,170.15293784091057
0.23786474609375,0.0473193359375,1.1768115234375005,1.2015423915464245,1.0087890625,0.61279296875,0.07080078125,29.61235294117647,170.15293784091057
0.22516943359375,0.0214404296875,1.0405810546875005,1.0648802267037665,0.90966796875,0.95751953125,-0.1484375,29.659411764705883,170.15293784091057
0.19245458984375,0.0087451171875,1.0386279296875005,1.0563442727413692,0.92626953125,1.00146484375,-0.34765625,29.61235294117647,170.15293784091057
0.13825537109375,0.0063037109375,1.0049365234375005,1.0144218553178477,1.01025390625,0.88232421875,0.2451171875,29.56529411764706,170.15293784091057
0.10749365234375,-0.0059033203125,0.9810107421875,0.9869001017185988,1.01220703125,0.58642578125,0.84716796875,29.56529411764706,170.40657568480572
0.12653662109375,-0.0098095703125,0.9712451171875,0.9795023337430596,1.041015625,0.21630859375,1.00927734375,29.61235294117647,170.40657568480572
0.14460302734375,0.0092333984375,0.9761279296875,0.9868237057750934,1.0390625,-0.09423828125,1.04833984375,29.56529411764706,170.40657568480572
0.16755224609375,0.0346240234375,0.9951708984375,1.0097711103348928,0.98583984375,-0.2998046875,0.65673828125,29.61235294117647,170.40657568480572
0.18024755859375,0.0458544921875,1.0044482421875005,1.0215224363988975,0.8779296875,-0.27490234375,0.22021484375,29.56529411764706,170.40657568480572
0.16364599609375,0.0551318359375,1.0225146484375005,1.036993605400062,0.96484375,-0.17333984375,0.03076171875,29.70647058823529,170.40657568480572
0.13972021484375,0.0482958984375,1.0410693359375005,1.0515130025212325,0.93408203125,-0.0556640625,0.10693359375,29.659411764705883,170.40657568480572
0.11921240234375,0.0492724609375,1.0571826171875005,1.0650232196355245,0.95556640625,0.05859375,0.33349609375,29.56529411764706,170.40657568480572
0.11725927734375,0.0478076171875,1.0610888671875005,1.0686182154790258,1.00537109375,0.29931640625,0.4697265625,29.61235294117647,170.40657568480572
0.13337255859375,0.0546435546875,1.0513232421875005,1.0611572536709,0.978515625,0.56103515625,0.35498046875,29.659411764705883,170.42038957649058
0.15925146484375,0.0683154296875,1.0449755859375005,1.0592459592529442,0.9482421875,0.8408203125,0.02587890625,29.61235294117647,170.42038957649058
0.16657568359375,0.0658740234375,1.0454638671875005,1.060698610785935,0.91162109375,1.01611328125,-0.33935546875,29.56529411764706,170.42038957649058
0.15876318359375,0.0522021484375,1.0337451171875005,1.0471675033514516,0.9150390625,1.02001953125,-0.5458984375,29.61235294117647,170.42038957649058
0.14118505859375,0.0395068359375,1.0244677734375005,1.0349049375029102,0.95703125,0.99267578125,-0.45654296875,29.70647058823529,170.42038957649058
0.12018896484375,0.0277880859375,1.0020068359375005,1.009571822237409,0.98046875,0.74609375,-0.14892578125,29.56529411764706,170.42038957649058
0.12018896484375,0.0229052734375,0.9981005859375,1.0055718862767793,0.96337890625,0.4306640625,0.10986328125,29.61235294117647,170.42038957649058
0.15046240234375,0.0331591796875,0.9985888671875,1.0104049640552124,0.912109375,0.2236328125,0.1796875,29.61235294117647,170.42038957649058
0.17048193359375,0.0380419921875,1.0117724609375005,1.0267398870030242,0.89501953125,0.052734375,0.0654296875,29.61235294117647,170.19544638697585
0.17438818359375,0.0316943359375,1.0254443359375005,1.040649727628825,0.9384765625,0.05517578125,-0.11962890625,29.70647058823529,170.19544638697585
0.15436865234375,0.0229052734375,1.0215380859375005,1.033389758706038,0.94677734375,0.0029296875,-0.2685546875,29.659411764705883,170.19544638697585
0.12751318359375,0.0170458984375,1.0225146484375005,1.0305757521468375,0.93701171875,0.14208984375,-0.28173828125,29.70647058823529,170.19544638697585
0.10065771484375,0.0253466796875,1.0020068359375005,1.0073689140499755,0.90673828125,0.4541015625,-0.1376953125,29.56529411764706,170.19544638697585
0.08942724609375,0.0321826171875,0.9912646484375,0.9958105022718278,0.8369140625,0.56298828125,0.0888671875,30.36529411764706,170.19544638697585
0.10456396484375,0.0448779296875,1.0029833984375005,1.009417331364049,0.83642578125,0.47900390625,0.1865234375,29.61235294117647,170.19544638697585
0.11677099609375,0.0482958984375,1.0039599609375005,1.0118811997958252,0.84423828125,0.49658203125,0.0576171875,29.56529411764706,170.19544638697585
0.12165380859375,0.0399951171875,1.0000537109375005,1.0082195610600262,0.79638671875,0.30712890625,-0.09716796875,29.659411764705883,170.21599224646897
0.12116552734375,0.0404833984375,1.0093310546875005,1.0173834913748698,0.7685546875,0.27490234375,-0.19384765625,29.659411764705883,170.21599224646897
0.12409521484375,0.0419482421875,1.0195849609375005,1.0279653544452076,0.80712890625,0.25537109375,-0.15966796875,29.659411764705883,170.21599224646897
0.13239599609375,0.0390185546875,1.0078662109375005,1.0172735357518503,0.80029296875,0.20263671875,-0.083984375,29.61235294117647,170.21599224646897
0.13141943359375,0.0365771484375,1.0161669921875005,1.0252825519462,0.77880859375,0.11328125,0.005859375,29.70647058823529,170.21599224646897
0.13825537109375,0.0316943359375,1.0225146484375005,1.0323058097463438,0.7578125,-0.1259765625,0.09375,29.659411764705883,170.21599224646897
0.13923193359375,0.0356005859375,1.0249560546875005,1.034982051579598,0.76953125,-0.35302734375,0.1396484375,29.51823529411765,170.21599224646897
0.14020849609375,0.0292529296875,1.0308154296875005,1.0407183126831192,0.79931640625,-0.28955078125,0.11181640625,29.56529411764706,170.3392726073545
0.13337255859375,0.0150927734375,1.0444873046875005,1.0530763319195993,0.7958984375,-0.1572265625,0.0556640625,29.61235294117647,170.3392726073545
0.11628271484375,0.0067919921875,1.0356982421875005,1.0422277341347168,0.78369140625,-0.0712890625,0.0546875,29.61235294117647,170.3392726073545
0.10993505859375,0.1361865234375,1.0288623046875005,1.0436427206093466,0.82373046875,-0.19775390625,0.3642578125,29.61235294117647,170.3392726073545
