AccX,AccY,AccZ,Magnitude,GyroX,GyroY,GyroZ,Temperature,Altitude
-0.33049462890625,0.1957568359375,0.8721240234375001,0.9529678645206008,0.56787109375,-0.49072265625,0.18798828125,30.412352941176472,171.3092370613411
-0.35490869140625,0.2006396484375,0.8774951171875001,0.9675815874895124,0.63134765625,-0.7021484375,0.39453125,30.31823529411765,171.3092370613411
-0.35881494140625,0.1942919921875,0.8804248046875001,0.9703841389437384,0.66845703125,-0.7275390625,0.3955078125,30.31823529411765,171.3092370613411
-0.35344384765625,0.1957568359375,0.8999560546875001,0.9864908477178116,0.701171875,-0.65966796875,0.20068359375,30.36529411764706,171.3092370613411
-0.34904931640625,0.1903857421875,0.9233935546875,1.0053545707611682,0.712890625,-0.623046875,0.0810546875,30.412352941176472,171.50146568587834
-0.36125634765625,0.1962451171875,0.9434130859375,1.0290998714702018,0.7314453125,-0.32568359375,0.0712890625,30.31823529411765,171.50146568587834
-0.36662744140625,0.2011279296875,0.9526904296875,1.0404264412781072,0.76123046875,-0.24609375,0.2490234375,30.31823529411765,171.50146568587834
-0.35149072265625,0.1923388671875,0.9321826171875,1.0146449624035596,0.763671875,-0.013671875,0.0869140625,30.412352941176472,171.50146568587834
-0.33537744140625,0.1889208984375,0.9150927734375,0.9927557192321638,0.7392578125,0.11962890625,0.115234375,30.31823529411765,171.50146568587834
-0.34221337890625,0.1830615234375,0.9102099609375,0.9894966857223608,0.626953125,0.193359375,-0.05810546875,30.31823529411765,171.50146568587834
-0.34611962890625,0.1654833984375,0.9072802734375,0.9850589054678148,0.78857421875,0.15625,-0.02978515625,30.412352941176472,171.50146568587834
-0.34074853515625,0.1718310546875,0.8867724609375001,0.9654019230575932,0.77197265625,0.0283203125,0.03759765625,30.31823529411765,171.50146568587834
-0.33195947265625,0.1659716796875,0.8911669921875001,0.965361226644732,0.755859375,-0.11328125,0.04248046875,30.31823529411765,171.79207824623106
-0.35881494140625,0.1728076171875,0.8931201171875001,0.9778927233901508,0.7646484375,-0.2412109375,0.0546875,30.36529411764706,171.79207824623106
-0.36027978515625,0.1757373046875,0.8989794921875001,0.9843014026327284,0.7919921875,-0.26416015625,0.05908203125,30.412352941176472,171.79207824623106
-0.34123681640625,0.1815966796875,0.9097216796875,0.9884399088655028,0.763671875,-0.20947265625,-0.01904296875,30.31823529411765,171.79207824623106
-0.34074853515625,0.1723193359375,0.9199755859375,0.9960715820010716,0.7666015625,-0.16552734375,-0.07421875,30.36529411764706,171.79207824623106
-0.34904931640625,0.1698779296875,0.9097216796875,0.9890841575781244,0.76318359375,-0.083984375,-0.02880859375,30.412352941176472,171.79207824623106
-0.36320947265625,0.1664599609375,0.9043505859375,0.988675893257262,0.74755859375,-0.0361328125,0.0322265625,30.36529411764706,171.79207824623106
-0.37297509765625,0.1630419921875,0.9038623046875,0.99129217717238,0.75439453125,-0.02587890625,0.09765625,30.27117647058824,171.79207824623106
-0.36174462890625,0.1635302734375,0.8940966796875001,0.978268981160742,0.72900390625,-0.00537109375,0.0966796875,30.31823529411765,171.22695522251206
-0.36711572265625,0.1586474609375,0.8931201171875001,0.9785737143457052,0.7197265625,0.00048828125,0.09716796875,30.412352941176472,171.22695522251206
-0.36125634765625,0.1610888671875,0.8857958984375001,0.9700980082148316,0.69189453125,0.0390625,0.0986328125,30.412352941176472,171.22695522251206
-0.37297509765625,0.1581591796875,0.8760302734375001,0.9651703422557562,0.65283203125,0.1396484375,0.00341796875,29.753529411764703,171.22695522251206
-0.36565087890625,0.1513232421875,0.8677294921875001,0.9537052796766023,0.609375,0.30322265625,0.2265625,30.31823529411765,171.22695522251206
-0.35490869140625,0.1449755859375,0.8540576171875001,0.936158380419472,0.63037109375,0.43798828125,0.35302734375,30.36529411764706,171.22695522251206
-0.32658837890625,0.1483935546875,0.8477099609375001,0.9204850863441854,0.65283203125,0.4794921875,0.5234375,30.36529411764706,171.22695522251206
-0.31145166015625,0.1483935546875,0.8355029296875001,0.9039291616068552,0.7138671875,0.3310546875,0.7431640625,30.36529411764706,171.22695522251206
-0.41643212890625,0.1342333984375,0.8335498046875001,0.9414029956060485,0.8037109375,-0.21435546875,0.880859375,30.31823529411765,171.11663259591057
-0.30461572265625,0.1147021484375,0.8750537109375001,0.9336307184165792,0.87060546875,-0.67236328125,1.236328125,30.27117647058824,171.11663259591057
-0.32072900390625,0.1181201171875,0.9019091796875,0.964499675705318,0.9375,-0.9794921875,1.56396484375,30.31823529411765,171.11663259591057
-0.34026025390625,0.0941943359375,0.9336474609375,0.9981719263864784,0.9853515625,-1.01220703125,1.95654296875,30.31823529411765,171.11663259591057
-0.34514306640625,0.0800341796875,0.9468310546875,1.01094918385011,0.65234375,-0.994140625,2.3359375,30.31823529411765,171.11663259591057
-0.33635400390625,0.0844287109375,0.9605029296875,1.021189551999336,0.3857421875,-0.578125,2.44384765625,30.31823529411765,171.11663259591057
-0.34172509765625,0.0771044921875,0.9556201171875,1.017806933291927,0.12744140625,-0.3896484375,2.31591796875,30.459411764705884,171.11663259591057
-0.35149072265625,0.0941943359375,0.9424365234375,1.0102499204380475,-0.17138671875,-0.39697265625,2.2587890625,30.31823529411765,171.11663259591057
-0.36223291015625,0.0868701171875,0.9141162109375,0.987100575199492,-0.58544921875,-0.37548828125,2.37451171875,30.31823529411765,170.99150079647873
-0.38371728515625,0.1112841796875,0.9346240234375,1.0164374986997002,-0.8037109375,-0.55517578125,2.0810546875,30.459411764705884,170.99150079647873
-0.37785791015625,0.0150927734375,0.9365771484375,1.0100401710095512,-0.85107421875,-0.505859375,1.81396484375,30.27117647058824,170.99150079647873
-0.38176416015625,0.1791552734375,0.9141162109375,1.0067020080833278,-0.88427734375,-0.73681640625,1.63427734375,30.36529411764706,170.99150079647873
-0.36955712890625,0.2167529296875,0.9023974609375,0.99893717598255,-0.884765625,-0.7373046875,1.54931640625,30.31823529411765,170.99150079647873
-0.34465478515625,0.2548388671875,0.8857958984375001,0.9840549491005098,-0.78369140625,-0.5576171875,1.51904296875,30.36529411764706,170.99150079647873
-0.34172509765625,0.2680224609375,0.8574755859375001,0.9611849262311736,-0.6689453125,-0.1484375,1.5625,30.412352941176472,170.99150079647873
-0.34074853515625,0.2685107421875,0.8164599609375001,0.9245617614282328,-0.51513671875,0.47705078125,1.560546875,30.412352941176472,170.99150079647873
-0.30559228515625,0.2641162109375,0.7598193359375001,0.8605053404200954,-0.40087890625,0.9150390625,1.34521484375,30.412352941176472,170.99150079647873
-0.26213525390625,0.2641162109375,0.7129443359375001,0.8042150771813714,-0.22021484375,1.00732421875,1.0048828125,30.31823529411765,170.78833904967
-0.22893212890625,0.2611865234375,0.6841357421875001,0.7672483518453183,-0.0673828125,0.66455078125,0.67333984375,30.27117647058824,170.78833904967
-0.20744775390625,0.2641162109375,0.6733935546875001,0.7524963939949462,0.01806640625,-0.0419921875,0.4873046875,30.412352941176472,170.78833904967
-0.18156884765625,0.2587451171875,0.7070849609375001,0.7745227072795074,0.443359375,-1.34912109375,0.1826171875,30.31823529411765,170.78833904967
-0.20207666015625,0.2465380859375,0.7168505859375001,0.7845321962523705,0.71533203125,-2.5556640625,0.1474609375,30.224117647058826,170.78833904967
-0.23967431640625,0.2465380859375,0.7710498046875001,0.8442408466019405,0.833984375,-3.76318359375,0.10107421875,30.36529411764706,170.78833904967
-0.25188134765625,0.2440966796875,0.8120654296875001,0.8845776757442699,0.90087890625,-4.70263671875,-0.10986328125,30.36529411764706,170.78833904967
-0.26604150390625,0.2577685546875,0.8579638671875001,0.9345184358725688,0.81640625,-5.2353515625,-0.5830078125,30.412352941176472,170.78833904967
-0.27336572265625,0.2729052734375,0.8696826171875001,0.951605990539924,0.546875,-4.78466796875,-1.3544921875,30.27117647058824,170.78833904967
-0.28117822265625,0.2816943359375,0.8550341796875001,0.94313113628449,0.37158203125,-4.01953125,-2.07080078125,30.31823529411765,171.09017574182585
-0.29973291015625,0.2816943359375,0.8208544921875001,0.91814683666307,0.00732421875,-2.90234375,-2.63916015625,30.459411764705884,171.09017574182585
-0.31584619140625,0.2689990234375,0.7856982421875001,0.888504934714878,-0.04833984375,-1.80224609375,-3.08642578125,30.36529411764706,171.09017574182585
-0.30217431640625,0.2538623046875,0.7500537109375001,0.847547023195733,0.0966796875,-1.3388671875,-3.04931640625,30.36529411764706,171.09017574182585
-0.27580712890625,0.2245654296875,0.7495654296875001,0.8296671247849025,0.26171875,-1.76611328125,-2.63134765625,30.27117647058824,171.09017574182585
-0.29582666015625,0.1977099609375,0.7568896484375001,0.836351948299848,0.50244140625,-3.2431640625,-1.9404296875,30.36529411764706,171.09017574182585
-0.34367822265625,0.1601123046875,0.7964404296875001,0.8820816452468057,0.69287109375,-4.900390625,-1.35400390625,30.412352941176472,171.09017574182585
-0.35295556640625,0.1337451171875,0.9653857421875,1.0365495740424406,0.74560546875,-7.0234375,-1.1025390625,30.36529411764706,171.09017574182585
-0.36760400390625,0.1342333984375,1.1685107421875005,1.2323021802916565,0.806640625,-9.328125,-1.40380859375,30.36529411764706,170.87604989335634
-0.39299462890625,0.1772021484375,1.3818896484375005,1.4475718912091189,0.72412109375,-10.69189453125,-1.7802734375,30.224117647058826,170.87604989335634
-0.39445947265625,0.2333544921875,1.4282763671875005,1.5000086585278951,0.40576171875,-10.75537109375,-2.3115234375,30.36529411764706,170.87604989335634
-0.42961572265625,0.2807177734375,1.5928271484375005,1.6734606246567914,-0.130859375,-8.7275390625,-2.33935546875,30.36529411764706,170.87604989335634
-0.46330712890625,0.3080615234375,1.5342333984375005,1.6320010780630836,-0.95458984375,-4.42138671875,-2.0244140625,30.412352941176472,170.87604989335634
-0.47551416015625,0.3153857421875,1.3887255859375005,1.501379577562489,-1.3935546875,-0.36328125,-1.6474609375,30.31823529411765,170.87604989335634
-0.42033837890625,0.2895068359375,1.2607958984375005,1.3601855970245018,-1.595703125,3.11962890625,-1.43896484375,30.412352941176472,170.87604989335634
-0.38469384765625,0.1874560546875,1.0581591796875005,1.1414157780670884,-1.75830078125,5.39990234375,-1.4326171875,30.31823529411765,170.87604989335634
-0.34904931640625,0.1122607421875,0.8701708984375001,0.9442644184801654,-2.2236328125,6.74951171875,-1.576171875,30.459411764705884,170.95279761704106
-0.32268212890625,0.0526904296875,0.8008349609375001,0.8650067470002129,-2.50732421875,7.3369140625,-1.83251953125,30.36529411764706,170.95279761704106
-0.26897119140625,0.0155810546875,0.6611865234375001,0.71397191110508,-2.69091796875,7.884765625,-2.1455078125,30.31823529411765,170.95279761704106
-0.23479150390625,-0.0220166015625,0.3814013671875,0.4484180905621613,-2.76611328125,8.66455078125,-2.05419921875,30.31823529411765,170.95279761704106
-0.29094384765625,-0.0649853515625,0.2456591796875,0.386289853570425,-2.83984375,9.33740234375,-1.5048828125,30.412352941176472,170.95279761704106
-0.13029931640625,-0.0664501953125,0.1123583984375,0.1844395565285426,-2.939453125,10.236328125,-0.51611328125,30.36529411764706,170.95279761704106
-0.01360009765625,-0.0469189453125,0.0518115234375,0.071209437902651,-2.85498046875,10.72705078125,0.36181640625,30.412352941176472,170.95279761704106
0.10016943359375,-0.0474072265625,-0.0341259765624999,0.1159566420399676,-2.18603515625,10.43701171875,0.66064453125,30.31823529411765,170.95279761704106
0.20466162109375,-0.0181103515625,-0.1474072265624999,0.2528700346527583,-1.28271484375,9.4560546875,0.802734375,30.36529411764706,170.95279761704106
0.3257553710937499,-0.0132275390625,-0.2367626953124999,0.402924438918411,-0.6298828125,7.46826171875,0.75146484375,30.27117647058824,170.76060228475606
0.55573583984375,0.0019091796875,-0.2675244140624999,0.6167781455056601,-0.25,4.990234375,1.28369140625,30.412352941176472,170.76060228475606
0.65290380859375,-0.1025830078125,-0.3949658203124999,0.7699380858115862,0.3583984375,2.42822265625,1.77880859375,30.36529411764706,170.76060228475606
0.62653662109375,-0.1323681640625,-0.4315869140624999,0.7722284201056329,0.27978515625,0.37548828125,2.90478515625,30.412352941176472,170.76060228475606
0.60651708984375,-0.1309033203125,-0.5370556640624999,0.8206262522262989,-0.2529296875,-1.2255859375,3.9013671875,30.36529411764706,170.76060228475606
0.69587255859375,-0.1060009765625,-0.5053173828124999,0.866498979923514,-1.1083984375,-4.4326171875,4.81103515625,30.31823529411765,170.76060228475606
0.77790380859375,-0.0322705078125,-0.2626416015624999,0.8216789713570947,-1.0234375,-9.64794921875,5.271484375,30.36529411764706,170.76060228475606
0.83161474609375,0.0399951171875,-0.0834423828124999,0.8367468712632524,0.18408203125,16.0,4.75244140625,30.36529411764706,170.76060228475606
0.79157568359375,0.0365771484375,0.0723193359375,0.7957135395323951,1.37255859375,16.0,3.712890625,30.27117647058824,170.98440087054135
0.76032568359375,0.1376513671875,0.1685107421875,0.7908469600709567,1.5703125,16.0,1.9443359375,30.412352941176472,170.98440087054135
0.86725927734375,0.1381396484375,0.4287646484375,0.97727188661036,1.27294921875,16.0,-0.35009765625,30.31823529411765,170.98440087054135
0.95222021484375,0.2489794921875,0.8027880859375001,1.270111347878688,-0.92919921875,16.0,-2.06689453125,30.31823529411765,170.98440087054135
0.68268896484375,0.2489794921875,1.0747607421875005,1.2973687460382275,-3.3193359375,16.0,-4.02685546875,30.31823529411765,170.98440087054135
0.78229833984375,0.0663623046875,1.4067919921875005,1.611042630500075,-6.0869140625,16.0,-6.2724609375,30.412352941176472,170.98440087054135
0.63044287109375,-0.2417431640625,1.6890185546875005,1.818978188204172,-7.0576171875,16.0,-6.04150390625,30.36529411764706,170.98440087054135
0.4878647460937499,-0.3862744140625,2.0200732421875003,2.1137445061412614,-5.03369140625,16.0,-4.14990234375,30.31823529411765,170.98440087054135
0.2881577148437499,-0.3755322265625,2.1377490234375003,2.189527393986873,-1.70361328125,-4.0107421875,-1.453125,30.27117647058824,171.00632887881895
0.14753271484375,-0.4907666015625,1.9404833984375005,2.0070111057913764,0.55126953125,12.29931640625,1.19287109375,30.412352941176472,171.00632887881895
0.21491552734375,-0.5312939453125,1.8286669921875005,1.9163728521702768,2.92333984375,15.99951171875,3.34619140625,30.31823529411765,171.00632887881895
0.16852880859375,-0.4102001953125,1.6050341796875005,1.665172927213738,4.07470703125,15.99951171875,5.4150390625,30.36529411764706,171.00632887881895
0.16559912109375,-0.1597119140625,1.4487841796875005,1.4669378186253543,4.673828125,15.99951171875,6.75537109375,30.412352941176472,171.00632887881895
0.23347021484375,0.0165576171875,1.2466357421875005,1.2684175848692316,5.39697265625,15.99951171875,6.98388671875,30.31823529411765,171.00632887881895
0.4409897460937499,0.0336474609375,0.8599169921875001,0.96698569857065,5.67333984375,15.99951171875,5.4716796875,30.224117647058826,171.00632887881895
0.65388037109375,0.0092333984375,0.4429248046875,0.789827308945358,4.15380859375,15.99951171875,3.21826171875,30.36529411764706,171.00632887881895
0.87751318359375,0.0048388671875,0.1572802734375,0.8915098913803882,1.5087890625,12.931640625,0.66064453125,30.412352941176472,171.00632887881895
0.87848974609375,-0.0181103515625,0.0225146484375,0.8789648048811982,-1.5439453125,8.23291015625,-0.93212890625,30.36529411764706,170.6890144623732
0.89313818359375,-0.0005322265624999,0.1636279296875,0.9080034127865788,-3.13818359375,4.09716796875,-1.89599609375,30.31823529411765,170.6890144623732
0.81403662109375,0.1308154296875,0.3740771484375,0.9053739614707208,-3.1982421875,-0.03173828125,-1.900390625,30.31823529411765,170.6890144623732
0.62311865234375,0.2348193359375,0.5132373046875001,0.840731530485035,-2.26708984375,-2.943359375,-1.68212890625,30.36529411764706,170.6890144623732
0.4961655273437499,0.3153857421875,0.6094287109375001,0.8467890827203695,-1.09912109375,-5.0859375,-2.822265625,30.36529411764706,170.6890144623732
0.62360693359375,0.2616748046875,0.7105029296875001,0.9809045438415308,-0.17236328125,-6.57763671875,-5.71044921875,30.36529411764706,170.6890144623732
0.69343115234375,-0.0586376953125,0.9023974609375,1.1395640920364196,-0.1552734375,-8.68603515625,-8.169921875,30.31823529411765,170.6890144623732
0.69391943359375,-0.3140087890625,1.0806201171875005,1.3220686584281072,-0.2900390625,-10.34521484375,-7.91357421875,30.459411764705884,170.6890144623732
0.4947006835937499,-0.4370556640625,1.1992724609375005,1.3689415091231345,-1.2412109375,-10.45361328125,-4.890625,30.412352941176472,170.67805031841266
0.53718115234375,-0.4800244140625,1.6279833984375005,1.7802575583655076,-0.888671875,-9.365234375,-1.76513671875,30.31823529411765,170.67805031841266
0.66413427734375,-0.5278759765625,1.8169482421875005,2.0052501838331707,1.1484375,-5.0048828125,1.17529296875,30.31823529411765,170.67805031841266
0.81452490234375,-0.4517041015625,2.1992724609375003,2.388364873578694,3.66552734375,-0.6337890625,3.6884765625,30.412352941176472,170.67805031841266
0.95710302734375,-0.2734814453125,2.3262255859375003,2.5302497470706427,4.89453125,2.66552734375,5.4072265625,30.31823529411765,170.67805031841266
1.12897802734375,-0.0996533203125,2.4185107421875003,2.670901791633422,4.826171875,5.35888671875,5.4765625,30.36529411764706,170.67805031841266
1.21003271484375,-0.0425244140625,2.4941943359375003,2.7725426745509623,4.6103515625,8.29443359375,3.47802734375,30.224117647058826,170.67805031841266
1.40241552734375,-0.0708447265625,2.4136279296875003,2.7923803590456893,4.47265625,13.10498046875,0.99072265625,30.31823529411765,170.67805031841266
1.38532568359375,-0.1528759765625,2.1777880859375003,2.585586831086079,3.01806640625,15.99951171875,-0.19580078125,30.31823529411765,170.50649727718212
1.42878271484375,-0.1567822265625,2.0957568359375003,2.5412983744890987,2.04345703125,15.99951171875,-0.31494140625,30.31823529411765,170.50649727718212
1.46100927734375,-0.1064892578125,2.0845263671875003,2.54777123109864,2.18212890625,15.99951171875,-0.14013671875,30.31823529411765,170.50649727718212
1.52888037109375,-0.0747509765625,1.8731005859375005,2.4190015921144443,2.841796875,15.99951171875,0.6357421875,30.36529411764706,170.50649727718212
1.71003271484375,-0.2456494140625,1.7915576171875005,2.4888218530396444,2.3544921875,15.99951171875,-0.35400390625,30.412352941176472,170.50649727718212
1.95222021484375,-0.5684033203125,2.2402880859375003,3.025415146683238,0.62939453125,15.99951171875,-5.94140625,30.27117647058824,170.50649727718212
0.56745458984375,-0.8345166015625,4.8657763671875,4.969326143985575,1.88134765625,15.9296875,-2.91162109375,30.412352941176472,170.50649727718212
-2.05412744140625,-0.5493603515625,4.6802294921875,5.140601564111805,3.9697265625,-7.40625,13.55859375,30.36529411764706,170.50649727718212
-0.95354150390625,-0.2393017578125,2.5659716796875003,2.7478568725321626,-3.69775390625,3.23486328125,13.3544921875,30.36529411764706,170.50649727718212
0.3135483398437499,0.7665576171875,2.8745654296875003,2.99149620615528,-4.89404296875,14.333984375,-1.625,30.412352941176472,170.58324630067656
1.34821630859375,1.2260302734375,2.6631396484375003,3.2269413123301764,0.55029296875,15.99951171875,-14.3271484375,30.36529411764706,170.58324630067656
0.23688818359375,0.3520068359375,1.3486865234375005,1.4138529494169496,3.02685546875,15.99951171875,-14.00634765625,30.36529411764706,170.58324630067656
-0.15129541015625,-0.2837353515625,0.6660693359375001,0.7396245068525419,4.1826171875,15.99951171875,-8.19384765625,30.412352941176472,170.58324630067656
-2.34904931640625,-0.6924267578125,-0.5351025390624999,2.50675531976189,4.67724609375,15.99951171875,5.90576171875,30.31823529411765,170.58324630067656
-1.94719384765625,-2.3267041015625,-2.0526806640625,3.663142607815614,1.849609375,15.99951171875,12.52587890625,30.412352941176472,170.58324630067656
2.92780615234375,-1.6631298828125,-0.9877392578125,3.5090851677082195,0.544921875,15.99951171875,7.96728515625,30.31823529411765,170.58324630067656
7.11872412109375,-0.5259228515625,-1.8124462890625,7.364630982525468,3.0693359375,15.99951171875,10.08154296875,30.412352941176472,170.58324630067656
5.74421240234375,-0.7378369140625,-2.7089306640625,6.393644092197432,-5.90625,16.0,14.119140625,30.36529411764706,170.57099085342247
3.57819677734375,0.8168505859375,-1.5946728515625,4.001714452662772,-2.453125,16.0,11.3076171875,30.36529411764706,170.57099085342247
-0.29143212890625,1.4179248046875,-0.3534619140624999,1.4900935414260543,0.32275390625,16.0,11.2177734375,30.36529411764706,170.57099085342247
-3.00969384765625,1.0722216796875,1.0479052734375005,3.3624428395304937,1.201171875,16.0,6.74560546875,30.412352941176472,170.57099085342247
-2.42522119140625,1.0375537109375,2.5884326171875003,3.695700061428993,5.31689453125,16.0,5.22216796875,30.31823529411765,170.57099085342247
-0.46184228515625,0.5619677734375,2.5073779296875003,2.6107566253913106,5.13623046875,-1.59375,0.38671875,30.412352941176472,170.57099085342247
-1.73772119140625,1.0536669921875,2.2778857421875003,3.0526468062894057,1.33642578125,15.99951171875,2.25,30.412352941176472,170.57099085342247
-1.49113916015625,1.8222216796875,1.8984912109375005,3.0246085239054588,-0.73193359375,15.99951171875,-2.67431640625,30.31823529411765,170.57099085342247
-1.25334619140625,1.4936083984375,1.1172412109375005,2.2472139744164723,-0.2021484375,15.99951171875,-8.7333984375,30.36529411764706,170.466515561609
-1.53606103515625,0.9594287109375,0.3535693359375,1.8452637292299887,-0.00830078125,15.99951171875,-8.8974609375,30.31823529411765,170.466515561609
-1.29436181640625,0.3090380859375,-0.0888134765624999,1.33370344677875,0.22900390625,15.99951171875,-8.16162109375,30.27117647058824,170.466515561609
-1.29094384765625,0.0546435546875,-0.2714306640624999,1.3203016857005898,2.4921875,15.99951171875,-6.7392578125,30.27117647058824,170.466515561609
-1.07121728515625,-0.0415478515625,-0.3969189453124999,1.1431436240188604,4.58935546875,15.99951171875,-3.14404296875,30.412352941176472,170.466515561609
-0.91057275390625,-0.1875439453125,-0.5136181640624999,1.0621295071857872,4.54345703125,15.99951171875,-0.0146484375,30.27117647058824,170.466515561609
-0.49895166015625,-0.3608837890625,-0.5541455078124999,0.8284124046690504,3.279296875,15.99951171875,0.75390625,30.412352941176472,170.466515561609
-0.53215478515625,-0.1807080078125,-0.4555126953124999,0.7234195981884343,2.6025390625,15.99951171875,0.71923828125,30.31823529411765,170.466515561609
-0.33488916015625,-0.0249462890625,-0.3939892578124999,0.5176877458466569,3.06298828125,15.46728515625,-0.130859375,30.31823529411765,170.466515561609
-0.29631494140625,-0.0102978515625,-0.4320751953124999,0.5240205765537529,3.92529296875,13.072265625,-1.05810546875,30.36529411764706,170.25369406839485
-0.27385400390625,0.0028857421875,-0.5585400390624999,0.6220701875185759,4.12060546875,11.23779296875,-2.078125,30.412352941176472,170.25369406839485
-0.34660791015625,-0.1934033203125,-0.6796337890624999,0.7870476319297538,3.6103515625,10.1708984375,-2.615234375,30.412352941176472,170.25369406839485
-0.62981103515625,-0.1567822265625,-0.7177197265624999,0.9676591406416992,3.87060546875,10.43017578125,-2.1962890625,30.31823529411765,170.25369406839485
-0.86076806640625,-0.1182080078125,-0.7973095703124999,1.1792359170953275,4.6591796875,9.34765625,-1.60791015625,30.412352941176472,170.25369406839485
-1.11223291015625,-0.4228955078125,-0.8266064453124999,1.4488550211787237,5.40771484375,10.70068359375,-1.61865234375,30.31823529411765,170.25369406839485
-1.29387353515625,-0.5767041015625,-0.7548291015624999,1.6051365419497472,6.15966796875,15.99951171875,-0.07177734375,30.36529411764706,170.25369406839485
-1.34416650390625,-0.6245556640625,-0.7235791015624999,1.6493696019855877,5.93798828125,15.99951171875,3.798828125,30.31823529411765,170.25369406839485
-1.75285791015625,-0.4194775390625,-0.9833447265625,2.0531534551108312,2.9140625,15.99951171875,11.82861328125,30.412352941176472,170.1892017930563
-2.40324853515625,0.2372607421875,-1.3764111328125,2.779640945885676,0.294921875,15.99951171875,15.99951171875,30.412352941176472,170.1892017930563
-1.96184228515625,0.9276904296875,-1.7938916015625,2.8155784065298817,2.66650390625,15.99951171875,11.26904296875,30.31823529411765,170.1892017930563
-0.33293603515625,1.9291552734375,-1.6864697265625,2.583924652761584,9.30615234375,15.99951171875,-2.4111328125,30.36529411764706,170.1892017930563
0.3853256835937499,1.5961474609375,-1.9061962890625,2.515898823865909,10.6767578125,15.99951171875,-13.23486328125,30.31823529411765,170.1892017930563
0.4429428710937499,0.6313037109375,-2.1142041015625,2.2504670061033845,5.83349609375,15.99951171875,16.0,30.36529411764706,170.1892017930563
0.0425522460937499,-0.0332470703125,-1.8935009765625,1.8942708384956808,-1.3203125,10.27783203125,16.0,30.27117647058824,170.1892017930563
-0.18938134765625,-0.3496533203125,-1.4164501953125,1.4712083112348409,-6.33740234375,3.1552734375,-8.8427734375,30.31823529411765,170.1892017930563
-0.02727197265625,-0.4922314453125,-0.8949658203124999,1.0217628764907354,-7.19775390625,1.9755859375,-4.3076171875,30.31823529411765,170.1892017930563
-0.01115869140625,-0.6396923828125,-0.8192822265624999,1.0394971033069027,-3.58056640625,4.7529296875,-2.2041015625,30.36529411764706,170.39235069634208
-0.22600244140625,-0.3169384765625,-0.8388134765624999,0.924735178259274,-0.013671875,5.10888671875,-0.8232421875,30.36529411764706,170.39235069634208
-0.40227197265625,0.0434130859375,-1.0268017578125,1.1036436407927186,1.95458984375,0.31103515625,0.93408203125,30.36529411764706,170.39235069634208
-0.31486962890625,0.2069873046875,-1.2406689453125,1.2966287284231313,1.95361328125,-3.42724609375,1.70849609375,30.412352941176472,170.39235069634208
-0.29240869140625,0.2309130859375,-1.2470166015625,1.30148918575591,1.67626953125,-4.77783203125,1.87158203125,30.36529411764706,170.39235069634208
0.0288803710937499,0.2436083984375,-1.1469189453125,1.1728606885476782,1.6572265625,-7.25,1.43408203125,30.412352941176472,170.39235069634208
0.0430405273437499,0.1557177734375,-1.0360791015625,1.0485992640913484,2.18798828125,-10.8212890625,0.79248046875,30.31823529411765,170.39235069634208
-0.09807275390625,0.0136279296875,-0.9701611328125,0.9752008045250764,2.80517578125,-13.6298828125,0.1865234375,30.31823529411765,170.39235069634208
-0.31535791015625,-0.1831494140625,-0.9218212890625,0.9913368793394118,2.9189453125,-15.49755859375,0.037109375,30.31823529411765,169.64814821894598
-0.47990869140625,-0.2895947265625,-0.8368603515624999,1.0072302148751195,2.43896484375,-15.630859375,0.380859375,30.36529411764706,169.64814821894598
-0.66057275390625,-0.2910595703125,-0.7431103515624999,1.0359947061993735,1.4326171875,-15.16748046875,1.4296875,30.412352941176472,169.64814821894598
-0.77629541015625,-0.2104931640625,-0.6102978515624999,1.0096560818261366,0.19677734375,-13.41259765625,2.12353515625,30.36529411764706,169.64814821894598
-0.85588525390625,-0.0864697265625,-0.5048291015624999,0.9974312022642768,-0.83544921875,-10.72900390625,1.9404296875,30.412352941176472,169.64814821894598
-0.90373681640625,0.0658740234375,-0.4076611328124999,0.9936132142327412,-1.2568359375,-6.990234375,1.0107421875,30.36529411764706,169.64814821894598
-0.93254541015625,0.1532763671875,-0.3466259765624999,1.0066201638997665,-1.16943359375,-2.70458984375,-0.19580078125,30.36529411764706,169.64814821894598
-0.91252587890625,0.1991748046875,-0.3168408203124999,0.9862870717555948,-0.52587890625,2.115234375,-1.37841796875,30.31823529411765,169.64814821894598
-0.84270166015625,0.1981982421875,-0.3300244140624999,0.9264689660823028,0.44580078125,6.083984375,-2.1962890625,30.224117647058826,169.64814821894598
-0.73527978515625,0.1400927734375,-0.4037548828124999,0.8504589073104988,0.9736328125,7.859375,-2.27490234375,30.412352941176472,170.11633282767266
-0.73527978515625,-0.0820751953125,-0.4657666015624999,0.8742489504003347,1.1005859375,7.79296875,-1.203125,30.36529411764706,170.11633282767266
-0.73088525390625,-0.0083447265625,-0.5311962890624999,0.9035664814239056,1.32763671875,6.13330078125,0.64013671875,30.36529411764706,170.11633282767266
-0.59416650390625,-0.0122509765625,-0.5814892578124999,0.8314527513588748,1.66357421875,3.4228515625,1.68505859375,30.31823529411765,170.11633282767266
-0.48772119140625,-0.0102978515625,-0.6693798828124999,0.8282798040563415,1.83984375,0.76318359375,1.62255859375,30.36529411764706,170.11633282767266
-0.46672509765625,-0.0137158203125,-0.6854931640624999,0.829410223282483,1.9912109375,-1.41845703125,0.99658203125,30.224117647058826,170.11633282767266
-0.52287744140625,-0.0376416015625,-0.6859814453124999,0.8633587042549364,2.18701171875,-2.98876953125,0.66259765625,30.27117647058824,170.11633282767266
-0.55266259765625,-0.0605908203125,-0.6684033203124999,0.8694079554266053,2.279296875,-3.28662109375,1.05029296875,30.36529411764706,170.11633282767266
-0.78361962890625,-0.1025830078125,-0.6791455078124999,1.042027646984919,2.04736328125,-3.005859375,1.6572265625,30.36529411764706,170.25369406839485
-0.81486962890625,-0.0933056640625,-0.6361767578124999,1.0379977486684535,1.81884765625,-2.873046875,2.22412109375,30.36529411764706,170.25369406839485
-0.79924462890625,-0.0845166015625,-0.6210400390624999,1.015689796588464,1.57275390625,-2.1630859375,2.60595703125,30.27117647058824,170.25369406839485
-0.74651025390625,-0.0405712890625,-0.6308056640624999,0.978181667430288,1.150390625,-1.6826171875,2.62841796875,30.31823529411765,170.25369406839485
-0.72649072265625,-0.0127392578125,-0.6420361328124999,0.9696192317771156,0.5771484375,-1.34326171875,2.48388671875,30.31823529411765,170.25369406839485
-0.73772119140625,-0.0156689453125,-0.6610791015624999,0.9907086608179748,-0.0341796875,-0.974609375,2.04931640625,30.31823529411765,170.25369406839485
-0.73527978515625,-0.0249462890625,-0.6527783203124999,0.9835538700383522,-0.568359375,-0.904296875,1.96240234375,30.36529411764706,170.25369406839485
-0.71379541015625,-0.0488720703125,-0.6200634765624999,0.946768758347852,-0.94775390625,-1.60595703125,1.99609375,30.36529411764706,170.25369406839485
-0.69817041015625,-0.0674267578125,-0.5546337890624999,0.8942074307769298,-1.2763671875,-3.6171875,2.19189453125,30.36529411764706,170.20016603006732
-0.74943994140625,-0.0332470703125,-0.5067822265624999,0.9053142098846194,-1.51904296875,-6.17724609375,2.5244140625,30.412352941176472,170.20016603006732
-0.76848291015625,0.0380419921875,-0.4677197265624999,0.9004304076315462,-1.83837890625,-9.0595703125,2.19189453125,30.31823529411765,170.20016603006732
-0.79631494140625,0.1093310546875,-0.4047314453124999,0.8999323909331555,-2.0849609375,-10.900390625,0.8427734375,30.31823529411765,170.20016603006732
-0.80949853515625,0.1625537109375,-0.3139111328124999,0.8833186212592226,-1.7705078125,-11.24267578125,-0.46728515625,30.27117647058824,170.20016603006732
-0.79826806640625,0.1728076171875,-0.3212353515624999,0.8776596888860042,-1.46337890625,-10.51611328125,-0.8173828125,30.31823529411765,170.20016603006732
-0.94963525390625,0.1620654296875,-0.1703564453124999,0.9783116259254476,-1.39892578125,-9.69970703125,-0.31982421875,30.459411764705884,170.20016603006732
-0.90324853515625,0.1635302734375,-0.1918408203124999,0.9377648782774004,-1.31884765625,-8.69873046875,0.5595703125,30.31823529411765,170.20016603006732
-0.90764306640625,0.1801318359375,-0.0145947265624999,0.9254601127855208,-1.0302734375,-6.84326171875,1.31201171875,30.31823529411765,170.20016603006732
-0.93938134765625,0.1957568359375,0.0137255859375,0.9596595473656592,-0.568359375,-4.32568359375,1.37646484375,30.31823529411765,170.1369674936523
-0.91594384765625,0.2055224609375,-0.0189892578124999,0.9389106485291406,-0.35693359375,-1.17626953125,0.94921875,31.11823529411765,170.1369674936523
-0.95500634765625,0.2523974609375,-0.0668408203124999,0.9900551992750076,0.134765625,2.61669921875,0.021484375,30.27117647058824,170.1369674936523
-0.97111962890625,0.3627490234375,-0.1747509765624999,1.0512840203586375,0.68310546875,5.703125,-0.81787109375,30.459411764705884,170.1369674936523
-0.94914697265625,0.2553271484375,-0.2528759765624999,1.0148981170315508,1.12255859375,8.162109375,-1.12744140625,30.31823529411765,170.1369674936523
-0.89445947265625,0.2655810546875,-0.3563916015624999,0.998802291996622,1.52490234375,9.8359375,-1.0771484375,30.412352941176472,170.1369674936523
-0.83635400390625,0.2543505859375,-0.4979931640624999,1.0060712856799687,1.54443359375,10.61572265625,-0.5634765625,30.459411764705884,170.1369674936523
-0.72502587890625,0.2367724609375,-0.6015087890624999,0.971358093939416,1.19287109375,10.421875,-0.00830078125,30.224117647058826,170.1369674936523
-0.62688134765625,0.2108935546875,-0.6942822265624999,0.958897348817186,0.7783203125,9.43994140625,0.31396484375,30.412352941176472,169.99960841063833
-0.53215478515625,0.2226123046875,-0.7318798828124999,0.9318761271910628,0.7451171875,7.9521484375,0.30224609375,30.31823529411765,169.99960841063833
-0.45842431640625,0.2436083984375,-0.7997509765624999,0.9534671101692463,0.5009765625,6.1328125,0.1787109375,30.27117647058824,169.99960841063833
-0.43108056640625,0.2763232421875,-0.7558056640624999,0.9129223355439944,0.498046875,5.0361328125,0.93701171875,30.412352941176472,169.99960841063833
-0.33147119140625,0.4731005859375,-0.7177197265624999,0.9213136930729048,0.66162109375,3.13818359375,1.71142578125,30.36529411764706,169.99960841063833
-0.26213525390625,0.5282763671875,-0.7787548828124999,0.9768571947698532,0.033203125,-2.119140625,-0.1826171875,30.412352941176472,169.99960841063833
-0.64592431640625,0.3393115234375,-0.7289501953124999,1.0313674998314084,-0.23388671875,-9.25439453125,-1.5341796875,30.459411764705884,169.99960841063833
-1.14348291015625,0.1332568359375,-0.6757275390624999,1.3348851101090844,0.015625,-11.98828125,-1.529296875,30.36529411764706,169.99960841063833
-1.05363916015625,-0.1772900390625,-0.5360791015624999,1.195394512659987,0.171875,-8.3330078125,-0.01123046875,30.36529411764706,169.99960841063833
-0.90861962890625,-0.0195751953125,-0.3529736328124999,0.9749683091086128,-0.8154296875,-4.06982421875,1.74072265625,30.36529411764706,169.89384995784417
-0.62004541015625,0.1879443359375,-0.1024853515624999,0.6559593214153675,-1.22412109375,-3.6220703125,2.494140625,30.224117647058826,169.89384995784417
-0.62541650390625,0.3568896484375,0.0596240234375,0.7225448419932388,-0.56982421875,-3.03662109375,0.6279296875,30.31823529411765,169.89384995784417
-0.79680322265625,0.3930224609375,0.0308154296875,0.8889947250369821,1.47216796875,1.10009765625,-2.275390625,30.31823529411765,169.89384995784417
-1.17424462890625,0.2689990234375,-0.1933056640624999,1.2200729498206857,2.486328125,6.158203125,-3.76171875,30.31823529411765,169.89384995784417
-1.18205712890625,0.1249560546875,-0.3983837890624999,1.2536278215598706,1.611328125,9.291015625,-3.62744140625,30.31823529411765,169.89384995784417
-1.01945947265625,0.0180224609375,-0.3764111328124999,1.086879830704385,0.68798828125,9.73583984375,-2.3271484375,30.31823529411765,169.89384995784417
-0.79924462890625,-0.0444775390625,-0.3783642578124999,0.8853980686146483,0.6376953125,7.89599609375,-0.7802734375,30.36529411764706,169.9241528451106
-0.68986962890625,-0.0762158203125,-0.4008251953124999,0.8014922291266823,0.63525390625,5.966796875,-0.24072265625,30.27117647058824,169.9241528451106
-0.65861962890625,-0.0610791015625,-0.4769970703124999,0.815497809509625,0.94775390625,3.97705078125,-0.54296875,30.412352941176472,169.9241528451106
-0.72649072265625,-0.0542431640625,-0.5868603515624999,0.9354871261482826,0.9052734375,2.48681640625,-0.98974609375,30.36529411764706,169.9241528451106
-0.67424462890625,-0.0366650390625,-0.5741650390624999,0.8863496131775676,0.7607421875,1.18896484375,-0.80712890625,30.27117647058824,169.9241528451106
-0.85686181640625,-0.0371533203125,-0.5536572265624999,1.020847131626543,0.80322265625,0.0400390625,-0.0888671875,30.31823529411765,169.9241528451106
-0.86858056640625,-0.0317822265625,-0.5243603515624999,1.0150842765773789,0.939453125,-0.59619140625,1.09619140625,30.36529411764706,169.9241528451106
-0.84026025390625,-0.0254345703125,-0.5014111328124999,0.978824466270583,1.01953125,-0.73388671875,1.78369140625,30.31823529411765,169.9241528451106
-0.76213525390625,-0.1011181640625,-0.4755322265624999,0.90399442855009,1.46142578125,-0.5234375,1.955078125,30.412352941176472,169.9241528451106
-0.70451806640625,0.0731982421875,-0.4393994140624999,0.8335319631727445,1.78271484375,-0.40869140625,1.68994140625,30.31823529411765,169.83902817870415
-0.69133447265625,0.1273974609375,-0.4486767578124999,0.83395701276346,2.01123046875,-0.35302734375,1.42578125,30.412352941176472,169.83902817870415
-0.71086572265625,0.1649951171875,-0.3266064453124999,0.7995156249023382,2.13818359375,-0.22216796875,1.0361328125,30.36529411764706,169.83902817870415
-0.74553369140625,0.1938037109375,-0.4540478515624999,0.894169902705016,2.3046875,0.07763671875,0.5439453125,30.31823529411765,169.83902817870415
-0.78361962890625,0.2113818359375,-0.4765087890624999,0.9411708821597105,2.45556640625,0.5546875,0.19091796875,30.36529411764706,169.83902817870415
-0.91740869140625,0.2177294921875,-0.4862744140624999,1.0608994507528893,2.517578125,1.19384765625,0.0380859375,30.31823529411765,169.83902817870415
-0.76848291015625,0.2221240234375,-0.5150830078124999,0.951428173814216,2.42333984375,1.69775390625,-0.06298828125,30.36529411764706,169.83902817870415
-0.72697900390625,0.2401904296875,-0.5375439453124999,0.9354909982336106,2.2626953125,2.12109375,-0.29345703125,30.412352941176472,169.83902817870415
-0.70207666015625,0.2284716796875,-0.4481884765624999,0.8637035693331345,2.04296875,2.396484375,-0.537109375,30.31823529411765,169.83902817870415
-0.68840478515625,0.2060107421875,-0.6044384765624999,0.9389821329886224,1.81396484375,2.978515625,-0.6552734375,30.31823529411765,169.87062611831018
-0.68645166015625,0.1840380859375,-0.6229931640624999,0.9450959640562516,1.63916015625,3.2275390625,-0.68212890625,30.412352941176472,169.87062611831018
-0.68156884765625,0.1767138671875,-0.6459423828124999,0.9555131850818804,1.4892578125,3.171875,-0.7314453125,30.31823529411765,169.87062611831018
-0.66985009765625,0.1586474609375,-0.6107861328124999,0.9202868412772466,1.73388671875,2.90087890625,-0.7568359375,30.31823529411765,169.87062611831018
-0.64348291015625,0.1435107421875,-0.6923291015624999,0.9560257180937666,1.810546875,3.0439453125,-1.3046875,30.459411764705884,169.87062611831018
-0.62346337890625,0.1195849609375,-0.6815869140624999,0.9314332338610553,1.70703125,2.84423828125,-1.369140625,30.224117647058826,169.87062611831018
-0.65520166015625,0.1147021484375,-0.6708447265624999,0.9447107734562996,1.78271484375,2.70068359375,-1.267578125,30.36529411764706,169.87062611831018
-0.67180322265625,0.1049365234375,-0.6898876953124999,0.9686466208406784,1.86767578125,2.90869140625,-1.4326171875,30.459411764705884,169.87062611831018
-0.66447900390625,0.1205615234375,-0.7191845703124999,0.9865565740196496,2.12841796875,3.8603515625,-1.86474609375,30.36529411764706,169.87062611831018
-0.67082666015625,0.0688037109375,-0.7597119140624999,1.0158270280828656,2.12451171875,4.9375,-1.9033203125,30.31823529411765,169.97767974550266
-0.67766259765625,0.0390185546875,-0.7904736328124999,1.0419201543515266,1.837890625,6.2392578125,-1.55615234375,30.36529411764706,169.97767974550266
-0.61272119140625,-0.0098095703125,-0.8075634765624999,1.013746642285794,1.6494140625,7.2421875,-1.34130859375,30.27117647058824,169.97767974550266
-0.65471337890625,-0.0166455078125,-0.8378369140624999,1.0634365876792786,1.68994140625,7.5263671875,-1.37109375,30.412352941176472,169.97767974550266
-0.43938134765625,-0.0405712890625,-0.8524853515624999,0.9599131589852564,1.87353515625,6.884765625,-1.43310546875,30.412352941176472,169.97767974550266
-0.35686181640625,-0.0737744140625,-0.8949658203124999,0.9663109435925163,2.02490234375,5.43115234375,-1.23583984375,30.31823529411765,169.97767974550266
-0.32365869140625,-0.0952587890625,-0.9423291015625,1.000906249889593,2.13037109375,3.1904296875,-0.6015625,30.412352941176472,169.97767974550266
-0.28508447265625,-0.1045361328125,-0.9423291015625,0.9900429764735836,2.0927734375,-0.68505859375,0.0322265625,30.459411764705884,169.97767974550266
-0.34465478515625,-0.0928173828125,-0.9286572265625,0.9948900602227452,2.18896484375,-5.044921875,0.4462890625,30.412352941176472,170.051841122935
-0.44231103515625,-0.0723095703125,-0.8866650390624999,0.9935001848391758,2.28125,-8.4443359375,0.783203125,30.224117647058826,170.051841122935
-0.52824853515625,-0.0376416015625,-0.7768017578124999,0.9401512516629992,2.359375,-11.416015625,1.123046875,30.36529411764706,170.051841122935
-0.59953759765625,0.0116748046875,-0.6708447265624999,0.8997856851632138,2.1279296875,-13.49755859375,1.00439453125,30.36529411764706,170.051841122935
-0.64494775390625,0.0551318359375,-0.5009228515624999,0.818486913652297,2.70068359375,-14.7109375,0.63720703125,30.224117647058826,170.051841122935
-0.80705712890625,0.1064013671875,-0.3969189453124999,0.9056528636325044,3.12158203125,-14.08447265625,0.595703125,30.27117647058824,170.051841122935
-0.88225244140625,0.0912646484375,-0.3246533203124999,0.9445096001691248,2.98486328125,-12.37744140625,0.73046875,30.36529411764706,170.051841122935
-1.00090478515625,0.0414599609375,-0.3100048828124999,1.0486335607242456,2.638671875,-9.9013671875,1.08203125,30.36529411764706,170.051841122935
-0.99162744140625,0.1195849609375,-0.1601025390624999,1.0115623403659255,3.19482421875,-6.693359375,1.00732421875,30.412352941176472,169.87062611831018
-0.98332666015625,0.0985888671875,-0.1552197265624999,1.0003720551982132,3.494140625,-2.56640625,0.43994140625,30.31823529411765,169.87062611831018
-0.96428369140625,0.0893115234375,-0.1181103515624999,0.9755868187286092,3.98193359375,1.41748046875,-0.15966796875,30.36529411764706,169.87062611831018
-0.92863916015625,0.0395068359375,-0.1972119140624999,0.950170520964365,4.49755859375,5.353515625,-0.955078125,30.36529411764706,169.87062611831018
-0.94865869140625,0.0058154296875,-0.3060986328124999,0.9968367494292888,4.8271484375,8.3828125,-1.05322265625,30.31823529411765,169.87062611831018
-0.94865869140625,-0.0381298828125,-0.4066845703124999,1.032859884240925,4.921875,10.50390625,-0.61083984375,30.36529411764706,169.87062611831018
-0.90666650390625,-0.0537548828125,-0.4979931640624999,1.0358237920538165,4.8876953125,11.29931640625,0.58056640625,30.31823529411765,169.87062611831018
-0.79973291015625,-0.1479931640625,-0.6356884765624999,1.0322667016961105,4.5693359375,10.275390625,1.45556640625,30.36529411764706,169.87062611831018
-0.63225244140625,-0.1831494140625,-0.6923291015624999,0.9553043716041182,3.90625,7.07666015625,2.11474609375,30.412352941176472,169.87062611831018
-0.44817041015625,-0.1592236328125,-0.7274853515624999,0.8691627111902842,3.17138671875,2.9462890625,2.326171875,30.412352941176472,169.76357318551376
-0.37199853515625,-0.1269970703125,-0.5751416015624999,0.6966340702795344,2.91357421875,-0.74853515625,2.10888671875,30.31823529411765,169.76357318551376
-0.37053369140625,-0.1060009765625,-0.6713330078124999,0.7740926500606526,2.97021484375,-3.67431640625,1.48779296875,30.412352941176472,169.76357318551376
-0.49455712890625,0.0116748046875,-0.6415478515624999,0.8101275829527989,2.91796875,-5.49609375,0.939453125,30.31823529411765,169.76357318551376
-0.63615869140625,-0.1201611328125,-0.5927197265624999,0.87775466546571,2.68359375,-6.11669921875,1.21875,30.27117647058824,169.76357318551376
-0.78166650390625,-0.1255322265625,-0.5292431640624999,0.9522915467133186,2.35107421875,-6.18359375,2.2314453125,30.36529411764706,169.76357318551376
-0.85393212890625,-0.1333447265625,-0.4701611328124999,0.9838863692967402,2.0556640625,-5.84814453125,3.20703125,30.412352941176472,169.76357318551376
-0.84611962890625,-0.1221142578125,-0.4232861328124999,0.953939971178957,1.802734375,-4.4384765625,3.54931640625,30.459411764705884,169.76357318551376
-0.80510400390625,-0.0776806640625,-0.3930126953124999,0.8992695487738156,1.78466796875,-2.49072265625,3.2265625,30.459411764705884,169.76357318551376
-0.78410791015625,-0.0610791015625,-0.3920361328124999,0.8787765363548712,1.80810546875,-0.4580078125,2.44482421875,30.36529411764706,170.084734067101
-0.81291650390625,-0.0659619140625,-0.4027783203124999,0.9096233240983368,1.66259765625,1.822265625,2.34326171875,30.31823529411765,170.084734067101
-0.87981103515625,-0.0718212890625,-0.4218212890624999,0.9783450081907,1.36767578125,3.38720703125,3.68505859375,30.31823529411765,170.084734067101
-0.88322900390625,-0.0688916015625,-0.4672314453124999,1.001571140556616,0.5439453125,2.72314453125,5.080078125,30.412352941176472,170.084734067101
-0.79533837890625,-0.1030712890625,-0.5087353515624999,0.9497360083305506,-0.16455078125,0.0244140625,4.78662109375,30.412352941176472,170.084734067101
-0.70402978515625,0.1669482421875,-0.4940869140624999,0.8761572533537892,-0.91162109375,-2.7861328125,3.38671875,30.31823529411765,170.084734067101
-0.68449853515625,0.3012255859375,-0.4101025390624999,0.8529121823493621,-1.3505859375,-5.11279296875,1.76220703125,30.36529411764706,170.084734067101
-0.67277978515625,0.3153857421875,-0.3700634765624999,0.8300890207535419,-1.3701171875,-5.3427734375,0.85498046875,30.31823529411765,170.084734067101
-0.98088525390625,0.2694873046875,-0.3275830078124999,1.068676712446728,-1.357421875,-3.73193359375,0.55859375,30.31823529411765,170.09311047423634
-1.03947900390625,0.2509326171875,-0.2899853515624999,1.107959964101287,-1.23681640625,-0.70654296875,0.466796875,30.412352941176472,170.09311047423634
-0.96867822265625,0.2606982421875,-0.3036572265624999,1.0480976976273506,-0.64501953125,2.25732421875,0.20263671875,30.459411764705884,170.09311047423634
-0.88469384765625,0.2821826171875,-0.3798291015624999,1.0032847950195314,-0.1533203125,5.08447265625,-0.052734375,30.31823529411765,170.09311047423634
-0.81828759765625,0.2982958984375,-0.4882275390624999,0.9984694113500407,0.2265625,7.24169921875,-0.31201171875,30.459411764705884,170.09311047423634
-0.71867822265625,0.2875537109375,-0.6068798828124999,0.9836100429320492,0.39453125,8.4091796875,-0.68017578125,30.412352941176472,170.09311047423634
-0.63860009765625,0.2987841796875,-0.6977001953124999,0.991901019909348,0.54150390625,8.53076171875,-1.2431640625,30.412352941176472,170.09311047423634
-0.55412744140625,0.2719287109375,-0.7719189453124999,0.9883629410717146,0.47900390625,7.1845703125,-1.94677734375,30.36529411764706,170.09311047423634
-0.48967431640625,0.2231005859375,-0.8100048828124999,0.9724519102627522,0.25,4.43994140625,-2.5673828125,30.36529411764706,169.71134245729436
-0.51945947265625,0.1693896484375,-0.8168408203124999,0.982730849449068,0.47705078125,1.72314453125,-2.541015625,30.36529411764706,169.71134245729436
-0.56682275390625,0.1127490234375,-0.8197705078124999,1.0030075085018753,0.53564453125,-0.990234375,-2.248046875,30.31823529411765,169.71134245729436
-0.60246728515625,0.0399951171875,-0.7787548828124999,0.985406315479404,0.42724609375,-2.8916015625,-1.736328125,30.459411764705884,169.71134245729436
-0.64006494140625,0.0155810546875,-0.8197705078124999,1.0401680556341486,0.40576171875,-3.88037109375,-1.13623046875,30.412352941176472,169.71134245729436
-0.65764306640625,0.0106982421875,-0.5971142578124999,0.8883435664544943,0.5224609375,-4.45751953125,-0.826171875,30.412352941176472,169.71134245729436
-0.68498681640625,0.0082568359375,-0.5292431640624999,0.8656635840191932,0.62255859375,-4.3232421875,-0.77587890625,30.412352941176472,169.71134245729436
-0.71867822265625,-0.1099072265625,-0.4652783203124999,0.8631696829267282,0.68310546875,-3.82080078125,-0.798828125,30.31823529411765,169.71134245729436
-0.76506494140625,0.0131396484375,-0.4325634765624999,0.8789813286901186,0.63037109375,-3.01904296875,-0.71923828125,30.27117647058824,169.71134245729436
-0.80901025390625,0.0082568359375,-0.4140087890624999,0.9088283906690808,0.486328125,-2.27978515625,-0.6962890625,30.31823529411765,169.75390419400725
-0.82268212890625,0.0058154296875,-0.4032666015624999,0.9162224928367224,0.22802734375,-1.67578125,-0.62939453125,30.36529411764706,169.75390419400725
-0.82805322265625,0.0048388671875,-0.4047314453124999,0.9216849228515156,-0.1796875,-1.1904296875,-0.5947265625,30.459411764705884,169.75390419400725
-0.80608056640625,0.0033740234375,-0.4008251953124999,0.9002433564149648,-0.62353515625,-0.89111328125,-0.56103515625,29.753529411764703,169.75390419400725
-0.91545556640625,0.0229052734375,-0.3861767578124999,0.993839038219977,-0.83837890625,-0.54150390625,-0.59765625,30.31823529411765,169.75390419400725
-0.79240869140625,0.0312060546875,-0.3964306640624999,0.8865904485580474,-0.97509765625,-0.1650390625,-0.654296875,30.31823529411765,169.75390419400725
-0.82414697265625,0.0639208984375,-0.4101025390624999,0.9227611859744796,-0.9443359375,0.3916015625,-0.771484375,30.31823529411765,169.75390419400725
-0.88469384765625,0.0575732421875,-0.4555126953124999,0.9967395336233328,-1.015625,1.34228515625,-1.07666015625,30.36529411764706,169.75390419400725
-0.85881494140625,0.1112841796875,-0.4550244140624999,0.9782609517016724,-0.42529296875,2.642578125,-1.4775390625,30.36529411764706,169.96671543395186
-0.80559228515625,0.1029833984375,-0.5224072265624999,0.965657196225311,-0.08740234375,3.63330078125,-1.8154296875,30.459411764705884,169.96671543395186
-0.77287744140625,0.0819873046875,-0.5766064453124999,0.9677481337313492,0.14599609375,4.546875,-2.06396484375,30.31823529411765,169.96671543395186
-0.74455712890625,0.0482958984375,-0.6249462890624999,0.9732706079112804,0.576171875,4.65869140625,-2.08642578125,30.27117647058824,169.96671543395186
-0.73723291015625,-0.0073681640625,-0.6747509765624999,0.999427603196526,0.67626953125,4.1875,-1.90283203125,30.412352941176472,169.96671543395186
-0.70305322265625,-0.0308056640625,-0.7040478515624999,0.9954477385154092,0.73388671875,2.9833984375,-1.361328125,30.36529411764706,169.96671543395186
-0.64055322265625,-0.0435009765625,-0.7143017578124999,0.9604310320013748,0.6953125,1.322265625,-0.6064453125,30.31823529411765,169.96671543395186
-0.59221337890625,-0.0420361328125,-0.7103955078124999,0.9258215271517332,0.52392578125,-0.35107421875,-0.1025390625,30.36529411764706,169.96671543395186
-0.55852197265625,-0.0298291015625,-0.6830517578124999,0.8828342274122594,0.44384765625,-1.8779296875,0.033203125,30.412352941176472,169.96671543395186
-0.60295556640625,0.0063037109375,-0.6591259765624999,0.8933320798064595,0.46484375,-3.06591796875,-0.19091796875,30.36529411764706,169.8912599782489
-0.66936181640625,0.0199755859375,-0.6317822265624999,0.9206481668349158,0.47119140625,-3.6103515625,-0.3515625,30.36529411764706,169.8912599782489
-0.74309228515625,0.0219287109375,-0.6010205078124999,0.9559773341629568,0.4912109375,-3.71826171875,-0.2880859375,30.36529411764706,169.8912599782489
-0.78606103515625,0.0272998046875,-0.5643994140624999,0.968082604389204,0.46875,-3.541015625,-0.240234375,30.31823529411765,169.8912599782489
-0.78264306640625,0.0272998046875,-0.5243603515624999,0.94245913811714,0.46240234375,-3.14892578125,0.04052734375,30.36529411764706,169.8912599782489
-0.76701806640625,0.0346240234375,-0.4950634765624999,0.9135662991916526,0.375,-2.6982421875,0.09130859375,30.31823529411765,169.8912599782489
-0.75676416015625,0.0453662109375,-0.4569775390624999,0.8851997279707212,0.54248046875,-1.92724609375,0.08837890625,30.36529411764706,169.8912599782489
-0.75529931640625,0.0565966796875,-0.4540478515624999,0.8830853260155103,0.56787109375,-1.30810546875,0.03125,30.31823529411765,169.8912599782489
-0.75676416015625,0.0731982421875,-0.4525830078124999,0.8848058293868457,0.53564453125,-0.80615234375,-0.0712890625,30.412352941176472,169.8912599782489
-0.77287744140625,0.0658740234375,-0.4413525390624999,0.8924522340917923,0.46435546875,-0.32470703125,-0.328125,30.31823529411765,170.04087683622586
-0.78313134765625,0.0482958984375,-0.4540478515624999,0.9065244911177534,0.35986328125,0.072265625,-0.49609375,30.31823529411765,170.04087683622586
-0.80168603515625,0.0380419921875,-0.4555126953124999,0.922843165291373,0.224609375,0.61328125,-0.51123046875,30.31823529411765,170.04087683622586
-0.80559228515625,0.0180224609375,-0.4657666015624999,0.9307213686880694,0.1552734375,1.236328125,-0.5126953125,30.36529411764706,170.04087683622586
-0.79680322265625,-0.0029736328125,-0.4652783203124999,0.9227069597008092,0.23779296875,1.8291015625,-0.48779296875,30.412352941176472,170.04087683622586
-0.78068994140625,-0.0112744140625,-0.4901806640624999,0.9218898960538076,0.36962890625,2.28125,-0.48876953125,30.412352941176472,170.04087683622586
-0.76360009765625,-0.0137158203125,-0.5302197265624999,0.929734473547954,0.515625,2.4013671875,-0.4169921875,30.412352941176472,170.04087683622586
-0.74553369140625,-0.0239697265625,-0.5541455078124999,0.9292320897612631,0.57275390625,2.2626953125,-0.36962890625,30.36529411764706,170.04087683622586
-0.72893212890625,-0.0293408203125,-0.5853955078124999,0.935355992580078,0.619140625,1.83251953125,-0.24609375,30.412352941176472,170.15889608741122
-0.72502587890625,-0.0156689453125,-0.5873486328124999,0.9332129753693416,0.7119140625,1.279296875,0.0576171875,30.412352941176472,170.15889608741122
-0.71184228515625,-0.0190869140625,-0.6010205078124999,0.9318312079105832,0.80810546875,0.5078125,0.2021484375,30.31823529411765,170.15889608741122
-0.69377587890625,-0.0122509765625,-0.5932080078124999,0.9128914487011858,0.78759765625,-0.11865234375,0.42431640625,30.412352941176472,170.15889608741122
-0.67815087890625,0.0106982421875,-0.5941845703124999,0.9016974939216988,0.79833984375,-0.5166015625,0.57080078125,30.459411764705884,170.15889608741122
-0.69328759765625,0.0214404296875,-0.5775830078124999,0.902612605719028,0.78955078125,-0.9619140625,0.6357421875,30.412352941176472,170.15889608741122
-0.72551416015625,0.0346240234375,-0.5580517578124999,0.9159647285697472,0.76953125,-1.1162109375,0.60888671875,30.36529411764706,170.15889608741122
-0.75139306640625,0.0414599609375,-0.5497509765624999,0.9319531130028744,0.8701171875,-1.08740234375,0.5888671875,30.36529411764706,170.15889608741122
-0.76750634765625,0.0551318359375,-0.5263134765624999,0.9322614379227434,0.71484375,-0.81103515625,0.57373046875,30.36529411764706,169.89255474908074
-0.75969384765625,0.0585498046875,-0.5028759765624999,0.912933222968356,0.7080078125,-0.45263671875,0.53369140625,30.36529411764706,169.89255474908074
-0.76701806640625,0.0668505859375,-0.5018994140624999,0.919069495125396,0.73095703125,-0.056640625,0.46142578125,30.459411764705884,169.89255474908074
-0.76360009765625,0.0722216796875,-0.5116650390624999,0.922009865650226,0.7080078125,0.45654296875,0.34375,30.412352941176472,169.89255474908074
-0.75725244140625,0.0727099609375,-0.5150830078124999,0.9187102390702035,0.68310546875,0.939453125,0.19921875,30.36529411764706,169.89255474908074
-0.74406884765625,0.0795458984375,-0.5272900390624999,0.9154238282376428,0.64697265625,1.36669921875,0.14111328125,30.31823529411765,169.89255474908074
-0.73820947265625,0.0834521484375,-0.5268017578124999,0.9107346367809852,0.64208984375,1.52099609375,0.16650390625,30.412352941176472,169.89255474908074
-0.74309228515625,0.0814990234375,-0.5546337890624999,0.9308312817314583,0.6416015625,1.44482421875,0.15234375,30.31823529411765,169.89255474908074
-0.76311181640625,0.0658740234375,-0.5585400390624999,0.9479694122378788,0.658203125,1.25390625,0.04541015625,30.31823529411765,169.78679725197765
-0.72551416015625,0.0663623046875,-0.5668408203124999,0.9230835648213076,0.68505859375,1.1337890625,0.13916015625,30.31823529411765,169.78679725197765
-0.70012353515625,0.0526904296875,-0.5810009765624999,0.9113239712785552,0.71826171875,0.85546875,0.11669921875,30.31823529411765,169.78679725197765
-0.68059228515625,0.0619677734375,-0.5849072265624999,0.8995345058662527,0.7353515625,0.57861328125,-0.0068359375,30.36529411764706,169.78679725197765
-0.70891259765625,0.0448779296875,-0.5868603515624999,0.9213990296960538,0.79638671875,0.28515625,-0.326171875,30.412352941176472,169.78679725197765
-0.74846337890625,0.0531787109375,-0.5805126953124999,0.9486940467188136,0.95361328125,0.03076171875,-0.15576171875,30.31823529411765,169.78679725197765
-0.75090478515625,0.0341357421875,-0.4540478515624999,0.8781700841942679,0.95703125,-0.04052734375,0.1708984375,30.31823529411765,169.78679725197765
-0.71379541015625,0.0419482421875,-0.6874462890624999,0.9918900861126462,0.9345703125,-0.08056640625,0.38916015625,30.36529411764706,169.78679725197765
-0.68498681640625,0.0404833984375,-0.5609814453124999,0.8863103441708894,0.9228515625,-0.18896484375,0.35400390625,30.459411764705884,169.9157787675633
-0.69768212890625,0.0556201171875,-0.5609814453124999,0.896969415541026,0.93896484375,-0.259765625,0.23779296875,30.36529411764706,169.9157787675633
-0.72990869140625,0.0575732421875,-0.5595166015624999,0.9214880375948536,0.9111328125,-0.5556640625,0.13427734375,30.31823529411765,169.9157787675633
-0.76213525390625,0.0556201171875,-0.5541455078124999,0.943939079872991,0.85791015625,-0.56005859375,0.1494140625,30.27117647058824,169.9157787675633
-0.77873681640625,0.0478076171875,-0.5463330078124999,0.952468557440686,0.81103515625,-0.349609375,0.1728515625,30.412352941176472,169.9157787675633
-0.77531884765625,0.0487841796875,-0.5453564453124999,0.9491642977707724,0.7734375,-0.125,0.1494140625,30.36529411764706,169.9157787675633
-0.76213525390625,0.0526904296875,-0.5311962890624999,0.9304815549709562,0.78125,0.3740234375,0.04638671875,30.412352941176472,169.9157787675633
-0.74846337890625,0.0634326171875,-0.5268017578124999,0.9174645598176296,0.8056640625,0.7255859375,-0.099609375,30.36529411764706,169.9157787675633
-0.73869775390625,0.0629443359375,-0.5438916015624999,0.9194859625372064,0.810546875,1.03515625,-0.19677734375,30.31823529411765,169.9157787675633
-0.72746728515625,0.0546435546875,-0.5521923828124999,0.9149377009816771,0.8203125,1.21240234375,-0.12939453125,30.36529411764706,170.11633282767266
-0.73381494140625,0.0492724609375,-0.5712353515624999,0.931247534500161,0.83154296875,1.17431640625,-0.21484375,30.27117647058824,170.11633282767266
-0.72649072265625,0.0463427734375,-0.4511181640624999,0.8564134636392637,0.83251953125,1.00244140625,-0.11376953125,30.31823529411765,170.11633282767266
-0.71477197265625,0.0380419921875,-0.5888134765624999,0.9268481408764428,0.82861328125,0.71875,-0.01123046875,30.36529411764706,170.11633282767266
-0.70598291015625,0.0492724609375,-0.5966259765624999,0.925636106009636,0.8359375,0.40869140625,0.06689453125,30.412352941176472,170.11633282767266
-0.69914697265625,0.0478076171875,-0.5946728515624999,0.9190907779001054,0.845703125,0.0654296875,0.0947265625,30.36529411764706,170.11633282767266
-0.70012353515625,0.0531787109375,-0.5907666015624999,0.9176089130443124,0.84033203125,-0.2119140625,0.06591796875,30.412352941176472,170.11633282767266
-0.69231103515625,0.0551318359375,-0.5819775390624999,0.9061081308023904,0.8720703125,-0.48486328125,0.037109375,30.36529411764706,170.11633282767266
-0.69670556640625,0.0341357421875,-0.5634228515624999,0.8966656036778504,0.92919921875,-0.6396484375,0.15673828125,30.27117647058824,170.11633282767266
-0.73186181640625,0.0487841796875,-0.5692822265624999,0.9284847160730194,0.9365234375,-0.654296875,0.3974609375,30.412352941176472,170.02991256353138
-0.74211572265625,0.0536669921875,-0.5595166015624999,0.9309536611927098,0.91455078125,-0.5751953125,0.42529296875,30.36529411764706,170.02991256353138
-0.73137353515625,0.0639208984375,-0.5580517578124999,0.9221794259153848,0.927734375,-0.48095703125,0.25146484375,30.412352941176472,170.02991256353138
-0.74065087890625,0.0580615234375,-0.5551220703124999,0.9274132724284896,0.95263671875,-0.326171875,0.1142578125,30.31823529411765,170.02991256353138
-0.74895166015625,0.0497607421875,-0.5531689453124999,0.9324165393063324,0.90625,-0.048828125,0.14794921875,30.31823529411765,170.02991256353138
-0.73186181640625,0.0439013671875,-0.5560986328124999,0.920214506389852,0.8681640625,0.1767578125,0.1474609375,30.31823529411765,170.02991256353138
-0.73723291015625,0.0492724609375,-0.5570751953124999,0.9253501566740834,0.861328125,0.27783203125,0.1279296875,30.36529411764706,170.02991256353138
-0.73674462890625,0.0439013671875,-0.5692822265624999,0.9320956129835056,0.822265625,0.28076171875,0.1416015625,30.31823529411765,170.02991256353138
-0.74699853515625,0.0492724609375,-0.5609814453124999,0.935486380936314,0.82275390625,0.2607421875,0.17822265625,30.36529411764706,169.93382258335285
-0.73332666015625,0.0551318359375,-0.5595166015624999,0.9240488825023322,0.83935546875,0.24853515625,0.22998046875,30.31823529411765,169.93382258335285
-0.70988916015625,0.0570849609375,-0.5600048828124999,0.9059838747165556,0.92431640625,0.1064453125,0.22509765625,30.31823529411765,169.93382258335285
-0.70012353515625,0.0546435546875,-0.4506298828124999,0.8344016861393426,0.912109375,0.060546875,0.14208984375,30.36529411764706,169.93382258335285
-0.71623681640625,0.0541552734375,-0.4481884765624999,0.8466409400331791,0.8935546875,0.02490234375,0.03173828125,30.36529411764706,169.93382258335285
-0.71623681640625,0.0448779296875,-0.4481884765624999,0.8460981717698077,0.9248046875,-0.02685546875,-0.0087890625,30.31823529411765,169.93382258335285
-0.72649072265625,0.0502490234375,-0.6967236328124999,1.0078380598992431,0.908203125,-0.03955078125,0.0859375,30.31823529411765,169.93382258335285
-0.73186181640625,0.0565966796875,-0.5697705078124999,0.9292272779239852,0.8798828125,-0.10400390625,0.1875,30.459411764705884,169.93382258335285
-0.75481103515625,0.0624560546875,-0.5756298828124999,0.951309739016431,0.86767578125,-0.24951171875,0.16845703125,30.459411764705884,170.12729715098513
-0.75041650390625,0.0653857421875,-0.5697705078124999,0.94447798078579,0.89599609375,-0.35498046875,0.12158203125,30.36529411764706,170.12729715098513
-0.69231103515625,0.0634326171875,-0.5707470703124999,0.8994834543184639,0.8857421875,-0.35791015625,0.126953125,30.412352941176472,170.12729715098513
-0.69426416015625,0.0453662109375,-0.5580517578124999,0.8918983022575556,0.80810546875,-0.66064453125,0.2041015625,30.31823529411765,170.12729715098513
-0.69621728515625,0.0439013671875,-0.5560986328124999,0.892127528780052,0.751953125,-0.8427734375,0.01611328125,30.36529411764706,170.12729715098513
-0.73235009765625,0.0512255859375,-0.5492626953124999,0.916869802454913,0.9599609375,-0.9033203125,-0.1494140625,30.412352941176472,170.12729715098513
-0.75481103515625,0.0551318359375,-0.5390087890624999,0.9291446027471244,1.08837890625,-0.90771484375,-0.1455078125,30.36529411764706,170.12729715098513
-0.76067041015625,0.0605029296875,-0.5468212890624999,0.9387723896451272,1.13916015625,-0.90087890625,0.04638671875,30.31823529411765,170.12729715098513
-0.74211572265625,0.0556201171875,-0.5297314453124999,0.9134794728960414,1.09716796875,-0.8525390625,0.15625,30.412352941176472,170.12729715098513
-0.72649072265625,0.0600146484375,-0.5414501953124999,0.9080522243442948,1.056640625,-0.7626953125,0.12158203125,30.36529411764706,170.20016603006732
-0.72990869140625,0.0634326171875,-0.5497509765624999,0.9159784555026732,1.04638671875,-0.70166015625,0.13818359375,30.27117647058824,170.20016603006732
-0.74358056640625,0.0570849609375,-0.5409619140624999,0.9213091467951672,1.00830078125,-0.74169921875,0.17626953125,30.36529411764706,170.20016603006732
-0.75676416015625,0.0526904296875,-0.5268017578124999,0.9235736936011048,0.9609375,-0.82421875,0.31982421875,30.36529411764706,170.20016603006732
-0.77385400390625,0.0507373046875,-0.5282666015624999,0.9383442309595555,0.87255859375,-0.79541015625,0.40576171875,30.31823529411765,170.20016603006732
-0.77043603515625,0.0590380859375,-0.5214306640624999,0.9321733300642676,0.77294921875,-0.564453125,0.455078125,30.31823529411765,170.20016603006732
-0.76701806640625,0.0663623046875,-0.5185009765624999,0.9282046823698344,0.72705078125,-0.24951171875,0.34716796875,30.412352941176472,170.20016603006732
-0.76164697265625,0.0648974609375,-0.5131298828124999,0.920662841667749,0.7333984375,0.3759765625,0.13330078125,30.31823529411765,170.20016603006732
-0.76360009765625,0.0697802734375,-0.5311962890624999,0.9328043166792368,0.755859375,1.1044921875,-0.05859375,30.412352941176472,169.62621949512985
-0.76018212890625,0.0727099609375,-0.5541455078124999,0.9435257555343916,0.77294921875,1.39111328125,-0.1767578125,30.27117647058824,169.62621949512985
-0.75676416015625,0.0609912109375,-0.5805126953124999,0.9557232399223116,0.794921875,1.39404296875,-0.189453125,30.27117647058824,169.62621949512985
-0.73967431640625,0.0453662109375,-0.5824658203124999,0.942572341668369,0.80908203125,1.08740234375,-0.0810546875,30.31823529411765,169.62621949512985
-0.71281884765625,0.0473193359375,-0.5902783203124999,0.9267029322056212,0.826171875,0.7119140625,-0.04541015625,30.36529411764706,169.62621949512985
-0.70744775390625,0.0507373046875,-0.5980908203124999,0.927776496757721,0.859375,-0.1064453125,-0.00634765625,30.36529411764706,169.62621949512985
-0.70793603515625,0.0419482421875,-0.5849072265624999,0.919265766022214,0.8828125,-0.677734375,0.0712890625,30.31823529411765,169.62621949512985
-0.72453759765625,0.0399951171875,-0.5653759765624999,0.9198936540113386,0.90673828125,-1.044921875,0.1201171875,30.27117647058824,169.62621949512985
-0.74943994140625,0.0424365234375,-0.5429150390624999,0.9264004662869622,1.01171875,-1.17529296875,0.17529296875,30.31823529411765,170.1369674936523
-0.75920556640625,0.0473193359375,-0.5204541015624999,0.9216857834690898,1.02294921875,-1.10546875,0.24169921875,30.412352941176472,170.1369674936523
-0.76799462890625,0.0399951171875,-0.5131298828124999,0.924509402906677,1.0185546875,-0.98876953125,0.18359375,30.412352941176472,170.1369674936523
-0.77727197265625,0.0541552734375,-0.5092236328124999,0.9308024609619318,1.009765625,-0.447265625,0.08349609375,30.412352941176472,170.1369674936523
-0.78166650390625,0.0541552734375,-0.5043408203124999,0.9318234704082076,0.97900390625,0.03515625,0.0107421875,30.459411764705884,170.1369674936523
-0.77580712890625,0.0556201171875,-0.4975048828124999,0.9232991969670448,0.94873046875,0.4599609375,-0.02783203125,30.412352941176472,170.1369674936523
-0.76897119140625,0.0458544921875,-0.5189892578124999,0.9288536899809844,0.94287109375,0.64794921875,-0.0068359375,30.459411764705884,170.1369674936523
-0.74309228515625,0.0502490234375,-0.5297314453124999,0.9139619865005492,0.88818359375,0.931640625,0.02001953125,30.412352941176472,170.1369674936523
-0.73479150390625,0.0609912109375,-0.5429150390624999,0.9156392420951972,0.86279296875,0.876953125,-0.01953125,30.31823529411765,170.1369674936523
-0.72453759765625,0.0648974609375,-0.5585400390624999,0.9171332433673764,0.8701171875,0.6337890625,-0.12451171875,30.412352941176472,170.19049521911742
-0.73235009765625,0.0595263671875,-0.5678173828124999,0.9285992861033748,0.85107421875,0.33251953125,-0.18408203125,30.412352941176472,170.19049521911742
-0.73527978515625,0.0526904296875,-0.6967236328124999,1.014315761663754,0.8154296875,0.193359375,-0.1025390625,30.412352941176472,170.19049521911742
-0.72356103515625,0.0546435546875,-0.5707470703124999,0.923189421481622,0.78515625,0.13427734375,-0.0634765625,30.412352941176472,170.19049521911742
-0.72649072265625,0.0565966796875,-0.5609814453124999,0.9196152109671476,0.84228515625,0.0615234375,-0.072265625,29.753529411764703,170.19049521911742
-0.72795556640625,0.0639208984375,-0.5560986328124999,0.9182869253859782,0.8662109375,0.08447265625,-0.05419921875,30.36529411764706,170.19049521911742
-0.72014306640625,0.0600146484375,-0.5643994140624999,0.9169266561258684,0.8408203125,0.0869140625,-0.03564453125,30.412352941176472,170.19049521911742
-0.72160791015625,0.0531787109375,-0.5702587890624999,0.921271424608445,0.83447265625,0.04443359375,-0.05126953125,30.412352941176472,170.19049521911742
-0.72844384765625,0.0556201171875,-0.5629345703124999,0.9222902835209272,0.81005859375,0.04248046875,0.0390625,30.412352941176472,170.00927819322666
-0.73088525390625,0.0609912109375,-0.5429150390624999,0.9125074913826527,0.8046875,0.021484375,0.1435546875,30.412352941176472,170.00927819322666
-0.72014306640625,0.0600146484375,-0.5507275390624999,0.908575047204088,0.7763671875,-0.0107421875,0.236328125,30.412352941176472,170.00927819322666
-0.73674462890625,0.0653857421875,-0.5590283203124999,0.927135700108152,0.7626953125,0.00927734375,0.2529296875,30.36529411764706,170.00927819322666
-0.75041650390625,0.0644091796875,-0.5394970703124999,0.9264613109238108,0.75390625,0.197265625,0.2626953125,30.412352941176472,170.00927819322666
-0.72014306640625,0.0605029296875,-0.5429150390624999,0.9038934562402824,0.7431640625,0.4892578125,0.34326171875,30.36529411764706,170.00927819322666
-0.71672509765625,0.0443896484375,-0.5429150390624999,0.9002344395428348,0.72998046875,0.5966796875,0.18603515625,30.31823529411765,170.00927819322666
-0.71867822265625,0.0277880859375,-0.5443798828124999,0.9020088814703364,0.77294921875,0.66748046875,0.017578125,30.412352941176472,170.00927819322666
-0.73772119140625,0.0053271484375,-0.5634228515624999,0.92828133904714,0.7890625,0.72216796875,-0.16259765625,30.31823529411765,169.9157787675633
-0.76848291015625,0.0004443359375,-0.5751416015624999,0.9598718885791592,0.88671875,0.806640625,-0.15283203125,30.412352941176472,169.9157787675633
-0.77922509765625,0.0053271484375,-0.5829541015624999,0.973167825123914,0.87548828125,0.80224609375,0.05615234375,30.31823529411765,169.9157787675633
-0.75676416015625,0.0014208984375,-0.6000439453124999,0.9657881493141002,1.0517578125,0.64501953125,0.3203125,30.412352941176472,169.9157787675633
-0.70012353515625,0.0155810546875,-0.5980908203124999,0.920938848722834,1.05859375,0.32421875,0.48681640625,30.27117647058824,169.9157787675633
-0.66643212890625,0.0390185546875,-0.5858837890624999,0.8882083338579131,1.0888671875,-0.166015625,0.53515625,30.36529411764706,169.9157787675633
-0.68059228515625,0.0526904296875,-0.5829541015624999,0.897673450940486,1.146484375,-0.7099609375,0.54248046875,30.31823529411765,169.9157787675633
-0.71281884765625,0.0702685546875,-0.5639111328124999,0.9116162268530168,1.1298828125,-1.09912109375,0.57666015625,30.31823529411765,169.9157787675633
-0.75188134765625,0.0844287109375,-0.5565869140624999,0.9392777869669672,1.05859375,-1.169921875,0.67431640625,30.31823529411765,169.9157787675633
-0.75676416015625,0.1039599609375,-0.5189892578124999,0.9234985204643754,1.02490234375,-0.9033203125,0.58544921875,30.412352941176472,169.86933147038806
-0.75041650390625,0.1098193359375,-0.5228955078124999,0.9211975510014804,0.998046875,-0.4677734375,0.34033203125,30.31823529411765,169.86933147038806
-0.74260400390625,0.1210498046875,-0.5053173828124999,0.9063439850326974,0.97900390625,-0.10888671875,0.0390625,30.36529411764706,169.86933147038806
-0.75383447265625,0.1112841796875,-0.5336376953124999,0.930279404626418,0.90771484375,0.60888671875,-0.15625,30.36529411764706,169.86933147038806
-0.75236962890625,0.1029833984375,-0.5399853515624999,0.931799237366259,0.798828125,1.1865234375,-0.27197265625,30.31823529411765,169.86933147038806
-0.75822900390625,0.0966357421875,-0.5482861328124999,0.9406738927318432,0.71875,1.37744140625,-0.35888671875,30.36529411764706,169.86933147038806
-0.74113916015625,0.0941943359375,-0.5678173828124999,0.9383903280958598,0.7294921875,1.5439453125,-0.45361328125,30.36529411764706,169.86933147038806
-0.73088525390625,0.0878466796875,-0.5722119140624999,0.9323823079106508,0.77197265625,1.35009765625,-0.60693359375,30.31823529411765,169.86933147038806
-0.72258447265625,0.0902880859375,-0.5932080078124999,0.939242247303135,0.81201171875,1.03466796875,-0.62744140625,30.36529411764706,169.86933147038806
-0.70549462890625,0.0937060546875,-0.5868603515624999,0.9224470544897008,0.85986328125,0.68212890625,-0.509765625,30.31823529411765,169.98734962298616
-0.69621728515625,0.0844287109375,-0.5751416015624999,0.9069920491541172,0.880859375,0.62451171875,-0.35986328125,30.412352941176472,169.98734962298616
-0.67961572265625,0.0731982421875,-0.5590283203124999,0.8830335078876294,0.87744140625,0.43310546875,-0.2880859375,31.11823529411765,169.98734962298616
-0.67912744140625,0.0614794921875,-0.5517041015624999,0.8771380879379926,0.86572265625,0.45361328125,-0.30859375,30.36529411764706,169.98734962298616
-0.70354150390625,0.0409716796875,-0.5473095703124999,0.8922987683566175,0.99365234375,0.5947265625,-0.3388671875,30.412352941176472,169.98734962298616
-0.73527978515625,0.0180224609375,-0.5619580078124999,0.9256122158346112,0.857421875,0.86767578125,-0.35498046875,30.412352941176472,169.98734962298616
-0.74992822265625,-4.394531249999993e-05,-0.5731884765624999,0.9438947879565772,0.8349609375,1.181640625,-0.29248046875,30.36529411764706,169.98734962298616
-0.75041650390625,-0.0225048828125,-0.5814892578124999,0.9496110551360568,0.8408203125,1.42578125,-0.2255859375,30.412352941176472,169.98734962298616
-0.73723291015625,-0.0215283203125,-0.5966259765624999,0.948650825278768,0.85546875,1.44189453125,-0.24462890625,30.412352941176472,169.98734962298616
-0.71281884765625,-0.0142041015625,-0.6093212890624999,0.9378618764935318,0.916015625,1.2958984375,0.0341796875,30.31823529411765,169.98734962298616
-0.69524072265625,-0.0176220703125,-0.6327587890624999,0.9402413971621996,0.88427734375,1.0517578125,0.212890625,30.412352941176472,169.98734962298616
-0.67180322265625,-0.0044384765625,-0.6317822265624999,0.922219091022187,0.8134765625,0.65478515625,0.3291015625,30.36529411764706,169.98734962298616
-0.66203759765625,0.1347216796875,-0.6259228515624999,0.9209902973410804,0.8662109375,0.03173828125,0.3671875,30.27117647058824,169.98734962298616
-0.66936181640625,0.0238818359375,-0.6332470703124999,0.921746947599928,0.75146484375,-0.603515625,0.40234375,30.36529411764706,169.98734962298616
-0.69279931640625,0.0302294921875,-0.6234814453124999,0.9325308722288208,0.83935546875,-1.05712890625,0.40576171875,30.36529411764706,169.98734962298616
-0.71037744140625,0.0336474609375,-0.5800244140624999,0.9177126902222597,0.861328125,-1.2138671875,0.49169921875,30.31823529411765,169.98734962298616
-0.72502587890625,0.0390185546875,-0.5590283203124999,0.9163501708436008,0.87060546875,-1.1005859375,0.50830078125,30.459411764705884,169.98734962298616
-0.73723291015625,0.0526904296875,-0.5468212890624999,0.9194031582336886,0.93798828125,-0.845703125,0.33349609375,30.31823529411765,169.97897457005644
-0.75871728515625,0.0546435546875,-0.5585400390624999,0.9437186085373622,0.92138671875,-0.25146484375,0.37158203125,30.412352941176472,169.97897457005644
-0.74748681640625,0.0639208984375,-0.5492626953124999,0.9297913370322184,0.861328125,0.255859375,0.3271484375,30.27117647058824,169.97897457005644
-0.73137353515625,0.0741748046875,-0.5629345703124999,0.9259073819936302,0.8662109375,0.67236328125,0.2705078125,30.459411764705884,169.97897457005644
-0.72453759765625,0.0849169921875,-0.5707470703124999,0.9262385460830076,0.8623046875,0.68408203125,0.23046875,30.31823529411765,169.97897457005644
-0.71233056640625,0.0780810546875,-0.5985791015624999,0.9337068210981062,0.81103515625,0.5439453125,0.0693359375,30.31823529411765,169.97897457005644
-0.70158837890625,0.0751513671875,-0.6000439453124999,0.926243336123203,0.8046875,0.3154296875,0.00439453125,30.36529411764706,169.97897457005644
-0.70012353515625,0.0707568359375,-0.6005322265624999,0.925104561361409,0.8056640625,0.1044921875,0.033203125,30.31823529411765,169.97897457005644
-0.70940087890625,0.0678271484375,-0.6068798828124999,0.9360306198093288,0.8037109375,-0.1015625,0.078125,29.753529411764703,170.02991256353138
-0.72893212890625,0.0785693359375,-0.5961376953124999,0.944931394797504,0.83056640625,-0.1318359375,0.08642578125,30.412352941176472,170.02991256353138
-0.71233056640625,0.0790576171875,-0.5897900390624999,0.9281795261959614,0.87890625,-0.21533203125,0.177734375,30.31823529411765,170.02991256353138
-0.68010400390625,0.0639208984375,-0.5902783203124999,0.902804426671312,0.86279296875,-0.28662109375,0.1904296875,30.36529411764706,170.02991256353138
-0.69670556640625,0.0644091796875,-0.5844189453124999,0.9116428534956248,0.87109375,-0.40625,0.05517578125,30.36529411764706,170.02991256353138
-0.69865869140625,0.0590380859375,-0.5976025390624999,0.9212699155853316,0.8671875,-0.33837890625,-0.07177734375,30.412352941176472,170.02991256353138
-0.71770166015625,0.0605029296875,-0.5775830078124999,0.9232325862996508,0.8994140625,-0.30908203125,-0.228515625,30.412352941176472,170.02991256353138
-0.73674462890625,0.0639208984375,-0.5775830078124999,0.9383393098410616,0.95556640625,-0.3212890625,-0.2724609375,30.459411764705884,170.02991256353138
-0.74065087890625,0.0658740234375,-0.5795361328124999,0.9427434649063936,0.9619140625,-0.23583984375,-0.130859375,30.412352941176472,170.02991256353138
-0.72111962890625,0.0541552734375,-0.5814892578124999,0.9279418461230802,0.94970703125,-0.05224609375,-0.080078125,30.412352941176472,170.09440422307196
-0.70110009765625,0.0473193359375,-0.5766064453124999,0.9089859510812508,0.8779296875,0.02880859375,-0.10595703125,30.36529411764706,170.09440422307196
-0.70158837890625,0.0390185546875,-0.5839306640624999,0.9136321587261876,1.00732421875,0.123046875,-0.0283203125,30.27117647058824,170.09440422307196
-0.70842431640625,0.0321826171875,-0.5946728515624999,0.925492589549033,0.9482421875,-0.14990234375,0.07421875,31.11823529411765,170.09440422307196
-0.72014306640625,0.0302294921875,-0.5956494140624999,0.9350497755541736,0.91064453125,-0.3671875,0.142578125,30.36529411764706,170.09440422307196
-0.72746728515625,0.0341357421875,-0.5780712890624999,0.9298066009153068,0.89794921875,-0.55322265625,0.22509765625,30.27117647058824,170.09440422307196
-0.72600244140625,0.0321826171875,-0.5717236328124999,0.9246530041551776,0.927734375,-0.6015625,0.23681640625,30.36529411764706,170.09440422307196
-0.72063134765625,0.0395068359375,-0.5507275390624999,0.9078387255413228,0.96337890625,-0.45458984375,0.23193359375,30.224117647058826,170.09440422307196
-0.72160791015625,0.0395068359375,-0.5604931640624999,0.914566210313204,0.96923828125,-0.18408203125,0.22119140625,30.412352941176472,169.94867208721243
-0.73235009765625,0.0463427734375,-0.5551220703124999,0.920133050778546,0.97802734375,0.00634765625,0.126953125,30.412352941176472,169.94867208721243
-0.75139306640625,0.0492724609375,-0.5590283203124999,0.9378336625231788,0.87548828125,0.482421875,0.29736328125,30.27117647058824,169.94867208721243
-0.73674462890625,0.0609912109375,-0.5741650390624999,0.9360438387786508,1.01123046875,0.7763671875,0.29443359375,30.412352941176472,169.94867208721243
-0.72209619140625,0.0600146484375,-0.5858837890624999,0.9318178373248284,1.0400390625,0.96435546875,0.26025390625,30.36529411764706,169.94867208721243
-0.70598291015625,0.0658740234375,-0.5985791015624999,0.9279268275159964,1.08056640625,0.9619140625,0.20751953125,30.31823529411765,169.94867208721243
-0.69475244140625,0.0697802734375,-0.6210400390624999,0.9344736333999524,1.12109375,0.81787109375,0.18603515625,30.31823529411765,169.94867208721243
-0.67717431640625,0.0707568359375,-0.6220166015624999,0.922212685475276,1.12646484375,0.5068359375,0.17138671875,30.412352941176472,169.94867208721243
-0.68791650390625,0.0639208984375,-0.6376416015624999,0.940160523339948,1.15185546875,0.044921875,0.1533203125,30.36529411764706,169.94867208721243
-0.68742822265625,0.0502490234375,-0.6352001953124999,0.937316282684661,1.13916015625,-0.33837890625,0.16796875,30.412352941176472,169.58236221559946
-0.67522119140625,0.0478076171875,-0.6254345703124999,0.9216168549496064,1.10498046875,-0.7041015625,0.17626953125,30.31823529411765,169.58236221559946
-0.68498681640625,0.0395068359375,-0.6088330078124999,0.9173033086924836,1.04345703125,-1.16552734375,0.21875,30.412352941176472,169.58236221559946
-0.71477197265625,0.0390185546875,-0.5785595703124999,0.920408929174958,0.9677734375,-1.4521484375,0.33203125,30.31823529411765,169.58236221559946
-0.71281884765625,0.0424365234375,-0.5658642578124999,0.9111058809848268,0.92919921875,-1.55517578125,0.31591796875,30.31823529411765,169.58236221559946
-0.71037744140625,0.0497607421875,-0.5346142578124999,0.890463163403378,0.90185546875,-1.5322265625,0.19873046875,30.31823529411765,169.58236221559946
-0.72990869140625,0.0551318359375,-0.5116650390624999,0.8930886458370486,0.9443359375,-1.302734375,0.04931640625,30.31823529411765,169.58236221559946
-0.74016259765625,0.0600146484375,-0.5189892578124999,0.9059758709375731,0.95849609375,-0.88720703125,-0.02685546875,30.31823529411765,169.58236221559946
-0.74358056640625,0.0600146484375,-0.5121533203124999,0.9048838822032552,0.8984375,-0.4423828125,-0.033203125,30.36529411764706,169.97767974550266
-0.76311181640625,0.0624560546875,-0.5131298828124999,0.9217063956277748,0.84033203125,-0.0517578125,-0.029296875,30.412352941176472,169.97767974550266
-0.76897119140625,0.0639208984375,-0.5180126953124999,0.9293759879482176,0.7294921875,0.32373046875,-0.07666015625,30.412352941176472,169.97767974550266
-0.77629541015625,0.0629443359375,-0.5365673828124999,0.9457806878735308,0.748046875,0.65185546875,-0.1328125,30.31823529411765,169.97767974550266
-0.76360009765625,0.0575732421875,-0.5507275390624999,0.9432394232846996,0.46923828125,0.93505859375,-0.1650390625,30.31823529411765,169.97767974550266
-0.75578759765625,0.0321826171875,-0.5648876953124999,0.9441126637936336,0.3212890625,1.111328125,-0.15625,30.31823529411765,169.97767974550266
-0.75725244140625,0.0204638671875,-0.4594189453124999,0.8859547376632982,0.17626953125,1.1103515625,-0.09814453125,30.36529411764706,169.97767974550266
-0.73283837890625,0.0155810546875,-0.5805126953124999,0.9350346775826543,0.08642578125,0.98291015625,-0.03271484375,30.31823529411765,169.97767974550266
-0.72063134765625,0.0116748046875,-0.5775830078124999,0.9236059610045232,0.1181640625,0.7958984375,0.02880859375,30.36529411764706,169.7429398693666
-0.71135400390625,0.0194873046875,-0.4486767578124999,0.8412580501359695,0.017578125,0.54443359375,0.111328125,30.36529411764706,169.7429398693666
-0.69231103515625,0.0321826171875,-0.5609814453124999,0.89164481282238,0.1298828125,0.36328125,0.21142578125,30.36529411764706,169.7429398693666
-0.67522119140625,0.0600146484375,-0.5531689453124999,0.874940739369985,0.34912109375,-0.23046875,0.14013671875,30.31823529411765,169.7429398693666
-0.69133447265625,0.0712451171875,-0.5643994140624999,0.8953021380517581,0.56201171875,-0.7216796875,0.0537109375,30.36529411764706,169.7429398693666
-0.73088525390625,0.0609912109375,-0.5526806640624999,0.9183512936876564,0.677734375,-0.89697265625,0.119140625,30.36529411764706,169.7429398693666
-0.70695947265625,0.0775927734375,-0.5482861328124999,0.8980144864658992,0.7705078125,-0.92626953125,-0.11767578125,30.412352941176472,169.7429398693666
-0.74797509765625,0.0731982421875,-0.5570751953124999,0.935498531589268,0.8486328125,-0.7578125,-0.03076171875,30.412352941176472,170.11633282767266
-0.79680322265625,0.0614794921875,-0.5727001953124999,0.9831890038573428,0.7763671875,-0.34130859375,0.16943359375,30.412352941176472,170.11633282767266
-0.81438134765625,0.0551318359375,-0.5834423828124999,1.0033252278330178,0.662109375,0.1962890625,0.2216796875,30.31823529411765,170.11633282767266
-0.75676416015625,0.0565966796875,-0.5800244140624999,0.9551562694958298,0.64990234375,0.54296875,0.419921875,30.412352941176472,170.11633282767266
-0.72453759765625,0.0468310546875,-0.5927197265624999,0.9372643983193634,0.62109375,0.68994140625,0.54443359375,30.27117647058824,170.11633282767266
-0.69035791015625,0.0526904296875,-0.5858837890624999,0.906989602907437,0.654296875,0.5341796875,0.45166015625,30.412352941176472,170.11633282767266
-0.65178369140625,0.0644091796875,-0.5902783203124999,0.8817023410664853,0.7470703125,0.201171875,0.3720703125,30.36529411764706,170.11633282767266
-0.68547509765625,0.0746630859375,-0.5839306640624999,0.9035627849469168,0.83154296875,-0.2822265625,0.06591796875,30.459411764705884,170.11633282767266
-0.70451806640625,0.1010302734375,-0.5941845703124999,0.9271505409808634,0.91552734375,-0.72802734375,0.05810546875,30.36529411764706,169.82418065860207
-0.70158837890625,0.1059130859375,-0.5829541015624999,0.9183024119088689,0.96533203125,-1.0458984375,0.09130859375,30.459411764705884,169.82418065860207
-0.68840478515625,0.1151904296875,-0.5761181640624999,0.9050315587206664,1.013671875,-1.1650390625,0.033203125,30.31823529411765,169.82418065860207
-0.69621728515625,0.1122607421875,-0.5722119140624999,0.9081560752326095,1.0791015625,-1.09619140625,-0.05126953125,30.31823529411765,169.82418065860207
-0.71965478515625,0.1098193359375,-0.5658642578124999,0.922044280180585,1.13525390625,-0.9052734375,-0.0107421875,30.27117647058824,169.82418065860207
-0.73527978515625,0.1151904296875,-0.5692822265624999,0.937009845749216,1.1650390625,-0.6982421875,0.0556640625,30.31823529411765,169.82418065860207
-0.76067041015625,0.1200732421875,-0.5658642578124999,0.9556356076697786,1.17431640625,-0.59765625,0.02685546875,30.36529411764706,169.82418065860207
-0.76604150390625,0.1117724609375,-0.5575634765624999,0.9540386255951252,1.1591796875,-0.4814453125,-0.060546875,30.31823529411765,169.82418065860207
-0.74406884765625,0.0956591796875,-0.5600048828124999,0.936159493614644,1.10498046875,-0.34033203125,-0.11181640625,30.412352941176472,169.77194797329184
-0.73332666015625,0.0883349609375,-0.5404736328124999,0.9152501317046018,1.0693359375,-0.21875,-0.15380859375,30.31823529411765,169.77194797329184
-0.73820947265625,0.0814990234375,-0.5375439453124999,0.9168144902229748,1.0810546875,-0.09130859375,-0.1708984375,30.36529411764706,169.77194797329184
-0.74455712890625,0.0600146484375,-0.5419384765624999,0.9228566457533252,1.10205078125,0.06640625,-0.14599609375,30.31823529411765,169.77194797329184
-0.73918603515625,0.0478076171875,-0.5316845703124999,0.9117949578384118,1.09423828125,0.2421875,-0.1123046875,30.412352941176472,169.77194797329184
-0.72697900390625,0.0424365234375,-0.5409619140624999,0.907159921462665,1.111328125,0.36279296875,-0.10498046875,30.412352941176472,169.77194797329184
-0.73918603515625,0.0463427734375,-0.5424267578124999,0.918025290942944,1.15283203125,0.453125,-0.0185546875,30.27117647058824,169.77194797329184
-0.76994775390625,0.0673388671875,-0.5663525390624999,0.9581801841417488,1.2177734375,0.66162109375,0.00732421875,30.31823529411765,169.77194797329184
-0.78313134765625,0.0912646484375,-0.5819775390624999,0.979960101080426,1.2607421875,0.98193359375,0.20556640625,30.412352941176472,170.07956019344118
-0.76408837890625,0.1132373046875,-0.6200634765624999,0.9905213036170624,1.54541015625,1.083984375,0.103515625,30.412352941176472,170.07956019344118
-0.72453759765625,0.1073779296875,-0.6234814453124999,0.961880378659648,1.69287109375,0.99365234375,-0.02001953125,30.27117647058824,170.07956019344118
-0.68986962890625,0.0805224609375,-0.6259228515624999,0.9349777471741292,1.75634765625,0.193359375,-0.3232421875,30.36529411764706,170.07956019344118
-0.79094384765625,0.0453662109375,-0.5936962890624999,0.9900129023839448,1.78662109375,-0.5029296875,-0.21728515625,30.36529411764706,170.07956019344118
-0.65666650390625,0.0194873046875,-0.5756298828124999,0.8734646039669685,1.732421875,-1.390625,-0.0966796875,30.31823529411765,170.07956019344118
-0.67863916015625,0.0072802734375,-0.5590283203124999,0.8792705925881522,1.59814453125,-2.2314453125,-0.04150390625,30.31823529411765,170.07956019344118
-0.71721337890625,0.0023974609375,-0.5243603515624999,0.8884562774789851,1.474609375,-2.4609375,0.06005859375,30.27117647058824,170.07956019344118
-0.74699853515625,0.0106982421875,-0.4984814453124999,0.8981119168746869,1.3671875,-2.16259765625,0.0576171875,30.27117647058824,169.96412722154392
-0.77580712890625,0.0063037109375,-0.4911572265624999,0.9182330092290896,1.24951171875,-1.6669921875,0.02783203125,30.36529411764706,169.96412722154392
-0.80559228515625,0.0141162109375,-0.4906689453124999,0.9433632445715604,1.24072265625,-0.9189453125,0.08056640625,30.31823529411765,169.96412722154392
-0.83879541015625,0.0219287109375,-0.5028759765624999,0.9782345609649356,1.2001953125,-0.12353515625,0.1298828125,30.412352941176472,169.96412722154392
-0.82756494140625,0.0424365234375,-0.5145947265624999,0.9754344280227788,1.22705078125,0.49560546875,0.02685546875,30.412352941176472,169.96412722154392
-0.80852197265625,0.0546435546875,-0.5399853515624999,0.9737956039328358,1.33984375,0.7041015625,-0.07080078125,30.36529411764706,169.96412722154392
-0.79045556640625,0.0492724609375,-0.5585400390624999,0.9691309267098032,1.380859375,0.71484375,-0.1142578125,30.31823529411765,169.96412722154392
-0.77434228515625,0.0380419921875,-0.6054150390624999,0.9836567171903242,1.35693359375,0.59326171875,-0.09033203125,30.36529411764706,169.96412722154392
-0.75822900390625,0.0160693359375,-0.6244580078124999,0.9824038118020982,1.32763671875,0.2666015625,0.08740234375,30.412352941176472,169.96412722154392
-0.73039697265625,0.0082568359375,-0.6254345703124999,0.9616217108338888,1.345703125,-0.240234375,0.24609375,30.412352941176472,170.0066903650382
-0.71477197265625,0.0136279296875,-0.6278759765624999,0.9514793404519024,1.28515625,-0.6669921875,0.25390625,30.36529411764706,170.0066903650382
-0.68156884765625,0.0199755859375,-0.6005322265624999,0.9086110682074752,1.21435546875,-1.40869140625,0.47119140625,30.36529411764706,170.0066903650382
-0.66985009765625,0.0243701171875,-0.5844189453124999,0.8892910432372492,0.96240234375,-2.13037109375,0.4482421875,30.27117647058824,170.0066903650382
-0.66594384765625,0.0424365234375,-0.5321728515624999,0.8535162626996833,0.8671875,-2.65576171875,0.259765625,30.27117647058824,170.0066903650382
-0.68059228515625,0.0487841796875,-0.5111767578124999,0.8525769364284305,0.85888671875,-2.9423828125,0.15771484375,30.27117647058824,170.0066903650382
-0.71379541015625,0.0600146484375,-0.4926220703124999,0.8693573199474308,0.8173828125,-2.7705078125,0.16552734375,30.36529411764706,170.0066903650382
-0.73283837890625,0.0785693359375,-0.4696728515624999,0.8739667142645939,0.8193359375,-2.45458984375,0.1552734375,30.31823529411765,170.0066903650382
-0.74504541015625,0.0873583984375,-0.4501416015624999,0.8748437657260365,0.716796875,-2.17529296875,0.01708984375,30.412352941176472,170.02991256353138
-0.74309228515625,0.0927294921875,-0.4481884765624999,0.8727300920121316,0.64404296875,-1.953125,-0.349609375,30.31823529411765,170.02991256353138
-0.75139306640625,0.1078662109375,-0.4418408203124999,0.878322247355618,0.6416015625,-1.85595703125,-1.080078125,30.412352941176472,170.02991256353138
-0.73235009765625,0.0976123046875,-0.4408642578124999,0.8603639470480448,1.251953125,-1.580078125,-1.9501953125,30.31823529411765,170.02991256353138
-0.75578759765625,0.0912646484375,-0.4867626953124999,0.903593963223148,2.3486328125,-1.00634765625,-2.75439453125,30.412352941176472,170.02991256353138
-0.80656884765625,0.0282763671875,-0.5463330078124999,0.9745935636850402,2.96728515625,0.21337890625,-3.29736328125,30.31823529411765,170.02991256353138
-0.86809228515625,-0.0571728515625,-0.5844189453124999,1.0480450630310525,2.37548828125,3.2802734375,-3.0771484375,30.459411764705884,170.02991256353138
-0.75578759765625,-0.1924267578125,-0.5282666015624999,0.9419705686589308,0.5322265625,8.57177734375,-2.93212890625,30.412352941176472,170.02991256353138
-0.20500634765625,-0.3516064453125,-0.4247509765624999,0.58827551968057,-2.08056640625,14.0869140625,-1.5068359375,30.412352941176472,170.02991256353138
-0.17766259765625,0.0473193359375,-0.1439892578124999,0.2335294939080011,-2.60498046875,15.49609375,-0.46826171875,30.412352941176472,169.54946940305493
-1.01164697265625,0.1767138671875,-0.4345166015624999,1.115106302185734,-0.076171875,7.49560546875,-0.41064453125,30.36529411764706,169.54946940305493
-1.45110009765625,-0.0420361328125,-0.8427197265624999,1.6785812662535535,0.462890625,-1.41943359375,0.4892578125,30.36529411764706,169.54946940305493
-1.00871728515625,-0.0947705078125,-0.5263134765624999,1.1417083192021242,-0.4541015625,-6.27392578125,3.14599609375,30.36529411764706,169.54946940305493
-0.87590478515625,0.0224169921875,-0.4018017578124999,0.9639275734097276,-0.974609375,-7.3623046875,4.91015625,30.459411764705884,169.54946940305493
-0.86662744140625,0.0570849609375,-0.3388134765624999,0.932253391983074,-0.71923828125,-5.06396484375,4.2021484375,30.412352941176472,169.54946940305493
-0.90471337890625,0.0800341796875,-0.3124462890624999,0.9604865701503288,0.19384765625,-0.12939453125,2.490234375,30.36529411764706,169.54946940305493
-0.94963525390625,0.1166552734375,-0.3046337890624999,1.004100250832028,1.45361328125,5.18994140625,1.0478515625,30.459411764705884,169.54946940305493
-0.99162744140625,0.0658740234375,-0.4022900390624999,1.0721481451006003,2.00390625,9.3701171875,0.32177734375,30.412352941176472,169.75260890831825
-0.98820947265625,0.0155810546875,-0.5346142578124999,1.123660596340874,1.96826171875,12.455078125,0.107421875,30.412352941176472,169.75260890831825
-0.96916650390625,-0.0044384765625,-0.6581494140624999,1.171522114003347,1.15234375,14.94921875,0.40478515625,30.412352941176472,169.75260890831825
-0.82365869140625,-0.1074658203125,-0.7352978515624999,1.109335599796979,0.82080078125,15.99951171875,0.66015625,30.412352941176472,169.75260890831825
-0.59367822265625,0.0321826171875,-0.7719189453124999,0.9743451190608404,1.099609375,15.58056640625,0.65869140625,30.224117647058826,169.75260890831825
-0.33440087890625,0.0365771484375,-0.8153759765624999,0.8820429801071724,1.5947265625,13.544921875,0.30712890625,30.412352941176472,169.75260890831825
-0.11711572265625,0.0385302734375,-0.9315869140625,0.9397099834081556,1.91845703125,10.49951171875,-0.04248046875,30.36529411764706,169.75260890831825
-0.03557275390625,0.0131396484375,-0.9647900390625,0.9655350281868368,1.94189453125,5.9365234375,-0.2939453125,30.27117647058824,169.75260890831825
-0.05559228515625,0.0072802734375,-1.0448681640625,1.0463713417432443,1.7314453125,0.17822265625,-0.0888671875,30.31823529411765,169.91189408632889
-0.04924462890625,0.0146044921875,-1.0429150390625,1.0441791529095497,1.56982421875,-4.7958984375,0.57373046875,30.31823529411765,169.91189408632889
-0.31047509765625,0.0258349609375,-0.9638134765625,1.0129159141186364,1.52783203125,-9.16357421875,1.5361328125,30.412352941176472,169.91189408632889
-0.42912744140625,0.0502490234375,-0.8397900390624999,0.9444165580044074,1.68310546875,-12.5634765625,2.68896484375,30.412352941176472,169.91189408632889
-0.52531884765625,0.0463427734375,-0.7465283203124999,0.9140087950240808,1.83056640625,-13.76171875,3.2978515625,31.071176470588235,169.91189408632889
-0.58830712890625,0.0463427734375,-0.6684033203124999,0.8916366576002631,1.677734375,-13.791015625,3.2578125,30.36529411764706,169.91189408632889
-0.64934228515625,0.0453662109375,-0.6151806640624999,0.8956286874721828,1.37158203125,-12.44189453125,2.71484375,30.412352941176472,169.91189408632889
-0.72746728515625,0.0937060546875,-0.5560986328124999,0.9204537821496706,0.9775390625,-9.64306640625,2.0146484375,30.36529411764706,169.91189408632889
-0.77776025390625,0.1117724609375,-0.4940869140624999,0.9281842350676636,0.640625,-6.29638671875,1.16943359375,30.36529411764706,169.91189408632889
-0.66985009765625,0.0844287109375,-0.4535595703124999,0.8133533330494903,0.5107421875,-2.8720703125,0.4482421875,30.31823529411765,169.95316304691255
-0.79777978515625,0.0692919921875,-0.4603955078124999,0.9236979968578446,0.32568359375,0.01513671875,0.04443359375,30.36529411764706,169.95316304691255
-0.82658837890625,0.0502490234375,-0.4721142578124999,0.953239311468601,0.0537109375,2.42041015625,-0.0048828125,30.412352941176472,169.95316304691255
-0.79680322265625,0.0478076171875,-0.5248486328124999,0.955325615306992,0.0771484375,3.98291015625,-0.1962890625,30.31823529411765,169.95316304691255
-0.75627587890625,0.0321826171875,-0.5663525390624999,0.9453804125149824,0.1748046875,4.6748046875,-0.27978515625,30.412352941176472,169.95316304691255
-0.72453759765625,0.0277880859375,-0.6078564453124999,0.9461587426248876,0.16259765625,4.30615234375,0.19970703125,31.071176470588235,169.95316304691255
-0.70207666015625,0.0336474609375,-0.6259228515624999,0.9411818126546148,0.1572265625,2.912109375,0.80078125,30.36529411764706,169.95316304691255
-0.64885400390625,0.0292529296875,-0.6391064453124999,0.9112213236752382,0.2822265625,1.0419921875,1.41162109375,30.412352941176472,169.95316304691255
-0.66887353515625,0.0248583984375,-0.6537548828124999,0.9356309062907672,0.3720703125,-0.14501953125,2.166015625,30.459411764705884,169.9763853588805
-0.68303369140625,0.0131396484375,-0.6576611328124999,0.9482751918980746,0.52783203125,-0.8955078125,2.80615234375,30.412352941176472,169.9763853588805
-0.65764306640625,-0.0098095703125,-0.6405712890624999,0.918107949444467,0.0966796875,-2.19384765625,3.28515625,30.27117647058824,169.9763853588805
-0.62834619140625,-0.1069775390625,-0.6024853515624999,0.8770699681131475,-0.27099609375,-3.2060546875,3.76123046875,30.412352941176472,169.9763853588805
-0.69279931640625,0.0429248046875,-0.5795361328124999,0.9042541461921504,-0.53857421875,-3.47265625,4.57177734375,30.31823529411765,169.9763853588805
-0.73186181640625,0.0854052734375,-0.5482861328124999,0.9184407778832973,-0.5712890625,-3.26953125,5.4580078125,30.27117647058824,169.9763853588805
-0.75334619140625,0.0854052734375,-0.5160595703124999,0.917137953062874,-0.625,-2.9365234375,6.2646484375,30.31823529411765,169.9763853588805
-0.85930322265625,0.1640185546875,-0.5258251953124999,1.0206842071741005,-0.27294921875,-1.56494140625,7.1796875,30.36529411764706,169.9763853588805
-0.90959619140625,0.1259326171875,-0.6073681640624999,1.100963370057833,-0.447265625,0.82666015625,7.60498046875,30.224117647058826,169.9763853588805
-0.87639306640625,0.1278857421875,-0.6532666015624999,1.100534789371429,-1.06884765625,3.11083984375,7.31982421875,31.11823529411765,169.9241528451106
-0.86418603515625,0.1830615234375,-0.6332470703124999,1.08689046218177,-1.201171875,5.205078125,6.62548828125,30.412352941176472,169.9241528451106
-0.81975244140625,0.2260302734375,-0.6928173828124999,1.0968498874635948,-1.1044921875,7.3017578125,5.33447265625,30.31823529411765,169.9241528451106
-0.78117822265625,0.4662646484375,-0.7118603515624999,1.1551568283404678,-0.4990234375,8.99267578125,1.17724609375,30.459411764705884,169.9241528451106
-0.38225244140625,0.6972216796875,-0.7352978515624999,1.0830041228452114,0.27783203125,10.33984375,-5.71484375,30.36529411764706,169.9241528451106
-0.12590478515625,0.5453662109375,-0.7411572265624999,0.9287574244351342,0.5185546875,11.15380859375,-10.3330078125,30.36529411764706,169.9241528451106
-0.30901025390625,0.1884326171875,-0.7509228515624999,0.8335942161736083,-0.90673828125,9.8056640625,-9.677734375,30.412352941176472,169.9241528451106
-0.40324853515625,-0.0449658203125,-0.8109814453124999,0.9068198336732544,-3.56396484375,7.90380859375,-7.40283203125,30.36529411764706,169.9241528451106
-0.53557275390625,-0.0981884765625,-0.7387158203124999,0.9177037729225912,-5.396484375,6.98828125,-3.70458984375,30.31823529411765,169.85966182394196
-0.72746728515625,-0.1265087890625,-0.6864697265624999,1.0081933396771965,-5.42041015625,5.958984375,2.2197265625,30.36529411764706,169.85966182394196
-0.50529931640625,0.0937060546875,-0.3842236328124999,0.6416665986767233,-3.09619140625,0.79638671875,7.576171875,30.412352941176472,169.85966182394196
-0.39836572265625,0.1444873046875,-0.4960400390624999,0.6524013722827545,-0.005859375,-2.94580078125,9.67724609375,30.412352941176472,169.85966182394196
-0.26213525390625,0.1439990234375,-0.6137158203124999,0.6827134964194662,2.61181640625,-6.08984375,8.353515625,30.36529411764706,169.85966182394196
-0.09709619140625,0.3339404296875,-0.7030712890624999,0.7843807229078724,3.93408203125,-8.26953125,4.91064453125,30.412352941176472,169.85966182394196
-0.24406884765625,0.4145068359375,-1.0380322265625,1.1440701127192636,3.34716796875,-8.51123046875,0.29052734375,30.412352941176472,169.85966182394196
-0.49992822265625,0.4931201171875,-1.0878369140625,1.2947914231181306,1.85498046875,-7.20068359375,-2.87255859375,30.412352941176472,169.85966182394196
-0.77776025390625,0.5009326171875,-0.9140087890625,1.3004832048135533,1.40380859375,-5.849609375,-3.83349609375,30.36529411764706,170.12729715098513
-0.82658837890625,0.4530810546875,-0.7465283203124999,1.2024289265017714,1.681640625,-5.107421875,-3.31396484375,30.459411764705884,170.12729715098513
-0.77776025390625,0.3793505859375,-0.6478955078124999,1.0810117800704375,1.939453125,-4.34619140625,-2.0439453125,30.27117647058824,170.12729715098513
-0.69524072265625,0.2992724609375,-0.5790478515624999,0.9530058146277594,1.6943359375,-3.40234375,-0.97607421875,30.31823529411765,170.12729715098513
-0.61027978515625,0.2470263671875,-0.5385205078124999,0.8505690916032895,1.228515625,-2.59423828125,-0.3642578125,30.27117647058824,170.12729715098513
-0.57854150390625,0.2743701171875,-0.4516064453124999,0.7835417119690439,0.763671875,-1.142578125,-0.0224609375,30.412352941176472,170.12729715098513
-0.58830712890625,0.3129443359375,-0.4198681640624999,0.7876094911251974,0.80126953125,-0.18603515625,-0.162109375,30.459411764705884,170.12729715098513
-0.61418603515625,0.3456591796875,-0.4203564453124999,0.8206121467532336,1.0087890625,1.20166015625,-0.98291015625,30.36529411764706,170.12729715098513
-0.63274072265625,0.3222216796875,-0.4530712890624999,0.8422952130583093,1.39794921875,2.59912109375,-1.93017578125,30.459411764705884,170.12729715098513
-0.73674462890625,0.3192919921875,-0.4862744140624999,0.9387240437258962,1.9111328125,4.39208984375,-2.3984375,30.36529411764706,169.78420674979725
-0.77092431640625,0.3168505859375,-0.5819775390624999,1.016570927878928,2.14013671875,5.853515625,-2.79150390625,30.459411764705884,169.78420674979725
-0.78752587890625,0.2831591796875,-0.7143017578124999,1.1002741168465189,2.24560546875,7.4912109375,-3.30224609375,30.36529411764706,169.78420674979725
-0.73723291015625,0.2616748046875,-0.7836376953124999,1.1072823058011814,2.51513671875,8.626953125,-3.650390625,30.412352941176472,169.78420674979725
-0.63420556640625,0.2201708984375,-0.7963330078124999,1.0415556558874572,3.17138671875,9.13134765625,-3.6279296875,30.412352941176472,169.78420674979725
-0.49113916015625,0.1615771484375,-0.8090283203124999,0.9601310705335212,3.65869140625,9.11376953125,-3.220703125,30.412352941176472,169.78420674979725
-0.38274072265625,0.1342333984375,-0.8231884765624999,0.9176864028527384,3.79638671875,8.08642578125,-2.2392578125,30.31823529411765,169.78420674979725
-0.24553369140625,0.1166552734375,-0.8397900390624999,0.8826905211595696,3.69580078125,5.9501953125,-1.0615234375,30.31823529411765,169.78420674979725
-0.15666650390625,0.1405810546875,-0.8231884765624999,0.8496744637380521,3.46142578125,2.7236328125,0.091796875,30.27117647058824,169.9434926506169
-0.15813134765625,0.1972216796875,-0.8632275390624999,0.8994796819529836,3.30419921875,-0.11474609375,0.5126953125,30.412352941176472,169.9434926506169
-0.18938134765625,0.2343310546875,-0.8725048828124999,0.9230607285345356,3.3017578125,-2.42431640625,0.427734375,30.36529411764706,169.9434926506169
-0.26945947265625,0.2553271484375,-0.8764111328124999,0.9517861282090104,3.255859375,-4.02197265625,-0.33447265625,30.459411764705884,169.9434926506169
-0.40568994140625,0.2533740234375,-0.9125439453125,1.0303005272432002,3.4150390625,-4.8310546875,-1.02587890625,30.31823529411765,169.9434926506169
-0.54045556640625,0.2411669921875,-0.9291455078125,1.1016193135872367,3.212890625,-5.0048828125,-1.5986328125,30.31823529411765,169.9434926506169
-0.64592431640625,0.1835498046875,-0.8822705078124999,1.1087425320070603,2.91796875,-4.8134765625,-1.68896484375,30.36529411764706,169.9434926506169
-0.70110009765625,0.1322802734375,-0.7904736328124999,1.0648417637593364,2.72412109375,-4.39892578125,-1.5908203125,30.36529411764706,169.9434926506169
-0.69133447265625,0.0946826171875,-0.8212353515624999,1.0776528447215052,2.673828125,-3.97900390625,-1.45458984375,30.412352941176472,169.7429398693666
-0.68205712890625,0.0849169921875,-0.6405712890624999,0.9395447828737072,2.6953125,-3.255859375,-1.3828125,30.36529411764706,169.7429398693666
-0.67815087890625,0.0551318359375,-0.6088330078124999,0.9130201341137962,2.794921875,-2.04541015625,-1.4765625,30.31823529411765,169.7429398693666
-0.68840478515625,0.0175341796875,-0.6176220703124999,0.9250219551018424,2.9248046875,-0.37548828125,-1.646484375,30.27117647058824,169.7429398693666
-0.68449853515625,-0.0352001953125,-0.6327587890624999,0.9328241975404216,2.91650390625,1.08447265625,-1.8310546875,30.31823529411765,169.7429398693666
-0.68352197265625,-0.0640087890625,-0.6415478515624999,0.9396185704984754,2.83935546875,2.51025390625,-1.93359375,30.31823529411765,169.7429398693666
-0.54582666015625,-0.0810986328125,-0.6713330078124999,0.8690176859880133,2.67822265625,3.41748046875,-1.8994140625,30.36529411764706,169.7429398693666
-0.63322900390625,-0.0942822265625,-0.7094189453124999,0.955585343965668,2.396484375,3.578125,-1.7861328125,30.36529411764706,169.7429398693666
-0.61613916015625,-0.1055126953125,-0.7435986328124999,0.9714418769390047,2.13818359375,3.619140625,-1.63916015625,30.36529411764706,169.7429398693666
-0.57317041015625,-0.1089306640625,-0.7626416015624999,0.9602147786227808,1.97119140625,3.32958984375,-1.57421875,30.412352941176472,170.11503895592733
-0.51750634765625,-0.1255322265625,-0.7685009765624999,0.9349678661578515,1.84912109375,2.67578125,-1.61767578125,30.31823529411765,170.11503895592733
-0.48527978515625,-0.1260205078125,-0.8017041015624999,0.94557236885008,1.7900390625,1.8798828125,-1.20654296875,30.412352941176472,170.11503895592733
-0.53606103515625,-0.1103955078125,-0.8378369140624999,1.0007593597482578,1.97509765625,1.6396484375,-0.869140625,30.459411764705884,170.11503895592733
-0.58293603515625,-0.1055126953125,-0.8725048828124999,1.0546146786800623,2.26513671875,1.7109375,-0.41015625,30.36529411764706,170.11503895592733
-0.57805322265625,-0.1025830078125,-0.9096142578125,1.082620385791308,2.23291015625,0.75146484375,-0.1640625,30.27117647058824,170.11503895592733
-0.56389306640625,-0.0796337890625,-0.9081494140625,1.071938565853266,1.62255859375,-0.78955078125,0.22607421875,30.412352941176472,170.11503895592733
-0.55901025390625,-0.0376416015625,-0.8515087890624999,1.0193020023482762,0.97509765625,-2.8896484375,0.67529296875,30.31823529411765,170.11503895592733
-0.57707666015625,-0.0156689453125,-0.7816845703124999,0.9717477836398372,0.7470703125,-4.40380859375,1.30810546875,30.31823529411765,170.11503895592733
-0.58733056640625,-0.0483837890625,-0.7167431640624999,0.9279110671338362,0.380859375,-4.98974609375,1.59619140625,30.412352941176472,169.7855017819241
-0.58830712890625,-0.0610791015625,-0.6605908203124999,0.8866883141503212,0.38720703125,-4.8095703125,1.5888671875,30.36529411764706,169.7855017819241
-0.60051416015625,-0.0576611328125,-0.6161572265624999,0.8623176854446272,0.50830078125,-4.091796875,1.27734375,30.36529411764706,169.7855017819241
-0.61662744140625,-0.0464306640625,-0.6039501953124999,0.8643732101809437,0.7578125,-2.875,0.85498046875,30.36529411764706,169.7855017819241
-0.62834619140625,-0.0293408203125,-0.6034619140624999,0.8716915175194297,0.99658203125,-1.48974609375,0.31396484375,30.36529411764706,169.7855017819241
-0.64641259765625,-0.0190869140625,-0.6063916015624999,0.8865237341113118,1.0283203125,0.03515625,0.10791015625,30.459411764705884,169.7855017819241
-0.65568994140625,-0.0044384765625,-0.6181103515624999,0.9011156452111154,1.03857421875,1.31884765625,0.0556640625,30.36529411764706,169.7855017819241
-0.64201806640625,-0.0039501953125,-0.6552197265624999,0.917341643942792,1.07958984375,2.25341796875,-0.041015625,30.31823529411765,169.7855017819241
-0.63225244140625,0.0175341796875,-0.7323681640624999,0.967684723891906,0.93994140625,2.62646484375,-0.00146484375,30.36529411764706,169.78420674979725
-0.61955712890625,0.0375537109375,-0.7807080078124999,0.9973797223957862,0.76904296875,2.52783203125,-0.2451171875,30.412352941176472,169.78420674979725
-0.60295556640625,0.0502490234375,-0.8158642578124999,1.0157336592791664,0.55859375,1.81103515625,-0.02001953125,30.36529411764706,169.78420674979725
-0.55803369140625,0.0507373046875,-0.8060986328124999,0.981718330608948,0.33251953125,0.9921875,0.1416015625,30.459411764705884,169.78420674979725
-0.51311181640625,0.0453662109375,-0.7826611328124999,0.936963328015506,0.1767578125,-0.03564453125,0.23583984375,30.36529411764706,169.78420674979725
-0.49211572265625,0.0268115234375,-0.7514111328124999,0.8986186247730943,0.12109375,-0.912109375,0.22998046875,30.459411764705884,169.78420674979725
-0.50481103515625,0.0160693359375,-0.7235791015624999,0.8824166368507517,0.1806640625,-1.134765625,0.15673828125,30.36529411764706,169.78420674979725
-0.53801416015625,0.0102099609375,-0.7108837890624999,0.8915824366724803,0.31396484375,-1.12744140625,0.072265625,30.31823529411765,169.78420674979725
-0.58391259765625,0.0048388671875,-0.7074658203124999,0.9173250368586734,0.48193359375,-0.59033203125,0.03564453125,30.27117647058824,169.71134245729436
-0.62346337890625,-0.0015087890625,-0.7025830078124999,0.939325153580214,0.6650390625,0.08349609375,0.0625,30.27117647058824,169.71134245729436
-0.63615869140625,0.0028857421875,-0.7001416015624999,0.9459939061104928,0.81884765625,0.65478515625,0.111328125,30.36529411764706,169.71134245729436
-0.63029931640625,-0.0010205078125,-0.7186962890624999,0.9559302409750358,0.91455078125,1.2705078125,0.1904296875,30.36529411764706,169.71134245729436
-0.61613916015625,0.0063037109375,-0.7352978515624999,0.9593383824084496,0.9443359375,1.49072265625,0.337890625,30.36529411764706,169.71134245729436
-0.59953759765625,0.0038623046875,-0.7401806640624999,0.9525374868491684,0.8994140625,1.412109375,0.5625,30.31823529411765,169.71134245729436
-0.57170556640625,0.0189990234375,-0.7396923828124999,0.935068467408833,0.89501953125,1.1337890625,0.740234375,30.31823529411765,169.71134245729436
-0.66740869140625,0.0219287109375,-0.7421337890624999,0.9983375133672212,0.92919921875,0.84814453125,0.7880859375,30.31823529411765,169.71134245729436
-0.52873681640625,0.0341357421875,-0.7489697265624999,0.917433115396002,0.93603515625,0.37451171875,0.68896484375,30.36529411764706,169.71134245729436
-0.53410791015625,0.0385302734375,-0.7523876953124999,0.9234950382759513,0.88916015625,-0.10546875,0.544921875,30.412352941176472,169.97767974550266
-0.53703759765625,0.0326708984375,-0.7753369140624999,0.9437288271580296,0.79345703125,-0.3623046875,0.3642578125,30.31823529411765,169.97767974550266
-0.54777978515625,0.0351123046875,-0.7538525390624999,0.9325176768390364,0.7001953125,-0.4873046875,0.2890625,30.36529411764706,169.97767974550266
-0.56193994140625,0.0326708984375,-0.7401806640624999,0.9298985432854364,0.67529296875,-0.5419921875,0.265625,29.753529411764703,169.97767974550266
-0.56926416015625,0.0404833984375,-0.7338330078124999,0.9296297504612204,0.697265625,-0.47412109375,0.28173828125,30.27117647058824,169.97767974550266
-0.58733056640625,0.0424365234375,-0.7343212890624999,0.9412681914985546,0.70849609375,-0.2978515625,0.2548828125,30.31823529411765,169.97767974550266
-0.58830712890625,0.0502490234375,-0.7240673828124999,0.9342932179627984,0.7646484375,-0.1064453125,0.1552734375,30.36529411764706,169.97767974550266
-0.58293603515625,0.0648974609375,-0.7333447265624999,0.9390530280537148,0.8388671875,0.0595703125,0.01611328125,30.36529411764706,169.97767974550266
-0.59074853515625,0.0629443359375,-0.7406689453124999,0.9494926580896764,0.87548828125,0.09326171875,-0.07373046875,30.36529411764706,169.83773327721988
-0.58098291015625,0.0619677734375,-0.7479931640624999,0.9491443095349918,0.90869140625,0.01220703125,-0.08837890625,30.31823529411765,169.83773327721988
-0.58000634765625,0.0531787109375,-0.7455517578124999,0.9460881365897288,0.92578125,-0.1953125,-0.064453125,30.36529411764706,169.83773327721988
-0.56438134765625,0.0478076171875,-0.7304150390624999,0.9242932452052784,0.9482421875,-0.49267578125,-0.037109375,30.412352941176472,169.83773327721988
-0.56682275390625,0.0380419921875,-0.7338330078124999,0.9280334643053556,0.91650390625,-0.666015625,-0.0146484375,30.36529411764706,169.83773327721988
-0.58488916015625,0.0409716796875,-0.7435986328124999,0.9469492779052728,0.8564453125,-0.708984375,0.00341796875,30.36529411764706,169.83773327721988
-0.58635400390625,0.0478076171875,-0.7401806640624999,0.945496695716088,0.849609375,-0.61572265625,0.01318359375,30.412352941176472,169.83773327721988
-0.60002587890625,0.0482958984375,-0.7401806640624999,0.9540602520884656,0.86767578125,-0.18310546875,0.0078125,30.36529411764706,169.83773327721988
-0.60393212890625,0.0502490234375,-0.7367626953124999,0.953980214619673,0.865234375,0.056640625,-0.0224609375,30.36529411764706,170.08214625440786
-0.58684228515625,0.0522021484375,-0.7401806640624999,0.9460318955515736,0.8642578125,0.115234375,-0.0927734375,29.753529411764703,170.08214625440786
-0.57561181640625,0.0541552734375,-0.7265087890624999,0.9284808977101536,0.88330078125,0.07275390625,-0.1240234375,30.36529411764706,170.08214625440786
-0.57170556640625,0.0605029296875,-0.7191845703124999,0.9207248803721104,0.92626953125,-0.017578125,-0.07763671875,30.36529411764706,170.08214625440786
-0.57610009765625,0.0727099609375,-0.7128369140624999,0.9194098797539764,0.99853515625,-0.0185546875,-0.0146484375,30.36529411764706,170.08214625440786
-0.57854150390625,0.0683154296875,-0.7221142578124999,0.9278072380681188,0.99658203125,0.07177734375,0.01025390625,30.36529411764706,170.08214625440786
-0.60051416015625,0.0658740234375,-0.7245556640624999,0.9433650162249292,0.95556640625,0.29345703125,0.02490234375,30.36529411764706,170.08214625440786
-0.61858056640625,0.0507373046875,-0.7201611328124999,0.9507093396176416,0.92578125,0.62451171875,0.08837890625,30.36529411764706,170.08214625440786
-0.61418603515625,0.0287646484375,-0.7279736328124999,0.9528890286129418,0.90771484375,0.94873046875,0.01708984375,30.412352941176472,170.08214625440786
-0.61174462890625,-0.1108837890625,-0.7201611328124999,0.9513983197831946,0.9482421875,1.22216796875,0.0634765625,30.31823529411765,170.09440422307196
-0.59953759765625,0.0033740234375,-0.7318798828124999,0.9460998244916988,0.9736328125,1.49658203125,-0.01953125,30.459411764705884,170.09440422307196
-0.58342431640625,0.0048388671875,-0.7328564453124999,0.9367421828047628,1.10986328125,1.6630859375,-0.12353515625,30.31823529411765,170.09440422307196
-0.57610009765625,0.0189990234375,-0.7499462890624999,0.9458708801362552,1.2255859375,1.640625,-0.24560546875,30.36529411764706,170.09440422307196
-0.57170556640625,0.0214404296875,-0.7797314453124999,0.967102928076529,1.232421875,1.45361328125,-0.0849609375,30.36529411764706,170.09440422307196
-0.53996728515625,0.0204638671875,-0.7826611328124999,0.9510740705721212,1.146484375,1.087890625,0.0048828125,30.459411764705884,170.09440422307196
-0.51018212890625,0.0185107421875,-0.7685009765624999,0.9226170403852086,1.0654296875,0.736328125,0.00439453125,30.36529411764706,170.09440422307196
-0.50139306640625,0.0087451171875,-0.7660595703124999,0.9155974821843152,1.04638671875,0.24267578125,0.2138671875,30.412352941176472,170.09440422307196
-0.49260400390625,0.0126513671875,-0.7719189453124999,0.9157934373473878,1.06982421875,-0.35693359375,0.27783203125,30.31823529411765,170.01765454826332
-0.51164697265625,0.0189990234375,-0.7772900390624999,0.9307649501059152,1.052734375,-0.72900390625,0.31494140625,30.36529411764706,170.01765454826332
-0.52580712890625,0.0302294921875,-0.7709423828124999,0.9336697042440454,1.04052734375,-1.03857421875,0.263671875,30.36529411764706,170.01765454826332
-0.53068994140625,0.0395068359375,-0.7587353515624999,0.9267534395437828,1.029296875,-1.35400390625,0.109375,30.36529411764706,170.01765454826332
-0.54485009765625,0.0419482421875,-0.7484814453124999,0.9267393149725196,1.005859375,-1.47412109375,-0.01025390625,30.412352941176472,170.01765454826332
-0.55998681640625,0.0272998046875,-0.7250439453124999,0.9165256333126196,0.953125,-1.42041015625,-0.142578125,30.31823529411765,170.01765454826332
-0.56926416015625,0.0146044921875,-0.7226025390624999,0.920015980671003,0.91552734375,-1.1455078125,-0.24462890625,30.412352941176472,170.01765454826332
-0.59318994140625,0.0038623046875,-0.7064892578124999,0.9225054446384078,0.99951171875,-0.68798828125,-0.33203125,30.36529411764706,170.01765454826332
-0.61272119140625,0.0043505859375,-0.7177197265624999,0.94369899432671,0.830078125,-0.15576171875,-0.39697265625,30.459411764705884,170.01765454826332
-0.62053369140625,0.0072802734375,-0.7211376953124999,0.9513961531098472,0.8388671875,0.263671875,-0.38330078125,30.412352941176472,169.93252844255008
-0.60881494140625,0.0097216796875,-0.7382275390624999,0.956937847180117,0.833984375,0.724609375,-0.341796875,30.412352941176472,169.93252844255008
-0.59953759765625,0.0072802734375,-0.7567822265624999,0.9655142007374348,0.80908203125,0.84619140625,-0.2880859375,30.412352941176472,169.93252844255008
-0.57805322265625,-0.1099072265625,-0.7514111328124999,0.9543813793177764,0.78173828125,0.673828125,-0.240234375,30.412352941176472,169.93252844255008
-0.55119775390625,-0.1108837890625,-0.7626416015624999,0.9474895202702596,0.7587890625,0.34423828125,-0.1494140625,30.31823529411765,169.93252844255008
-0.66545556640625,0.0214404296875,-0.7562939453124999,1.0076067360843686,0.76611328125,-0.095703125,-0.05712890625,30.412352941176472,169.93252844255008
-0.66643212890625,0.0272998046875,-0.7499462890624999,1.0036416184341437,0.7099609375,-0.59765625,0.01123046875,30.459411764705884,169.93252844255008
-0.55119775390625,0.0292529296875,-0.7294384765624999,0.9147432365950664,0.60693359375,-0.8193359375,-0.001953125,30.412352941176472,169.93252844255008
-0.56486962890625,0.0429248046875,-0.7255322265624999,0.92049836952538,0.59228515625,-0.7802734375,-0.0625,30.31823529411765,169.88996564534378
-0.57414697265625,0.0536669921875,-0.7035595703124999,0.9096817911990432,0.6044921875,-0.69384765625,-0.24169921875,30.36529411764706,169.88996564534378
-0.58293603515625,0.0439013671875,-0.7020947265624999,0.9136075504238632,0.6083984375,-0.4775390625,-0.46240234375,30.36529411764706,169.88996564534378
-0.60979150390625,0.0360888671875,-0.8227001953124999,1.0246871209975994,0.5947265625,-0.23486328125,-0.67041015625,30.36529411764706,169.88996564534378
-0.63078759765625,0.0272998046875,-0.6937939453124999,0.9380769218167576,0.5078125,0.26171875,-0.83349609375,30.412352941176472,169.88996564534378
-0.65764306640625,0.1366748046875,-0.7094189453124999,0.9769593875882874,0.7158203125,0.9736328125,-0.79052734375,30.36529411764706,169.88996564534378
-0.67570947265625,0.0116748046875,-0.7348095703124999,0.9983309557079354,0.72900390625,1.57275390625,-0.56396484375,30.31823529411765,169.88996564534378
-0.64641259765625,0.0121630859375,-0.7421337890624999,0.9842559361957068,0.7080078125,2.05126953125,-0.29150390625,30.412352941176472,169.88996564534378
-0.59709619140625,0.0150927734375,-0.7499462890624999,0.9587341081240928,0.79296875,2.2587890625,-0.13232421875,30.36529411764706,169.67844950914875
