AccX,AccY,AccZ,Magnitude,GyroX,GyroY,GyroZ,Temperature,Altitude
0.0376694335937499,0.3534716796875,0.7466357421875001,0.8269378127043506,-0.08056640625,2.74365234375,-1.2998046875,29.141764705882352,197.48718486861148
0.07966162109375,0.4501513671875,0.7261279296875001,0.8580466173398242,2.9296875,0.07275390625,0.5849609375,29.188823529411767,197.48718486861148
-0.09074853515625,0.3632373046875,0.7002490234375001,0.7940562517698714,5.640625,-1.4921875,-0.140625,29.141764705882352,197.25403454571816
-0.29777978515625,0.3778857421875,0.6270068359375001,0.7903214579578712,5.4130859375,-4.693359375,-2.60888671875,29.23588235294118,197.25403454571816
0.0425522460937499,0.3813037109375,0.4595263671875,0.5986382010554228,2.45166015625,-8.47509765625,-3.654296875,29.23588235294118,197.25403454571816
-0.26115869140625,0.8622607421875,0.3106005859375,0.9529796291629122,-0.76953125,-11.59375,-0.8251953125,29.188823529411767,197.25403454571816
0.54987646484375,0.2167529296875,0.5869677734375001,0.832992872821461,-4.93310546875,16.0,-3.69580078125,29.28294117647059,197.25403454571816
0.0122788085937499,0.2836474609375,1.0400927734375005,1.078146385512507,-3.64990234375,16.0,-5.37548828125,29.23588235294118,197.40212996516945
-0.39055322265625,0.2025927734375,0.9297412109375,1.02858853332701,-0.00390625,-10.263671875,-4.17578125,29.28294117647059,197.40212996516945
-0.22600244140625,0.1552294921875,0.8897021484375001,0.9309904466215956,1.9599609375,-4.79638671875,-2.861328125,29.23588235294118,197.40212996516945
-0.20061181640625,0.1449755859375,0.8179248046875001,0.8545548592822005,1.671875,-1.8408203125,-0.8505859375,29.23588235294118,197.40212996516945
0.0508530273437499,0.1732958984375,1.1406787109375005,1.154887622408051,1.27978515625,-4.357421875,0.70703125,29.23588235294118,197.40212996516945
0.2744858398437499,0.1464404296875,1.3955615234375005,1.42981790498685,0.06982421875,-8.81396484375,0.1640625,29.23588235294118,197.40212996516945
0.20710302734375,0.1859912109375,1.0562060546875005,1.0922708567198334,-0.953125,-7.68603515625,-0.51513671875,29.28294117647059,196.89481485961332
0.14118505859375,0.2499560546875,1.2017138671875005,1.2355272027097577,-0.509765625,-5.03955078125,-1.39599609375,29.09470588235294,196.89481485961332
-0.03606103515625,0.1967333984375,1.1382373046875005,1.1556766806073289,-0.85791015625,-0.8095703125,-2.01171875,29.141764705882352,196.89481485961332
-0.04924462890625,0.1220263671875,0.9600146484375,0.9689910180077366,-1.572265625,2.10302734375,-2.20263671875,29.23588235294118,196.89481485961332
0.3174545898437499,0.2480029296875,1.2588427734375005,1.3217291696797284,-0.82666015625,0.66943359375,-3.419921875,29.188823529411767,196.89481485961332
0.2691147460937499,0.3129443359375,1.5137255859375005,1.5689875886960658,1.83154296875,-3.92041015625,-3.34423828125,29.33,196.89481485961332
0.19147802734375,0.2714404296875,1.0972216796875005,1.1464027024569716,2.396484375,-7.05859375,-3.8359375,29.188823529411767,196.89481485961332
0.23298193359375,0.2465380859375,1.0449755859375005,1.0986517120562962,1.0693359375,-7.953125,-4.85205078125,29.23588235294118,197.153975001696
0.19977880859375,0.3837451171875,1.0288623046875005,1.1161225422574623,0.73779296875,-6.35498046875,-4.97802734375,29.188823529411767,197.153975001696
0.15143896484375,0.3105029296875,1.0596240234375005,1.1145173396871595,1.1650390625,-3.72509765625,-5.509765625,29.23588235294118,197.153975001696
0.19880224609375,0.1967333984375,1.0757373046875005,1.1115021870464386,1.7119140625,-0.68994140625,-5.87890625,29.188823529411767,197.153975001696
0.08063818359375,0.0824755859375,1.0337451171875005,1.0401604233184572,1.814453125,2.43359375,-5.52685546875,29.28294117647059,197.153975001696
-0.02238916015625,0.0292529296875,0.9932177734375,0.9939006760536736,1.5771484375,4.27392578125,-4.92822265625,29.141764705882352,197.153975001696
0.0127670898437499,-0.0088330078125,0.9458544921875,0.9459818925335556,1.36279296875,4.80224609375,-4.30517578125,29.23588235294118,197.153975001696
0.0283920898437499,-0.0142041015625,0.9053271484375,0.9058836089503268,0.88330078125,4.4111328125,-4.1552734375,29.188823529411767,197.4181445042512
0.0239975585937499,-0.0093212890625,0.9155810546875,0.9159429223215396,0.7412109375,3.21923828125,-4.22900390625,29.28294117647059,197.4181445042512
0.0132553710937499,-4.394531249999993e-05,0.9033740234375,0.9034712685059112,0.29833984375,1.06689453125,-4.28662109375,29.28294117647059,197.4181445042512
0.0337631835937499,0.0048388671875,0.9146044921875,0.9152402659037672,0.1123046875,-1.279296875,-4.22802734375,29.23588235294118,197.4181445042512
7.177734374999578e-05,0.0072802734375,0.9595263671875,0.9595539885078656,-0.03369140625,-3.5625,-3.95068359375,29.23588235294118,197.4181445042512
-0.03068994140625,0.0097216796875,0.9946826171875,0.9952034427665734,-0.29248046875,-5.2626953125,-3.68212890625,29.33,197.4181445042512
-0.02678369140625,0.0204638671875,1.0830615234375005,1.083585898549982,-0.6845703125,-6.5927734375,-3.67431640625,29.23588235294118,197.4181445042512
-0.01067041015625,0.0497607421875,1.1484912109375005,1.1496182195479678,-0.7861328125,-6.689453125,-3.99072265625,29.28294117647059,197.11399570570168
-0.00627587890625,0.0512255859375,1.1636279296875005,1.1647718257493629,-0.92529296875,-5.82080078125,-4.36865234375,29.188823529411767,197.11399570570168
0.0069077148437499,0.0570849609375,1.2271044921875005,1.2284509937463282,-0.67822265625,-4.40087890625,-4.595703125,29.23588235294118,197.11399570570168
0.0156967773437499,0.0326708984375,1.2144091796875005,1.2149499710411784,-0.34619140625,-2.9306640625,-4.41796875,29.28294117647059,197.11399570570168
0.0005600585937499,-0.0137158203125,1.1480029296875005,1.148084998579616,-0.46337890625,-1.2060546875,-3.88330078125,29.23588235294118,197.11399570570168
0.0010483398437499,-0.0420361328125,1.1397021484375005,1.1404775853261264,-0.57080078125,0.4921875,-3.26708984375,29.28294117647059,197.11399570570168
0.0166733398437499,-0.0557080078125,1.0835498046875005,1.0851090091019902,-0.54443359375,1.98974609375,-2.67041015625,29.28294117647059,197.11399570570168
-0.01360009765625,-0.0605908203125,1.0361865234375005,1.0380456259316806,-0.5146484375,3.57470703125,-2.31884765625,29.23588235294118,197.2886080835438
-0.00725244140625,-0.0557080078125,0.9800341796875,0.9816429969171784,-0.43212890625,4.34912109375,-1.96875,29.188823529411767,197.2886080835438
-0.02971337890625,-0.0474072265625,0.9199755859375,0.9216753271827456,-0.48046875,4.4814453125,-1.60009765625,29.23588235294118,197.2886080835438
-0.02385400390625,-0.0400830078125,0.8936083984375001,0.8948249162689259,-0.55810546875,3.6162109375,-1.46826171875,29.28294117647059,197.2886080835438
-0.00529931640625,-0.0220166015625,0.8535693359375001,0.8538696766787777,-0.65771484375,1.9638671875,-1.48583984375,29.28294117647059,197.2886080835438
0.0186264648437499,-0.0039501953125,0.8540576171875001,0.8542698418600371,-0.58251953125,-0.2421875,-1.51025390625,29.23588235294118,197.2886080835438
0.0196030273437499,-0.0161572265625,0.8413623046875001,0.8417457231256322,-0.470703125,-2.45263671875,-1.48046875,29.141764705882352,197.2886080835438
0.0152084960937499,-0.0288525390625,0.8594287109375001,0.8600473687812084,-0.48291015625,-4.20068359375,-1.474609375,29.188823529411767,197.3121318991936
0.0166733398437499,-0.0405712890625,0.8765185546875001,0.8776154092022326,-0.45166015625,-5.24267578125,-1.47412109375,29.141764705882352,197.3121318991936
-0.00236962890625,-0.0405712890625,0.8027880859375001,0.8038161204905891,-0.39453125,-5.68798828125,-1.4384765625,29.23588235294118,197.3121318991936
-0.00090478515625,-0.0347119140625,0.9287646484375,0.9294135289532288,-0.18896484375,-5.60986328125,-1.36767578125,29.23588235294118,197.3121318991936
0.0381577148437499,-0.0254345703125,0.9585498046875,0.9596461101028456,-0.02099609375,-5.53173828125,-1.03125,29.23588235294118,197.3121318991936
0.0537827148437499,-0.0366650390625,0.9370654296875,0.9393234400465252,-0.14794921875,-5.17431640625,-1.11279296875,29.188823529411767,197.3121318991936
0.10505224609375,-0.0527783203125,0.9453662109375,0.9526483077645582,-0.3056640625,-4.765625,-1.3173828125,29.141764705882352,197.3121318991936
0.12946630859375,-0.0317822265625,1.0142138671875005,1.022937634160356,-0.25,-4.8896484375,-1.29638671875,29.141764705882352,197.230107546882
0.07477880859375,-0.0200634765625,1.0508349609375005,1.053683315059602,0.302734375,-5.13037109375,-0.9833984375,29.188823529411767,197.230107546882
0.0259506835937499,-0.0264111328125,1.0689013671875005,1.0695424810126664,0.56103515625,-5.10400390625,-0.2578125,29.141764705882352,197.230107546882
0.07282568359375,-0.0352001953125,1.0215380859375005,1.024735426811129,0.69091796875,-5.03955078125,0.08349609375,29.188823529411767,197.230107546882
0.15778662109375,-0.0332470703125,1.0044482421875005,1.0173093220422715,0.71826171875,-4.716796875,0.09423828125,29.188823529411767,197.230107546882
0.18806005859375,-0.0322705078125,1.0381396484375005,1.0555292042244488,0.8779296875,-4.7158203125,0.01220703125,29.188823529411767,197.230107546882
0.21686865234375,0.0033740234375,1.1147998046875005,1.1357033067376532,1.169921875,-4.78515625,-0.00390625,29.23588235294118,197.230107546882
0.20075537109375,-0.0083447265625,1.1084521484375005,1.1265160979143185,1.06494140625,-4.95068359375,-0.26953125,29.188823529411767,197.230107546882
0.17243505859375,0.0063037109375,1.1196826171875005,1.132900149808298,1.2109375,-4.4296875,-0.39111328125,29.23588235294118,197.10103415853092
0.18903662109375,0.0072802734375,1.1138232421875005,1.1297743408897822,1.4951171875,-3.984375,-0.1474609375,29.23588235294118,197.10103415853092
0.17292333984375,0.0204638671875,1.0952685546875005,1.109024101726482,1.0693359375,-3.4248046875,0.43359375,29.23588235294118,197.10103415853092
0.16706396484375,0.0238818359375,1.1138232421875005,1.1265358073643883,0.87548828125,-2.77392578125,0.63671875,29.141764705882352,197.10103415853092
0.15973974609375,0.0517138671875,1.0952685546875005,1.108063318330152,0.720703125,-2.06787109375,0.81396484375,29.23588235294118,197.10103415853092
0.18122412109375,0.0609912109375,1.1094287109375005,1.1257860251976253,0.69384765625,-1.17626953125,0.5576171875,29.188823529411767,197.10103415853092
0.17878271484375,0.0902880859375,1.0571826171875005,1.0759880499673644,0.68212890625,-0.453125,0.2939453125,29.23588235294118,197.10103415853092
0.17780615234375,0.1068896484375,1.1748583984375005,1.1930350712085165,0.60107421875,0.18896484375,0.140625,29.28294117647059,197.10103415853092
0.17829443359375,0.1171435546875,1.1743701171875005,1.1935898330659165,0.64892578125,0.3427734375,-0.07568359375,29.188823529411767,197.12111140441323
0.3311264648437499,0.1049365234375,1.0337451171875005,1.0905436153497332,0.70947265625,0.10302734375,-0.30078125,29.188823529411767,197.12111140441323
0.21735693359375,0.0692919921875,1.0430224609375005,1.067680322373092,0.78125,-0.6806640625,-0.49267578125,29.188823529411767,197.12111140441323
0.18268896484375,0.0292529296875,1.0361865234375005,1.052574701921187,0.7705078125,-1.10546875,-0.53466796875,29.23588235294118,197.12111140441323
0.17487646484375,-0.0190869140625,1.0220263671875005,1.0370554389574145,0.81787109375,-1.11865234375,-0.58935546875,29.188823529411767,197.12111140441323
0.18220068359375,-0.0415478515625,1.0103076171875005,1.0274457622758362,0.8935546875,-0.89111328125,-0.5361328125,29.188823529411767,197.12111140441323
0.18659521484375,-0.0547314453125,1.0083544921875005,1.0269333411781372,0.8955078125,-0.73291015625,-0.3603515625,29.28294117647059,197.12111140441323
0.18854833984375,-0.0674267578125,1.0029833984375005,1.0227768777539787,0.77685546875,-0.45751953125,0.005859375,29.28294117647059,197.12111140441323
0.21003271484375,-0.0596142578125,0.9883349609375,1.0121628307987312,0.69921875,0.18115234375,0.27490234375,29.28294117647059,197.12111140441323
0.23884130859375,-0.0644970703125,0.9917529296875,1.0221442737272513,0.705078125,0.8349609375,0.26171875,29.188823529411767,197.1431277627842
0.24225927734375,-0.0708447265625,0.9673388671875,0.9997264709471424,0.64404296875,1.37158203125,0.24462890625,29.188823529411767,197.1431277627842
0.2515366210937499,-0.0596142578125,0.9556201171875,0.9899668377573296,0.59912109375,1.7158203125,0.2265625,29.23588235294118,197.1431277627842
0.24177099609375,-0.0767041015625,0.9375537109375,0.9712588195951436,0.54150390625,2.076171875,0.21875,29.141764705882352,197.1431277627842
0.23786474609375,-0.0786572265625,0.9150927734375,0.9487683493468172,0.53125,2.345703125,0.3466796875,29.23588235294118,197.1431277627842
0.22370458984375,-0.0542431640625,0.9204638671875,0.9488096727808162,0.52685546875,2.42138671875,0.59912109375,29.28294117647059,197.1431277627842
0.23347021484375,0.0272998046875,0.9492724609375,0.9779426494685156,0.609375,1.806640625,0.89306640625,29.23588235294118,197.1431277627842
0.2866928710937499,0.1142138671875,1.0205615234375005,1.066200465632506,0.76220703125,0.20849609375,1.08056640625,29.23588235294118,197.1431277627842
0.2915756835937499,0.1884326171875,1.1147998046875005,1.167605170858104,1.0986328125,-1.91015625,0.91943359375,29.23588235294118,197.018597312222
0.2798569335937499,0.1938037109375,1.2319873046875005,1.2781519864886235,1.45654296875,-3.1728515625,0.341796875,29.28294117647059,197.018597312222
0.2832749023437499,0.1405810546875,1.2549365234375005,1.2941689924783049,1.82763671875,-3.43017578125,-0.57421875,29.28294117647059,197.018597312222
0.3360092773437499,0.0580615234375,1.2036669921875005,1.251034613048998,2.39208984375,-2.666015625,-1.248046875,29.188823529411767,197.018597312222
0.3760483398437499,0.0004443359375,1.2183154296875005,1.2750313868875167,3.4716796875,-2.0966796875,-0.93017578125,29.28294117647059,197.018597312222
0.3501694335937499,-0.0859814453125,1.1284716796875005,1.1846770754168083,3.63818359375,-1.90576171875,0.2998046875,29.23588235294118,197.018597312222
0.2979233398437499,-0.1060009765625,1.0415576171875005,1.0885020869879678,3.47509765625,-0.99267578125,1.79296875,29.28294117647059,197.018597312222
0.2720444335937499,-0.0640087890625,1.0117724609375005,1.0496612842427395,3.71337890625,0.88330078125,2.8642578125,29.188823529411767,197.018597312222
0.2905991210937499,-0.0073681640625,0.9448779296875,0.9885830471096742,3.861328125,2.30712890625,3.4755859375,29.23588235294118,197.14766877970675
0.2549545898437499,0.0448779296875,0.8687060546875001,0.9064579862884726,3.8994140625,3.31787109375,4.01513671875,29.188823529411767,197.14766877970675
0.2608139648437499,0.0888232421875,0.7578662109375001,0.8063961100420682,3.6298828125,3.84765625,4.58544921875,29.23588235294118,197.14766877970675
0.24958349609375,0.1151904296875,0.7212451171875001,0.771851848271921,3.36767578125,4.30517578125,4.58935546875,29.23588235294118,197.14766877970675
0.24225927734375,0.1308154296875,0.6860888671875001,0.7392700235922381,2.94873046875,4.38037109375,4.25048828125,29.188823529411767,197.14766877970675
0.2637436523437499,0.1293505859375,0.6084521484375001,0.6756525032679188,2.74609375,3.93115234375,3.76806640625,29.23588235294118,197.14766877970675
0.2603256835937499,0.1225146484375,0.5894091796875001,0.655882978678521,2.4267578125,3.09033203125,3.37841796875,29.377058823529413,197.14766877970675
0.22370458984375,0.1166552734375,0.5386279296875001,0.5947875612160873,2.38720703125,1.8349609375,3.3095703125,29.23588235294118,197.14766877970675
0.23102880859375,0.0873583984375,0.4439013671875,0.5079903778308643,2.2861328125,0.49267578125,3.39404296875,29.23588235294118,197.14766877970675
0.2915756835937499,0.0561083984375,0.3516162109375,0.4602157009842541,2.00732421875,-0.77587890625,3.3251953125,29.188823529411767,197.07363915163367
0.3428452148437499,0.0556201171875,0.3125537109375,0.467253957712517,1.64794921875,-1.90869140625,3.1259765625,29.23588235294118,197.07363915163367
0.3833725585937499,0.0756396484375,0.2998583984375,0.4925555138377494,1.51708984375,-3.23095703125,2.9130859375,29.33,197.07363915163367
0.4107163085937499,0.0863818359375,0.2861865234375,0.5079886159374563,1.50927734375,-4.4833984375,2.8203125,29.188823529411767,197.07363915163367
0.4473374023437499,0.0805224609375,0.3232958984375,0.5577767081884969,1.60400390625,-6.14013671875,2.72265625,29.28294117647059,197.07363915163367
0.50104833984375,0.0551318359375,0.3203662109375,0.5972633148825299,1.64306640625,-8.3837890625,2.57763671875,29.23588235294118,197.07363915163367
0.53766943359375,0.0380419921875,0.3350146484375,0.6346419680877711,1.65380859375,-10.7255859375,2.28515625,29.23588235294118,197.07363915163367
0.56013037109375,-0.1040478515625,0.3525927734375,0.6699952626076862,1.7548828125,-12.31640625,2.24462890625,29.28294117647059,197.07363915163367
0.52643896484375,0.0731982421875,0.4194873046875,0.6771008530190185,2.20263671875,-14.28125,2.83740234375,29.141764705882352,197.1601917754965
0.56891943359375,0.1117724609375,0.4702685546875,0.7465352761072503,2.55810546875,16.0,3.54248046875,29.141764705882352,197.1601917754965
0.58259130859375,0.1278857421875,0.5156787109375001,0.7884744313026183,2.66796875,16.0,4.50732421875,29.23588235294118,197.1601917754965
0.64899755859375,0.0253466796875,0.5532763671875001,0.8532028033943783,2.822265625,16.0,5.2744140625,29.141764705882352,197.1601917754965
0.69391943359375,0.1606005859375,0.5859912109375001,0.9223353120305744,2.94921875,16.0,5.4111328125,29.33,197.1601917754965
0.76227880859375,0.1855029296875,0.6274951171875001,1.0046046192646672,3.27978515625,16.0,5.24560546875,29.23588235294118,197.1601917754965
0.79206396484375,0.1962451171875,0.6436083984375001,1.039283041795266,3.60693359375,16.0,4.5732421875,29.33,197.1601917754965
0.86237646484375,0.1967333984375,0.6724169921875001,1.1110993693453597,3.7958984375,16.0,3.97216796875,29.23588235294118,197.1601917754965
0.95026708984375,0.1879443359375,0.6484912109375001,1.1657064236394523,3.6845703125,16.0,3.25634765625,29.28294117647059,197.1601917754965
0.83454443359375,0.2187060546875,0.6523974609375001,1.081628030811416,3.70166015625,16.0,2.8798828125,29.23588235294118,197.0546525552298
0.77009130859375,0.1938037109375,0.6118701171875001,1.0024896718928455,3.47802734375,-13.44189453125,2.759765625,29.23588235294118,197.0546525552298
0.83112646484375,0.1918505859375,0.5864794921875001,1.0351502512412094,3.3564453125,-9.06884765625,2.8779296875,29.188823529411767,197.0546525552298
0.60895849609375,0.1996630859375,0.5264208984375001,0.8293459833884722,3.224609375,-4.6708984375,3.43310546875,29.23588235294118,197.0546525552298
0.55573583984375,0.1610888671875,0.4766162109375,0.7496365515014657,3.07421875,-0.6875,3.728515625,29.23588235294118,197.0546525552298
0.4614975585937499,0.1635302734375,0.4150927734375,0.6418910791392656,3.0126953125,2.9091796875,4.017578125,29.23588235294118,197.0546525552298
0.4224350585937499,0.1347216796875,0.3481982421875,0.5637759533444037,3.02880859375,6.41064453125,4.4189453125,29.188823529411767,197.0546525552298
0.4326889648437499,0.1313037109375,0.2808154296875,0.5322759719864215,3.13671875,8.517578125,4.462890625,29.23588235294118,197.08464756163272
0.50348974609375,0.1386279296875,0.2417529296875,0.5754685971653715,3.37158203125,10.15625,3.7861328125,29.188823529411767,197.08464756163272
0.60749365234375,0.1303271484375,0.2202685546875,0.659205536568011,3.392578125,11.1875,2.76513671875,29.141764705882352,197.08464756163272
0.66218115234375,0.1601123046875,0.2339404296875,0.7203110114901837,3.44091796875,10.65283203125,2.2373046875,29.141764705882352,197.08464756163272
0.74518896484375,0.2133349609375,0.2271044921875,0.8077096317705061,3.3017578125,8.927734375,2.22265625,29.23588235294118,197.08464756163272
0.88093115234375,0.2470263671875,0.2852099609375,0.958335245659634,3.27001953125,5.345703125,2.2333984375,29.188823529411767,197.08464756163272
1.06110693359375,0.2348193359375,0.2647021484375,1.1185505229708168,3.03759765625,-0.18115234375,1.8662109375,29.23588235294118,197.08464756163272
1.20368505859375,0.2660693359375,0.2915576171875,1.2667503526536372,3.0849609375,-5.66943359375,1.2939453125,29.23588235294118,197.07061047739725
1.26130224609375,0.2802294921875,0.2490771484375,1.3158462486805056,3.02392578125,-9.47119140625,0.7490234375,29.28294117647059,197.07061047739725
1.33796240234375,0.3119677734375,0.2739794921875,1.4009040095196852,3.3564453125,-13.13916015625,0.03564453125,29.188823529411767,197.07061047739725
1.33649755859375,0.3290576171875,0.2554248046875,1.3999094507880918,3.55078125,16.0,-0.2392578125,29.23588235294118,197.07061047739725
1.34186865234375,0.4335498046875,0.2866748046875,1.4390133275720616,3.9677734375,16.0,0.08154296875,29.28294117647059,197.07061047739725
1.32770849609375,0.4179248046875,0.3071826171875,1.4254234996220507,4.2763671875,16.0,0.6748046875,29.141764705882352,197.07061047739725
1.31647802734375,0.3656787109375,0.2832568359375,1.3953744125564032,4.451171875,16.0,0.955078125,29.23588235294118,197.07061047739725
1.25934912109375,0.3334521484375,0.2734912109375,1.331145366425938,4.2314453125,16.0,0.8232421875,29.23588235294118,196.88801227695825
1.18610693359375,0.3637255859375,0.1787646484375,1.253436380242623,3.869140625,16.0,0.66015625,29.141764705882352,196.88801227695825
1.11677099609375,0.2758349609375,0.3120654296875,1.1919090635604976,3.6279296875,16.0,0.21728515625,29.23588235294118,196.88801227695825
1.00593115234375,0.1444873046875,0.2969287109375,1.05874488138101,3.15869140625,16.0,-0.47705078125,29.141764705882352,196.88801227695825
0.93757177734375,0.1220263671875,0.3672412109375,1.0142964946066502,3.322265625,16.0,-0.654296875,29.23588235294118,196.88801227695825
0.54645849609375,0.1298388671875,0.3589404296875,0.6665682646584845,3.95263671875,16.0,-0.2880859375,29.23588235294118,196.88801227695825
0.3042709960937499,0.0819873046875,0.2710498046875,0.4156570146345851,4.10009765625,-15.66748046875,0.1083984375,29.141764705882352,196.88801227695825
0.21638037109375,0.0326708984375,0.2310107421875,0.3182040471229145,3.87158203125,-10.53125,-0.16455078125,29.33,197.01405588252925
0.2632553710937499,0.0839404296875,0.2769091796875,0.3911880365515213,4.33056640625,-6.59521484375,-0.81494140625,29.23588235294118,197.01405588252925
0.3545639648437499,0.1024951171875,0.2402880859375,0.4404080136152233,4.90966796875,-2.49755859375,-2.23681640625,29.23588235294118,197.01405588252925
0.4444077148437499,0.1327685546875,0.2080615234375,0.5083456537254792,6.2568359375,2.29736328125,-3.796875,29.141764705882352,197.01405588252925
0.65583349609375,0.0385302734375,0.1113818359375,0.6663393054191892,6.9189453125,6.45068359375,-4.990234375,29.188823529411767,197.01405588252925
0.79108740234375,-0.0151806640625,0.0269091796875,0.7916904917073431,6.212890625,9.84716796875,-4.271484375,29.28294117647059,197.01405588252925
1.00934912109375,0.0175341796875,0.0649951171875,1.0115915484859763,5.39453125,10.70263671875,-1.93994140625,29.23588235294118,197.01405588252925
1.24274755859375,0.0727099609375,0.2300341796875,1.2659478490975684,5.310546875,10.02294921875,1.81201171875,29.141764705882352,196.426777710301
1.42878271484375,0.0902880859375,0.1465380859375,1.439112711127506,4.80126953125,9.56494140625,5.32958984375,29.28294117647059,196.426777710301
1.66950537109375,0.0707568359375,0.1050341796875,1.6743019120951252,3.60107421875,8.57958984375,7.86962890625,29.28294117647059,196.426777710301
1.93708349609375,0.0141162109375,0.1318896484375,1.9416195862256287,1.9326171875,6.87890625,8.04248046875,29.188823529411767,196.426777710301
1.88093115234375,0.093828125,0.1178515625,2.126286500811977,1.85546875,6.376953125,5.83935546875,29.141764705882352,196.426777710301
1.82477880859375,0.1735400390625,0.1038134765625,2.147863813332009,2.55908203125,6.83203125,2.2060546875,29.141764705882352,196.426777710301
1.76862646484375,0.253251953125,0.089775390625,1.99686060617056,3.27587890625,6.87158203125,-0.8564453125,29.188823529411767,196.426777710301
1.71247412109375,0.3329638671875,0.0757373046875,1.7461869005320116,3.32861328125,5.65625,-1.322265625,29.188823529411767,196.716423974682
1.47321630859375,0.4257373046875,0.0850146484375,1.5358535200200976,2.71044921875,2.41259765625,-0.009765625,29.23588235294118,196.716423974682
1.50153662109375,0.3075732421875,0.1611865234375,1.5411666422334849,2.24609375,-2.30029296875,0.93115234375,29.188823529411767,196.716423974682
1.84284521484375,-0.0478955078125,0.2808154296875,1.86473316350938,1.47119140625,-8.5439453125,0.78466796875,29.23588235294118,196.716423974682
2.08845068359375,-0.0698681640625,0.2954638671875,2.11040439607343,2.2529296875,-9.1943359375,2.76318359375,29.188823529411767,196.716423974682
2.01130224609375,-0.0024853515625,0.2334521484375,2.0248068568938216,7.02099609375,2.40087890625,8.126953125,29.141764705882352,196.716423974682
2.14020849609375,0.0268115234375,0.4028857421875,2.177964229687642,14.98779296875,15.99951171875,14.33544921875,29.23588235294118,196.57483265556124
2.74079443359375,-0.1421337890625,0.5493701171875001,2.798921875806889,15.99951171875,15.73193359375,15.99951171875,29.23588235294118,196.57483265556124
3.03132177734375,-0.1870556640625,0.0029833984375,3.03708913927836,11.86962890625,6.31103515625,14.7890625,29.141764705882352,196.57483265556124
3.09528662109375,-0.0659619140625,-0.2099072265624999,3.103097047240372,0.5078125,-5.98291015625,13.10986328125,29.141764705882352,196.57483265556124
3.10700537109375,0.1381396484375,0.2134326171875,3.117389680574976,-7.4228515625,16.0,9.6064453125,29.23588235294118,196.57483265556124
2.85358740234375,0.4286669921875,1.0127490234375005,3.058165632773941,-5.94287109375,16.0,2.7568359375,29.23588235294118,196.57483265556124
2.46638037109375,0.4423388671875,0.9751513671875,2.68879452492542,-2.7958984375,16.0,-4.9970703125,29.28294117647059,196.57483265556124
1.84772802734375,0.4711474609375,0.8062060546875001,2.070277033537846,-1.56640625,16.0,-9.15478515625,29.23588235294118,196.57483265556124
0.76960302734375,0.2714404296875,0.3140185546875,0.8744005828301042,-2.296875,16.0,-11.0380859375,29.33,196.69440763045844
0.51667333984375,-0.2305126953125,0.0381396484375,0.5670468019383098,-4.47021484375,-1.13330078125,-14.01318359375,29.188823529411767,196.69440763045844
0.4522202148437499,-0.3047314453125,0.2529833984375,0.6011364041218594,-5.26611328125,14.49951171875,-14.40966796875,29.23588235294118,196.69440763045844
0.14802099609375,-0.2759228515625,0.3467333984375,0.4671912722761262,-4.423828125,15.99951171875,-10.1572265625,29.33,196.69440763045844
-0.06779931640625,-0.3203564453125,0.3193896484375,0.4574218478466518,-3.17041015625,15.99951171875,-4.4990234375,29.188823529411767,196.69440763045844
0.16706396484375,-0.4102001953125,0.3252490234375,0.5495102326897784,-1.84521484375,15.99951171875,-0.7216796875,29.23588235294118,196.69440763045844
0.3423569335937499,-0.3564892578125,0.4439013671875,0.6643352201308871,0.3779296875,15.99951171875,1.2080078125,29.28294117647059,196.69440763045844
0.72809912109375,-0.1826611328125,0.6411669921875001,0.987212505719312,4.146484375,15.99951171875,1.83642578125,29.23588235294118,196.69440763045844
1.56110693359375,-0.0508251953125,0.7939990234375001,1.7521622378686108,8.65087890625,15.99951171875,2.232421875,29.23588235294118,196.69440763045844
2.17145849609375,-0.0552197265625,0.6333544921875001,2.262613341080056,11.06689453125,15.99951171875,2.84326171875,29.23588235294118,196.38083350285936
2.44343115234375,-0.2017041015625,0.4146044921875,2.4865512714949385,10.34375,15.99951171875,3.3447265625,29.23588235294118,196.38083350285936
2.40095068359375,-0.2983837890625,-0.0536572265624999,2.420015737260188,6.97119140625,10.5341796875,3.96875,29.188823529411767,196.38083350285936
2.05671240234375,-0.3208447265625,-0.0819775390624999,2.083201277224145,3.5419921875,-1.568359375,4.7197265625,29.28294117647059,196.38083350285936
1.63239599609375,-0.2969189453125,-0.1981884765624999,1.6709746318812138,1.4833984375,-11.47412109375,5.31591796875,29.23588235294118,196.38083350285936
1.45270849609375,-0.2241650390625,-0.0824658203124999,1.4722134868559895,0.578125,16.0,5.7421875,29.23588235294118,196.38083350285936
1.11188818359375,-0.1304150390625,0.0923388671875,1.1233120143675812,0.27099609375,16.0,5.8076171875,29.28294117647059,196.38083350285936
0.92585302734375,-0.0317822265625,0.2105029296875,0.950013379681506,0.111328125,16.0,5.53076171875,29.188823529411767,196.38083350285936
0.85407568359375,0.0780810546875,0.3672412109375,0.9329566074679384,-0.17333984375,16.0,4.77978515625,29.23588235294118,196.38083350285936
0.97516943359375,0.1557177734375,0.4585498046875,1.0887935399141713,-0.5595703125,16.0,3.12548828125,29.23588235294118,196.1792625237068
0.96784521484375,0.1542529296875,0.4287646484375,1.0697464419024043,-1.08251953125,16.0,0.63427734375,29.28294117647059,196.1792625237068
1.08503271484375,0.1503466796875,0.4072802734375,1.168664766947981,-1.5673828125,16.0,-1.857421875,29.23588235294118,196.1792625237068
1.17145849609375,0.1947802734375,0.3965380859375,1.2519971312225897,-1.71044921875,16.0,-2.23291015625,29.188823529411767,196.1792625237068
0.83259130859375,0.2602099609375,0.5098193359375001,1.0103629378657462,-0.3984375,16.0,0.82763671875,29.23588235294118,196.1792625237068
0.57770849609375,0.2182177734375,0.4868701171875,0.7863896070734229,1.34228515625,-8.91845703125,4.6748046875,29.377058823529413,196.1792625237068
0.3106186523437499,0.1093310546875,0.4404833984375,0.5499662271467021,1.9052734375,4.96142578125,6.65087890625,29.188823529411767,196.1792625237068
0.15534521484375,0.0409716796875,0.3350146484375,0.371544921885588,1.33984375,15.99951171875,6.44482421875,29.141764705882352,196.1792625237068
0.2559311523437499,0.1059130859375,0.3647998046875,0.4580362802364482,1.328125,15.99951171875,4.4208984375,29.23588235294118,196.40285036008552
0.4238999023437499,0.1015185546875,0.3599169921875,0.5652763796747363,1.85107421875,15.99951171875,2.52294921875,29.377058823529413,196.40285036008552
0.61237646484375,0.0341357421875,0.4004443359375,0.7324792486983132,2.89111328125,15.99951171875,0.41162109375,29.23588235294118,196.40285036008552
0.89167333984375,-0.0561962890625,0.3750537109375,0.9689709252503368,3.9677734375,15.99951171875,-1.03369140625,29.141764705882352,196.40285036008552
1.14020849609375,-0.1411572265625,0.2842333984375,1.1835494928233965,3.833984375,15.99951171875,-0.873046875,29.28294117647059,196.40285036008552
1.33600927734375,-0.1728955078125,0.1968310546875,1.3614536752529278,2.44287109375,15.99951171875,0.95361328125,29.23588235294118,196.40285036008552
1.47272802734375,-0.1836376953125,0.1304248046875,1.4898527696860762,0.740234375,15.99951171875,3.22998046875,29.28294117647059,196.40285036008552
1.52839208984375,-0.1689892578125,0.0889208984375,1.5402748701877524,-0.53271484375,15.99951171875,4.9755859375,29.23588235294118,196.40285036008552
1.44587255859375,-0.1387158203125,0.0181201171875,1.452624477676972,-0.95947265625,13.7705078125,5.48388671875,29.33,196.5884776150894
1.32575537109375,-0.1748486328125,-0.0331494140624999,1.3376465273131817,-0.87451171875,10.7978515625,4.70166015625,29.188823529411767,196.5884776150894
1.27106787109375,-0.2241650390625,-0.0204541015624999,1.2908454082249428,-0.2236328125,6.8447265625,2.18505859375,29.33,196.5884776150894
1.28571630859375,-0.1899853515625,0.0425341796875,1.3003730297241458,0.6279296875,1.44482421875,-1.36767578125,29.188823529411767,196.5884776150894
1.38093115234375,-0.0425244140625,0.1631396484375,1.3911842862098132,1.37939453125,-4.951171875,-3.86083984375,29.23588235294118,196.5884776150894
1.52302099609375,0.0922412109375,0.2827685546875,1.5517923350299396,1.9619140625,-12.51318359375,-5.5693359375,29.141764705882352,196.5884776150894
1.67536474609375,0.1430224609375,0.4126513671875,1.7313531146557328,1.85693359375,16.0,-6.90869140625,29.23588235294118,196.5884776150894
1.76276708984375,0.1479052734375,0.2207568359375,1.7826826311937751,1.53662109375,16.0,-7.9267578125,29.28294117647059,196.5884776150894
1.78669287109375,0.0351123046875,0.0732958984375,1.788540348520395,0.75927734375,16.0,-8.50244140625,29.33,196.5884776150894
1.75690771484375,-0.0005322265624999,0.0317919921875,1.7571954167109165,0.14404296875,-11.75341796875,-7.857421875,29.28294117647059,196.7350104371777
1.64313818359375,-0.2720166015625,0.0898974609375,1.6679261600539723,0.2802734375,-6.21630859375,-5.63427734375,29.188823529411767,196.7350104371777
1.45954443359375,-0.4111767578125,0.1348193359375,1.5223378511822954,0.634765625,-1.48486328125,-1.703125,29.23588235294118,196.7350104371777
1.31598974609375,-0.4414501953125,0.1406787109375,1.395169447227244,0.8583984375,2.2158203125,2.9130859375,29.23588235294118,196.7350104371777
1.05622412109375,-0.3994580078125,0.1821826171875,1.1438385375528677,0.76953125,3.6572265625,7.275390625,29.28294117647059,196.7350104371777
0.83503271484375,-0.3076611328125,0.2690966796875,0.9297031948539444,1.1162109375,3.671875,9.82958984375,29.188823529411767,196.7350104371777
0.77888037109375,-0.1435986328125,0.2749560546875,0.8383770224845576,1.74755859375,2.9814453125,10.22412109375,29.28294117647059,196.7350104371777
0.79450537109375,0.0546435546875,0.2817919921875,0.8447670860223564,2.26123046875,1.19921875,8.02783203125,29.09470588235294,196.7350104371777
0.91804052734375,0.2274951171875,0.2964404296875,0.9911757495737346,2.7578125,-1.98583984375,3.853515625,29.188823529411767,196.5869597548909
1.08014990234375,0.2939013671875,0.2739794921875,1.152461100127555,2.55078125,-6.09619140625,-1.80517578125,29.28294117647059,196.5869597548909
1.16511083984375,0.2294482421875,0.2896044921875,1.2222931427687558,1.82373046875,-10.42041015625,-6.71240234375,29.23588235294118,196.5869597548909
1.20466162109375,0.0771044921875,0.2949755859375,1.2426444867100506,1.19482421875,-12.90625,-8.88818359375,29.28294117647059,196.5869597548909
0.95905615234375,-0.0674267578125,0.3057177734375,1.0088599645208876,0.84423828125,-13.21533203125,-8.42529296875,29.28294117647059,196.5869597548909
0.86579443359375,-0.1621533203125,0.3296435546875,0.9405097414047882,1.076171875,-11.48681640625,-5.31591796875,29.23588235294118,196.5869597548909
0.89606787109375,-0.2080517578125,0.3311083984375,0.9776788506719384,1.513671875,-7.96875,-1.291015625,29.28294117647059,196.5869597548909
1.02057958984375,-0.1143017578125,0.2979052734375,1.0692965645631411,2.06591796875,-2.9326171875,2.134765625,29.23588235294118,196.47839212004968
1.09040380859375,-0.2314892578125,0.2383349609375,1.1398996867634523,2.05419921875,2.4033203125,3.52783203125,29.188823529411767,196.47839212004968
1.04792333984375,-0.1758251953125,0.2236865234375,1.0858607121834336,1.96923828125,8.60888671875,3.6982421875,29.188823529411767,196.47839212004968
0.93806005859375,-0.1201611328125,0.2319873046875,0.973762538252455,2.02294921875,14.30908203125,2.76025390625,29.141764705882352,196.47839212004968
0.57575537109375,-0.0654736328125,0.1372607421875,0.5955010959543493,2.81591796875,15.99951171875,0.70263671875,29.188823529411767,196.3618520267618
0.61335302734375,-0.0698681640625,0.1318896484375,0.6312514363280092,2.65234375,15.99951171875,0.9150390625,29.28294117647059,196.3618520267618
0.75300146484375,-0.0537548828125,0.1592333984375,0.7715283978318455,2.22265625,15.99951171875,1.73779296875,29.23588235294118,196.3618520267618
0.84772802734375,-0.0522900390625,0.1699755859375,0.8661805564338649,1.27294921875,15.99951171875,2.68310546875,29.28294117647059,196.3618520267618
1.08259130859375,-0.1211376953125,0.0947802734375,1.093463114559078,-0.21044921875,15.99951171875,3.4755859375,29.28294117647059,196.3618520267618
1.36286474609375,-0.1943798828125,0.1689990234375,1.3869911769402905,-2.060546875,13.673828125,3.32958984375,29.23588235294118,196.3618520267618
1.79792333984375,-0.1992626953125,0.3672412109375,1.8458331627503468,-2.740234375,4.419921875,2.13134765625,29.23588235294118,196.3618520267618
2.09577490234375,-0.1558056640625,0.5762255859375001,2.1791245425943253,-0.5986328125,-9.63037109375,-0.50048828125,29.23588235294118,196.3618520267618
2.46833349609375,-0.0464306640625,0.9692919921875,2.6522354760885185,3.9189453125,16.0,-2.99462890625,29.188823529411767,196.50383486025208
2.27546240234375,-0.0073681640625,0.9077685546875,2.449862686601246,6.26025390625,16.0,-3.001953125,29.188823529411767,196.50383486025208
1.83405615234375,-0.0073681640625,0.5327685546875001,1.909884444843567,6.35107421875,16.0,-1.74853515625,29.28294117647059,196.50383486025208
1.58991552734375,0.0023974609375,0.4966357421875,1.665678297969278,5.392578125,16.0,0.53662109375,29.23588235294118,196.50383486025208
1.53278662109375,0.0292529296875,0.7671435546875001,1.7142927968109387,4.814453125,16.0,2.01513671875,29.141764705882352,196.50383486025208
1.60456396484375,-0.0225048828125,0.8208544921875001,1.8024799816835408,2.7685546875,16.0,-0.34814453125,29.188823529411767,196.50383486025208
1.52057958984375,0.1513232421875,0.9048388671875,1.775892561009444,0.18359375,16.0,-5.66552734375,29.23588235294118,196.50383486025208
1.44880224609375,0.4140185546875,1.1289599609375005,1.8828143576337588,0.7724609375,16.0,-8.97216796875,29.23588235294118,196.50383486025208
1.05671240234375,0.4379443359375,1.0864794921875005,1.5776165660865906,2.65625,-13.9873046875,-8.7724609375,29.188823529411767,196.49737481041305
0.76325537109375,0.1571826171875,0.7710498046875001,1.0962586090690472,2.18994140625,-2.6376953125,-7.28857421875,29.28294117647059,196.49737481041305
0.4815170898437499,-0.0439892578125,0.5991748046875001,0.7699377956606576,0.03955078125,9.7978515625,-5.34228515625,29.23588235294118,196.49737481041305
0.3076889648437499,-0.1343212890625,0.6377490234375001,0.720720836855377,-2.22998046875,15.99951171875,-3.3408203125,29.28294117647059,196.49737481041305
0.15241552734375,-0.1167431640625,0.7163623046875001,0.7416430481761316,-3.56396484375,15.99951171875,-1.15234375,29.23588235294118,196.49737481041305
0.12263037109375,-0.1030712890625,0.7188037109375001,0.736437827247567,-4.109375,15.99951171875,0.80810546875,29.188823529411767,196.49737481041305
0.11823583984375,-0.1460400390625,0.6035693359375001,0.6321418749908665,-4.9365234375,15.99951171875,2.4638671875,29.188823529411767,196.49737481041305
0.22761083984375,-0.2002392578125,0.5151904296875001,0.5977655339890959,-6.4970703125,15.99951171875,3.25048828125,29.23588235294118,196.49737481041305
0.2871811523437499,-0.1743603515625,0.5361865234375001,0.632748397370136,-7.28369140625,15.99951171875,3.58349609375,29.33,196.49737481041305
0.3355209960937499,-0.0688916015625,0.5034716796875001,0.6089368800072312,-7.33349609375,15.99951171875,2.79541015625,29.23588235294118,196.6074593541299
0.4717514648437499,0.0424365234375,0.4072802734375,0.6246819384574923,-7.30419921875,15.99951171875,2.21533203125,29.23588235294118,196.6074593541299
0.79401708984375,0.0966357421875,0.2705615234375,0.8443963190332414,-7.69580078125,15.99951171875,1.01025390625,29.28294117647059,196.6074593541299
1.10261083984375,0.1078662109375,0.2588427734375,1.1377105804921437,-8.24072265625,15.99951171875,-1.2529296875,29.23588235294118,196.6074593541299
1.70270849609375,0.1791552734375,0.3438037109375,1.7462857229917164,-7.94677734375,15.99951171875,-4.30224609375,29.33,196.6074593541299
1.93171240234375,0.3012255859375,0.3555224609375,1.987119996181184,-6.6220703125,15.033203125,-6.353515625,29.23588235294118,196.6074593541299
1.87897802734375,0.4086474609375,0.3809130859375,1.960266806740783,-4.80126953125,3.53173828125,-5.56640625,29.188823529411767,196.6074593541299
1.65095068359375,0.4140185546875,0.3623583984375,1.7402164038424608,-3.43896484375,-9.5791015625,-2.32275390625,29.23588235294118,196.6074593541299
1.45807958984375,0.3456591796875,0.3560107421875,1.5402012879406537,-2.958984375,16.0,1.28955078125,29.28294117647059,196.6074593541299
1.41315771484375,0.2401904296875,0.4736865234375,1.5096639003507306,-2.66943359375,16.0,3.43017578125,29.188823529411767,196.6719932779327
1.46491552734375,0.1566943359375,0.6133349609375001,1.5958415934784742,-2.61376953125,16.0,3.0380859375,29.28294117647059,196.6719932779327
1.56403662109375,0.1811083984375,0.7656787109375001,1.7507925897975072,-2.330078125,16.0,1.0546875,29.141764705882352,196.6719932779327
1.68610693359375,0.2563037109375,0.8106005859375001,1.8883118105004453,-2.25439453125,16.0,-2.125,29.28294117647059,196.6719932779327
1.75300146484375,0.2382373046875,0.7441943359375001,1.919269746213532,-2.8076171875,16.0,-5.76708984375,29.188823529411767,196.6719932779327
1.76423193359375,0.2250537109375,0.7432177734375001,1.9275726048769413,-3.03125,16.0,-9.162109375,29.33,196.6719932779327
1.75837255859375,0.2548388671875,0.8726123046875001,1.9794618302298657,-2.7255859375,16.0,-10.83349609375,29.33,196.6719932779327
1.47419287109375,-0.0356884765625,0.9136279296875,1.73471446712364,-2.15087890625,16.0,-10.6865234375,29.09470588235294,196.6719932779327
1.14069677734375,-0.2510205078125,0.8735888671875001,1.4585465169334852,-2.27685546875,-11.9267578125,-8.4443359375,29.23588235294118,196.6719932779327
0.76325537109375,-0.6592236328125,0.8076708984375001,1.2920784959687266,-2.40087890625,3.56787109375,-5.52294921875,29.28294117647059,196.5114176211605
0.51179052734375,-0.8237744140625,0.7598193359375001,1.232014306900416,-2.0732421875,15.99951171875,-1.76123046875,29.23588235294118,196.5114176211605
0.3413803710937499,-0.6982861328125,0.7300341796875001,1.066346090422028,-1.41015625,15.99951171875,3.85546875,29.23588235294118,196.5114176211605
0.3574936523437499,-0.5879345703125,0.7144091796875001,0.9918917513803532,-0.8759765625,15.99951171875,8.46142578125,29.141764705882352,196.5114176211605
0.65388037109375,-0.3110791015625,0.7285693359375001,1.027201550037305,-0.44873046875,15.99951171875,11.443359375,29.28294117647059,196.5114176211605
1.09235693359375,-0.0703564453125,0.7886279296875001,1.3491210884314808,0.47509765625,15.99951171875,10.30322265625,29.23588235294118,196.5114176211605
1.68024755859375,0.2079638671875,0.7827685546875001,1.865263369721122,2.08251953125,15.99951171875,4.60498046875,29.28294117647059,196.5114176211605
1.63386083984375,0.2335172526041666,0.5755745442708334,2.1235491490606093,3.89990234375,15.99951171875,-1.60205078125,29.28294117647059,196.5114176211605
1.58747412109375,0.2590706380208333,0.3683805338541667,1.914766243980968,4.6923828125,15.99951171875,-5.1845703125,29.188823529411767,196.52546244593776
1.54108740234375,0.2846240234375,0.1611865234375,1.575418138691511,4.255859375,13.29443359375,-4.99658203125,29.424117647058825,196.52546244593776
1.18366552734375,0.0683154296875,0.1763232421875,1.198674669912924,3.8544921875,2.65966796875,-2.41845703125,29.28294117647059,196.52546244593776
0.94733740234375,-0.1421337890625,0.2695849609375,0.995151354838218,4.1611328125,-8.3583984375,-0.20068359375,29.188823529411767,196.52546244593776
0.98395849609375,-0.1728955078125,0.2959521484375,1.0419476247977095,4.51123046875,16.0,0.79931640625,29.188823529411767,196.52546244593776
1.16266943359375,-0.1572705078125,0.3345263671875,1.2200172600354795,4.291015625,16.0,-0.126953125,29.188823529411767,196.52546244593776
1.38190771484375,-0.1294384765625,0.4038623046875,1.4455199800442038,3.79296875,16.0,-2.3369140625,29.33,196.52546244593776
1.49714208984375,-0.1074658203125,0.4932177734375,1.5799516169021743,3.30126953125,16.0,-4.85791015625,29.23588235294118,196.52546244593776
1.50397802734375,-0.0986767578125,0.5732958984375001,1.612561687635684,2.96337890625,16.0,-6.52587890625,29.23588235294118,196.63251220617235
1.38190771484375,-0.1343212890625,0.6123583984375001,1.517462997630264,2.84375,16.0,-6.49169921875,29.23588235294118,196.63251220617235
1.17682958984375,-0.1948681640625,0.6367724609375001,1.3521762651020386,2.8779296875,16.0,-4.61474609375,29.28294117647059,196.63251220617235
0.86628271484375,-0.3193798828125,0.6392138671875001,1.1229619849252168,2.75244140625,16.0,-2.63818359375,29.23588235294118,196.63251220617235
0.71491552734375,-0.3813916015625,0.6807177734375001,1.0582723902915112,2.34912109375,-8.75146484375,-1.33642578125,29.33,196.63251220617235
0.65729833984375,-0.3623486328125,0.7539599609375001,1.0638577263710192,2.13720703125,0.25244140625,-0.54638671875,29.188823529411767,196.63251220617235
0.71784521484375,-0.3281689453125,0.7544482421875001,1.0918739667568766,2.05810546875,7.919921875,-0.8505859375,29.28294117647059,196.63251220617235
0.71589208984375,-0.2856884765625,0.6787646484375001,1.0270544473930956,1.9990234375,15.47119140625,-1.00244140625,29.188823529411767,196.63251220617235
0.72077490234375,-0.3027783203125,0.5879443359375001,0.978197175042378,1.56884765625,15.99951171875,-1.09326171875,29.188823529411767,196.63251220617235
0.70856787109375,-0.3008251953125,0.5298388671875001,0.9345017128200817,1.48388671875,15.99951171875,-0.0234375,29.23588235294118,196.2073569385188
0.71833349609375,-0.3013134765625,0.4673388671875,0.9084043370397048,1.49169921875,15.99951171875,1.14599609375,29.188823529411767,196.2073569385188
0.70319677734375,-0.3603955078125,0.4390185546875,0.9039402198585738,1.66748046875,15.99951171875,2.6552734375,29.09470588235294,196.2073569385188
0.72272802734375,-0.1094189453125,0.5513232421875001,0.9155684706659708,2.095703125,15.99951171875,4.21875,29.28294117647059,196.2073569385188
0.82966162109375,0.0268115234375,0.4009326171875,0.921848266706494,2.43017578125,15.99951171875,4.98828125,29.188823529411767,196.2073569385188
0.98005224609375,0.1239794921875,0.3618701171875,1.0520567005963937,2.3427734375,15.99951171875,4.4697265625,29.23588235294118,196.2073569385188
1.36628271484375,0.1991748046875,0.3355029296875,1.4209015713736146,1.6767578125,15.99951171875,2.79052734375,29.23588235294118,196.2073569385188
1.47516943359375,0.2616748046875,0.2681201171875,1.5220009718979108,0.666015625,15.541015625,0.74267578125,29.188823529411767,196.2073569385188
1.40046240234375,0.2436083984375,0.1987841796875,1.435324054791023,-0.9404296875,8.41259765625,-1.91455078125,29.188823529411767,196.50496383921453
1.34479833984375,0.1444873046875,0.2534716796875,1.376083954003522,-2.056640625,1.46875,-4.4921875,29.28294117647059,196.50496383921453
1.12604833984375,0.1220263671875,0.3208544921875,1.1772097957079457,-2.7294921875,-7.22998046875,-5.47998046875,29.23588235294118,196.50496383921453
0.92585302734375,0.1015185546875,0.4824755859375,1.048948300066862,-3.0048828125,16.0,-4.84130859375,29.28294117647059,196.50496383921453
0.83845068359375,0.0150927734375,0.4380419921875,0.9461015418803926,-2.98193359375,16.0,-4.10546875,29.23588235294118,196.50496383921453
0.82282568359375,-0.1309033203125,0.5298388671875001,0.9873737944835748,-3.1416015625,16.0,-3.9111328125,29.23588235294118,196.50496383921453
0.77399755859375,-0.2007275390625,0.5703662109375001,0.9821819486359816,-2.90185546875,16.0,-3.85107421875,29.188823529411767,196.50496383921453
0.66804052734375,-0.2500439453125,0.6797412109375001,0.9853163119566908,-1.84130859375,16.0,-2.88525390625,29.188823529411767,196.50496383921453
0.83259130859375,-0.2446728515625,0.8228076171875001,1.195861809047914,-0.17822265625,16.0,-2.1005859375,29.28294117647059,196.50496383921453
1.04841162109375,-0.2017041015625,0.8062060546875001,1.337841423505172,1.02685546875,16.0,-0.994140625,29.23588235294118,196.46092918269224
1.18903662109375,-0.2017041015625,0.9814990234375,1.5549382508311844,1.57275390625,-13.94873046875,0.01025390625,29.188823529411767,196.46092918269224
1.16755224609375,-0.1977978515625,1.0396044921875005,1.575779089091403,1.40625,-9.56787109375,1.00634765625,29.141764705882352,196.46092918269224
1.01227880859375,-0.2910595703125,1.2158740234375005,1.6086558676946956,1.4375,-2.71630859375,1.65234375,29.23588235294118,196.46092918269224
0.95563818359375,-0.3013134765625,1.4219287109375005,1.7395158545092146,2.83154296875,3.3984375,1.435546875,29.28294117647059,196.46092918269224
1.09528662109375,-0.3071728515625,1.4531787109375005,1.8454637111051453,4.861328125,7.16943359375,0.65234375,29.28294117647059,196.46092918269224
1.19391943359375,-0.3003369140625,1.2661669921875005,1.7660194585469742,5.8720703125,9.724609375,-0.36962890625,29.28294117647059,196.46092918269224
1.03815771484375,-0.0815869140625,0.9766162109375,1.4276579033163923,5.2548828125,13.2529296875,0.8515625,29.28294117647059,196.46092918269224
0.67878271484375,0.1029833984375,0.7490771484375001,1.016104388650913,3.94189453125,15.99951171875,4.5693359375,29.28294117647059,196.7300721962561
0.2925522460937499,0.1186083984375,0.6064990234375001,0.6837366702942355,1.96826171875,15.99951171875,7.2724609375,29.23588235294118,196.7300721962561
0.19489599609375,0.1151904296875,0.5430224609375001,0.5883253160179194,-0.52294921875,15.99951171875,7.39599609375,29.09470588235294,196.7300721962561
0.19245458984375,0.0976123046875,0.2466357421875,0.3277134731784922,-2.8330078125,15.99951171875,4.32568359375,29.28294117647059,196.7300721962561
0.3047592773437499,0.1820849609375,0.2568896484375,0.4382070761649542,-3.2158203125,15.99951171875,-0.41259765625,29.23588235294118,196.7300721962561
0.4429428710937499,0.3979052734375,0.4385302734375,0.7394834645908688,-0.90771484375,15.99951171875,-3.4287109375,29.188823529411767,196.7300721962561
0.78278662109375,0.4457568359375,0.5508349609375001,1.055875563283571,1.1806640625,15.99951171875,-4.01806640625,29.28294117647059,196.7300721962561
1.40339208984375,0.3183154296875,0.5259326171875001,1.5321354993716576,1.0205078125,15.99951171875,-3.4375,29.23588235294118,196.7300721962561
2.18561865234375,0.2001513671875,0.5210498046875001,2.255766468902492,-1.39306640625,15.99951171875,-2.17529296875,29.23588235294118,196.58202502857884
2.33698583984375,0.2079638671875,0.4897998046875,2.396801125324688,-3.32470703125,0.255859375,-0.39208984375,29.23588235294118,196.58202502857884
1.97565771484375,0.2914599609375,0.4253466796875,2.041835476470251,-3.328125,16.0,1.90771484375,29.188823529411767,196.58202502857884
1.47468115234375,0.4008349609375,0.5064013671875001,1.6099054356318656,-1.77978515625,16.0,4.291015625,29.23588235294118,196.58202502857884
1.13874365234375,0.4628466796875,0.7227099609375001,1.4259291154504172,0.56884765625,16.0,5.8427734375,29.188823529411767,196.58202502857884
1.01081396484375,0.3935107421875,0.9448779296875,1.4385374092287748,2.3623046875,16.0,5.30908203125,29.23588235294118,196.58202502857884
0.88434912109375,0.3280810546875,0.9917529296875,1.368679809147446,1.8896484375,16.0,2.8203125,29.23588235294118,196.58202502857884
0.66413427734375,0.2753466796875,1.0454638671875005,1.2688123698768383,0.4619140625,16.0,-0.11865234375,29.23588235294118,196.58202502857884
0.70319677734375,0.2348193359375,0.7715380859375001,1.0699985262835017,-0.7470703125,16.0,-3.22705078125,29.23588235294118,196.58202502857884
0.85456396484375,0.1723193359375,0.6680224609375001,1.098283903125419,0.38720703125,16.0,-4.53271484375,29.23588235294118,196.273409573458
1.22370458984375,0.2631396484375,0.6021044921875001,1.3889655205572378,3.76416015625,-6.5966796875,-3.2001953125,29.141764705882352,196.273409573458
1.46540380859375,0.1376513671875,0.6992724609375001,1.629520848518129,6.32861328125,9.14697265625,0.6865234375,29.28294117647059,196.273409573458
1.57233740234375,-0.1284619140625,0.6323779296875001,1.6996026641922932,4.001953125,15.42236328125,6.4814453125,29.33,196.273409573458
1.25251318359375,0.0624560546875,0.6499560546875001,1.4124917369203331,0.970703125,15.99951171875,10.34765625,29.28294117647059,196.273409573458
0.76032568359375,0.1962451171875,0.6030810546875001,0.9901080999947562,-1.20849609375,15.99951171875,12.61962890625,29.23588235294118,196.273409573458
0.4463608398437499,0.3183154296875,0.6411669921875001,0.8435981412935435,-1.94775390625,15.99951171875,13.0556640625,29.28294117647059,196.273409573458
0.64753271484375,0.3212451171875,0.7007373046875001,1.006742177665379,-2.046875,15.99951171875,10.84130859375,29.28294117647059,196.273409573458
1.10505224609375,0.3329638671875,0.9194873046875,1.475622684472823,-1.6396484375,15.99951171875,5.11767578125,29.23588235294118,196.273409573458
1.42145849609375,0.4232958984375,0.7598193359375001,1.666448048099796,-0.98779296875,12.97412109375,-0.37744140625,29.23588235294118,196.3474304036293
1.52155615234375,0.3080615234375,0.6030810546875001,1.665455428848439,0.00341796875,1.654296875,-5.92333984375,29.28294117647059,196.3474304036293
1.45368505859375,0.0375537109375,0.4214404296875,1.5140087736070342,0.73046875,-6.18212890625,-9.1533203125,29.23588235294118,196.3474304036293
1.16120458984375,-0.0781689453125,0.3540576171875,1.2164963130950914,0.826171875,-11.375,-7.41748046875,29.33,196.3474304036293
0.89069677734375,-0.1182080078125,0.4072802734375,0.9865044872745722,1.0595703125,-14.71337890625,-1.25927734375,29.28294117647059,196.3474304036293
0.73981787109375,-0.1792431640625,0.4902880859375,0.905450717303312,1.8837890625,16.0,5.13330078125,29.188823529411767,196.3474304036293
0.98102880859375,-0.1807080078125,0.5161669921875001,1.1231657363017826,1.982421875,16.0,8.76806640625,29.188823529411767,196.3474304036293
1.25544287109375,-0.0644970703125,0.5220263671875001,1.361178975262986,0.76416015625,16.0,7.68896484375,29.28294117647059,196.52698125169883
1.29792333984375,0.1337451171875,0.5962451171875001,1.434573453069793,0.07275390625,16.0,4.23583984375,29.28294117647059,196.52698125169883
1.17048193359375,0.2523974609375,0.7422412109375001,1.4087776440485655,-0.4638671875,16.0,-1.05078125,29.23588235294118,196.52698125169883
0.99665380859375,0.3588427734375,0.9204638671875,1.4033319924488687,-0.591796875,-13.1259765625,-3.81103515625,29.188823529411767,196.52698125169883
0.73395849609375,0.3808154296875,0.9487841796875,1.2585336249387844,0.5302734375,-6.91455078125,-3.22998046875,29.23588235294118,196.52698125169883
0.65681005859375,0.1313037109375,0.8716357421875001,1.0992674763835406,2.15673828125,-0.06396484375,-0.3974609375,29.141764705882352,196.52698125169883
0.87214208984375,0.0434130859375,0.8330615234375001,1.2068587418333798,3.59375,5.12744140625,2.35888671875,29.188823529411767,196.52698125169883
1.13386083984375,0.0541552734375,0.7817919921875001,1.3783221382611412,4.14990234375,8.74267578125,3.40576171875,29.23588235294118,196.52698125169883
1.27839208984375,0.1508349609375,0.7393115234375001,1.4844591774459697,4.82958984375,11.7880859375,2.47998046875,29.28294117647059,196.52698125169883
1.31745458984375,0.2528857421875,0.6880419921875001,1.5076602992436423,4.951171875,13.7978515625,0.6923828125,29.28294117647059,196.4324607219921
1.26032568359375,0.3026904296875,0.6680224609375001,1.458182544562734,5.3330078125,14.55810546875,-0.70849609375,29.28294117647059,196.4324607219921
1.16608740234375,0.2377490234375,0.5996630859375001,1.3326215684455829,5.828125,14.70458984375,-1.88330078125,29.28294117647059,196.4324607219921
1.09528662109375,0.0565966796875,0.5015185546875001,1.2059754670781877,5.83544921875,14.0537109375,-3.1240234375,29.23588235294118,196.4324607219921
1.08845068359375,-0.0967236328125,0.4644091796875,1.1873315619228546,5.29833984375,12.0849609375,-3.51806640625,29.28294117647059,196.4324607219921
1.06110693359375,-0.2295361328125,0.4463427734375,1.1738213800179005,4.6123046875,8.841796875,-3.17919921875,29.04764705882353,196.4324607219921
0.98786474609375,-0.3144970703125,0.4229052734375,1.1196579987260669,3.7197265625,5.38720703125,-2.0556640625,29.23588235294118,196.4324607219921
0.95612646484375,-0.3086376953125,0.4170458984375,1.087824583812096,2.94287109375,2.74853515625,0.4921875,29.141764705882352,196.4324607219921
0.71833349609375,-0.3574658203125,0.4409716796875,0.91555493914258,2.84130859375,0.091796875,3.2412109375,29.28294117647059,196.4324607219921
0.76960302734375,-0.1558056640625,0.4575732421875,0.9088110346032348,2.890625,-2.79248046875,5.0361328125,29.28294117647059,196.4829464828774
0.89313818359375,-0.0522900390625,0.4922412109375,1.021142239320026,3.10595703125,-5.34814453125,5.20849609375,29.28294117647059,196.4829464828774
0.97126318359375,0.0390185546875,0.5151904296875001,1.1001344455366169,3.40283203125,-7.72216796875,3.8212890625,29.188823529411767,196.4829464828774
0.93659521484375,0.1112841796875,0.5400927734375001,1.086873943489465,3.56298828125,-9.50634765625,2.33642578125,29.377058823529413,196.4829464828774
0.88483740234375,0.1088427734375,0.5640185546875001,1.054941186961519,3.5595703125,-10.19677734375,1.0703125,29.141764705882352,196.4829464828774
0.82233740234375,0.0429248046875,0.5664599609375001,0.9994789790166878,3.38134765625,-8.81689453125,0.369140625,29.28294117647059,196.4829464828774
0.75300146484375,0.0004443359375,0.5547412109375001,0.9352802866540396,3.18603515625,-5.9365234375,0.43310546875,29.188823529411767,196.4829464828774
0.80622412109375,-0.0308056640625,0.5435107421875001,0.9728053501317354,2.85595703125,-2.2021484375,1.00732421875,29.28294117647059,196.4829464828774
0.92682958984375,-0.0151806640625,0.5459521484375001,1.0757821757004686,2.23876953125,1.0693359375,1.93505859375,29.28294117647059,196.4829464828774
1.04938818359375,0.0111865234375,0.5137255859375001,1.1684411306606917,1.18798828125,3.41845703125,2.099609375,29.141764705882352,196.2624007658741
1.09479833984375,0.0614794921875,0.5239794921875001,1.2152850040699648,0.31005859375,5.6953125,1.7490234375,29.28294117647059,196.2624007658741
1.06696630859375,0.1293505859375,0.5342333984375001,1.200230811870212,-0.060546875,7.2998046875,1.24755859375,29.28294117647059,196.2624007658741
0.97565771484375,0.1972216796875,0.5811083984375001,1.152601986033116,0.1064453125,7.4794921875,1.21728515625,29.141764705882352,196.2624007658741
0.89948583984375,0.2314013671875,0.6074755859375001,1.1097963580431185,0.5908203125,5.65576171875,1.8525390625,29.28294117647059,196.2624007658741
0.84577490234375,0.2963427734375,0.6074755859375001,1.0826729941738262,1.02490234375,2.638671875,2.64306640625,29.188823529411767,196.2624007658741
0.83356787109375,0.3334521484375,0.5981982421875001,1.078826616270458,1.53076171875,-0.896484375,3.36865234375,29.23588235294118,196.2624007658741
0.88825537109375,0.3363818359375,0.5547412109375001,1.099949160160588,1.8994140625,-4.26708984375,3.115234375,29.33,196.2624007658741
0.95466162109375,0.3280810546875,0.5361865234375001,1.1430275487275894,1.62744140625,-7.5244140625,1.7255859375,29.23588235294118,196.50648296015
0.96247412109375,0.3246630859375,0.5396044921875001,1.1501893588164416,1.15869140625,-9.88818359375,0.29833984375,29.28294117647059,196.50648296015
0.87702490234375,0.3222216796875,0.5855029296875001,1.1026391843501406,0.91552734375,-11.32373046875,-0.6494140625,29.28294117647059,196.50648296015
0.74518896484375,0.3017138671875,0.6392138671875001,1.0270989333958704,0.96923828125,-11.86474609375,-0.89208984375,29.188823529411767,196.50648296015
0.67975927734375,0.2147998046875,0.6528857421875001,0.966680621291442,1.00927734375,-11.349609375,-0.6318359375,29.188823529411767,196.50648296015
0.66559912109375,0.1249560546875,0.6270068359375001,0.92291591053367,0.8779296875,-9.650390625,-0.33935546875,29.28294117647059,196.50648296015
0.70466162109375,0.0648974609375,0.5884326171875001,0.9203328884967312,0.5615234375,-6.45654296875,0.31103515625,29.33,196.50648296015
0.56550146484375,-0.0049267578125,0.5708544921875001,0.8035490221098017,0.12646484375,-2.37353515625,0.70703125,29.28294117647059,196.50648296015
0.4976303710937499,-0.0347119140625,0.5757373046875001,0.7617836616924867,-0.21435546875,2.94921875,1.50927734375,29.188823529411767,196.50648296015
0.4522202148437499,-0.0727978515625,0.5674365234375001,0.7292371754349058,-0.369140625,7.4697265625,2.71728515625,29.23588235294118,196.356919188284
0.4204819335937499,-0.0967236328125,0.5464404296875001,0.6962454027282663,-0.466796875,10.27783203125,3.3310546875,29.28294117647059,196.356919188284
0.4185288085937499,-0.1528759765625,0.4663623046875,0.6450048271650984,-0.5556640625,12.833984375,3.1630859375,29.23588235294118,196.356919188284
0.4561264648437499,-0.2436962890625,0.5039599609375001,0.7220906282883173,-0.18310546875,13.3369140625,2.76025390625,29.23588235294118,196.356919188284
0.87507177734375,-0.4844189453125,0.7612841796875001,1.2569669575305846,1.36962890625,8.34375,1.01513671875,29.23588235294118,196.356919188284
1.48005224609375,0.0189990234375,1.1753466796875005,1.8900675732658776,5.17236328125,-3.6787109375,-1.80029296875,29.23588235294118,196.356919188284
2.33307958984375,0.4374560546875,1.1147998046875005,2.6224810346043537,8.9775390625,-15.875,-9.11474609375,29.23588235294118,196.356919188284
2.95075537109375,0.5409716796875,0.7827685546875001,3.100376465603828,10.80224609375,16.0,16.0,29.188823529411767,196.356919188284
1.99323583984375,0.2807177734375,0.1084521484375,2.015825748933185,8.3779296875,-13.509765625,16.0,29.188823529411767,196.49547421336183
1.10163427734375,-0.2241650390625,-0.1630322265624999,1.1359698731280266,4.09033203125,-4.35546875,16.0,29.188823529411767,196.49547421336183
-0.01945947265625,-0.8101025390625,-0.1283642578124999,0.8204402339935083,-1.1591796875,6.9853515625,-9.6875,29.28294117647059,196.49547421336183
0.09235693359375,-1.1372509765625,0.0742724609375,1.143409806381296,-5.74658203125,15.56884765625,-4.59423828125,29.23588235294118,196.49547421336183
0.57917333984375,-1.0957470703125,0.5059130859375001,1.338675259428886,-7.26123046875,15.99951171875,-2.9013671875,29.33,196.49547421336183
0.81354833984375,-0.9429150390625,0.6768115234375001,1.4174002647137285,-6.89404296875,15.99951171875,-3.1162109375,29.28294117647059,196.49547421336183
0.84870458984375,-0.7627392578125,0.6870654296875001,1.3319645494163426,-4.70263671875,15.99951171875,-3.00732421875,29.23588235294118,196.49547421336183
0.77155615234375,-0.4829541015625,0.6538623046875001,1.120749514354917,-1.2763671875,15.00244140625,-1.49169921875,29.23588235294118,196.49547421336183
0.88972021484375,-0.0566845703125,0.6528857421875001,1.105022621291005,2.01318359375,12.6982421875,0.642578125,29.28294117647059,196.49547421336183
1.16999365234375,0.0688037109375,0.4658740234375,1.2612127904827493,3.65966796875,9.9169921875,1.1357421875,29.28294117647059,196.2624007658741
1.43757177734375,0.0399951171875,0.4111865234375,1.4957561905172674,3.0546875,7.064453125,-0.07177734375,29.33,196.2624007658741
1.64216162109375,0.0121630859375,0.2319873046875,1.6585116339624957,0.8271484375,2.814453125,-2.26513671875,29.188823529411767,196.2624007658741
1.70759130859375,-0.0156689453125,0.3848193359375,1.7504855081786597,-0.89892578125,-2.8232421875,-4.177734375,29.23588235294118,196.2624007658741
1.61384130859375,-0.0293408203125,0.5645068359375001,1.7099744503589418,-1.1796875,-9.66357421875,-4.93994140625,29.23588235294118,196.2624007658741
1.40290380859375,-0.0215283203125,0.7026904296875001,1.5691961014215945,-0.2294921875,16.0,-4.2294921875,29.28294117647059,196.2624007658741
1.20466162109375,-0.0723095703125,0.7109912109375001,1.400695112194432,1.13427734375,16.0,-2.59228515625,29.23588235294118,196.2624007658741
1.06110693359375,-0.1489697265625,0.6567919921875001,1.2567878201806628,2.23193359375,16.0,-0.64111328125,29.23588235294118,196.2624007658741
0.97614599609375,-0.1943798828125,0.5762255859375001,1.1500784627237726,2.25732421875,16.0,0.9111328125,29.141764705882352,196.484465480608
0.85895849609375,-0.1250439453125,0.5855029296875001,1.0470240527053796,1.74072265625,16.0,2.05224609375,29.33,196.484465480608
0.73786474609375,-0.0273876953125,0.6348193359375001,0.9737505115082882,0.998046875,16.0,2.6904296875,29.28294117647059,196.484465480608
0.73200537109375,0.1064013671875,0.7505419921875001,1.0537866939216158,0.52490234375,-12.2568359375,2.52392578125,29.23588235294118,196.484465480608
0.79157568359375,0.1689013671875,0.8237841796875001,1.1548766641499544,0.8173828125,-5.09423828125,1.94921875,29.28294117647059,196.484465480608
0.86091162109375,0.2616748046875,0.8091357421875001,1.2101004801370117,1.21630859375,1.82666015625,1.009765625,29.141764705882352,196.484465480608
0.89802099609375,0.0409716796875,0.7280810546875001,1.1568156336065347,1.123046875,6.46923828125,0.8701171875,29.28294117647059,196.484465480608
0.91755224609375,0.0512255859375,0.6997607421875001,1.1550719809921486,1.01513671875,9.96337890625,1.27099609375,29.28294117647059,196.484465480608
0.95124365234375,0.0873583984375,0.6470263671875001,1.153750014404202,1.8388671875,12.37646484375,2.09228515625,29.188823529411767,196.3679279373989
1.01618505859375,0.1029833984375,0.5957568359375001,1.1824397917987963,2.2607421875,13.3984375,2.4599609375,29.23588235294118,196.3679279373989
1.06110693359375,0.0814990234375,0.5098193359375001,1.1800448172157492,2.45556640625,14.0244140625,2.548828125,29.188823529411767,196.3679279373989
1.05524755859375,0.0688037109375,0.4419482421875,1.1461237321203424,2.111328125,14.263671875,2.4951171875,29.188823529411767,196.3679279373989
1.06306005859375,0.0570849609375,0.3848193359375,1.132007642312525,1.34521484375,13.97900390625,1.92138671875,29.28294117647059,196.3679279373989
1.06843115234375,0.0683154296875,0.3721240234375,1.133440961872869,0.44384765625,12.8291015625,1.31787109375,29.33,196.3679279373989
1.04792333984375,0.0844287109375,0.3853076171875,1.1197024128234057,-0.05859375,10.9697265625,0.806640625,29.23588235294118,196.3679279373989
1.01862646484375,0.1010302734375,0.4019091796875,1.099699040532459,-0.3837890625,8.49609375,0.36083984375,29.188823529411767,196.3679279373989
0.98786474609375,0.1200732421875,0.3037646484375,1.0404649449667418,-0.3525390625,4.853515625,-0.12890625,29.23588235294118,196.273409573458
0.92145849609375,0.1400927734375,0.4272998046875,1.0253276882434912,-0.18115234375,1.3046875,-0.541015625,29.23588235294118,196.273409573458
0.86921240234375,0.1298388671875,0.3135302734375,0.9331074772942932,-0.056640625,-2.26416015625,-0.7783203125,29.28294117647059,196.273409573458
0.83503271484375,0.1156787109375,0.4785693359375,0.9693759891410272,0.11572265625,-6.8330078125,-0.9990234375,29.23588235294118,196.273409573458
0.80671240234375,0.1308154296875,0.5010302734375001,0.958607798654072,0.2802734375,-10.7978515625,-1.36474609375,29.33,196.273409573458
0.77839208984375,0.1488818359375,0.5513232421875001,0.965410463989063,0.4638671875,-14.0732421875,-1.98291015625,29.188823529411767,196.273409573458
0.77497412109375,0.1723193359375,0.5947802734375001,0.991989120693044,0.72314453125,16.0,-2.83642578125,29.23588235294118,196.273409573458
0.75104833984375,0.2113818359375,0.6440966796875001,1.011739305419545,0.99609375,16.0,-3.56005859375,29.23588235294118,196.273409573458
0.76032568359375,0.2528857421875,0.6797412109375001,1.0507589911967468,1.2646484375,-15.98681640625,-3.990234375,29.23588235294118,196.273409573458
0.79645849609375,0.2177294921875,0.6685107421875001,1.0623835842991112,1.52783203125,-13.96044921875,-4.0126953125,29.188823529411767,196.39943444890056
0.87800146484375,0.1518115234375,0.6646044921875001,1.1115900512113224,1.271484375,-11.44287109375,-3.96728515625,29.28294117647059,196.39943444890056
0.97809912109375,0.1093310546875,0.6646044921875001,1.1875732824711291,0.98779296875,-8.25146484375,-3.8984375,29.188823529411767,196.39943444890056
1.04694677734375,0.0834521484375,0.6665576171875001,1.2439296092223129,0.66259765625,-4.888671875,-3.869140625,29.188823529411767,196.39943444890056
1.11432958984375,0.0570849609375,0.6719287109375001,1.3024888944435211,0.5390625,-1.40771484375,-3.3896484375,29.23588235294118,196.39943444890056
1.17829443359375,0.0341357421875,0.6646044921875001,1.353233960617495,0.32373046875,1.26171875,-2.697265625,29.23588235294118,196.39943444890056
1.17097021484375,0.0272998046875,0.6499560546875001,1.339537008227893,-0.03564453125,3.44482421875,-1.46533203125,29.28294117647059,196.39943444890056
1.11725927734375,0.0624560546875,0.6631396484375001,1.3007394992494146,-0.06884765625,5.37890625,0.1630859375,29.33,196.39943444890056
1.02741552734375,0.1098193359375,0.6480029296875001,1.2196518967543044,0.28515625,8.0869140625,1.50732421875,29.28294117647059,196.39943444890056
0.95368505859375,0.1234912109375,0.6138232421875001,1.1408524193835716,0.70751953125,10.76220703125,2.4638671875,29.188823529411767,196.47497613640573
0.89167333984375,0.1405810546875,0.5659716796875001,1.0654427812573737,0.77294921875,12.1796875,2.84912109375,29.33,196.47497613640573
0.88288427734375,0.1293505859375,0.5669482421875001,1.0571880299089025,0.62744140625,12.1845703125,2.71435546875,29.33,196.47497613640573
0.85212255859375,0.1527880859375,0.5522998046875001,1.0268846713855722,0.5,10.96875,2.32421875,29.23588235294118,196.47497613640573
0.81891943359375,0.1859912109375,0.5327685546875001,0.9945170195262188,0.6787109375,8.81298828125,1.8125,29.28294117647059,196.47497613640573
0.83796240234375,0.1947802734375,0.4712451171875,0.9809140141394436,0.6953125,6.32421875,1.0126953125,29.23588235294118,196.47497613640573
0.85749365234375,0.2206591796875,0.4531787109375,0.9946641550981712,0.67626953125,3.87548828125,0.0458984375,29.28294117647059,196.47497613640573
0.90876318359375,0.2563037109375,0.4590380859375,1.0498847938878555,0.72314453125,1.33837890625,-1.3515625,29.28294117647059,196.47497613640573
0.94636083984375,0.2621630859375,0.4492724609375,1.0798953963115494,0.64013671875,-0.95556640625,-2.17822265625,29.23588235294118,196.34895079243444
0.95514990234375,0.2299365234375,0.4463427734375,1.0790755358906432,0.466796875,-2.56396484375,-2.9306640625,29.33,196.34895079243444
0.94050146484375,0.1918505859375,0.4556201171875,1.062515573478221,0.3056640625,-3.97802734375,-3.15966796875,29.23588235294118,196.34895079243444
0.91169287109375,0.1654833984375,0.4844287109375,1.0455810931449352,0.28466796875,-4.69140625,-3.15576171875,29.188823529411767,196.34895079243444
0.89753271484375,0.1337451171875,0.5029833984375001,1.0375186888389178,0.40478515625,-4.978515625,-2.93017578125,29.33,196.34895079243444
0.86091162109375,0.1273974609375,0.5547412109375001,1.032054622343214,0.7265625,-5.1015625,-2.37841796875,29.23588235294118,196.34895079243444
0.85895849609375,0.2631396484375,0.5767138671875001,1.0675444052580714,1.00439453125,-5.1142578125,-1.85009765625,29.28294117647059,196.34895079243444
0.87458349609375,0.1522998046875,0.5830615234375001,1.0620980473857748,1.40087890625,-4.8408203125,-1.1533203125,29.09470588235294,196.34895079243444
0.90485693359375,0.1811083984375,0.5635302734375001,1.081264394742481,1.47021484375,-4.13232421875,-0.96533203125,29.28294117647059,196.2954272307433
0.94587255859375,0.1879443359375,0.5732958984375001,1.1219029181158835,1.4248046875,-3.3232421875,-1.11279296875,29.28294117647059,196.2954272307433
0.96979833984375,0.2045458984375,0.5767138671875001,1.1467112666829689,1.359375,-2.11865234375,-1.25146484375,29.188823529411767,196.2954272307433
0.95514990234375,0.1972216796875,0.5767138671875001,1.1330519014998366,1.365234375,-0.81005859375,-1.56005859375,29.23588235294118,196.2954272307433
0.94001318359375,0.1703662109375,0.5781787109375001,1.1166647003199337,1.08984375,0.3212890625,-1.57568359375,29.28294117647059,196.2954272307433
0.90876318359375,0.1376513671875,0.5659716796875001,1.0794083402273331,0.98681640625,1.5859375,-1.43603515625,29.188823529411767,196.2954272307433
0.88288427734375,0.1205615234375,0.5762255859375001,1.0611576951628734,0.67431640625,2.2861328125,-1.24560546875,29.23588235294118,196.2954272307433
0.86432958984375,0.1225146484375,0.5835498046875001,1.050050405224458,0.61572265625,2.90771484375,-0.66796875,29.23588235294118,196.2954272307433
0.87165380859375,0.1317919921875,0.5757373046875001,1.0529116464592685,0.6787109375,3.3271484375,-0.28369140625,29.23588235294118,196.2954272307433
0.89216162109375,0.1703662109375,0.5762255859375001,1.0756453550640397,0.75537109375,3.255859375,-0.02099609375,29.28294117647059,196.273409573458
0.91804052734375,0.1967333984375,0.5562060546875001,1.0912688097702568,1.068359375,3.0537109375,0.05322265625,29.188823529411767,196.273409573458
0.98005224609375,0.1977099609375,0.5244677734375001,1.1290075637929982,1.1884765625,2.6455078125,-0.00146484375,29.188823529411767,196.273409573458
1.02595068359375,0.2040576171875,0.5142138671875001,1.1656029416171902,1.18408203125,1.8935546875,-0.4638671875,29.23588235294118,196.273409573458
1.07136083984375,0.1996630859375,0.4990771484375,1.19864815401739,1.0,1.0615234375,-0.83203125,29.23588235294118,196.273409573458
1.07575537109375,0.1962451171875,0.4976123046875,1.201407412260051,1.08251953125,-0.4912109375,-1.05078125,29.33,196.273409573458
1.06013037109375,0.1874560546875,0.4922412109375,1.1837726073446673,1.1591796875,-2.12109375,-0.9248046875,29.141764705882352,196.273409573458
1.03278662109375,0.2035693359375,0.4844287109375,1.1587751530063315,1.28125,-3.47705078125,-0.4677734375,29.28294117647059,196.273409573458
1.00300146484375,0.1874560546875,0.4644091796875,1.1210832248748208,1.29736328125,-4.40185546875,0.0,29.33,196.32541285238585
0.99763037109375,0.2021044921875,0.4609912109375,1.11741911548561,1.2119140625,-5.060546875,0.4609375,29.28294117647059,196.32541285238585
1.01227880859375,0.2089404296875,0.4800341796875,1.1396478856007368,1.1357421875,-5.263671875,0.38916015625,29.188823529411767,196.32541285238585
1.01374365234375,0.2265185546875,0.5064013671875001,1.1556077158682911,1.02001953125,-5.14599609375,-0.07568359375,29.33,196.32541285238585
0.97565771484375,0.2372607421875,0.4981005859375,1.1208500479675114,0.818359375,-4.51318359375,-0.5478515625,29.28294117647059,196.32541285238585
0.88288427734375,0.2372607421875,0.5137255859375001,1.048661663555499,0.69873046875,-3.56005859375,-0.78173828125,29.188823529411767,196.32541285238585
0.80036474609375,0.2455615234375,0.5156787109375001,0.9832643192432136,0.70654296875,-2.21923828125,-0.685546875,29.188823529411767,196.32541285238585
0.79401708984375,0.2348193359375,0.5024951171875001,0.9685580015111876,0.677734375,-0.935546875,-0.6015625,29.141764705882352,196.32541285238585
0.85358740234375,0.2167529296875,0.5093310546875001,1.017355104787481,0.72412109375,-0.3486328125,-0.6904296875,29.141764705882352,196.42145195025404
0.90290380859375,0.2216357421875,0.5122607421875001,1.061493644717005,0.85791015625,-0.1962890625,-0.78662109375,29.23588235294118,196.42145195025404
0.93757177734375,0.2353076171875,0.5083544921875001,1.0921697679871882,1.01904296875,-0.1708984375,-0.8984375,29.23588235294118,196.42145195025404
0.96442724609375,0.2460498046875,0.4819873046875,1.105880726513783,1.1083984375,-0.14013671875,-0.96044921875,29.188823529411767,196.42145195025404
0.96198583984375,0.2611865234375,0.4663623046875,1.1005130418666964,1.17431640625,-0.080078125,-0.97021484375,29.23588235294118,196.42145195025404
0.98835302734375,0.2484912109375,0.4448779296875,1.111982895954689,1.05419921875,-0.0419921875,-1.05224609375,29.28294117647059,196.42145195025404
1.00690771484375,0.2504443359375,0.4365771484375,1.125693172295567,0.99951171875,-0.1982421875,-1.1376953125,29.23588235294118,196.42145195025404
1.01618505859375,0.2567919921875,0.4492724609375,1.140359568170341,0.76953125,-0.59716796875,-1.21533203125,29.28294117647059,196.42145195025404
1.02399755859375,0.2577685546875,0.4473193359375,1.146782549612266,0.716796875,-1.01806640625,-1.390625,29.28294117647059,196.42145195025404
0.99714208984375,0.2514208984375,0.4424365234375,1.1194886746995445,0.56591796875,-1.6015625,-1.58203125,29.28294117647059,196.2198862022213
0.94050146484375,0.2079638671875,0.4375537109375,1.0579438668398229,0.34375,-1.63916015625,-1.748046875,29.28294117647059,196.2198862022213
0.88776708984375,0.1967333984375,0.4399951171875,1.0101634219368918,0.1875,-1.3515625,-1.71875,29.28294117647059,196.2198862022213
0.83991552734375,0.1972216796875,0.4497607421875,0.9729538577059754,0.15576171875,-1.16064453125,-1.4541015625,29.188823529411767,196.2198862022213
0.85602880859375,0.2104052734375,0.4707568359375,0.9993336273810816,0.22119140625,-1.19921875,-1.134765625,29.23588235294118,196.2198862022213
0.89850927734375,0.2167529296875,0.4526904296875,1.0291886994771928,0.31982421875,-1.28759765625,-0.97509765625,29.33,196.2198862022213
0.97126318359375,0.2431201171875,0.4541552734375,1.0994164704865126,0.494140625,-1.38916015625,-1.0458984375,29.188823529411767,196.2198862022213
1.03962255859375,0.1400927734375,0.4551318359375,1.1434972835954904,0.7197265625,-1.806640625,-1.3427734375,29.23588235294118,196.2198862022213
1.07429052734375,0.2919482421875,0.4507373046875,1.2010403952797906,0.89208984375,-2.18798828125,-1.69482421875,29.33,196.2198862022213
1.09382177734375,0.2987841796875,0.4302294921875,1.2127718180147848,1.009765625,-2.439453125,-1.98291015625,29.23588235294118,196.58202502857884
1.07038427734375,0.2890185546875,0.4111865234375,1.1825094431736989,0.9833984375,-2.42431640625,-2.0478515625,29.28294117647059,196.58202502857884
1.02692724609375,0.2807177734375,0.3843310546875,1.1318535226302948,0.78857421875,-2.17138671875,-1.86376953125,29.23588235294118,196.58202502857884
1.00690771484375,0.2543505859375,0.4102099609375,1.116615233117907,0.7255859375,-2.06201171875,-1.7470703125,29.33,196.58202502857884
0.98395849609375,0.2436083984375,0.4131396484375,1.09462493253873,0.771484375,-2.0546875,-1.39013671875,29.23588235294118,196.58202502857884
0.97126318359375,0.2343310546875,0.3076708984375,1.045430340453615,0.8212890625,-2.1572265625,-1.37255859375,29.141764705882352,196.58202502857884
0.95710302734375,0.2338427734375,0.4287646484375,1.0745081532446583,0.8544921875,-2.33642578125,-1.20361328125,29.188823529411767,196.58202502857884
0.91511083984375,0.2401904296875,0.4346240234375,1.0411615309172733,0.75537109375,-2.41943359375,-1.2265625,29.33,196.58202502857884
0.88434912109375,0.2592333984375,0.4287646484375,1.016422376079195,0.54833984375,-2.1435546875,-1.310546875,29.141764705882352,196.6230220207573
0.86237646484375,0.2782763671875,0.4424365234375,1.008405167044942,0.4521484375,-1.66748046875,-1.47998046875,29.23588235294118,196.6230220207573
0.87556005859375,0.2733935546875,0.4463427734375,1.0200839785768805,0.4404296875,-1.19482421875,-1.7099609375,29.188823529411767,196.6230220207573
0.91218115234375,0.2636279296875,0.4487841796875,1.0502292035266738,0.44482421875,-0.5947265625,-1.9208984375,29.188823529411767,196.6230220207573
0.93610693359375,0.2533740234375,0.4487841796875,1.0685980660720769,0.37890625,-0.16552734375,-2.037109375,29.23588235294118,196.6230220207573
0.96638037109375,0.2558154296875,0.4414599609375,1.092803483162656,0.62744140625,0.2236328125,-1.9326171875,29.141764705882352,196.6230220207573
0.97370458984375,0.2699755859375,0.4497607421875,1.10601635182222,1.19384765625,0.52978515625,-1.52197265625,29.28294117647059,196.6230220207573
1.00300146484375,0.2807177734375,0.4233935546875,1.12431157111956,1.66796875,0.724609375,-0.99951171875,29.23588235294118,196.6230220207573
1.00446630859375,0.2914599609375,0.3843310546875,1.1142763721477944,1.84814453125,1.04541015625,-0.21826171875,29.28294117647059,196.69704603768216
1.03181005859375,0.3217333984375,0.3901904296875,1.1490835252953098,1.919921875,1.03662109375,0.150390625,29.23588235294118,196.69704603768216
1.05524755859375,0.3280810546875,0.3560107421875,1.1610031166692991,1.8544921875,1.01171875,0.17822265625,29.141764705882352,196.69704603768216
1.08161474609375,0.3378466796875,0.3452685546875,1.1845848271860109,1.689453125,1.240234375,-0.0673828125,29.188823529411767,196.69704603768216
1.09626318359375,0.3417529296875,0.3662646484375,1.2052957418609505,1.61376953125,0.6396484375,-0.52685546875,29.23588235294118,196.69704603768216
1.07673193359375,0.3441943359375,0.3584521484375,1.1858791424219637,1.4150390625,0.0107421875,-0.8330078125,29.28294117647059,196.69704603768216
1.02888037109375,0.3510302734375,0.3413623046875,1.1394495574413026,1.14599609375,-0.4736328125,-0.9970703125,29.188823529411767,196.69704603768216
0.96931005859375,0.3451708984375,0.3511279296875,1.087196284865709,0.955078125,-1.05810546875,-1.0234375,29.23588235294118,196.69704603768216
0.93171240234375,0.3437060546875,0.3750537109375,1.0615494047843457,0.88720703125,-1.72314453125,-1.00390625,29.23588235294118,196.69704603768216
0.92194677734375,0.3407763671875,0.3809130859375,1.0541390665972232,0.85693359375,-2.30908203125,-1.39453125,29.188823529411767,196.2939067115809
0.91804052734375,0.3559130859375,0.3892138671875,1.0587539700035102,0.79345703125,-2.87158203125,-1.72412109375,29.141764705882352,196.2939067115809
0.94098974609375,0.3676318359375,0.4063037109375,1.088897412325854,0.75390625,-3.4501953125,-2.2509765625,29.23588235294118,196.2939067115809
0.97028662109375,0.3778857421875,0.4175341796875,1.121868331146502,0.84814453125,-3.84521484375,-2.98828125,29.23588235294118,196.2939067115809
0.97809912109375,0.3803271484375,0.3057177734375,1.0930644937598828,1.06982421875,-3.85986328125,-3.4609375,29.33,196.2939067115809
0.95222021484375,0.3778857421875,0.4136279296875,1.1048117649279638,1.2861328125,-3.26416015625,-3.60302734375,29.33,196.2939067115809
0.93220068359375,0.3690966796875,0.4067919921875,1.081993622142417,1.5888671875,-2.3701171875,-3.37646484375,29.23588235294118,196.2939067115809
0.89753271484375,0.3754443359375,0.3887255859375,1.047678865284967,1.857421875,-1.04541015625,-2.8115234375,29.23588235294118,196.2939067115809
0.85651708984375,0.3813037109375,0.3604052734375,1.004443132432431,2.14990234375,0.6435546875,-2.08154296875,29.23588235294118,196.31440409782047
0.86384130859375,0.3935107421875,0.3486865234375,1.0112639627104536,2.43359375,1.94384765625,-1.6123046875,29.141764705882352,196.31440409782047
0.86872412109375,0.3773974609375,0.3096240234375,0.9964825527734068,2.33642578125,3.05712890625,-0.91552734375,29.23588235294118,196.31440409782047
0.89167333984375,0.3363818359375,0.3189013671875,1.0049538131331448,2.1181640625,3.45654296875,-0.82373046875,29.28294117647059,196.31440409782047
0.95563818359375,0.3271044921875,0.3145068359375,1.0579018085829242,1.7138671875,3.28271484375,-0.87890625,29.33,196.31440409782047
0.97858740234375,0.3256396484375,0.3242724609375,1.08112307975681,1.34375,2.76513671875,-1.375,29.23588235294118,196.31440409782047
1.00788427734375,0.3271044921875,0.3179248046875,1.1063020594582478,0.84033203125,2.07080078125,-1.64599609375,29.28294117647059,196.31440409782047
1.03278662109375,0.3461474609375,0.3198779296875,1.135248060700781,0.35009765625,0.99072265625,-2.01416015625,29.23588235294118,196.31440409782047
1.04548193359375,0.3554248046875,0.3564990234375,1.160366674362016,0.044921875,-0.50830078125,-2.2509765625,29.188823529411767,196.31440409782047
1.02595068359375,0.3651904296875,0.3296435546875,1.1378065425408814,-0.32958984375,-1.677734375,-2.3955078125,29.23588235294118,196.41196307422132
1.04450537109375,0.3339404296875,0.3804248046875,1.1607026806400884,-0.42919921875,-2.927734375,-2.4462890625,29.141764705882352,196.41196307422132
1.03571630859375,0.3231982421875,0.3779833984375,1.148928555278576,-0.49072265625,-4.10986328125,-2.3037109375,29.28294117647059,196.41196307422132
1.03669287109375,0.3056201171875,0.4019091796875,1.153111769831261,-0.501953125,-4.84130859375,-2.01123046875,29.23588235294118,196.41196307422132
1.00739599609375,0.3163623046875,0.4087451171875,1.132256318859616,-0.2705078125,-5.02685546875,-1.42529296875,29.28294117647059,196.41196307422132
0.96686865234375,0.3280810546875,0.4175341796875,1.1030897336740992,-0.04931640625,-4.63818359375,-0.54931640625,29.04764705882353,196.41196307422132
0.95368505859375,0.3568896484375,0.4375537109375,1.1083044085908818,0.42333984375,-4.083984375,0.291015625,29.188823529411767,196.41196307422132
0.93610693359375,0.3725146484375,0.4326708984375,1.0964795760877268,0.8681640625,-2.9609375,1.28466796875,29.23588235294118,196.41196307422132
0.91413427734375,0.3852099609375,0.4180224609375,1.0764622468384546,1.21337890625,-1.56787109375,2.1484375,29.188823529411767,196.41196307422132
0.90973974609375,0.4047412109375,0.3945849609375,1.0710458182785287,1.44921875,0.0361328125,2.6357421875,29.33,196.35539961464468
0.89216162109375,0.4237841796875,0.3906787109375,1.0621559416045376,1.5439453125,1.63232421875,2.87890625,29.28294117647059,196.35539961464468
0.86335302734375,0.4569873046875,0.3628466796875,1.0420525703770454,1.56982421875,3.45166015625,3.04833984375,29.188823529411767,196.35539961464468
0.85651708984375,0.4853076171875,0.3418505859375,1.0421165153668892,1.57177734375,5.3701171875,2.99462890625,29.33,196.35539961464468
0.86335302734375,0.5072802734375,0.3276904296875,1.0536093884126227,1.5419921875,6.5458984375,2.42919921875,29.23588235294118,196.35539961464468
0.91755224609375,0.5043505859375,0.3037646484375,1.090203925643062,1.29638671875,7.466796875,1.65087890625,29.188823529411767,196.35539961464468
0.95466162109375,0.4911669921875,0.2910693359375,1.112360185968088,0.95361328125,7.71533203125,0.69580078125,29.23588235294118,196.35539961464468
1.00593115234375,0.4980029296875,0.3022998046875,1.1624498153241103,0.740234375,7.498046875,-0.43115234375,29.33,196.35539961464468
1.03132177734375,0.4833544921875,0.2959521484375,1.1767938849713997,0.3037109375,6.4140625,-1.61767578125,29.28294117647059,196.35539961464468
1.04108740234375,0.4462451171875,0.3052294921875,1.1730996235757567,0.09423828125,5.20947265625,-2.28369140625,29.23588235294118,196.408923749288
1.05036474609375,0.4174365234375,0.3110888671875,1.1723035589062143,-0.0888671875,3.509765625,-2.556640625,29.28294117647059,196.408923749288
1.03083349609375,0.4027880859375,0.3159716796875,1.1509535356419034,-0.14794921875,1.57568359375,-2.28466796875,29.28294117647059,196.408923749288
1.00104833984375,0.4052294921875,0.3189013671875,1.1260580811115046,-0.0458984375,-0.20263671875,-1.5947265625,29.23588235294118,196.408923749288
0.98298193359375,0.4003466796875,0.3154833984375,1.1072762620042875,0.19140625,-1.85791015625,-0.44775390625,29.188823529411767,196.408923749288
0.97565771484375,0.3939990234375,0.3257373046875,1.1014753736098275,0.48388671875,-3.01171875,0.71875,29.28294117647059,196.408923749288
0.99177099609375,0.3793505859375,0.3120654296875,1.1067526409048942,0.66552734375,-4.099609375,1.3740234375,29.28294117647059,196.408923749288
0.98981787109375,0.3866748046875,0.3213427734375,1.1101882725723526,0.7109375,-4.732421875,1.61962890625,29.23588235294118,196.408923749288
0.97565771484375,0.4032763671875,0.3296435546875,1.1059858398791036,0.85888671875,-5.130859375,1.5146484375,29.377058823529413,196.2293744273481
0.94489599609375,0.4086474609375,0.2925341796875,1.0702324219766957,0.79052734375,-4.806640625,1.3662109375,29.23588235294118,196.2293744273481
0.91022802734375,0.4164599609375,0.2759326171875,1.0383124626306388,0.6142578125,-3.73193359375,0.82421875,29.28294117647059,196.2293744273481
0.88434912109375,0.4403857421875,0.2749560546875,1.025482228958961,0.17578125,-2.17578125,0.4130859375,29.23588235294118,196.2293744273481
0.89216162109375,0.4545458984375,0.2891162109375,1.0421864110445112,-0.11767578125,-0.8251953125,0.07177734375,29.188823529411767,196.2293744273481
0.90290380859375,0.4647998046875,0.2974169921875,1.0581734325017316,-0.33740234375,0.14501953125,-0.162109375,29.188823529411767,196.2293744273481
0.91120458984375,0.4555224609375,0.3203662109375,1.067908716174432,-0.45458984375,0.73681640625,-0.42578125,29.141764705882352,196.2293744273481
0.95368505859375,0.4262255859375,0.3413623046875,1.09895935509658,-0.56591796875,0.5966796875,-0.78271484375,29.28294117647059,196.2293744273481
0.98493505859375,0.3803271484375,0.3452685546875,1.1108358044021038,-0.71875,0.095703125,-1.2119140625,29.188823529411767,196.462448057218
1.02106787109375,0.3578662109375,0.3765185546875,1.1456064089968463,-0.8359375,-0.80224609375,-1.49072265625,29.188823529411767,196.462448057218
1.02741552734375,0.3373583984375,0.3872607421875,1.1486358157671055,-0.88671875,-1.927734375,-1.51513671875,29.377058823529413,196.462448057218
1.03327490234375,0.3168505859375,0.4058154296875,1.1544424977429033,-0.755859375,-3.16162109375,-1.2197265625,29.28294117647059,196.462448057218
1.04059912109375,0.3002490234375,0.4277880859375,1.1644735520252607,-0.53271484375,-4.40234375,-0.65869140625,29.188823529411767,196.462448057218
1.04841162109375,0.2939013671875,0.4478076171875,1.177317545477962,-0.173828125,-5.51708984375,0.03173828125,29.23588235294118,196.462448057218
1.01960302734375,0.3002490234375,0.4409716796875,1.150737081930589,0.19287109375,-6.087890625,0.884765625,29.23588235294118,196.462448057218
1.01716162109375,0.3183154296875,0.4360888671875,1.151571090418685,0.51904296875,-5.9140625,1.8046875,29.28294117647059,196.462448057218
1.01276708984375,0.3349169921875,0.4585498046875,1.1610919400742754,1.0908203125,-5.13427734375,2.2724609375,29.28294117647059,196.462448057218
1.01032568359375,0.3417529296875,0.4399951171875,1.1537542004378616,1.45654296875,-3.90478515625,2.39111328125,29.23588235294118,196.4229718935276
0.99567724609375,0.3505419921875,0.4399951171875,1.143612071388046,1.65673828125,-2.4599609375,2.30078125,29.28294117647059,196.4229718935276
0.96442724609375,0.3432177734375,0.4229052734375,1.1075952434497975,1.7578125,-0.67333984375,2.10498046875,29.23588235294118,196.4229718935276
0.94489599609375,0.3285693359375,0.4380419921875,1.0920929625595082,1.86279296875,1.0400390625,1.9033203125,29.28294117647059,196.4229718935276
0.92389990234375,0.3119677734375,0.4209521484375,1.0621278795363998,1.93359375,2.47021484375,1.80224609375,29.28294117647059,196.4229718935276
0.92682958984375,0.3041552734375,0.3892138671875,1.050243282949633,1.88916015625,3.50244140625,1.80712890625,29.28294117647059,196.4229718935276
0.93708349609375,0.2948779296875,0.3608935546875,1.046576623990356,1.869140625,4.32177734375,1.80419921875,29.28294117647059,196.4229718935276
0.96833349609375,0.3002490234375,0.3486865234375,1.072101453855579,1.50537109375,4.6005859375,1.7333984375,29.28294117647059,196.4229718935276
1.00397802734375,0.3061083984375,0.3364794921875,1.102221701676109,1.18017578125,4.50732421875,1.6201171875,29.23588235294118,196.4229718935276
1.04157568359375,0.3207568359375,0.3452685546875,1.143230172498268,0.9091796875,4.01806640625,1.53369140625,29.28294117647059,196.3459104532132
1.04450537109375,0.3378466796875,0.3379443359375,1.148624491908386,0.712890625,3.41943359375,1.5673828125,29.23588235294118,196.3459104532132
1.04743505859375,0.3334521484375,0.3311083984375,1.148017120423177,0.54541015625,2.8056640625,1.59716796875,29.188823529411767,196.3459104532132
1.05524755859375,0.3075732421875,0.3345263671875,1.1489371608453904,0.3173828125,1.80810546875,1.55810546875,29.188823529411767,196.3459104532132
1.04499365234375,0.2831591796875,0.3711474609375,1.1445266673347465,0.18212890625,0.6474609375,1.49169921875,29.188823529411767,196.3459104532132
0.99518896484375,0.2621630859375,0.3516162109375,1.0875497777890868,0.11328125,-0.0361328125,1.21728515625,29.23588235294118,196.3459104532132
0.96491552734375,0.2553271484375,0.3584521484375,1.060538481318689,0.080078125,-0.22314453125,1.001953125,29.188823529411767,196.3459104532132
0.95612646484375,0.2494677734375,0.3921435546875,1.0631032660289492,0.15478515625,-0.1044921875,0.83447265625,29.188823529411767,196.1648423476041
0.93268896484375,0.2616748046875,0.3989794921875,1.047648339728433,0.25390625,0.43359375,0.8330078125,29.23588235294118,196.1648423476041
0.92682958984375,0.2704638671875,0.4082568359375,1.0482544710868875,0.33251953125,1.326171875,1.04296875,29.28294117647059,196.1648423476041
0.95466162109375,0.2572802734375,0.4370654296875,1.0810171782711595,0.44677734375,2.0283203125,1.310546875,29.23588235294118,196.1648423476041
0.97321630859375,0.2504443359375,0.4175341796875,1.0882128192239486,0.546875,3.04833984375,1.57470703125,29.23588235294118,196.1648423476041
0.99763037109375,0.2440966796875,0.4121630859375,1.1066742771803448,0.521484375,3.88916015625,1.69482421875,29.28294117647059,196.1648423476041
1.03620458984375,0.2411669921875,0.4082568359375,1.139541624612159,0.380859375,4.55712890625,1.7099609375,29.28294117647059,196.1648423476041
1.03034521484375,0.2523974609375,0.3931201171875,1.1313086080184416,0.17041015625,4.76513671875,1.8330078125,29.188823529411767,196.5114176211605
1.00739599609375,0.2709521484375,0.3867724609375,1.1125891857411996,0.00244140625,4.6455078125,1.92138671875,29.23588235294118,196.5114176211605
0.98298193359375,0.2631396484375,0.4131396484375,1.098262411931948,-0.08984375,4.1884765625,1.9150390625,29.28294117647059,196.5114176211605
0.97321630859375,0.2563037109375,0.4048388671875,1.0847746696613252,-0.11279296875,3.71435546875,1.68896484375,29.33,196.5114176211605
0.97614599609375,0.2465380859375,0.4019091796875,1.084053975697089,-0.083984375,2.80322265625,1.48876953125,29.23588235294118,196.5114176211605
0.97516943359375,0.2475146484375,0.4067919921875,1.085218250083627,-0.1025390625,1.927734375,1.287109375,29.28294117647059,196.5114176211605
0.97321630859375,0.2387255859375,0.4194873046875,1.0863284436523013,-0.095703125,1.11181640625,1.412109375,29.28294117647059,196.5114176211605
0.98298193359375,0.2172412109375,0.4263232421875,1.0932514497271708,-0.064453125,0.1572265625,1.703125,29.141764705882352,196.5114176211605
0.99616552734375,0.1942919921875,0.4336474609375,1.1036961794233862,-0.0302734375,-0.4794921875,2.0908203125,29.28294117647059,196.26884970076225
1.00007177734375,0.1689013671875,0.4312060546875,1.102093414042772,0.02685546875,-0.6396484375,2.40234375,29.28294117647059,196.26884970076225
0.99860693359375,0.1425341796875,0.4375537109375,1.0995385623778178,0.02978515625,-0.296875,2.99365234375,29.33,196.26884970076225
0.98493505859375,0.0800341796875,0.4463427734375,1.0843082638093304,-0.02099609375,0.4833984375,3.35888671875,29.188823529411767,196.26884970076225
1.02009130859375,0.0194873046875,0.4707568359375,1.1236449757349425,-0.10595703125,1.13232421875,3.298828125,29.28294117647059,196.26884970076225
1.04645849609375,-0.0430126953125,0.4116748046875,1.1253451118742774,-0.51513671875,2.14208984375,2.7275390625,29.33,196.26884970076225
1.07477880859375,-0.1128369140625,0.3774951171875,1.1447201492407448,-1.53662109375,3.12744140625,1.51904296875,29.377058823529413,196.26884970076225
1.04401708984375,-0.1284619140625,0.5479052734375001,1.186033024797807,-2.400390625,3.31640625,0.89892578125,29.28294117647059,196.26884970076225
0.90485693359375,-0.1265087890625,0.4165576171875,1.0041368394893555,-3.0390625,3.06005859375,1.14404296875,29.28294117647059,196.26884970076225
0.73200537109375,-0.1143017578125,0.3599169921875,0.823672869781701,-3.724609375,2.9462890625,2.42138671875,29.28294117647059,196.2373432089322
0.68366552734375,-0.0444775390625,0.4087451171875,0.7977777733077597,-3.77587890625,2.28662109375,3.70654296875,29.33,196.2373432089322
0.71393896484375,0.1044482421875,0.4839404296875,0.8688018302837225,-3.068359375,0.9638671875,4.08984375,29.23588235294118,196.2373432089322
1.04108740234375,0.2260302734375,0.4712451171875,1.164913998672069,-1.96044921875,-0.16064453125,3.4267578125,29.23588235294118,196.2373432089322
1.13727880859375,0.2406787109375,0.3457568359375,1.212797229536936,-1.40673828125,-0.3896484375,2.056640625,29.23588235294118,196.2373432089322
1.18220068359375,0.1425341796875,0.2939990234375,1.226519414624539,-1.71826171875,-0.07275390625,0.5966796875,29.28294117647059,196.2373432089322
1.15729833984375,0.3227099609375,0.3013232421875,1.2386593004437376,-2.01806640625,0.5498046875,-0.19287109375,29.23588235294118,196.2373432089322
1.06159521484375,0.3695849609375,0.4248583984375,1.201699672236453,-2.0791015625,1.7431640625,-0.0634765625,29.28294117647059,196.2373432089322
0.95173193359375,0.3573779296875,0.2637255859375,1.050268462217113,-2.04443359375,3.60595703125,0.314453125,29.141764705882352,196.2373432089322
0.87165380859375,0.2797412109375,0.2202685546875,0.9415698292303598,-2.138671875,5.7138671875,0.27001953125,29.23588235294118,196.3648891053046
0.86042333984375,0.2094287109375,0.2305224609375,0.9150570002516224,-2.5283203125,7.107421875,-0.17724609375,29.23588235294118,196.3648891053046
0.84919287109375,0.1659716796875,0.2983935546875,0.9152670890258092,-2.5634765625,7.24365234375,-1.32958984375,29.188823529411767,196.3648891053046
0.86091162109375,0.1537646484375,0.3877490234375,0.9566408373157146,-2.23046875,5.447265625,-2.27099609375,29.28294117647059,196.3648891053046
0.83356787109375,0.1259326171875,0.4146044921875,0.9394633067520598,-1.39501953125,2.53076171875,-3.1328125,29.23588235294118,196.3648891053046
0.79255224609375,0.1142138671875,0.4248583984375,0.9064703685002888,-0.8525390625,-0.6416015625,-3.59619140625,29.188823529411767,196.3648891053046
0.75934912109375,0.1381396484375,0.4727099609375,0.9050681506637052,-0.23291015625,-4.3232421875,-3.185546875,29.23588235294118,196.3648891053046
0.81110693359375,0.1850146484375,0.5244677734375001,0.983458856910037,0.27294921875,-8.73193359375,-2.57861328125,29.23588235294118,196.6104948825524
0.89557958984375,0.2089404296875,0.5850146484375001,1.0899362567550217,0.59619140625,-13.2900390625,-2.03759765625,29.23588235294118,196.6104948825524
1.04645849609375,0.1591357421875,0.6177294921875001,1.225556728187882,0.18701171875,16.0,-1.97705078125,29.23588235294118,196.6104948825524
1.24030615234375,0.0023974609375,0.6504443359375001,1.4005152385868138,-0.93603515625,16.0,-3.03271484375,29.23588235294118,196.6104948825524
1.55671240234375,-0.1753369140625,0.9004443359375001,1.806902470850526,-0.69873046875,16.0,-4.62939453125,29.28294117647059,196.6104948825524
1.4310613606770832,-0.0737744140624999,0.9445524088541668,2.024583805889671,1.39501953125,16.0,-4.34619140625,29.23588235294118,196.6104948825524
1.3054103190104167,0.0277880859375,0.9886604817708337,1.8641799537899744,4.974609375,16.0,0.5439453125,29.188823529411767,196.6104948825524
1.17975927734375,0.1293505859375,1.0327685546875005,1.5732687037223902,7.9150390625,16.0,7.77392578125,29.33,196.264293773529
1.33893896484375,0.2567919921875,0.8862841796875001,1.626099420697524,7.6865234375,-12.71435546875,12.06201171875,29.33,196.264293773529
1.19587255859375,0.4467333984375,0.7607958984375001,1.4860996954297525,5.20068359375,0.71875,11.6630859375,29.23588235294118,196.264293773529
1.10212255859375,0.6005419921875,0.8682177734375001,1.526147738803336,2.9521484375,13.68212890625,9.0654296875,29.33,196.264293773529
0.83893896484375,0.6112841796875,0.8618701171875001,1.349187545884603,1.46044921875,15.99951171875,6.23876953125,29.28294117647059,196.264293773529
0.64264990234375,0.5082568359375,0.7891162109375001,1.1375536482399355,0.29931640625,15.99951171875,3.59228515625,29.23588235294118,196.264293773529
0.54938818359375,0.4569873046875,0.7554248046875001,1.0398708614319057,-0.07421875,15.99951171875,1.16650390625,29.188823529411767,196.264293773529
0.4488022460937499,0.4442919921875,0.6797412109375001,0.927829156831963,0.20361328125,15.99951171875,-0.28564453125,29.33,196.264293773529
0.21003271484375,0.5331591796875,0.5855029296875001,0.8192595027598579,1.51708984375,15.99951171875,-1.31591796875,29.23588235294118,196.2847928027082
0.3784897460937499,0.6938037109375,0.5396044921875001,0.9569697410042216,3.4521484375,15.99951171875,-1.64111328125,29.23588235294118,196.2847928027082
0.55134130859375,0.8007373046875,0.5117724609375001,1.0986667017135343,5.65380859375,15.99951171875,-2.57275390625,29.23588235294118,196.2847928027082
0.84577490234375,0.7807177734375,0.4785693359375,1.2465488504248228,7.41162109375,15.99951171875,-4.6474609375,29.28294117647059,196.2847928027082
1.42682958984375,0.7626513671875,0.3862841796875,1.6633385866393804,7.9169921875,15.99951171875,-7.88330078125,29.23588235294118,196.2847928027082
1.62556005859375,0.4916552734375,0.2290576171875,1.7136621032122503,6.7822265625,15.47216796875,-10.85400390625,29.23588235294118,196.2847928027082
1.70563818359375,0.3490771484375,0.1606982421875,1.7483936610318611,4.5556640625,3.10888671875,-11.830078125,29.23588235294118,196.2847928027082
1.33991552734375,0.2787646484375,0.0679248046875,1.370290892010597,2.30712890625,-9.66552734375,-10.60546875,29.28294117647059,196.2847928027082
1.08991552734375,0.2401904296875,0.3228076171875,1.1618141232455137,1.4951171875,16.0,-7.69970703125,29.28294117647059,196.2847928027082
0.97028662109375,0.2011279296875,0.4917529296875,1.1062230855619248,2.07373046875,16.0,-5.380859375,29.23588235294118,196.5114176211605
1.04108740234375,0.1347216796875,0.5654833984375001,1.1923860047002828,2.5283203125,16.0,-4.59375,29.188823529411767,196.5114176211605
1.20710302734375,0.1278857421875,0.6377490234375001,1.3711952080476284,1.70654296875,16.0,-5.08837890625,29.188823529411767,196.5114176211605
1.36677099609375,0.1654833984375,0.7871630859375001,1.5858983053096989,-0.09716796875,16.0,-6.318359375,29.23588235294118,196.5114176211605
1.47468115234375,0.1913623046875,0.8643115234375001,1.7199821052208812,-2.04296875,16.0,-8.4521484375,29.23588235294118,196.5114176211605
1.48249365234375,0.0883349609375,0.8901904296875001,1.731481878527915,-4.24560546875,16.0,-10.83740234375,29.141764705882352,196.5114176211605
1.27936865234375,0.0927294921875,0.9546435546875,1.598976930361286,-5.099609375,16.0,-11.20703125,29.23588235294118,196.5114176211605
0.86872412109375,0.2128466796875,1.1426318359375005,1.4510660977784589,-3.291015625,16.0,-7.734375,29.23588235294118,196.5114176211605
0.52546240234375,0.2523974609375,1.2905810546875005,1.4161266445070733,0.90234375,-12.42822265625,-1.97802734375,29.23588235294118,196.46890126869584
0.66218115234375,0.1947802734375,1.0166552734375005,1.2288251211820025,2.9306640625,1.3974609375,2.1171875,29.23588235294118,196.46890126869584
0.79304052734375,0.3363818359375,0.8999560546875001,1.2457876696801211,3.40087890625,14.87451171875,3.37890625,29.188823529411767,196.46890126869584
0.79499365234375,0.6132373046875,0.8384326171875001,1.3080688638948357,4.16064453125,15.99951171875,3.17919921875,29.23588235294118,196.46890126869584
0.72077490234375,0.7426318359375,0.7749560546875001,1.2928941914531753,4.9873046875,15.99951171875,2.81494140625,29.28294117647059,196.46890126869584
0.68220068359375,0.6464404296875,0.7100146484375001,1.1778810648050024,5.4111328125,15.99951171875,2.49609375,29.28294117647059,196.46890126869584
0.86628271484375,0.5038623046875,0.5571826171875001,1.1466365740800215,4.55908203125,15.99951171875,0.24658203125,29.23588235294118,196.46890126869584
1.18659521484375,0.2074755859375,0.4688037109375,1.2926063755215529,2.77880859375,15.99951171875,-3.83837890625,29.23588235294118,196.4939551540239
1.45075537109375,0.1689013671875,0.4854052734375,1.5391026925049884,1.42626953125,15.99951171875,-7.93310546875,29.23588235294118,196.4939551540239
1.64460302734375,0.2616748046875,0.4883349609375,1.735414606089939,0.6025390625,15.99951171875,-10.0947265625,29.28294117647059,196.4939551540239
1.68073583984375,0.0775927734375,0.3901904296875,1.727177516425198,-0.60400390625,15.99951171875,-9.0859375,29.141764705882352,196.4939551540239
1.53278662109375,0.0522021484375,0.2437060546875,1.552917425749622,-1.83544921875,15.99951171875,-4.5498046875,29.23588235294118,196.4939551540239
1.25056005859375,0.0946826171875,0.2153857421875,1.2725000102495632,-1.89404296875,3.37158203125,1.47802734375,29.23588235294118,196.4939551540239
1.02839208984375,0.2138232421875,0.3247607421875,1.0994454097493631,-0.09521484375,-10.59521484375,6.990234375,29.28294117647059,196.4939551540239
0.97956396484375,0.2899951171875,0.4448779296875,1.1142527099074229,1.88671875,16.0,10.1513671875,29.33,196.3557831303502
1.06843115234375,0.3373583984375,0.5708544921875001,1.2574699469750985,2.353515625,16.0,9.6513671875,29.28294117647059,196.3557831303502
1.25544287109375,0.3935107421875,0.7544482421875001,1.5166343187917397,1.34228515625,16.0,5.35498046875,29.141764705882352,196.3557831303502
1.43366552734375,0.3979052734375,0.9185107421875,1.748538656832338,-0.5224609375,16.0,-1.33935546875,29.23588235294118,196.3557831303502
1.46540380859375,0.3495654296875,0.9287646484375,1.7698045327269638,-1.5302734375,16.0,-7.97509765625,29.23588235294118,196.3557831303502
1.28815771484375,0.4008349609375,0.8594287109375001,1.599573903702149,-0.86376953125,16.0,-10.26123046875,29.33,196.3557831303502
0.82770849609375,0.5297412109375,0.8223193359375001,1.2813805817664,2.91015625,16.0,-6.8388671875,29.28294117647059,196.3557831303502
0.63874365234375,0.4760302734375,0.8042529296875001,1.131998696796662,7.24072265625,-15.95068359375,-0.74462890625,29.33,196.3557831303502
0.88972021484375,0.2021044921875,0.7456591796875001,1.1783275854855522,8.7529296875,-2.80029296875,5.40185546875,29.28294117647059,196.4218329627996
1.07770849609375,0.0238818359375,0.6787646484375001,1.2738710266776936,6.7607421875,7.6083984375,8.59912109375,29.188823529411767,196.4218329627996
0.95710302734375,0.0614794921875,0.7334521484375001,1.20738477171024,4.376953125,15.99951171875,9.201171875,29.141764705882352,196.4218329627996
0.69196630859375,0.1962451171875,0.8081591796875001,1.081873734759269,3.05859375,15.99951171875,8.81591796875,29.33,196.4218329627996
0.64313818359375,0.2309130859375,0.9248583984375,1.1499176638411226,2.498046875,15.99951171875,8.6044921875,29.188823529411767,196.4218329627996
0.67389990234375,0.1767138671875,0.7568896484375001,1.0287131811866317,1.53125,15.99951171875,8.08740234375,29.28294117647059,196.4218329627996
0.80573583984375,0.2626513671875,0.7319873046875001,1.1198220387712714,1.02001953125,15.99951171875,6.84521484375,29.23588235294118,196.4218329627996
0.94147802734375,0.1064013671875,0.6807177734375001,1.1666528249587174,0.99658203125,15.99951171875,4.83203125,29.28294117647059,196.4218329627996
1.13190771484375,0.1479052734375,0.6553271484375001,1.316261644321769,0.84033203125,15.99951171875,2.30224609375,29.28294117647059,196.4218329627996
1.31110693359375,0.2201708984375,0.6191943359375001,1.466587277148368,0.21484375,15.99951171875,0.46044921875,29.188823529411767,196.41689475079275
1.37995458984375,0.2934130859375,0.5684130859375001,1.521006030657075,-0.29541015625,15.99951171875,-0.248046875,29.188823529411767,196.41689475079275
1.42194677734375,0.2909716796875,0.5098193359375001,1.5383474611654528,-0.48486328125,15.99951171875,-0.40576171875,29.23588235294118,196.41689475079275
1.40925146484375,0.2099169921875,0.4473193359375,1.4933684820153623,-0.455078125,7.44384765625,-0.46923828125,29.28294117647059,196.41689475079275
1.31013037109375,0.1400927734375,0.4385302734375,1.3886599206259345,-0.17236328125,-2.6259765625,-0.31884765625,29.33,196.41689475079275
1.15192724609375,0.0590380859375,0.4590380859375,1.2414257288398118,0.33251953125,-13.27734375,0.10986328125,29.23588235294118,196.41689475079275
1.04597021484375,-0.0039501953125,0.4829638671875,1.1520952180232291,0.3173828125,16.0,0.42724609375,29.28294117647059,196.41689475079275
0.97663427734375,-0.0459423828125,0.5322802734375001,1.1132149404818186,-0.2041015625,16.0,0.248046875,29.23588235294118,196.41689475079275
0.95026708984375,-0.0723095703125,0.6553271484375001,1.156585443224197,-0.658203125,16.0,-0.79541015625,29.28294117647059,196.41689475079275
0.92878271484375,-0.0693798828125,0.8013232421875001,1.2286455298423096,-1.162109375,16.0,-2.7041015625,29.377058823529413,196.42638508639416
0.90534521484375,-0.0942822265625,0.8047412109375001,1.214968111872576,-2.32666015625,16.0,-5.34619140625,29.23588235294118,196.42638508639416
0.67243505859375,-0.1011181640625,1.1582568359375005,1.3431130589512188,-2.4755859375,16.0,-5.10595703125,29.33,196.42638508639416
0.4844467773437499,0.0937060546875,1.1958544921875005,1.2936527630121095,-0.658203125,16.0,-2.56103515625,29.23588235294118,196.42638508639416
0.57624365234375,0.1410693359375,1.1973193359375005,1.3362375898836736,1.94287109375,-15.90185546875,0.7236328125,29.188823529411767,196.42638508639416
0.72858740234375,0.1728076171875,1.0962451171875005,1.3275750194883418,3.97705078125,-3.01025390625,2.99951171875,29.188823529411767,196.42638508639416
0.83503271484375,0.2450732421875,0.9634326171875,1.2982846131555177,4.4833984375,11.43701171875,4.01025390625,29.377058823529413,196.42638508639416
0.87458349609375,0.3446826171875,0.9028857421875,1.3034205237283414,4.72412109375,15.99951171875,4.14306640625,29.28294117647059,196.42638508639416
0.88093115234375,0.4252490234375,0.8486865234375001,1.2950464247156026,5.0859375,15.99951171875,4.130859375,29.23588235294118,196.29086698840848
0.91071630859375,0.4804248046875,0.7681201171875001,1.2846091631799097,5.34912109375,15.99951171875,4.2001953125,29.188823529411767,196.29086698840848
1.05768896484375,0.3944873046875,0.6543505859375001,1.3047991681590705,5.00146484375,15.99951171875,3.16162109375,29.23588235294118,196.29086698840848
1.08991552734375,0.2733935546875,0.5230029296875001,1.2394321106665664,4.0458984375,15.99951171875,1.0986328125,29.28294117647059,196.29086698840848
1.32575537109375,0.2533740234375,0.4473193359375,1.4219424348546603,3.0703125,15.99951171875,-1.7734375,29.28294117647059,196.29086698840848
1.45124365234375,0.2206591796875,0.3984912109375,1.5210502480992607,2.06005859375,15.99951171875,-4.0498046875,29.33,196.29086698840848
1.53229833984375,0.1659716796875,0.3853076171875,1.588693413031259,1.138671875,15.99951171875,-5.19189453125,29.28294117647059,196.29086698840848
1.52155615234375,0.0795458984375,0.2446826171875,1.5431559408715214,0.1103515625,15.99951171875,-4.56201171875,29.141764705882352,196.29086698840848
1.44343115234375,0.0106982421875,0.2163623046875,1.4595960368649934,-1.10400390625,13.99560546875,-2.4912109375,29.188823529411767,196.18381960273763
1.33698583984375,-0.0132275390625,0.2261279296875,1.3560383270089025,-1.3583984375,5.23779296875,0.20654296875,29.188823529411767,196.18381960273763
1.21979833984375,0.0038623046875,0.2793505859375,1.251383097675005,-0.99755859375,-4.51025390625,2.86376953125,29.23588235294118,196.18381960273763
1.12702490234375,0.0478076171875,0.3091357421875,1.1696305424628335,-0.23046875,-15.625,4.77783203125,29.33,196.18381960273763
1.08063818359375,0.1044482421875,0.3809130859375,1.150557733525479,0.26708984375,16.0,5.48828125,29.188823529411767,196.18381960273763
1.07331396484375,0.1801318359375,0.4546435546875,1.179470689447479,0.1796875,16.0,4.5712890625,29.28294117647059,196.18381960273763
1.08063818359375,0.2665576171875,0.5884326171875001,1.2590015059925894,-0.248046875,16.0,2.83642578125,29.23588235294118,196.18381960273763
1.05671240234375,0.3402880859375,0.7100146484375001,1.3177852191058803,-0.81005859375,16.0,0.388671875,29.33,196.18381960273763
1.06940771484375,0.3490771484375,0.8228076171875001,1.3937360191335944,-0.966796875,16.0,-2.54345703125,29.33,196.18381960273763
1.05573583984375,0.3031787109375,0.8594287109375001,1.3946731529215028,-0.80419921875,16.0,-5.25341796875,29.188823529411767,196.4829464828774
0.85212255859375,0.3114794921875,0.8589404296875001,1.2493642345887324,-0.24267578125,16.0,-6.12060546875,29.23588235294118,196.4829464828774
0.68415380859375,0.3065966796875,0.8311083984375001,1.1192895638582891,1.171875,16.0,-4.64794921875,29.188823529411767,196.4829464828774
0.82526708984375,0.2279833984375,0.7559130859375001,1.1421238081021858,2.4326171875,16.0,-2.74267578125,29.141764705882352,196.4829464828774
0.99665380859375,0.1503466796875,0.7134326171875001,1.2348720733519278,2.44921875,-10.30517578125,-0.6220703125,29.33,196.4829464828774
1.13093115234375,0.0990771484375,0.7148974609375001,1.341603492966142,1.28955078125,-1.06005859375,1.35205078125,29.28294117647059,196.4829464828774
1.19733740234375,0.1200732421875,0.7153857421875001,1.3999325693282003,0.45166015625,8.53857421875,2.19677734375,29.23588235294118,196.4829464828774
0.97956396484375,0.1723193359375,0.7559130859375001,1.2492574227315612,0.0400390625,15.99951171875,2.4521484375,29.33,196.4829464828774
0.95368505859375,0.1776904296875,0.7344287109375001,1.216747554440448,-0.06982421875,15.99951171875,2.3798828125,29.23588235294118,196.32389302517456
0.95075537109375,0.1425341796875,0.8008349609375001,1.2512347512367812,-0.2890625,15.99951171875,2.23681640625,29.28294117647059,196.32389302517456
1.08161474609375,0.1132373046875,0.6289599609375001,1.2563056071684304,-0.46240234375,15.99951171875,2.2177734375,29.188823529411767,196.32389302517456
0.93268896484375,0.1220263671875,0.5874560546875001,1.109010259474315,-0.4345703125,15.99951171875,2.4814453125,29.28294117647059,196.32389302517456
0.99616552734375,0.1269091796875,0.5420458984375001,1.1411684598559155,-0.36474609375,15.99951171875,2.4951171875,29.23588235294118,196.32389302517456
1.05524755859375,0.1689013671875,0.4927294921875,1.1767996576423825,-0.03125,15.99951171875,1.98681640625,29.28294117647059,196.32389302517456
1.12018896484375,0.2260302734375,0.4517138671875,1.2288036536719076,0.1806640625,12.572265625,1.15771484375,29.23588235294118,196.32389302517456
1.14753271484375,0.2431201171875,0.3901904296875,1.2361987277285342,0.173828125,6.7041015625,0.52685546875,29.23588235294118,196.30035638768547
1.13337255859375,0.2362841796875,0.3447802734375,1.2079888273885546,-0.0224609375,1.28662109375,-0.04931640625,29.28294117647059,196.30035638768547
1.11139990234375,0.2206591796875,0.3301318359375,1.1802064419454428,-0.201171875,-3.95068359375,-0.56005859375,29.188823529411767,196.30035638768547
1.07331396484375,0.1923388671875,0.3535693359375,1.1463020467027292,-0.2861328125,-8.70068359375,-0.7578125,29.28294117647059,196.30035638768547
1.05182958984375,0.1742724609375,0.3833544921875,1.1329947234618614,-0.37451171875,-13.037109375,-1.06884765625,29.188823529411767,196.30035638768547
1.03278662109375,0.1386279296875,0.3950732421875,1.114427554528436,-0.3017578125,16.0,-1.17578125,29.141764705882352,196.30035638768547
1.02253271484375,0.1239794921875,0.4268115234375,1.1149493907562975,-0.38525390625,16.0,-1.078125,29.188823529411767,196.30035638768547
0.97516943359375,0.1005419921875,0.4668505859375,1.085823920347481,-0.4228515625,16.0,-0.77294921875,29.28294117647059,196.37134260019883
0.99079443359375,0.0961474609375,0.5249560546875001,1.1253874014036915,-0.16064453125,16.0,-0.45361328125,29.23588235294118,196.37134260019883
1.00593115234375,0.1137255859375,0.5786669921875001,1.1660559506300632,0.2353515625,16.0,0.21533203125,29.28294117647059,196.37134260019883
1.02985693359375,0.1435107421875,0.6343310546875001,1.2180215612768457,0.78515625,16.0,0.9697265625,29.23588235294118,196.37134260019883
1.04743505859375,0.1962451171875,0.6089404296875001,1.227371498324458,1.54541015625,16.0,1.498046875,29.23588235294118,196.37134260019883
1.11823583984375,0.2152880859375,0.4961474609375,1.2421604793473415,1.62060546875,16.0,1.19970703125,29.23588235294118,196.37134260019883
1.13727880859375,0.2733935546875,0.5273974609375001,1.2830803583659165,1.71484375,-12.39453125,0.599609375,29.23588235294118,196.37134260019883
1.06452490234375,0.3788623046875,0.6357958984375001,1.296528572031115,2.63720703125,-7.84765625,0.38427734375,29.28294117647059,196.5148430806772
0.90290380859375,0.3959521484375,0.5723193359375001,1.1399836901084648,3.47802734375,-2.611328125,0.65576171875,29.23588235294118,196.5148430806772
0.88239599609375,0.3388232421875,0.4380419921875,1.0417795689532043,3.12841796875,3.712890625,0.29736328125,29.23588235294118,196.5148430806772
0.83405615234375,0.3393115234375,0.3994677734375,0.985066737442216,2.4599609375,9.35693359375,-0.39208984375,29.33,196.5148430806772
1.03425146484375,0.3202685546875,0.3823779296875,1.1482425356888506,2.1171875,13.318359375,-1.267578125,29.23588235294118,196.5148430806772
