AccX,AccY,AccZ,Magnitude,GyroX,GyroY,GyroZ,Temperature,Altitude
-0.42283251953125,0.13049853515625,0.8806245117187499,0.985554025861068,-0.060546875,-0.61376953125,-0.5947265625,44.34176470588236,217.52539153605977
-0.34812548828125,0.12366259765625,0.8952729492187499,0.9685026831418634,-0.0849609375,-0.65380859375,-0.607421875,44.53,217.52539153605977
-0.39207080078125,0.12366259765625,0.8967377929687499,0.9864839685584388,-0.05712890625,-0.71142578125,-0.6064453125,44.53,217.52539153605977
-0.40623095703125,0.12073291015625,0.8889252929687499,0.9847782504325024,-0.0419921875,-0.76708984375,-0.568359375,44.57705882352941,217.52539153605977
-0.41599658203125,0.13098681640625,0.8967377929687499,0.9971706833197572,-0.05224609375,-0.7724609375,-0.40869140625,44.53,217.52539153605977
-0.42136767578125,0.13147509765625,0.91236279296875,1.0135296174709207,-0.0439453125,-0.732421875,-0.15283203125,44.57705882352941,217.85517709965384
-0.40476611328125,0.14465869140625,0.9001557617187499,0.9975179892190622,-0.05810546875,-0.5966796875,0.0205078125,44.48294117647059,217.85517709965384
-0.37888720703125,0.15930712890625,0.8952729492187499,0.9851131562288324,-0.03369140625,-0.5615234375,0.140625,44.53,217.85517709965384
-0.34861376953125,0.18958056640625,0.8742768554687499,0.9601210191814504,0.025390625,-0.5361328125,-0.1181640625,44.57705882352941,217.85517709965384
-0.35642626953125,0.19934619140625,0.8938081054687499,0.9826858699715676,0.046875,-0.28466796875,-0.03173828125,44.48294117647059,217.85517709965384
-0.35984423828125,0.25012744140625,0.8645112304687499,0.9692426323554088,0.2392578125,0.0615234375,-0.39208984375,44.48294117647059,217.5044609571272
-0.34617236328125,0.22131884765625,0.8542573242187499,0.9479308589812838,0.23828125,0.1103515625,-1.0400390625,44.48294117647059,217.5044609571272
-0.36326220703125,0.15979541015625,0.8747651367187499,0.96057693527525,0.24853515625,0.1650390625,-1.14990234375,44.67117647058824,217.5044609571272
-0.39207080078125,0.12170947265625,0.8820893554687499,0.972941077142284,0.26806640625,0.228515625,-0.82275390625,44.53,217.5044609571272
-0.42918017578125,0.10901416015625,0.8669526367187499,0.973491954107372,0.326171875,0.1044921875,-0.291015625,44.34176470588236,217.8227023574028
-0.40916064453125,0.06848681640625,0.8684174804687499,0.9624197615585328,0.22998046875,-0.111328125,0.1083984375,44.53,217.8227023574028
-0.38181689453125,0.10754931640625,0.8371674804687499,0.926391054988839,0.298828125,-0.24609375,-0.2451171875,44.48294117647059,217.8227023574028
-0.39744189453125,0.12268603515625,0.8591401367187499,0.9545332352894068,0.1318359375,-0.33056640625,-0.7314453125,44.53,217.8227023574028
-0.41941455078125,0.10413134765625,0.8737885742187499,0.9748119692571384,0.1103515625,-0.294921875,-0.763671875,44.67117647058824,217.8227023574028
-0.42918017578125,0.10022509765625,0.90113232421875,1.0031351649881064,0.1083984375,-0.3330078125,-0.74951171875,44.48294117647059,217.6588886459211
-0.41160205078125,0.10852587890625,0.91089794921875,1.0054497443883652,0.13623046875,-0.49560546875,-0.58837890625,44.29470588235294,217.6588886459211
-0.40427783203125,0.11585009765625,0.92603466796875,1.0170555623361208,0.0751953125,-0.72021484375,-0.71826171875,45.09470588235294,217.6588886459211
-0.41599658203125,0.12317431640625,0.93189404296875,1.0279355893267204,0.05322265625,-0.79248046875,-0.66455078125,44.53,217.6588886459211
-0.42087939453125,0.13098681640625,0.93140576171875,1.030443450062215,0.04833984375,-0.693359375,-0.45361328125,44.53,217.7577532408231
-0.39841845703125,0.12512744140625,0.91724560546875,1.007836119737614,0.0751953125,-0.61865234375,-0.34033203125,44.48294117647059,217.7577532408231
-0.40525439453125,0.12610400390625,0.90650341796875,1.0009404532124295,0.03759765625,-0.57177734375,-0.29296875,44.57705882352941,217.7577532408231
-0.40330126953125,0.12756884765625,0.90503857421875,0.9990097825956306,0.03271484375,-0.42578125,-0.1923828125,44.67117647058824,217.7577532408231
-0.39011767578125,0.12268603515625,0.8947846679687499,0.9838105845188244,0.0361328125,-0.2548828125,-0.11572265625,44.34176470588236,217.7577532408231
-0.38523486328125,0.12122119140625,0.8908784179687499,0.9781435644810924,0.02880859375,-0.08740234375,-0.12255859375,44.53,217.50518070139336
-0.37937548828125,0.12415087890625,0.8811127929687499,0.9673153341982244,0.0439453125,0.080078125,0.13427734375,44.388823529411766,217.50518070139336
-0.37253955078125,0.12512744140625,0.8786713867187499,0.9625518164376508,0.02099609375,0.20166015625,0.24853515625,44.48294117647059,217.50518070139336
-0.37644580078125,0.12659228515625,0.8703706054687499,0.9567037359867244,0.021484375,0.28125,0.3134765625,44.48294117647059,217.50518070139336
-0.37156298828125,0.12903369140625,0.8708588867187499,0.9555647274546272,-0.01611328125,0.37451171875,0.32861328125,44.48294117647059,217.75847428982303
-0.38181689453125,0.13001025390625,0.8645112304687499,0.9539740429785536,-0.02294921875,0.42529296875,0.29541015625,44.53,217.75847428982303
-0.38377001953125,0.14514697265625,0.8674409179687499,0.9595836689568856,-0.044921875,0.4423828125,0.32421875,44.48294117647059,217.75847428982303
-0.38865283203125,0.14710009765625,0.8752534179687499,0.968895251429363,-0.04052734375,0.43896484375,0.3359375,44.67117647058824,217.75847428982303
-0.38425830078125,0.14905322265625,0.8757416992187499,0.967881619132242,-0.052734375,0.37548828125,0.35888671875,44.71823529411765,217.75847428982303
-0.38767626953125,0.15442431640625,0.8723237304687499,0.9669997157156356,-0.064453125,0.232421875,0.32421875,44.388823529411766,217.85806181200127
-0.39109423828125,0.15881884765625,0.8723237304687499,0.9690855588267564,-0.083984375,0.11767578125,0.2392578125,44.29470588235294,217.85806181200127
-0.39304736328125,0.15881884765625,0.8786713867187499,0.9755885720894096,-0.115234375,0.0390625,0.15478515625,44.53,217.85806181200127
-0.39695361328125,0.15881884765625,0.8811127929687499,0.979364769328104,-0.13623046875,0.01318359375,0.060546875,44.71823529411765,217.85806181200127
-0.38474658203125,0.15442431640625,0.8747651367187499,0.968034527432178,-0.150390625,-0.00927734375,-0.01806640625,44.53,217.8024946601264
-0.38181689453125,0.15149462890625,0.8708588867187499,0.9628758819878868,-0.1484375,-0.07275390625,-0.0771484375,44.20058823529412,217.8024946601264
-0.38914111328125,0.14465869140625,0.8786713867187499,0.9718129186645906,-0.146484375,-0.0546875,-0.04296875,44.34176470588236,217.8024946601264
-0.38669970703125,0.13977587890625,0.8835541992187499,0.9745470654099552,-0.15771484375,0.0224609375,0.033203125,44.57705882352941,217.8024946601264
-0.37498095703125,0.13635791015625,0.8816010742187499,0.9676903698300948,-0.14501953125,0.0888671875,0.08984375,44.48294117647059,217.8024946601264
-0.37058642578125,0.14075244140625,0.8850190429687499,0.9697444277501488,-0.14111328125,0.091796875,0.15380859375,44.53,217.90063907833016
-0.37498095703125,0.13928759765625,0.8830659179687499,0.9694416787382892,-0.099609375,0.01708984375,0.22314453125,44.29470588235294,217.90063907833016
-0.38962939453125,0.14465869140625,0.8840424804687499,0.9768665770490343,-0.072265625,-0.00830078125,0.322265625,44.71823529411765,217.90063907833016
-0.39109423828125,0.14856494140625,0.8918549804687499,0.9851048427546928,-0.060546875,0.0361328125,0.365234375,44.29470588235294,217.90063907833016
-0.38474658203125,0.14905322265625,0.8864838867187499,0.9778039051777838,-0.05029296875,0.05322265625,0.3779296875,44.48294117647059,217.90063907833016
-0.38865283203125,0.14954150390625,0.8801362304687499,0.9736803733362374,-0.08984375,0.05615234375,0.3251953125,44.53,217.90063907833016
-0.39402392578125,0.14954150390625,0.8801362304687499,0.9758367177260504,-0.10009765625,0.046875,0.275390625,44.53,217.90063907833016
-0.38328173828125,0.14807666015625,0.8830659179687499,0.9739799811397136,-0.06884765625,-0.00244140625,0.17138671875,44.53,217.90063907833016
-0.37839892578125,0.14954150390625,0.8820893554687499,0.9714062175291146,-0.08935546875,-0.0625,0.05517578125,44.53,217.90063907833016
-0.38132861328125,0.14368212890625,0.8820893554687499,0.9716674824780892,-0.07470703125,-0.0830078125,-0.05029296875,44.53,217.63723905209844
-0.38572314453125,0.14075244140625,0.8786713867187499,0.9698747340905146,-0.064453125,-0.13720703125,-0.07275390625,44.48294117647059,217.63723905209844
-0.39011767578125,0.13538134765625,0.8806245117187499,0.9726353072401152,-0.060546875,-0.13623046875,-0.041015625,44.57705882352941,217.63723905209844
-0.39402392578125,0.13245166015625,0.8825776367187499,0.9755724377012036,-0.09033203125,-0.16162109375,-0.01513671875,44.53,217.63723905209844
-0.39158251953125,0.13391650390625,0.8830659179687499,0.975231211097607,-0.09375,-0.12353515625,-0.0185546875,44.57705882352941,217.8017734037796
-0.38572314453125,0.13538134765625,0.8791596679687499,0.9695525644869496,-0.111328125,-0.1484375,-0.060546875,44.388823529411766,217.8017734037796
-0.38181689453125,0.13098681640625,0.8825776367187499,0.9705075846472226,-0.25,-0.1455078125,-0.11083984375,44.57705882352941,217.8017734037796
-0.39060595703125,0.12952197265625,0.8845307617187499,0.9755734844161238,-0.10009765625,-0.17041015625,-0.10009765625,44.53,217.8017734037796
-0.38767626953125,0.13538134765625,0.8889252929687499,0.9791880185799184,-0.09814453125,-0.1875,-0.11865234375,44.71823529411765,217.8017734037796
-0.38425830078125,0.13635791015625,0.8864838867187499,0.9757569383783316,-0.11083984375,-0.19287109375,-0.1640625,44.48294117647059,217.78084519719715
-0.38523486328125,0.13733447265625,0.8864838867187499,0.9762788222014628,-0.1181640625,-0.1884765625,-0.18994140625,44.53,217.78084519719715
-0.38572314453125,0.13391650390625,0.8786713867187499,0.9689062803407764,-0.11181640625,-0.17529296875,-0.19970703125,44.53,217.78084519719715
-0.38425830078125,0.12952197265625,0.8733002929687499,0.9628519018101196,-0.24755859375,-0.1533203125,-0.12060546875,44.53,217.78084519719715
-0.37595751953125,0.13538134765625,0.8816010742187499,0.9679321359728512,-0.0986328125,-0.14697265625,-0.09521484375,44.57705882352941,217.6581684009157
-0.37888720703125,0.13342822265625,0.8806245117187499,0.9679143231159636,-0.08837890625,-0.11962890625,-0.10546875,44.53,217.6581684009157
-0.37839892578125,0.13586962890625,0.8840424804687499,0.9711732133686896,-0.08056640625,-0.11181640625,-0.08544921875,44.57705882352941,217.6581684009157
-0.37888720703125,0.13391650390625,0.8840424804687499,0.971092298879851,-0.072265625,-0.09130859375,-0.09033203125,44.57705882352941,217.6581684009157
-0.36960986328125,0.13977587890625,0.8825776367187499,0.9670015678347438,-0.0576171875,-0.11572265625,-0.10693359375,44.53,217.6581684009157
-0.37253955078125,0.13635791015625,0.8879487304687499,0.9725390195254584,-0.07373046875,-0.1650390625,-0.1865234375,44.57705882352941,217.4712669551013
-0.38425830078125,0.13196337890625,0.8884370117187499,0.9769284000802668,-0.08837890625,-0.16552734375,-0.2216796875,44.48294117647059,217.4712669551013
-0.37839892578125,0.12854541015625,0.8811127929687499,0.967506807954256,-0.0517578125,-0.18994140625,-0.26416015625,44.53,217.4712669551013
-0.37986376953125,0.12952197265625,0.8835541992187499,0.9704331237959384,-0.0927734375,-0.2451171875,-0.35498046875,44.15352941176471,217.4712669551013
-0.37742236328125,0.12708056640625,0.8840424804687499,0.9696020925803932,-0.10009765625,-0.240234375,-0.4326171875,44.388823529411766,217.58311530600707
-0.38377001953125,0.12219775390625,0.8781831054687499,0.966135231570346,-0.12109375,-0.2333984375,-0.43310546875,44.67117647058824,217.58311530600707
-0.39597705078125,0.12268603515625,0.8850190429687499,0.977296472103066,-0.1015625,-0.18701171875,-0.3193359375,44.48294117647059,217.58311530600707
-0.39402392578125,0.12170947265625,0.8859956054687499,0.977269800378722,-0.10107421875,-0.17333984375,-0.1884765625,44.059411764705885,217.58311530600707
-0.38816455078125,0.11975634765625,0.8884370117187499,0.976900007717738,-0.07177734375,-0.09619140625,-0.0751953125,44.53,217.58311530600707
-0.38767626953125,0.11975634765625,0.8859956054687499,0.974485857091609,-0.07666015625,-0.05419921875,-0.06005859375,44.059411764705885,217.75847428982303
-0.39304736328125,0.11731494140625,0.8859956054687499,0.9763386902962676,-0.0595703125,-0.0263671875,-0.041015625,44.71823529411765,217.75847428982303
-0.39207080078125,0.11926806640625,0.8913666992187499,0.9810601291285186,-0.0361328125,-0.03662109375,0.12353515625,45.09470588235294,217.75847428982303
-0.38279345703125,0.13196337890625,0.8947846679687499,0.9821327640142324,-0.02783203125,-0.044921875,0.01416015625,44.29470588235294,217.75847428982303
-0.38181689453125,0.13196337890625,0.8982026367187499,0.9848687480727352,0.12353515625,-0.06884765625,-0.0166015625,44.29470588235294,217.6704340975729
-0.37595751953125,0.13635791015625,0.8903901367187499,0.9760799822352184,-0.0205078125,-0.08349609375,-0.09765625,44.34176470588236,217.6704340975729
-0.37888720703125,0.12903369140625,0.8889252929687499,0.9748812161742796,-0.0126953125,-0.08447265625,-0.19287109375,44.388823529411766,217.6704340975729
-0.38621142578125,0.12610400390625,0.8816010742187499,0.9707120784603576,-0.025390625,-0.11083984375,-0.18505859375,44.57705882352941,217.6704340975729
-0.38816455078125,0.12366259765625,0.8903901367187499,0.9791622705702744,-0.01025390625,-0.13330078125,-0.1845703125,44.48294117647059,217.6704340975729
-0.38425830078125,0.12170947265625,0.8899018554687499,0.9769303710194908,-0.0068359375,-0.0673828125,-0.1669921875,44.29470588235294,217.62641427562616
-0.37351611328125,0.11829150390625,0.8840424804687499,0.9669737711285008,-0.01318359375,-0.0400390625,-0.1923828125,44.48294117647059,217.62641427562616
-0.37205126953125,0.11829150390625,0.8918549804687499,0.973560646926082,-0.01513671875,-0.001953125,-0.20751953125,44.53,217.62641427562616
-0.37400439453125,0.11829150390625,0.8859956054687499,0.9689480790708168,-0.00439453125,-0.0400390625,-0.1669921875,44.57705882352941,217.62641427562616
-0.38377001953125,0.12317431640625,0.8908784179687499,0.9778116872464072,0.01513671875,-0.06640625,-0.13134765625,44.48294117647059,217.7700204861642
-0.38425830078125,0.12708056640625,0.8879487304687499,0.9758364924609508,0.01318359375,-0.0380859375,-0.1201171875,44.57705882352941,217.7700204861642
-0.37986376953125,0.12756884765625,0.8977143554687499,0.9830876656277948,0.0263671875,-0.01611328125,-0.1103515625,44.53,217.7700204861642
-0.37937548828125,0.13196337890625,0.8908784179687499,0.97724329114274,0.01708984375,-0.052734375,-0.20458984375,44.388823529411766,217.7700204861642
-0.38914111328125,0.13098681640625,0.8938081054687499,0.98360626346097,0.00732421875,-0.02783203125,-0.23046875,44.48294117647059,217.7700204861642
-0.38084033203125,0.13391650390625,0.8889252929687499,0.9762997311275484,0.01318359375,-0.02001953125,-0.25,44.48294117647059,217.50590089559384
-0.37302783203125,0.13391650390625,0.8864838867187499,0.9710494708820908,0.00146484375,-0.05029296875,-0.2880859375,44.34176470588236,217.50590089559384
-0.38621142578125,0.12610400390625,0.8942963867187499,0.9822563374717342,-0.0126953125,-0.11279296875,-0.32958984375,44.53,217.50590089559384
-0.38572314453125,0.12366259765625,0.8889252929687499,0.976863838395989,-0.0078125,-0.107421875,-0.3232421875,44.388823529411766,217.50590089559384
-0.38474658203125,0.12512744140625,0.8923432617187499,0.979777171459134,0.017578125,-0.078125,-0.25341796875,44.388823529411766,217.9569285554914
-0.38132861328125,0.12219775390625,0.8811127929687499,0.967834467406449,0.0283203125,-0.0654296875,-0.201171875,44.53,217.9569285554914
-0.37937548828125,0.11731494140625,0.8874604492187499,0.9722523363372978,0.060546875,-0.0703125,-0.15478515625,44.34176470588236,217.9569285554914
-0.38523486328125,0.11926806640625,0.8869721679687499,0.9743461388555884,0.064453125,-0.07373046875,-0.03271484375,44.53,217.9569285554914
-0.38865283203125,0.12415087890625,0.8903901367187499,0.9794177148413948,0.1015625,-0.0166015625,0.0927734375,44.48294117647059,217.9569285554914
-0.38474658203125,0.12805712890625,0.8859956054687499,0.9743801996953644,0.1083984375,0.02099609375,0.173828125,44.53,217.6704340975729
-0.38181689453125,0.13049853515625,0.8942963867187499,0.9811116327542072,0.12646484375,0.03271484375,0.18017578125,44.20058823529412,217.6704340975729
-0.38230517578125,0.13342822265625,0.8869721679687499,0.9750281866600178,0.1328125,0.03662109375,0.14306640625,44.48294117647059,217.6704340975729
-0.38767626953125,0.13538134765625,0.8816010742187499,0.9725438053447992,0.13037109375,0.0,0.12841796875,44.15352941176471,217.6704340975729
-0.37937548828125,0.13342822265625,0.8899018554687499,0.9765521819526934,0.10986328125,-0.0419921875,0.0859375,44.67117647058824,217.39693336564915
-0.37742236328125,0.25647509765625,0.8889252929687499,0.9992073320898744,0.09716796875,-0.04931640625,-0.00390625,44.1064705882353,217.39693336564915
-0.37888720703125,0.13049853515625,0.8884370117187499,0.9746310620545656,0.0849609375,-0.0712890625,-0.091796875,44.57705882352941,217.39693336564915
-0.38132861328125,0.13001025390625,0.8874604492187499,0.9746282503371806,0.08203125,-0.07958984375,-0.1767578125,44.48294117647059,217.39693336564915
-0.37986376953125,0.13049853515625,0.8791596679687499,0.9665650898223772,0.083984375,-0.134765625,-0.1904296875,44.48294117647059,217.39693336564915
-0.38328173828125,0.12756884765625,0.8913666992187499,0.9786282717499886,0.08740234375,-0.189453125,-0.13916015625,44.53,217.6935260276837
-0.38621142578125,0.13293994140625,0.8908784179687499,0.9800493094878368,0.06982421875,-0.23095703125,-0.08837890625,44.29470588235294,217.6935260276837
-0.38181689453125,0.12903369140625,0.8962495117187499,0.9826988458950732,0.0869140625,-0.18017578125,-0.1083984375,44.67117647058824,217.6935260276837
-0.37986376953125,0.13001025390625,0.8977143554687499,0.9834074504181526,0.1103515625,-0.04541015625,-0.0849609375,44.059411764705885,217.6935260276837
-0.37595751953125,0.12610400390625,0.8811127929687499,0.966232906822402,0.11474609375,0.064453125,-0.1083984375,44.67117647058824,217.51672564346623
-0.37595751953125,0.12659228515625,0.8816010742187499,0.9667420117160656,0.1337890625,-0.12548828125,-0.0830078125,44.059411764705885,217.51672564346623
-0.38132861328125,0.12708056640625,0.8894135742187499,0.976021253697739,0.13818359375,-0.1181640625,-0.08984375,44.57705882352941,217.51672564346623
-0.37937548828125,0.00940478515625,0.8864838867187499,0.9642965791209952,0.2490234375,-0.10546875,-0.07861328125,44.57705882352941,217.51672564346623
-0.38474658203125,0.12903369140625,0.8864838867187499,0.974952976976138,0.12158203125,-0.123046875,-0.01513671875,44.57705882352941,217.51672564346623
-0.37449267578125,0.12952197265625,0.8850190429687499,0.9696800565299304,0.10693359375,-0.0947265625,-0.03662109375,44.29470588235294,217.63723905209844
-0.36765673828125,0.13001025390625,0.8781831054687499,0.9608744507245016,0.10302734375,-0.18212890625,-0.10205078125,44.48294117647059,217.63723905209844
-0.36619189453125,0.12805712890625,0.8845307617187499,0.9658622056540208,0.07763671875,-0.2431640625,-0.1845703125,44.71823529411765,217.63723905209844
-0.38181689453125,0.12415087890625,0.8869721679687499,0.9736103986882362,0.0791015625,-0.236328125,-0.146484375,44.53,217.63723905209844
-0.38328173828125,0.12756884765625,0.8899018554687499,0.9772942311090166,0.10009765625,-0.17919921875,-0.0234375,44.53,217.82486576257887
-0.37595751953125,0.12805712890625,0.8845307617187499,0.9696068033912272,0.0712890625,-0.232421875,0.0830078125,44.53,217.82486576257887
-0.37595751953125,0.13001025390625,0.8894135742187499,0.9743219327396,0.0400390625,-0.19677734375,0.09423828125,44.1064705882353,217.82486576257887
-0.37937548828125,0.13147509765625,0.8889252929687499,0.975397169819523,0.06103515625,-0.1845703125,-0.12451171875,44.1064705882353,217.82486576257887
-0.38865283203125,0.12561572265625,0.8811127929687499,0.9711797400880816,0.03857421875,-0.0859375,0.05419921875,44.29470588235294,217.82486576257887
-0.38230517578125,0.12952197265625,0.8899018554687499,0.9771686145167694,0.044921875,-0.12744140625,0.0537109375,44.29470588235294,217.42940742328832
-0.37449267578125,0.12854541015625,0.8850190429687499,0.9695500982947508,0.06787109375,-0.142578125,0.03515625,44.71823529411765,217.42940742328832
-0.37253955078125,0.12854541015625,0.8913666992187499,0.9745995238274352,0.04931640625,-0.14306640625,0.00537109375,44.71823529411765,217.42940742328832
-0.37791064453125,0.12463916015625,0.8967377929687499,0.98106576988138,0.0185546875,-0.1337890625,-0.0107421875,44.57705882352941,217.42940742328832
-0.38572314453125,0.12122119140625,0.8889252929687499,0.9765577801403276,0.0263671875,-0.109375,0.0419921875,44.34176470588236,217.5405379164733
-0.38084033203125,0.12561572265625,0.8889252929687499,0.9751957981655288,0.013671875,-0.06787109375,0.11669921875,44.57705882352941,217.5405379164733
-0.38523486328125,0.12805712890625,0.8908784179687499,0.9790142408328584,0.01904296875,-0.0078125,0.1611328125,44.29470588235294,217.5405379164733
-0.37400439453125,0.13098681640625,0.8811127929687499,0.9661245194767196,0.0263671875,-0.01806640625,0.18505859375,44.57705882352941,217.5405379164733
-0.36277392578125,0.13586962890625,0.8811127929687499,0.9625098603230272,-0.0009765625,-0.07861328125,0.1083984375,44.53,217.5405379164733
-0.38328173828125,0.13489306640625,0.8850190429687499,0.9738376336339132,0.0166015625,-0.0185546875,0.119140625,44.57705882352941,217.49579686612543
-0.37839892578125,0.14026416015625,0.8825776367187499,0.970465386550595,0.0595703125,0.009765625,0.1591796875,44.34176470588236,217.49579686612543
-0.37058642578125,0.14124072265625,0.8796479492187499,0.9649164498932196,0.052734375,-0.06689453125,0.1533203125,44.53,217.49579686612543
-0.37449267578125,0.14270556640625,0.8923432617187499,0.9782055712538068,0.080078125,-0.134765625,0.16162109375,44.53,217.49579686612543
-0.37449267578125,0.14319384765625,0.8864838867187499,0.9729352103980938,0.05322265625,-0.17236328125,0.24658203125,44.53,217.7822893023205
-0.36521533203125,0.14661181640625,0.8855073242187499,0.9690203737309584,0.0537109375,-0.2412109375,0.03515625,44.57705882352941,217.7822893023205
-0.38230517578125,0.13538134765625,0.8947846679687499,0.9824077354918888,0.01611328125,-0.2724609375,-0.0234375,44.57705882352941,217.7822893023205
-0.37205126953125,0.14172900390625,0.8957612304687499,0.9802537629200724,0.02294921875,-0.24560546875,-0.0576171875,44.53,217.7822893023205
-0.36814501953125,0.13733447265625,0.8967377929687499,0.9790455465012337,0.0107421875,-0.2919921875,-0.0859375,44.57705882352941,217.7822893023205
-0.36668017578125,0.13245166015625,0.8923432617187499,0.973793761699043,0.02197265625,-0.31298828125,-0.10009765625,44.53,217.5506412218734
-0.37595751953125,0.12561572265625,0.8942963867187499,0.9782072344696464,0.00634765625,-0.2451171875,-0.10107421875,44.48294117647059,217.5506412218734
-0.37400439453125,0.13342822265625,0.8889252929687499,0.9735864390024496,-0.0224609375,-0.1123046875,-0.125,44.48294117647059,217.5506412218734
-0.37498095703125,0.13196337890625,0.8933198242187499,0.977775720628532,0.02783203125,-0.06396484375,0.10791015625,44.388823529411766,217.5506412218734
-0.36960986328125,0.13342822265625,0.8918549804687499,0.974587013982284,0.048828125,-0.00537109375,0.20703125,44.48294117647059,217.8919806410961
-0.36423876953125,0.13635791015625,0.8923432617187499,0.9734165899688974,0.07861328125,0.02880859375,0.24462890625,44.29470588235294,217.8919806410961
-0.36326220703125,0.13928759765625,0.8903901367187499,0.9716764180961162,0.0654296875,0.044921875,0.2275390625,44.388823529411766,217.8919806410961
-0.36130908203125,0.13928759765625,0.8869721679687499,0.9678145041123832,0.0458984375,0.01220703125,0.22998046875,44.388823529411766,217.8919806410961
-0.36814501953125,0.13635791015625,0.8996674804687499,0.9815935057246624,0.0576171875,-0.0107421875,0.19287109375,44.48294117647059,217.8919806410961
-0.37107470703125,0.13342822265625,0.8928315429687499,0.976036727239038,0.0498046875,-0.02783203125,0.19091796875,44.53,217.518167260374
-0.37546923828125,0.13342822265625,0.9001557617187499,0.9844087742661434,0.0673828125,-0.03076171875,0.203125,44.48294117647059,217.518167260374
-0.37595751953125,0.12903369140625,0.8942963867187499,0.9786520205406136,0.0498046875,-0.01513671875,0.15380859375,44.57705882352941,217.518167260374
-0.38230517578125,0.12317431640625,0.8938081054687499,0.9799092249044884,0.02978515625,-0.04443359375,0.0830078125,44.53,217.518167260374
-0.38474658203125,0.11975634765625,0.8918549804687499,0.9786607284322838,0.0078125,-0.09130859375,0.09814453125,44.57705882352941,217.7707423744044
-0.38328173828125,0.12219775390625,0.8962495117187499,0.9823952204768336,-0.00439453125,-0.052734375,0.1494140625,44.48294117647059,217.7707423744044
-0.37107470703125,0.12170947265625,0.8820893554687499,0.9646715839931562,-0.02099609375,0.01708984375,0.1298828125,44.48294117647059,217.7707423744044
-0.36326220703125,0.12219775390625,0.8874604492187499,0.9666839044095502,-0.0556640625,0.0205078125,0.111328125,44.53,217.7707423744044
-0.36668017578125,0.12854541015625,0.8977143554687499,0.978196983126548,-0.07958984375,0.033203125,0.111328125,44.53,217.7707423744044
-0.35984423828125,0.13147509765625,0.8947846679687499,0.973351518804938,-0.0986328125,0.029296875,0.09033203125,44.48294117647059,217.59466108680363
-0.35447314453125,0.13538134765625,0.8967377929687499,0.9737135044896724,-0.10791015625,-0.01611328125,0.06884765625,44.53,217.59466108680363
-0.35837939453125,0.13342822265625,0.8933198242187499,0.9717299981826276,-0.1083984375,0.00146484375,-0.00341796875,44.57705882352941,217.59466108680363
-0.37009814453125,0.13782275390625,0.8923432617187499,0.975830028649782,-0.10546875,-0.125,-0.0068359375,44.57705882352941,217.59466108680363
-0.38035205078125,0.13635791015625,0.9001557617187499,0.9866820954852406,-0.08740234375,0.04248046875,0.02001953125,44.48294117647059,217.6148690251869
-0.38425830078125,0.13977587890625,0.8977143554687499,0.9864495942814216,-0.0615234375,0.0966796875,0.11572265625,44.67117647058824,217.6148690251869
-0.38914111328125,0.14563525390625,0.90699169921875,0.9976343897830628,-0.0615234375,0.1708984375,0.22509765625,44.57705882352941,217.6148690251869
-0.37546923828125,0.13977587890625,0.8967377929687499,0.9821675593084824,-0.017578125,0.23828125,0.30126953125,44.57705882352941,217.6148690251869
-0.37058642578125,0.14758837890625,0.8850190429687499,0.9707601840716474,-0.03662109375,0.18505859375,0.28271484375,44.29470588235294,217.6148690251869
-0.35740283203125,0.14368212890625,0.8894135742187499,0.9692460185709104,-0.01953125,0.1162109375,0.14453125,44.388823529411766,217.6379598683393
-0.35837939453125,0.14172900390625,0.8889252929687499,0.9688710324147488,-0.03271484375,-0.0263671875,-0.0302734375,44.059411764705885,217.6379598683393
-0.35886767578125,0.14710009765625,0.8835541992187499,0.9649313293743764,-0.0478515625,-0.1064453125,-0.1435546875,44.34176470588236,217.6379598683393
-0.35447314453125,0.14710009765625,0.8859956054687499,0.9655453701583824,-0.021484375,-0.15966796875,-0.1845703125,44.57705882352941,217.6379598683393
-0.36472705078125,0.14758837890625,0.8845307617187499,0.9680923610826164,-0.0517578125,-0.23828125,-0.1416015625,44.29470588235294,217.78084519719715
-0.38230517578125,0.13538134765625,0.8874604492187499,0.9757414645539566,-0.091796875,-0.21533203125,-0.0771484375,44.71823529411765,217.78084519719715
-0.38377001953125,0.12170947265625,0.8845307617187499,0.9718473604697552,-0.11474609375,-0.1357421875,-0.03466796875,44.71823529411765,217.78084519719715
-0.38669970703125,0.12366259765625,0.8781831054687499,0.9674888465547722,-0.130859375,-0.08544921875,-0.02392578125,44.34176470588236,217.78084519719715
-0.38669970703125,0.12610400390625,0.8791596679687499,0.968690149120019,-0.11328125,-0.05517578125,0.025390625,44.059411764705885,217.78084519719715
-0.37742236328125,0.13245166015625,0.8889252929687499,0.9747713881021172,-0.11279296875,-0.0078125,0.09033203125,44.57705882352941,217.96847585196443
-0.36814501953125,0.14465869140625,0.8801362304687499,0.9649335088951848,-0.12353515625,0.01025390625,0.13134765625,44.57705882352941,217.96847585196443
-0.35740283203125,0.14905322265625,0.8845307617187499,0.9655818535758236,-0.10400390625,0.00439453125,0.1259765625,44.67117647058824,217.96847585196443
-0.35154345703125,0.15491259765625,0.8938081054687499,0.97286877043912,-0.08154296875,-0.0654296875,0.07080078125,44.67117647058824,217.96847585196443
-0.35984423828125,0.15930712890625,0.8933198242187499,0.9761592828461878,-0.072265625,-0.13916015625,0.02392578125,44.57705882352941,217.79239168879025
-0.36716845703125,0.15735400390625,0.8982026367187499,0.9830264162231612,-0.08154296875,-0.1962890625,-0.01513671875,44.29470588235294,217.79239168879025
-0.37058642578125,0.15588916015625,0.8933198242187499,0.9796203537951632,-0.06396484375,-0.23974609375,-0.0947265625,44.48294117647059,217.79239168879025
-0.37937548828125,0.15784228515625,0.8982026367187499,0.98772866957505,-0.04638671875,-0.32763671875,-0.16259765625,44.57705882352941,217.79239168879025
-0.38718798828125,0.15149462890625,0.8982026367187499,0.9897641827552855,-0.048828125,-0.35693359375,-0.21435546875,44.53,217.79239168879025
-0.38132861328125,0.14710009765625,0.8928315429687499,0.981935901246837,-0.041015625,-0.41748046875,-0.24462890625,44.34176470588236,217.6711551818087
-0.37595751953125,0.14856494140625,0.8864838867187499,0.9743045107763352,-0.0048828125,-0.478515625,-0.3095703125,44.48294117647059,217.6711551818087
-0.36912158203125,0.14465869140625,0.8859956054687499,0.9706518903451218,0.025390625,-0.56494140625,-0.36279296875,44.57705882352941,217.6711551818087
-0.35642626953125,0.13391650390625,0.8894135742187499,0.9674863418338304,0.11474609375,-0.64111328125,-0.4443359375,44.57705882352941,217.6711551818087
-0.36326220703125,0.13489306640625,0.8899018554687499,0.9706085115989966,0.16064453125,-0.74755859375,-0.51611328125,44.20058823529412,217.5607451121251
-0.36716845703125,0.13684619140625,0.8938081054687499,0.9759264753774952,0.24609375,-0.73681640625,-0.55517578125,44.57705882352941,217.5607451121251
-0.32273486328125,0.11975634765625,0.8718354492187499,0.9373347455928384,0.4072265625,-0.7841796875,-0.82470703125,44.53,217.5607451121251
-0.29490283203125,0.09924853515625,0.8982026367187499,0.9505713695873802,0.40087890625,-1.53369140625,-0.64990234375,44.67117647058824,217.5607451121251
-0.38084033203125,0.08704150390625,0.93482373046875,1.0131687860131915,0.56396484375,-1.0869140625,0.22998046875,44.67117647058824,217.5607451121251
-0.47507861328125,0.12659228515625,0.97388623046875,1.090953567002257,0.7177734375,-0.28271484375,1.203125,44.48294117647059,217.5390956422845
-0.36228564453125,0.11194384765625,0.91431591796875,0.9898262024782668,0.68603515625,0.4072265625,1.64306640625,44.67117647058824,217.5390956422845
-0.28074267578125,0.16760791015625,0.92896435546875,0.9848267031733206,0.2490234375,0.4443359375,0.3291015625,44.67117647058824,217.5390956422845
-0.38621142578125,0.16272509765625,0.92945263671875,1.0195689906596113,0.54296875,0.37353515625,-0.62353515625,44.53,217.5390956422845
-0.37449267578125,0.07385791015625,0.92701123046875,1.0025216090048308,0.76123046875,1.01806640625,-0.34326171875,44.15352941176471,217.5932194190812
-0.18015673828125,0.18030322265625,0.8859956054687499,0.9219294524844648,-0.0146484375,1.96728515625,-1.990234375,45.235882352941175,217.5932194190812
-0.26560595703125,0.12610400390625,0.8308198242187499,0.8813117067908199,0.54736328125,2.123046875,-2.09033203125,44.48294117647059,217.5932194190812
-0.40037158203125,0.01379931640625,0.7590424804687499,0.8582734482597246,-0.00634765625,-0.65283203125,-0.1669921875,44.53,217.5932194190812
-0.38425830078125,0.10706103515625,0.8523041992187499,0.9410307938499866,0.033203125,-2.12109375,0.947265625,44.67117647058824,217.5932194190812
-0.35349658203125,0.15930712890625,0.92017529296875,0.9985295011256572,-0.01123046875,-1.82373046875,0.6806640625,44.48294117647059,217.80393852266707
-0.37546923828125,0.17835009765625,0.96314404296875,1.0490149444768102,-0.04248046875,-0.63232421875,-0.22021484375,44.57705882352941,217.80393852266707
-0.42283251953125,0.16028369140625,0.95728466796875,1.0587124901652945,-0.0703125,0.41064453125,-0.65673828125,44.059411764705885,217.80393852266707
-0.40281298828125,0.13928759765625,0.90357373046875,0.9990519630039936,-0.0224609375,0.64013671875,-0.46630859375,44.57705882352941,217.80393852266707
-0.35740283203125,0.13489306640625,0.8689057617187499,0.9491734016798404,0.02587890625,0.3701171875,-0.1875,44.29470588235294,217.60620720986435
-0.33298876953125,0.13928759765625,0.8513276367187499,0.9246844329477582,0.00048828125,-0.32861328125,-0.06689453125,44.53,217.60620720986435
-0.34470751953125,0.14954150390625,0.8733002929687499,0.9507046529344612,-0.025390625,-0.572265625,-0.1337890625,44.34176470588236,217.60620720986435
-0.36130908203125,0.14807666015625,0.8918549804687499,0.97358936735577,0.00341796875,-0.42041015625,-0.1982421875,44.48294117647059,217.60620720986435
-0.35789111328125,0.15100634765625,0.8957612304687499,0.9763591286043584,-0.0048828125,-0.19287109375,-0.21728515625,44.48294117647059,217.60620720986435
-0.35252001953125,0.14661181640625,0.8850190429687499,0.9638589602724948,-0.00537109375,-0.0673828125,-0.1923828125,44.57705882352941,217.8934271328744
-0.35447314453125,0.14417041015625,0.8889252929687499,0.9677936215113592,0.00390625,-0.09326171875,-0.08349609375,44.57705882352941,217.8934271328744
-0.35886767578125,0.15588916015625,0.8889252929687499,0.9712237720805824,0.013671875,-0.15185546875,-0.03173828125,44.34176470588236,217.8934271328744
-0.36130908203125,0.16321337890625,0.90113232421875,0.9844908966385346,-0.01904296875,-0.18603515625,-0.037109375,44.29470588235294,217.8934271328744
-0.35740283203125,0.15833056640625,0.9001557617187499,0.9813693229146428,-0.0302734375,-0.21240234375,-0.18212890625,44.57705882352941,217.61775367519903
-0.36521533203125,0.17053759765625,0.90650341796875,0.9920754798673774,-0.0498046875,-0.18359375,-0.322265625,44.67117647058824,217.61775367519903
-0.36668017578125,0.16809619140625,0.90747998046875,0.9930914337702332,-0.0380859375,-0.1162109375,-0.36572265625,44.57705882352941,217.61775367519903
-0.35154345703125,0.15100634765625,0.8991791992187499,0.9771944287201164,-0.0615234375,-0.10693359375,-0.45849609375,44.53,217.61775367519903
-0.35544970703125,0.15686572265625,0.8908784179687499,0.9719134245268822,-0.01611328125,-0.14990234375,-0.47412109375,44.48294117647059,217.61775367519903
-0.33738330078125,0.13879931640625,0.8884370117187499,0.9604233783455272,0.00048828125,-0.1875,-0.47412109375,44.29470588235294,217.56290883443344
-0.34275439453125,0.12854541015625,0.8869721679687499,0.9595437062447476,0.0,-0.29638671875,-0.4267578125,44.57705882352941,217.56290883443344
-0.35496142578125,0.13684619140625,0.90455029296875,0.9812928851290552,0.04296875,-0.2412109375,-0.359375,44.48294117647059,217.56290883443344
-0.36521533203125,0.13391650390625,0.8996674804687499,0.9801619479362365,0.037109375,-0.12109375,-0.19580078125,44.34176470588236,217.56290883443344
-0.36521533203125,0.13147509765625,0.8977143554687499,0.9780383448868912,0.0205078125,-0.0830078125,-0.0107421875,44.48294117647059,217.62857825610587
-0.36326220703125,0.13147509765625,0.90259716796875,0.9817977286519576,0.01953125,-0.07568359375,0.11572265625,44.388823529411766,217.62857825610587
-0.36326220703125,0.00891650390625,0.8923432617187499,0.9634912723185312,0.0263671875,-0.078125,0.091796875,44.48294117647059,217.62857825610587
-0.35544970703125,0.12708056640625,0.8923432617187499,0.9689016778402192,0.03076171875,-0.19189453125,0.052734375,44.53,217.62857825610587
-0.34714892578125,0.12903369140625,0.9001557617187499,0.9733665627832416,0.04541015625,-0.37060546875,0.02001953125,44.57705882352941,217.62857825610587
-0.35349658203125,0.13684619140625,0.91187451171875,0.9875230826327458,0.06201171875,-0.416015625,0.0673828125,44.48294117647059,217.9251773759469
-0.35593798828125,0.13586962890625,0.92017529296875,0.9959292029812912,0.07958984375,-0.26708984375,0.119140625,44.48294117647059,217.9251773759469
-0.35007861328125,0.14221728515625,0.90650341796875,0.9821044946761842,0.05859375,-0.06005859375,0.13134765625,44.57705882352941,217.9251773759469
-0.35496142578125,0.14612353515625,0.90455029296875,0.9826296015432616,0.052734375,0.04833984375,0.083984375,44.57705882352941,217.9251773759469
-0.34861376953125,0.14319384765625,0.8982026367187499,0.9740657138622134,0.02587890625,-0.0625,0.05126953125,44.57705882352941,217.6386811345194
-0.35349658203125,0.14075244140625,0.8947846679687499,0.9723223155423012,-0.0234375,-0.15380859375,-0.01953125,44.388823529411766,217.6386811345194
-0.36130908203125,0.14124072265625,0.8913666992187499,0.9721253967317456,-0.037109375,-0.1728515625,-0.0615234375,44.34176470588236,217.6386811345194
-0.35691455078125,0.14221728515625,0.90308544921875,0.9814158554594616,-0.0126953125,-0.1259765625,-0.06494140625,44.71823529411765,217.6386811345194
-0.36130908203125,0.14221728515625,0.8957612304687499,0.9762982080114496,-0.00927734375,-0.09130859375,-0.04345703125,44.53,217.6386811345194
-0.35593798828125,0.15149462890625,0.8977143554687499,0.977513958009715,-0.01708984375,-0.08203125,-0.005859375,44.57705882352941,217.67259870010287
-0.35203173828125,0.15295947265625,0.8903901367187499,0.9695965865238134,-0.0087890625,-0.00341796875,0.00830078125,44.57705882352941,217.67259870010287
-0.34666064453125,0.16077197265625,0.8889252929687499,0.9675791472216532,-0.0087890625,-0.2119140625,-0.0107421875,44.57705882352941,217.67259870010287
-0.33933642578125,0.15100634765625,0.8928315429687499,0.9670058381490944,0.00390625,-0.27392578125,-0.0703125,44.53,217.67259870010287
-0.34910205078125,0.15149462890625,0.8962495117187499,0.9736971047010536,-0.0224609375,-0.28759765625,-0.06591796875,44.71823529411765,217.6935260276837
-0.34031298828125,0.15198291015625,0.8933198242187499,0.9679525005467444,0.0068359375,-0.2255859375,-0.07470703125,44.53,217.6935260276837
-0.32761767578125,0.15149462890625,0.9006440429687499,0.9702801946895784,0.02001953125,-0.19775390625,-0.1044921875,44.57705882352941,217.6935260276837
-0.32078173828125,0.14075244140625,0.8942963867187499,0.9604572872724596,0.01953125,-0.2001953125,-0.146484375,44.67117647058824,217.6935260276837
-0.33347705078125,0.14417041015625,0.8938081054687499,0.9648238077307264,0.01123046875,-0.18505859375,-0.1435546875,44.29470588235294,217.6935260276837
-0.34031298828125,0.13977587890625,0.8884370117187499,0.9615979149876892,-0.00927734375,-0.17529296875,-0.080078125,44.53,217.48497220615323
-0.33445361328125,0.14417041015625,0.8938081054687499,0.9651617771146666,-0.02880859375,-0.25732421875,-0.04638671875,44.53,217.48497220615323
-0.45017626953125,0.15051806640625,0.9006440429687499,1.0180736977738127,-0.021484375,-0.28369140625,-0.05322265625,44.57705882352941,217.48497220615323
-0.32859423828125,0.14856494140625,0.91138623046875,0.9801380394284852,-0.00439453125,-0.3037109375,-0.14111328125,44.48294117647059,217.48497220615323
-0.32810595703125,0.15002978515625,0.91871044921875,0.9870113195790312,0.015625,-0.291015625,-0.21875,44.48294117647059,217.72888952062792
-0.33884814453125,0.14710009765625,0.91968701171875,0.9911007533580596,-0.0068359375,-0.2109375,-0.232421875,44.48294117647059,217.72888952062792
-0.34177783203125,0.13879931640625,0.91871044921875,0.990003144543764,0.01904296875,-0.1796875,-0.228515625,44.388823529411766,217.72888952062792
-0.33982470703125,0.14417041015625,0.91871044921875,0.9900983931797958,-0.00634765625,-0.169921875,-0.21484375,44.57705882352941,217.72888952062792
-0.33347705078125,0.14319384765625,0.91626904296875,0.9855254337191052,0.001953125,-0.17236328125,-0.21435546875,44.57705882352941,217.72888952062792
-0.33445361328125,0.14710009765625,0.91089794921875,0.9814442073079276,0.1220703125,-0.16455078125,-0.216796875,44.388823529411766,217.727443909145
-0.32859423828125,0.14856494140625,0.8967377929687499,0.9665321435861004,0.12451171875,-0.1845703125,-0.244140625,44.34176470588236,217.727443909145
-0.32908251953125,0.14905322265625,0.90308544921875,0.9726641231359776,-0.01171875,-0.19189453125,-0.26318359375,44.53,217.727443909145
-0.32908251953125,0.15344775390625,0.91187451171875,0.9815073320980424,-0.00927734375,-0.19140625,-0.3359375,44.29470588235294,217.727443909145
-0.32957080078125,0.15002978515625,0.91431591796875,0.9834121450402484,-0.0146484375,-0.18505859375,-0.37646484375,44.34176470588236,217.5297133232883
-0.33201220703125,0.14563525390625,0.91236279296875,0.9817574032274152,-0.1220703125,-0.185546875,-0.40283203125,44.57705882352941,217.5297133232883
-0.33591845703125,0.14368212890625,0.90992138671875,0.9805318423944532,0.01513671875,-0.13916015625,-0.40966796875,44.57705882352941,217.5297133232883
-0.33543017578125,0.14124072265625,0.9001557617187499,0.970949401316342,0.02685546875,-0.0986328125,-0.38818359375,44.48294117647059,217.5297133232883
-0.32908251953125,0.14563525390625,0.90601513671875,0.9748683807596124,0.0244140625,-0.1220703125,-0.330078125,44.48294117647059,217.5297133232883
-0.32810595703125,0.14710009765625,0.90162060546875,0.9706758851314408,0.0390625,-0.15087890625,-0.29248046875,44.57705882352941,217.46404426373857
-0.32273486328125,0.15637744140625,0.8986909179687499,0.967603773348082,0.03662109375,-0.17626953125,-0.302734375,44.48294117647059,217.46404426373857
-0.32078173828125,0.15735400390625,0.90406201171875,0.9721056152461118,0.05419921875,-0.21240234375,-0.33935546875,44.67117647058824,217.46404426373857
-0.32371142578125,0.15442431640625,0.91089794921875,0.9789642641944556,0.07568359375,-0.23046875,-0.36767578125,44.53,217.46404426373857
-0.32957080078125,0.15051806640625,0.91919873046875,0.9880277866222348,0.087890625,-0.21337890625,-0.38232421875,44.53,217.45321970529744
-0.34128955078125,0.14368212890625,0.91480419921875,0.9869092331859896,0.09521484375,-0.14013671875,-0.37744140625,44.388823529411766,217.45321970529744
-0.34763720703125,0.14661181640625,0.91529248046875,0.9900035238447716,0.08984375,-0.07275390625,-0.3486328125,44.57705882352941,217.45321970529744
-0.35105517578125,0.15198291015625,0.90552685546875,0.9830144594040768,0.095703125,-0.07470703125,-0.34716796875,44.48294117647059,217.45321970529744
-0.33543017578125,0.14514697265625,0.9006440429687499,0.9719777459546128,0.06103515625,-0.146484375,-0.43505859375,44.57705882352941,217.45321970529744
-0.33445361328125,0.14124072265625,0.8962495117187499,0.9669908729814576,0.09228515625,-0.2587890625,-0.44287109375,44.53,217.55136252328933
-0.33543017578125,0.13635791015625,0.8918549804687499,0.9625550315040352,0.103515625,-0.28564453125,-0.4423828125,44.57705882352941,217.55136252328933
-0.32517626953125,0.13196337890625,0.8903901367187499,0.9570520023513084,0.083984375,-0.287109375,-0.4052734375,44.29470588235294,217.55136252328933
-0.33396533203125,0.01038134765625,0.8986909179687499,0.9587940245002664,0.09765625,-0.1982421875,-0.2724609375,44.48294117647059,217.55136252328933
-0.33298876953125,0.14514697265625,0.8908784179687499,0.9620881040256722,0.09814453125,-0.1552734375,-0.119140625,44.48294117647059,217.3428102087678
-0.33054736328125,0.14905322265625,0.8816010742187499,0.953256983514967,0.06640625,-0.22705078125,-0.07373046875,44.53,217.3428102087678
-0.31980517578125,0.13977587890625,0.8806245117187499,0.94726563192189,0.06103515625,-0.365234375,-0.166015625,44.57705882352941,217.3428102087678
-0.32566455078125,0.13098681640625,0.8830659179687499,0.9502738348422464,0.0498046875,-0.4677734375,-0.27734375,44.57705882352941,217.3428102087678
-0.32761767578125,0.13147509765625,0.8982026367187499,0.9650839442227516,0.056640625,-0.52490234375,-0.27197265625,44.71823529411765,217.3428102087678
-0.32468798828125,0.12415087890625,0.91578076171875,0.979535672653882,0.09423828125,-0.5048828125,-0.2236328125,44.53,217.728166489912
-0.33250048828125,0.12708056640625,0.91773388671875,0.9843482777438616,0.12451171875,-0.39013671875,-0.13720703125,44.48294117647059,217.728166489912
-0.33835986328125,0.12708056640625,0.90796826171875,0.977263133309759,0.11279296875,-0.28271484375,-0.05859375,44.48294117647059,217.728166489912
-0.34177783203125,0.13049853515625,0.8972260742187499,0.9689461194534492,0.12060546875,-0.26318359375,-0.04248046875,44.48294117647059,217.728166489912
-0.33298876953125,0.13049853515625,0.8972260742187499,0.9658809536220562,0.11083984375,-0.29931640625,-0.09716796875,44.34176470588236,217.7397139952124
-0.33152392578125,0.11926806640625,0.8942963867187499,0.961196656427762,0.11865234375,-0.36474609375,-0.125,44.57705882352941,217.7397139952124
-0.33591845703125,0.12122119140625,0.90308544921875,0.9711329031655954,0.1591796875,-0.34423828125,-0.119140625,44.48294117647059,217.7397139952124
-0.32517626953125,0.11536181640625,0.91187451171875,0.9749682456742466,0.21044921875,-0.2880859375,-0.07421875,44.53,217.7397139952124
-0.32029345703125,0.11340869140625,0.91138623046875,0.9726635034746316,0.1943359375,-0.27001953125,-0.005859375,44.53,217.7397139952124
-0.32029345703125,0.11829150390625,0.91626904296875,0.9778188674884016,0.19091796875,-0.267578125,0.03173828125,44.29470588235294,217.6509495642032
-0.32859423828125,0.12073291015625,0.92603466796875,0.9899953612550034,0.1787109375,-0.2275390625,0.0361328125,44.34176470588236,217.6509495642032
-0.33396533203125,0.12659228515625,0.92456982421875,0.991154785851188,0.1494140625,-0.212890625,0.05810546875,44.67117647058824,217.6509495642032
-0.33835986328125,0.13342822265625,0.93775341796875,1.0058190496272106,0.14892578125,-0.1806640625,0.06298828125,44.48294117647059,217.6509495642032
-0.32371142578125,0.13342822265625,0.93482373046875,0.998242247568217,0.17431640625,-0.16650390625,0.00732421875,44.53,217.68342328849667
-0.33640673828125,0.14075244140625,0.93628857421875,1.0047970131003718,0.2158203125,-0.0927734375,-0.03955078125,44.53,217.68342328849667
-0.32712939453125,0.14758837890625,0.92359326171875,0.990868550034179,0.17431640625,-0.03466796875,-0.0654296875,44.48294117647059,217.68342328849667
-0.32761767578125,0.14905322265625,0.91578076171875,0.9839738859353412,0.17236328125,0.03955078125,-0.11181640625,44.388823529411766,217.68342328849667
-0.31541064453125,0.14514697265625,0.90650341796875,0.970721363288106,0.171875,0.048828125,-0.17919921875,44.57705882352941,217.68342328849667
-0.31199267578125,0.14563525390625,0.8977143554687499,0.9614780917608862,0.162109375,0.04541015625,-0.208984375,44.57705882352941,217.57373340784844
-0.31345751953125,0.14417041015625,0.8982026367187499,0.9621895345116886,0.1806640625,0.12255859375,-0.18603515625,44.48294117647059,217.57373340784844
-0.31687548828125,0.14661181640625,0.9006440429687499,0.9659527896944632,0.203125,-0.05078125,-0.15625,44.53,217.57373340784844
-0.32175830078125,0.14612353515625,0.90210888671875,0.9688554769134248,0.22509765625,-0.03076171875,-0.15478515625,44.34176470588236,217.57373340784844
-0.32517626953125,0.14905322265625,0.90650341796875,0.9745280479491084,0.27294921875,-0.03564453125,-0.17626953125,44.53,217.8263102824155
-0.32957080078125,0.15149462890625,0.90601513671875,0.9759256955724304,0.28662109375,-0.0712890625,-0.2236328125,44.48294117647059,217.8263102824155
-0.33982470703125,0.15344775390625,0.91382763671875,0.9869690949157038,0.27294921875,-0.08740234375,-0.29736328125,44.059411764705885,217.8263102824155
-0.34128955078125,0.15540087890625,0.91871044921875,0.9922987857198152,0.296875,-0.10302734375,-0.3603515625,44.29470588235294,217.8263102824155
-0.34861376953125,0.14172900390625,0.91187451171875,0.9864754411425324,0.28857421875,-0.0439453125,-0.39697265625,44.15352941176471,217.8263102824155
-0.34324267578125,0.14319384765625,0.90943310546875,0.982541900280394,0.283203125,-0.017578125,-0.44189453125,45.28294117647059,217.68342328849667
-0.33396533203125,0.14075244140625,0.90601513671875,0.9758112116203924,0.2626953125,-0.04052734375,-0.43017578125,44.29470588235294,217.68342328849667
-0.33103564453125,0.13245166015625,0.90601513671875,0.9736485342215958,0.2861328125,-0.06640625,-0.41748046875,44.388823529411766,217.68342328849667
-0.32908251953125,0.13293994140625,0.91382763671875,0.9803312105166846,0.28466796875,-0.11328125,-0.36083984375,44.71823529411765,217.68342328849667
-0.34226611328125,0.13147509765625,0.91626904296875,0.9869046320223868,0.27783203125,-0.10546875,-0.27001953125,44.53,217.6509495642032
-0.34080126953125,0.13538134765625,0.92310498046875,0.9932756010159242,0.29296875,-0.0791015625,-0.16064453125,44.53,217.6509495642032
-0.33494189453125,0.14417041015625,0.92554638671875,0.9947900752645948,0.3134765625,-0.06884765625,-0.14111328125,44.48294117647059,217.6509495642032
-0.33054736328125,0.15051806640625,0.92554638671875,0.9942602082226748,0.306640625,-0.15673828125,-0.1484375,44.53,217.6509495642032
-0.31834033203125,0.16223681640625,0.92505810546875,0.9916621653006809,0.3056640625,-0.3037109375,-0.17236328125,44.53,217.6509495642032
-0.30320361328125,0.16858447265625,0.93042919921875,0.9930013344837136,0.32421875,-0.42578125,-0.22265625,44.48294117647059,217.77218750071225
-0.28953173828125,0.17932666015625,0.94654248046875,1.005946989580908,0.34033203125,-0.58740234375,-0.3017578125,44.48294117647059,217.77218750071225
-0.29539111328125,0.16760791015625,0.95630810546875,1.01482683938577,0.35400390625,-0.69287109375,-0.3544921875,44.388823529411766,217.77218750071225
-0.31150439453125,0.16418994140625,0.96460888671875,1.0268707947001192,0.3583984375,-0.630859375,-0.38818359375,45.235882352941175,217.77218750071225
-0.32419970703125,0.15149462890625,0.97046826171875,1.0343426509769396,0.38720703125,-0.60009765625,-0.3642578125,44.67117647058824,217.684145661902
-0.35105517578125,0.14563525390625,0.98072216796875,1.051791488066179,0.38427734375,-0.47021484375,-0.353515625,44.53,217.684145661902
-0.36570361328125,0.15637744140625,0.97535107421875,1.0533293667829624,0.4111328125,-0.16162109375,-0.4873046875,45.09470588235294,217.684145661902
-0.35398486328125,0.15051806640625,0.95777294921875,1.0321288650173988,0.365234375,0.173828125,-0.7490234375,44.57705882352941,217.684145661902
-0.33445361328125,0.13733447265625,0.92847607421875,0.99638737306999,0.369140625,0.33544921875,-1.1376953125,44.388823529411766,217.684145661902
-0.32712939453125,0.11536181640625,0.8982026367187499,0.9628551116650138,0.34912109375,0.34326171875,-1.3818359375,45.33,217.6509495642032
-0.30613330078125,0.09680712890625,0.8806245117187499,0.9373306506746598,0.3515625,0.07373046875,-1.3994140625,44.57705882352941,217.6509495642032
-0.31150439453125,0.08606494140625,0.8835541992187499,0.940802946906858,0.36767578125,-0.1337890625,-1.1591796875,44.57705882352941,217.6509495642032
-0.32322314453125,0.08313525390625,0.8933198242187499,0.9536272751683144,0.43994140625,-0.08935546875,-0.7841796875,44.29470588235294,217.6509495642032
-0.31785205078125,0.07581103515625,0.8884370117187499,0.9466242987738328,0.4423828125,0.005859375,-0.44482421875,44.53,217.3983754169221
-0.31980517578125,0.07141650390625,0.8894135742187499,0.9478566207455849,0.41357421875,0.10888671875,-0.2470703125,44.53,217.3983754169221
-0.32371142578125,0.06458056640625,0.8859956054687499,0.945488207038363,0.359375,0.076171875,-0.15283203125,44.34176470588236,217.3983754169221
-0.32273486328125,0.05920947265625,0.8796479492187499,0.9388525273940262,0.29931640625,-0.12451171875,-0.13134765625,44.67117647058824,217.3983754169221
-0.32224658203125,0.06262744140625,0.8928315429687499,0.95126926796143,0.22216796875,-0.3369140625,-0.03271484375,44.53,217.3983754169221
-0.32566455078125,0.06604541015625,0.90992138671875,0.968698263571497,0.146484375,-0.4169921875,0.005859375,44.53,217.44311706835973
-0.32371142578125,0.06751025390625,0.91773388671875,0.9754907525936468,0.119140625,-0.30859375,0.02099609375,44.29470588235294,217.44311706835973
-0.31834033203125,0.07874072265625,0.93335888671875,0.9892924137074232,0.06103515625,-0.078125,0.01611328125,44.48294117647059,217.44311706835973
-0.30808642578125,0.09241259765625,0.93091748046875,0.9849186206984448,0.037109375,0.06201171875,-0.0126953125,44.53,217.44311706835973
-0.30906298828125,0.10120166015625,0.92652294921875,0.981940162215971,0.0087890625,0.06982421875,-0.0458984375,44.53,217.93672520278224
-0.31296923828125,0.11145556640625,0.92066357421875,0.9787714259654944,0.00048828125,0.06494140625,-0.05517578125,44.48294117647059,217.93672520278224
-0.31736376953125,0.11292041015625,0.92115185546875,0.9808116649359656,0.00146484375,0.0263671875,-0.09765625,44.48294117647059,217.93672520278224
-0.31931689453125,0.11292041015625,0.92164013671875,0.9819036815156024,0.0048828125,-0.0048828125,-0.15478515625,44.67117647058824,217.93672520278224
-0.32127001953125,0.11975634765625,0.92749951171875,0.988843441851183,0.0380859375,-0.04150390625,-0.22314453125,44.67117647058824,217.93672520278224
-0.32712939453125,0.12268603515625,0.92066357421875,0.9847268255115154,0.0908203125,-0.0791015625,-0.236328125,44.67117647058824,217.7729107387898
-0.33689501953125,0.12024462890625,0.93238232421875,0.9986459950759934,0.12451171875,-0.12451171875,-0.25634765625,44.48294117647059,217.7729107387898
-0.35252001953125,0.12903369140625,0.92701123046875,1.000134930448598,0.18359375,0.15576171875,-0.20947265625,44.53,217.7729107387898
-0.34861376953125,0.12903369140625,0.92212841796875,0.9942344155430652,0.20703125,0.3017578125,-0.25439453125,44.67117647058824,217.7729107387898
-0.34226611328125,0.11975634765625,0.90845654296875,0.9781518111046722,0.23828125,0.30712890625,-0.33154296875,45.235882352941175,217.684145661902
-0.35398486328125,0.11487353515625,0.8928315429687499,0.9672897066709116,0.25537109375,0.298828125,-0.345703125,44.71823529411765,217.684145661902
-0.34177783203125,0.11243212890625,0.8816010742187499,0.9521940580270528,0.2451171875,0.2099609375,-0.3076171875,44.15352941176471,217.684145661902
-0.33640673828125,0.10852587890625,0.8752534179687499,0.9439363885450028,0.20947265625,0.03125,-0.2666015625,44.53,217.684145661902
-0.33005908203125,0.10315478515625,0.8942963867187499,0.9588252888979072,0.1943359375,-0.080078125,-0.12744140625,44.53,217.684145661902
-0.33982470703125,0.09924853515625,0.90552685546875,0.9722705329354884,0.17041015625,-0.06201171875,-0.23388671875,44.48294117647059,217.6733211341662
-0.34568408203125,0.09338916015625,0.91480419921875,0.9823877761417514,0.16015625,0.005859375,-0.17578125,44.48294117647059,217.6733211341662
-0.34275439453125,0.09534228515625,0.91138623046875,0.9783637296002632,0.16259765625,0.01025390625,-0.10791015625,44.67117647058824,217.6733211341662
-0.34177783203125,0.10168994140625,0.92798779296875,0.9941399672833796,0.14599609375,0.033203125,-0.00390625,44.67117647058824,217.6733211341662
-0.35300830078125,0.10852587890625,0.92945263671875,1.0001374559110745,0.1591796875,0.0146484375,0.05126953125,44.57705882352941,217.77218750071225
-0.35691455078125,0.10950244140625,0.93140576171875,1.0034418140560992,0.1552734375,0.0419921875,0.06884765625,44.48294117647059,217.77218750071225
-0.35886767578125,0.11585009765625,0.92994091796875,1.003492583310988,0.15673828125,0.10546875,0.04150390625,44.29470588235294,217.77218750071225
-0.35642626953125,0.11780322265625,0.91626904296875,0.9901849544317618,0.13818359375,0.1484375,0.03369140625,44.388823529411766,217.77218750071225
-0.34763720703125,0.11389697265625,0.8986909179687499,0.9702935195765564,0.17236328125,0.0947265625,0.05517578125,44.48294117647059,217.77218750071225
-0.33494189453125,0.12219775390625,0.8894135742187499,0.9582144174330124,0.1640625,-0.03857421875,0.083984375,44.53,217.84940556753412
-0.31638720703125,0.13879931640625,0.8889252929687499,0.9537055580667732,0.169921875,-0.1416015625,0.09716796875,44.388823529411766,217.84940556753412
-0.30662158203125,0.14075244140625,0.8796479492187499,0.9421297993874936,0.18212890625,-0.14111328125,0.07666015625,44.48294117647059,217.84940556753412
-0.30027392578125,0.15002978515625,0.8811127929687499,0.9428855290390796,0.1943359375,-0.134765625,0.08544921875,45.42411764705882,217.84940556753412
-0.28806689453125,0.16272509765625,0.8855073242187499,0.9452963632518452,0.17919921875,-0.162109375,0.05908203125,44.48294117647059,217.88332663091845
-0.28709033203125,0.16760791015625,0.8908784179687499,0.9508825510520535,0.17431640625,-0.16064453125,0.03759765625,44.67117647058824,217.88332663091845
-0.30125048828125,0.17249072265625,0.90308544921875,0.9675061936146964,0.19580078125,-0.1025390625,0.00390625,44.53,217.88332663091845
-0.30857470703125,0.16956103515625,0.90992138671875,0.9756670664068012,0.2080078125,0.07373046875,-0.0341796875,44.53,217.88332663091845
-0.31882861328125,0.16858447265625,0.91382763671875,0.982422189640791,0.2197265625,0.22314453125,-0.09716796875,44.53,217.88332663091845
-0.31589892578125,0.16760791015625,0.90455029296875,0.972674547506279,0.22216796875,0.2490234375,-0.20068359375,44.388823529411766,218.06951522226743
-0.31638720703125,0.16126025390625,0.90308544921875,0.9703963431781752,0.1865234375,0.18505859375,-0.30712890625,44.57705882352941,218.06951522226743
-0.31980517578125,0.15393603515625,0.90943310546875,0.9762377920868648,0.1728515625,0.037109375,-0.35986328125,44.059411764705885,218.06951522226743
-0.32468798828125,0.15393603515625,0.91578076171875,0.983754540618708,0.17724609375,-0.02880859375,-0.37939453125,44.29470588235294,218.06951522226743
-0.33201220703125,0.14856494140625,0.93238232421875,1.0008198868669438,0.18359375,-0.0068359375,-0.3486328125,44.53,217.70651746033465
-0.34519580078125,0.14954150390625,0.92261669921875,0.9963655834807084,0.16748046875,0.10791015625,-0.27783203125,44.57705882352941,217.70651746033465
-0.35740283203125,0.16126025390625,0.92945263671875,1.0087734422244188,0.17431640625,0.2041015625,-0.1455078125,44.1064705882353,217.70651746033465
-0.34714892578125,0.16077197265625,0.90943310546875,0.9866248411556402,0.14453125,0.28662109375,-0.1318359375,44.48294117647059,217.70651746033465
-0.33738330078125,0.15881884765625,0.90845654296875,0.9820102893960138,0.080078125,0.19580078125,-0.2373046875,44.48294117647059,217.70651746033465
-0.34617236328125,0.14807666015625,0.8962495117187499,0.9721240608270392,0.033203125,-0.00732421875,-0.3154296875,44.388823529411766,217.42074611171543
-0.33787158203125,0.13879931640625,0.8933198242187499,0.9651128247626596,-0.09814453125,-0.24365234375,-0.3173828125,44.57705882352941,217.42074611171543
-0.34714892578125,0.14172900390625,0.90552685546875,0.9800910025066324,-0.1103515625,-0.1923828125,-0.1533203125,44.48294117647059,217.42074611171543
-0.33835986328125,0.15344775390625,0.91578076171875,0.9882752722762788,-0.24853515625,-0.12158203125,0.0693359375,44.48294117647059,217.42074611171543
-0.32224658203125,0.16711962890625,0.90259716796875,0.9728584057414488,-0.134765625,0.17822265625,0.13037109375,44.29470588235294,217.78373520723028
-0.30906298828125,0.17590869140625,0.8928315429687499,0.9610473258677504,-0.13134765625,0.20947265625,0.033203125,44.53,217.78373520723028
-0.30271533203125,0.17395556640625,0.8728120117187499,0.9400520832012662,-0.1435546875,0.11376953125,-0.15478515625,44.48294117647059,217.78373520723028
-0.30418017578125,0.17249072265625,0.8630463867187499,0.9311969149267396,-0.11181640625,-0.10009765625,-0.29931640625,44.388823529411766,217.78373520723028
-0.30173876953125,0.16663134765625,0.8747651367187499,0.9402267468427732,-0.0703125,-0.38525390625,-0.35888671875,44.48294117647059,217.78373520723028
-0.30173876953125,0.16467822265625,0.8918549804687499,0.9558088241078172,-0.0029296875,-0.4072265625,-0.404296875,45.14176470588235,217.6401250166924
-0.31003955078125,0.15588916015625,0.90308544921875,0.9674653905404016,0.0400390625,-0.2392578125,-0.43408203125,44.20058823529412,217.6401250166924
-0.31541064453125,0.15100634765625,0.8991791992187499,0.9647849625816994,0.06396484375,-0.072265625,-0.44140625,44.53,217.6401250166924
-0.31882861328125,0.13977587890625,0.8947846679687499,0.9601190462660376,0.06005859375,-0.0595703125,-0.37744140625,44.059411764705885,217.6401250166924
-0.31785205078125,0.13293994140625,0.8850190429687499,0.9497166212214386,0.02490234375,-0.19287109375,-0.30810546875,44.57705882352941,217.72888952062792
-0.31052783203125,0.13879931640625,0.8923432617187499,0.9549708275312538,-0.025390625,-0.318359375,-0.23876953125,44.48294117647059,217.72888952062792
-0.30466845703125,0.14270556640625,0.8967377929687499,0.9577715890187992,-0.0615234375,-0.39306640625,-0.22021484375,44.48294117647059,217.72888952062792
-0.30027392578125,0.15002978515625,0.90406201171875,0.9643658475760468,-0.07861328125,-0.3291015625,-0.23974609375,44.53,217.72888952062792
-0.30076220703125,0.15540087890625,0.90699169921875,0.9681122253100922,-0.10546875,-0.318359375,-0.2021484375,44.388823529411766,217.72888952062792
-0.29929736328125,0.16028369140625,0.91480419921875,0.9757748184423396,-0.12841796875,-0.35791015625,-0.1396484375,44.67117647058824,217.77218750071225
-0.30466845703125,0.15784228515625,0.91675732421875,0.9788672265439636,-0.17822265625,-0.4169921875,-0.09228515625,44.53,217.77218750071225
-0.30955126953125,0.16272509765625,0.92945263671875,0.993067797171513,-0.1923828125,-0.42236328125,-0.11474609375,44.53,217.77218750071225
-0.30906298828125,0.15881884765625,0.93433544921875,0.9968581086408428,-0.2275390625,-0.4150390625,-0.236328125,44.48294117647059,217.77218750071225
-0.31492236328125,0.15540087890625,0.94117138671875,1.0045541833259055,-0.26806640625,-0.42333984375,-0.33203125,44.57705882352941,217.55280647593395
-0.31345751953125,0.15540087890625,0.94654248046875,1.0091321603474208,-0.310546875,-0.4248046875,-0.32568359375,44.48294117647059,217.55280647593395
-0.30564501953125,0.16223681640625,0.95093701171875,1.011939159642752,-0.32275390625,-0.47998046875,-0.31982421875,44.53,217.55280647593395
-0.30515673828125,0.15930712890625,0.95679638671875,1.0168376084099464,-0.34228515625,-0.46826171875,-0.25146484375,44.34176470588236,217.55280647593395
-0.31980517578125,0.15833056640625,0.96119091796875,1.025296005795696,-0.34521484375,-0.31103515625,-0.2353515625,44.57705882352941,217.55280647593395
-0.33201220703125,0.15491259765625,0.95191357421875,1.0199850348472197,-0.337890625,-0.12548828125,-0.25341796875,44.53,217.7079642142983
-0.33152392578125,0.15247119140625,0.93091748046875,0.999881459482342,-0.33056640625,0.00048828125,-0.2685546875,44.388823529411766,217.7079642142983
-0.32664111328125,0.15247119140625,0.91724560546875,0.9855360885559642,-0.34716796875,-0.04638671875,-0.33984375,44.53,217.7079642142983
-0.31736376953125,0.15344775390625,0.8918549804687499,0.9589949330298214,-0.30908203125,-0.19482421875,-0.4013671875,44.34176470588236,217.7079642142983
-0.30076220703125,0.14807666015625,0.8830659179687499,0.9445581072328632,-0.27197265625,-0.26171875,-0.4453125,44.388823529411766,217.4662109733244
-0.29587939453125,0.15002978515625,0.8786713867187499,0.9392108167927266,-0.2529296875,-0.36181640625,-0.505859375,44.57705882352941,217.4662109733244
-0.28464892578125,0.14563525390625,0.8791596679687499,0.9354979208484004,-0.22705078125,-0.42626953125,-0.5078125,44.059411764705885,217.4662109733244
-0.28611376953125,0.14417041015625,0.8942963867187499,0.9499538007599184,-0.22265625,-0.45947265625,-0.4599609375,44.53,217.4662109733244
-0.29294970703125,0.14319384765625,0.90796826171875,0.964743682614644,-0.20751953125,-0.43994140625,-0.37890625,44.67117647058824,217.4662109733244
-0.30857470703125,0.13586962890625,0.91626904296875,0.9763338901120932,-0.20263671875,-0.4091796875,-0.29150390625,44.53,217.7180650596744
-0.32029345703125,0.13586962890625,0.93189404296875,0.9947235605919836,-0.19970703125,-0.294921875,-0.23779296875,44.57705882352941,217.7180650596744
-0.32712939453125,0.12854541015625,0.93677685546875,1.000544072083054,-0.19677734375,-0.181640625,-0.234375,44.57705882352941,217.7180650596744
-0.32761767578125,0.13049853515625,0.93677685546875,1.000956585524145,-0.22900390625,-0.10009765625,-0.2939453125,44.29470588235294,217.7180650596744
-0.32224658203125,0.12659228515625,0.93140576171875,0.9936725613876984,-0.20361328125,-0.0693359375,-0.2509765625,44.53,217.6624966200465
-0.32029345703125,0.12854541015625,0.92359326171875,0.985969743035529,-0.21484375,-0.0927734375,-0.42333984375,44.53,217.6624966200465
-0.31589892578125,0.13049853515625,0.92749951171875,0.9884722268360372,-0.2265625,-0.154296875,-0.46484375,44.71823529411765,217.6624966200465
-0.31492236328125,0.13928759765625,0.93140576171875,0.9930225690881258,-0.205078125,-0.13427734375,-0.49072265625,44.53,217.6624966200465
-0.31785205078125,0.13928759765625,0.93335888671875,0.9957860073648152,-0.18505859375,-0.06494140625,-0.541015625,44.388823529411766,217.6624966200465
-0.32029345703125,0.13733447265625,0.92994091796875,0.9930955477240648,-0.166015625,0.03125,-0.56591796875,44.388823529411766,217.4777584392176
-0.32859423828125,0.13538134765625,0.92212841796875,0.9882424307579628,-0.11328125,0.064453125,-0.53515625,44.48294117647059,217.4777584392176
-0.32175830078125,0.12805712890625,0.91919873046875,0.982269483635072,-0.11083984375,0.046875,-0.533203125,44.53,217.4777584392176
-0.32566455078125,0.12903369140625,0.90894482421875,0.9741087139675586,-0.07568359375,0.1240234375,-0.5576171875,44.71823529411765,217.4777584392176
-0.32175830078125,0.12805712890625,0.8967377929687499,0.9612833618261653,-0.06787109375,-0.09912109375,-0.6337890625,45.235882352941175,217.5759009976705
-0.31736376953125,0.12708056640625,0.91382763671875,0.9756793439446144,-0.064453125,-0.12841796875,-0.6728515625,44.57705882352941,217.5759009976705
-0.32468798828125,0.14221728515625,0.91187451171875,0.9783471628484686,-0.07373046875,-0.1201171875,-0.634765625,44.53,217.5759009976705
-0.32078173828125,0.14417041015625,0.91138623046875,0.9768883722654288,-0.04443359375,-0.09765625,-0.63427734375,44.67117647058824,217.5759009976705
-0.31248095703125,0.13977587890625,0.91138623046875,0.9735535454813042,-0.03271484375,-0.12646484375,-0.6591796875,44.57705882352941,217.5759009976705
-0.31638720703125,0.13831103515625,0.91480419921875,0.977802398303096,-0.025390625,-0.228515625,-0.63232421875,44.57705882352941,217.542704702296
-0.31492236328125,0.13147509765625,0.90894482421875,0.9708977750888208,-0.0517578125,-0.2890625,-0.74853515625,44.48294117647059,217.542704702296
-0.33689501953125,0.12952197265625,0.92212841796875,0.9902499759208668,-0.02978515625,-0.24462890625,-0.52783203125,44.53,217.542704702296
-0.34568408203125,0.13391650390625,0.91822216796875,0.9902338432600108,-0.02197265625,-0.0771484375,-0.37646484375,44.29470588235294,217.542704702296
-0.34421923828125,0.14124072265625,0.90601513671875,0.9794382337354812,-0.005859375,-0.03125,-0.28759765625,44.059411764705885,217.62064552425863
-0.33250048828125,0.15002978515625,0.8933198242187499,0.9649278830480122,-0.01123046875,-0.14453125,-0.302734375,44.34176470588236,217.62064552425863
-0.32664111328125,0.14612353515625,0.8967377929687499,0.9654973711774874,-0.0244140625,-0.33935546875,-0.474609375,44.53,217.62064552425863
-0.33054736328125,0.13879931640625,0.8962495117187499,0.9652927000983312,-0.03271484375,-0.49169921875,-0.62646484375,44.53,217.62064552425863
-0.33396533203125,0.13831103515625,0.91578076171875,0.984539074378925,-0.00927734375,-0.57421875,-0.62548828125,44.34176470588236,217.62064552425863
-0.33201220703125,0.13782275390625,0.93482373046875,1.0015600951313777,0.02001953125,-0.52587890625,-0.5400390625,44.57705882352941,217.4871372020473
-0.32957080078125,0.13831103515625,0.94165966796875,1.0072089085450964,0.06396484375,-0.25048828125,-0.4404296875,44.67117647058824,217.4871372020473
-0.32615283203125,0.13196337890625,0.94458935546875,1.0079876257569969,0.0546875,-0.23095703125,-0.40380859375,44.53,217.4871372020473
-0.32615283203125,0.12708056640625,0.93628857421875,0.9995806292704544,0.04833984375,-0.18505859375,-0.435546875,44.57705882352941,217.4871372020473
-0.32615283203125,0.11682666015625,0.92652294921875,0.9891758760676884,-0.0185546875,-0.30078125,-0.49755859375,44.388823529411766,217.71878860098263
-0.33103564453125,0.11389697265625,0.94019482421875,1.003256410803442,-0.06201171875,-0.4072265625,-0.46875,44.67117647058824,217.71878860098263
-0.34031298828125,0.11243212890625,0.94800732421875,1.0134948447701644,-0.06494140625,-0.43505859375,-0.3505859375,44.67117647058824,217.71878860098263
-0.32859423828125,0.12708056640625,0.95289013671875,1.015934671347349,-0.03125,-0.2919921875,-0.2001953125,44.53,217.71878860098263
-0.32810595703125,0.14465869140625,0.95142529296875,1.0167545151802535,0.0205078125,-0.16162109375,-0.11181640625,44.388823529411766,217.71878860098263
-0.32761767578125,0.14954150390625,0.92701123046875,0.9945078301803544,0.0712890625,-0.07275390625,-0.08740234375,44.57705882352941,217.631469862578
-0.33005908203125,0.16028369140625,0.91480419921875,0.9856452618819732,0.08056640625,-0.140625,-0.12158203125,44.53,217.631469862578
-0.33103564453125,0.16077197265625,0.90992138671875,0.981523894334812,0.10009765625,-0.28076171875,-0.19970703125,44.34176470588236,217.631469862578
-0.31980517578125,0.14417041015625,0.90552685546875,0.9711021283038256,0.12158203125,-0.39208984375,-0.29248046875,44.48294117647059,217.631469862578
-0.32468798828125,0.13928759765625,0.90747998046875,0.9738291634298786,0.13427734375,-0.41845703125,-0.2509765625,44.67117647058824,217.7729107387898
-0.31541064453125,0.13147509765625,0.90601513671875,0.9683145170608742,0.1728515625,-0.314453125,-0.36572265625,44.48294117647059,217.7729107387898
-0.29636767578125,0.12366259765625,0.8972260742187499,0.9529642519869574,0.21240234375,-0.24365234375,-0.34521484375,44.29470588235294,217.7729107387898
-0.29099658203125,0.11194384765625,0.8850190429687499,0.9383331722790568,0.2177734375,-0.283203125,-0.1943359375,44.388823529411766,217.7729107387898
-0.29490283203125,0.11047900390625,0.8762299804687499,0.931102716845158,0.21533203125,-0.3642578125,-0.0673828125,44.059411764705885,217.7729107387898
-0.29978564453125,0.11145556640625,0.8786713867187499,0.9350706827765514,0.1904296875,-0.38916015625,0.04833984375,44.53,217.6083742538584
-0.29978564453125,0.11926806640625,0.8884370117187499,0.9452071879344998,0.16015625,-0.4169921875,0.05859375,44.57705882352941,217.6083742538584
-0.30271533203125,0.11682666015625,0.9006440429687499,0.957311199613349,0.1484375,-0.42333984375,0.0390625,44.34176470588236,217.6083742538584
-0.30271533203125,0.12366259765625,0.90455029296875,0.9618421090884578,0.13037109375,-0.38916015625,0.0,44.53,217.6083742538584
-0.30418017578125,0.12122119140625,0.91675732421875,0.9734804302568104,0.103515625,-0.36572265625,-0.0166015625,44.48294117647059,217.81838038047243
-0.30564501953125,0.12659228515625,0.91773388671875,0.9755408609880176,0.07666015625,-0.33642578125,-0.0654296875,44.48294117647059,217.81838038047243
-0.30613330078125,0.13391650390625,0.93042919921875,0.9886099952076856,0.07177734375,-0.29345703125,-0.1005859375,44.57705882352941,217.81838038047243
-0.30662158203125,0.13001025390625,0.93872998046875,0.996058952531914,0.0625,-0.283203125,-0.13525390625,44.71823529411765,217.81838038047243
-0.31638720703125,0.13831103515625,0.93628857421875,0.9979314111859632,0.05615234375,-0.3720703125,-0.1796875,44.29470588235294,217.81838038047243
-0.31052783203125,0.13538134765625,0.94117138671875,1.0002795723883129,0.05712890625,-0.228515625,-0.21484375,44.57705882352941,217.59899688850297
-0.31199267578125,0.13586962890625,0.94458935546875,1.0040164521884762,0.04931640625,-0.20068359375,-0.27880859375,44.57705882352941,217.59899688850297
-0.31248095703125,0.13635791015625,0.93042919921875,0.9909270018160724,0.06005859375,-0.14306640625,-0.33203125,44.48294117647059,217.59899688850297
-0.30759814453125,0.12756884765625,0.92652294921875,0.9845482237251874,0.07470703125,-0.095703125,-0.37451171875,44.57705882352941,217.59899688850297
-0.30369189453125,0.13098681640625,0.92212841796875,0.9796464321895804,0.09228515625,-0.0859375,-0.40966796875,44.53,217.7072406123419
-0.30466845703125,0.12561572265625,0.92212841796875,0.9792461374515624,0.087890625,-0.1142578125,-0.4072265625,44.53,217.7072406123419
-0.30662158203125,0.12268603515625,0.92945263671875,0.986382715629762,0.07666015625,-0.15966796875,-0.349609375,44.53,217.7072406123419
-0.30906298828125,0.12219775390625,0.92896435546875,0.9866240395999576,0.14453125,-0.06787109375,-0.345703125,44.53,217.7072406123419
-0.31101611328125,0.12463916015625,0.92847607421875,0.987083463219647,0.173828125,-0.00146484375,-0.27734375,44.34176470588236,217.7072406123419
-0.31492236328125,0.12366259765625,0.92017529296875,0.9804035407646506,0.22265625,0.04736328125,-0.185546875,44.388823529411766,217.59754982150963
-0.31052783203125,0.12366259765625,0.93140576171875,0.9895638764061694,0.23779296875,-0.013671875,-0.10400390625,44.71823529411765,217.59754982150963
-0.31003955078125,0.13196337890625,0.93042919921875,0.989564222867742,0.27294921875,-0.05908203125,-0.0517578125,44.53,217.59754982150963
-0.31492236328125,0.13196337890625,0.93287060546875,0.9933971989162412,0.29248046875,-0.04150390625,-0.03466796875,44.57705882352941,217.59754982150963
-0.31541064453125,0.13928759765625,0.92505810546875,0.9872271309267694,0.33154296875,0.0419921875,-0.0908203125,44.48294117647059,217.7079642142983
-0.30515673828125,0.13586962890625,0.91968701171875,0.9784709451494904,0.3349609375,0.05712890625,-0.14453125,44.48294117647059,217.7079642142983
-0.29587939453125,0.13440478515625,0.92164013671875,0.9772562632145332,0.31884765625,0.0263671875,-0.22705078125,44.48294117647059,217.7079642142983
-0.29197314453125,0.12610400390625,0.92408154296875,0.9772805303412933,0.2998046875,-0.07373046875,-0.30322265625,44.53,217.7079642142983
-0.28074267578125,0.10901416015625,0.93287060546875,0.9802796048408948,0.27490234375,-0.1923828125,-0.3544921875,44.53,217.7079642142983
-0.29294970703125,0.11389697265625,0.94751904296875,0.9982907332127096,0.2744140625,-0.1591796875,-0.26708984375,44.48294117647059,217.67476735211548
-0.29197314453125,0.10510791015625,0.94849560546875,0.9979678870075984,0.2587890625,-0.07568359375,-0.15576171875,44.57705882352941,217.67476735211548
-0.29978564453125,0.10559619140625,0.95337841796875,1.0049638780349863,0.2734375,0.17626953125,-0.03857421875,44.67117647058824,217.67476735211548
-0.30906298828125,0.12610400390625,0.94117138671875,0.998611901443508,0.2666015625,0.3837890625,0.09521484375,44.34176470588236,217.67476735211548
-0.30173876953125,0.13196337890625,0.93042919921875,0.9869949914611682,0.24560546875,0.4189453125,0.0888671875,44.34176470588236,217.8725022217733
-0.29636767578125,0.13001025390625,0.91187451171875,0.967600945891981,0.1787109375,0.2744140625,-0.04345703125,44.57705882352941,217.8725022217733
-0.29197314453125,0.12756884765625,0.8972260742187499,0.9521222380964534,0.15771484375,0.13916015625,-0.26708984375,45.28294117647059,217.8725022217733
-0.28513720703125,0.11633837890625,0.8889252929687499,0.9407582163976532,0.12353515625,0.046875,-0.39990234375,44.388823529411766,217.8725022217733
-0.27683642578125,0.10950244140625,0.8977143554687499,0.9457908094964445,0.14697265625,-0.0751953125,-0.35009765625,44.67117647058824,217.8725022217733
-0.28269580078125,0.11877978515625,0.90796826171875,0.9583485365093878,0.16552734375,-0.0634765625,-0.17138671875,44.71823529411765,217.5542522283356
-0.27097705078125,0.12366259765625,0.90113232421875,0.949084014121554,0.20263671875,0.0830078125,-0.1181640625,45.09470588235294,217.5542522283356
-0.26609423828125,0.13293994140625,0.8923432617187499,0.9406145163681204,0.21240234375,0.12451171875,-0.1484375,44.48294117647059,217.5542522283356
-0.25730517578125,0.13001025390625,0.8806245117187499,0.926611110576856,0.14794921875,-0.0224609375,-0.26025390625,44.53,217.5542522283356
-0.25877001953125,0.12268603515625,0.8801362304687499,0.925555817017161,0.1259765625,-0.2958984375,-0.29541015625,44.53,217.6964161786404
-0.25388720703125,0.11780322265625,0.90259716796875,0.9449962755416206,0.24951171875,-0.4775390625,-0.234375,44.57705882352941,217.6964161786404
-0.26462939453125,0.11877978515625,0.92310498046875,0.9676053734751332,0.001953125,-0.49609375,-0.14599609375,44.48294117647059,217.6964161786404
-0.26951220703125,0.11926806640625,0.94312451171875,0.9881019917032206,0.1220703125,-0.39892578125,-0.0517578125,44.67117647058824,217.6964161786404
-0.27830126953125,0.12415087890625,0.95142529296875,0.999037099139252,0.1162109375,-0.2177734375,-0.05419921875,44.67117647058824,217.6964161786404
-0.28367236328125,0.12561572265625,0.95044873046875,0.9998010345652176,0.09130859375,-0.11767578125,-0.07080078125,44.20058823529412,217.7519856521048
-0.28660205078125,0.13147509765625,0.94849560546875,0.9995350671233448,0.07373046875,-0.123046875,-0.0380859375,45.42411764705882,217.7519856521048
-0.28074267578125,0.13001025390625,0.94312451171875,0.99257390693606,0.044921875,-0.1904296875,0.0146484375,44.53,217.7519856521048
-0.27830126953125,0.12805712890625,0.94507763671875,0.993489790743878,0.01171875,-0.20947265625,-0.0029296875,44.29470588235294,217.7519856521048
-0.28464892578125,0.12659228515625,0.95679638671875,1.006235530702209,-0.00927734375,-0.189453125,-0.03515625,44.388823529411766,217.4662109733244
-0.29197314453125,0.12317431640625,0.95777294921875,1.008835591959758,-0.03759765625,-0.0517578125,0.01806640625,44.34176470588236,217.4662109733244
-0.29246142578125,0.13049853515625,0.94751904296875,1.000177929188774,-0.03857421875,0.078125,0.0224609375,44.53,217.4662109733244
-0.28269580078125,0.12805712890625,0.93726513671875,0.9873102250820058,-0.05615234375,0.103515625,0.033203125,44.48294117647059,217.4662109733244
-0.28269580078125,0.12463916015625,0.93384716796875,0.983627149456064,-0.05517578125,0.0634765625,0.01025390625,44.67117647058824,217.4662109733244
-0.28806689453125,0.12561572265625,0.92261669921875,0.9746709286629162,-0.07861328125,0.04443359375,-0.0390625,44.53,217.57517801778897
-0.28367236328125,0.12561572265625,0.91675732421875,0.9678291744810876,-0.0869140625,0.03076171875,-0.0537109375,44.48294117647059,217.57517801778897
-0.27488330078125,0.12415087890625,0.91431591796875,0.9627813186973598,-0.07861328125,0.02880859375,-0.07421875,44.57705882352941,217.57517801778897
-0.27293017578125,0.13196337890625,0.91187451171875,0.960947625704256,-0.06201171875,0.03271484375,-0.080078125,44.53,217.57517801778897
-0.27683642578125,0.13001025390625,0.91578076171875,0.9655027065183602,-0.01708984375,0.0078125,-0.05859375,44.388823529411766,217.542704702296
-0.27244189453125,0.13928759765625,0.90943310546875,0.9595281101036908,0.01513671875,-0.03955078125,-0.05078125,44.57705882352941,217.542704702296
-0.27439501953125,0.14319384765625,0.92749951171875,0.977779345756841,0.04736328125,-0.11279296875,-0.0947265625,44.48294117647059,217.542704702296
-0.28464892578125,0.14417041015625,0.93433544921875,0.9873159827430346,0.05810546875,-0.15869140625,-0.17431640625,44.71823529411765,217.542704702296
-0.29929736328125,0.15051806640625,0.94556591796875,1.003159760559538,0.0693359375,-0.15478515625,-0.23828125,44.53,217.542704702296
-0.30808642578125,0.15002978515625,0.95972607421875,1.0190683587081042,0.09619140625,-0.02197265625,-0.25537109375,44.53,217.7079642142983
-0.31394580078125,0.14661181640625,0.94898388671875,1.0102610592267454,0.1015625,0.13232421875,-0.255859375,44.34176470588236,217.7079642142983
-0.31443408203125,0.14465869140625,0.95093701171875,1.0119664664398664,0.11767578125,0.1962890625,-0.2470703125,44.53,217.7079642142983
-0.30662158203125,0.13879931640625,0.93580029296875,0.9944869195331768,0.14794921875,0.181640625,-0.2392578125,44.57705882352941,217.7079642142983
-0.30857470703125,0.13098681640625,0.92945263671875,0.988057741124021,0.13330078125,0.134765625,-0.267578125,44.57705882352941,217.8956002451624
-0.29929736328125,0.12024462890625,0.92408154296875,0.9787565481279888,0.109375,0.1025390625,-0.251953125,44.67117647058824,217.8956002451624
-0.30564501953125,0.11340869140625,0.92115185546875,0.9771392685202336,0.08447265625,0.123046875,-0.16552734375,44.53,217.8956002451624
-0.30271533203125,0.11292041015625,0.93287060546875,0.9872361206035148,0.09228515625,0.13720703125,-0.0703125,44.388823529411766,217.8956002451624
-0.30125048828125,0.11438525390625,0.92310498046875,0.9777313782256862,0.08935546875,0.18896484375,0.0283203125,44.53,217.8956002451624
-0.31248095703125,0.11877978515625,0.92456982421875,0.9831491981000752,0.080078125,0.21826171875,0.09130859375,44.48294117647059,217.84002907611367
-0.30759814453125,0.12415087890625,0.91626904296875,0.9744634515235197,0.07421875,0.19921875,0.14013671875,44.48294117647059,217.84002907611367
-0.30955126953125,0.12415087890625,0.91626904296875,0.9750817341661528,0.05419921875,0.14208984375,0.15283203125,44.57705882352941,217.84002907611367
-0.31394580078125,0.12659228515625,0.91187451171875,0.9726781058559764,0.0576171875,0.10888671875,0.14453125,44.67117647058824,217.84002907611367
-0.31052783203125,0.12512744140625,0.91285107421875,0.9723073046939577,0.03857421875,0.0703125,0.06201171875,44.53,217.4662109733244
-0.31443408203125,0.13245166015625,0.91919873046875,0.9804787301702892,0.01904296875,0.0556640625,0.0703125,44.53,217.4662109733244
-0.32273486328125,0.13928759765625,0.91871044921875,0.9836603663570744,0.02587890625,0.0732421875,0.11767578125,44.53,217.4662109733244
-0.30613330078125,0.13001025390625,0.91431591796875,0.9729305534410092,0.0546875,0.07568359375,0.0888671875,44.53,217.4662109733244
-0.30027392578125,0.13928759765625,0.91333935546875,0.97147014550783,0.08642578125,0.1240234375,0.07958984375,44.67117647058824,217.4662109733244
-0.29246142578125,0.13001025390625,0.91968701171875,0.9737867072490428,0.07373046875,-0.109375,0.0380859375,44.53,217.77508315270217
-0.30027392578125,0.13635791015625,0.92652294921875,0.9834646336270938,0.09423828125,-0.07373046875,0.0732421875,44.57705882352941,217.77508315270217
-0.31003955078125,0.14417041015625,0.93042919921875,0.9912659204129358,0.11376953125,0.0546875,0.234375,44.34176470588236,217.77508315270217
-0.30662158203125,0.15393603515625,0.92701123046875,0.9884649305373248,0.140625,0.07861328125,0.33837890625,44.53,217.77508315270217
-0.29343798828125,0.15051806640625,0.91724560546875,0.9747312665719496,0.138671875,0.0185546875,0.31494140625,44.34176470588236,217.65384248527687
-0.29783251953125,0.15442431640625,0.91333935546875,0.9730055793447134,0.13720703125,-0.0400390625,0.16650390625,44.57705882352941,217.65384248527687
-0.29929736328125,0.14563525390625,0.91431591796875,0.9730170279591638,0.13037109375,-0.12451171875,0.05859375,44.81235294117647,217.65384248527687
-0.30222705078125,0.13879931640625,0.91626904296875,0.9747591495141984,0.15625,-0.1669921875,0.07421875,45.33,217.65384248527687
-0.29099658203125,0.13391650390625,0.92212841796875,0.9761831078224474,0.197265625,-0.13134765625,0.15625,44.53,217.65384248527687
-0.28318408203125,0.13586962890625,0.92164013671875,0.9736910813938678,0.2294921875,-0.01416015625,0.21240234375,44.15352941176471,217.58889686012768
-0.28416064453125,0.13586962890625,0.92359326171875,0.9758239293293728,0.22314453125,0.072265625,0.19580078125,45.28294117647059,217.58889686012768
-0.28220751953125,0.13684619140625,0.91333935546875,0.9656897754612752,0.2099609375,0.06640625,0.173828125,44.53,217.58889686012768
-0.28220751953125,0.13782275390625,0.91089794921875,0.9635202486015578,0.1982421875,-0.0400390625,0.16357421875,44.34176470588236,217.58889686012768
-0.27927783203125,0.14075244140625,0.92701123046875,0.9783441003251772,0.1728515625,-0.115234375,0.142578125,44.53,217.9396226154121
-0.28269580078125,0.13684619140625,0.92554638671875,0.9773842181301486,0.15283203125,-0.09912109375,0.1357421875,44.48294117647059,217.9396226154121
-0.27976611328125,0.14026416015625,0.93531201171875,0.9862817406959384,0.1748046875,-0.1220703125,0.15576171875,44.53,217.9396226154121
-0.28855517578125,0.14221728515625,0.93970654296875,0.9932463101193184,0.18310546875,0.0966796875,0.22216796875,44.57705882352941,217.9396226154121
-0.29539111328125,0.14514697265625,0.94165966796875,0.9975201670922884,0.18701171875,0.18408203125,0.31640625,44.53,217.9396226154121
-0.29880908203125,0.15149462890625,0.94214794921875,0.9999401223617826,0.16748046875,0.19677734375,0.33935546875,44.53,217.76353423126403
-0.30418017578125,0.15051806640625,0.93824169921875,0.9977368159018066,0.1650390625,0.22705078125,0.2958984375,44.71823529411765,217.76353423126403
-0.29929736328125,0.14807666015625,0.93482373046875,0.9926736704464604,0.1201171875,0.203125,0.21875,44.48294117647059,217.76353423126403
-0.29343798828125,0.14270556640625,0.92798779296875,0.9836829141287792,0.10986328125,0.17724609375,0.126953125,44.57705882352941,217.76353423126403
-0.30320361328125,0.13733447265625,0.93189404296875,0.9895553020459332,0.11083984375,0.21337890625,0.1279296875,44.53,217.8299294561208
-0.28855517578125,0.13489306640625,0.92603466796875,0.9792856759468208,0.0791015625,0.27685546875,0.13134765625,44.57705882352941,217.8299294561208
-0.28904345703125,0.13245166015625,0.93042919921875,0.9832538111238456,0.08154296875,0.33935546875,0.1806640625,44.57705882352941,217.8299294561208
-0.29148486328125,0.13342822265625,0.93042919921875,0.9841061989857288,0.06787109375,0.3896484375,0.23876953125,44.48294117647059,217.8299294561208
-0.31003955078125,0.13586962890625,0.91236279296875,0.9731345976284572,0.04736328125,0.39208984375,0.3076171875,44.57705882352941,217.8299294561208
-0.30662158203125,0.13489306640625,0.90699169921875,0.966874798711572,0.01708984375,0.39697265625,0.318359375,44.57705882352941,217.7411612851856
-0.30125048828125,0.14026416015625,0.90747998046875,0.9664087159507576,0.0185546875,0.3876953125,0.203125,44.67117647058824,217.7411612851856
-0.30222705078125,0.13293994140625,0.8982026367187499,0.9569650959431822,0.00537109375,0.357421875,0.10693359375,44.53,217.7411612851856
-0.30418017578125,0.13635791015625,0.8864838867187499,0.9470864482255428,-0.00390625,0.31689453125,0.12158203125,44.48294117647059,217.7411612851856
-0.29246142578125,0.12952197265625,0.8923432617187499,0.9479378269199016,-0.03759765625,0.28857421875,0.08544921875,44.34176470588236,217.73106131245072
-0.29441455078125,0.12561572265625,0.9006440429687499,0.9558341538286192,-0.0498046875,0.25244140625,0.025390625,45.33,217.73106131245072
-0.28953173828125,0.13049853515625,0.8947846679687499,0.9494725362968828,-0.0537109375,0.248046875,-0.0361328125,44.53,217.73106131245072
-0.29148486328125,0.12659228515625,0.91089794921875,0.9647404345595216,-0.10986328125,0.22998046875,-0.0283203125,44.48294117647059,217.73106131245072
-0.29783251953125,0.12024462890625,0.92115185546875,0.9755427829186452,-0.1162109375,0.20654296875,-0.03515625,44.388823529411766,217.73106131245072
-0.30222705078125,0.11926806640625,0.93726513671875,0.9919838700284572,-0.13330078125,0.21337890625,-0.01025390625,44.53,217.87395165584343
-0.30515673828125,0.12659228515625,0.94165966796875,0.9979324485447644,-0.13037109375,0.2685546875,0.01708984375,44.29470588235294,217.87395165584343
-0.31931689453125,0.13684619140625,0.94703076171875,1.008740513153444,-0.12890625,0.39501953125,-0.00732421875,44.53,217.87395165584343
-0.32224658203125,0.14417041015625,0.93872998046875,1.0029167178915226,-0.10205078125,0.4921875,-0.029296875,44.53,217.87395165584343
-0.32224658203125,0.15784228515625,0.93775341796875,1.0040610138463912,-0.08154296875,0.52392578125,-0.10205078125,44.57705882352941,217.98364516846704
-0.31834033203125,0.16126025390625,0.93189404296875,0.9978837326103264,-0.06787109375,0.4384765625,-0.228515625,44.71823529411765,217.98364516846704
-0.32127001953125,0.17102587890625,0.92408154296875,0.9931721778024044,-0.0537109375,0.34033203125,-0.38720703125,44.34176470588236,217.98364516846704
-0.32468798828125,0.15881884765625,0.91871044921875,0.9872560993018488,-0.0478515625,0.2880859375,-0.52685546875,44.48294117647059,217.98364516846704
-0.32322314453125,0.15149462890625,0.91919873046875,0.9860781560522844,-0.03515625,0.33349609375,-0.60107421875,44.1064705882353,217.98364516846704
-0.32029345703125,0.13538134765625,0.91236279296875,0.97638203276381,-0.00146484375,0.39013671875,-0.52734375,44.53,217.5556997805089
-0.31834033203125,0.12659228515625,0.90503857421875,0.9677091476692548,-0.017578125,0.4091796875,-0.4482421875,44.53,217.5556997805089
-0.31296923828125,0.11682666015625,0.90210888671875,0.9619764322115965,-0.033203125,0.3984375,-0.33447265625,44.53,217.5556997805089
-0.30662158203125,0.12073291015625,0.8986909179687499,0.9572035291418738,-0.03515625,0.3408203125,-0.32470703125,44.48294117647059,217.5556997805089
-0.31394580078125,0.13196337890625,0.9006440429687499,0.962879011784778,-0.06884765625,0.30224609375,-0.2998046875,44.53,217.5232270925854
-0.32468798828125,0.14661181640625,0.90210888671875,0.9699060562451436,-0.08837890625,0.29443359375,-0.28564453125,44.53,217.5232270925854
-0.31785205078125,0.14417041015625,0.8947846679687499,0.9604450194479712,-0.10595703125,0.294921875,-0.25244140625,44.67117647058824,217.5232270925854
-0.32175830078125,0.14368212890625,0.8967377929687499,0.963489298138352,-0.11376953125,0.2783203125,-0.4931640625,44.20058823529412,217.5232270925854
-0.31736376953125,0.13879931640625,0.8986909179687499,0.9631357009712812,-0.1357421875,0.1611328125,-0.609375,44.53,217.5232270925854
-0.32029345703125,0.12708056640625,0.90943310546875,0.9725255484035866,-0.15625,0.11474609375,-0.66064453125,44.71823529411765,217.67621536984635
-0.33640673828125,0.13049853515625,0.92066357421875,0.9888482078318188,-0.11865234375,0.2197265625,-0.57666015625,44.48294117647059,217.67621536984635
-0.34763720703125,0.13635791015625,0.91675732421875,0.989893478553824,-0.1201171875,0.3720703125,-0.3564453125,44.29470588235294,217.67621536984635
-0.33933642578125,0.13147509765625,0.91480419921875,0.9845311747598308,-0.12646484375,0.2978515625,-0.1845703125,44.53,217.67621536984635
-0.34324267578125,0.13391650390625,0.90259716796875,0.9749004113862876,-0.15283203125,0.21630859375,-0.171875,44.57705882352941,217.63291836547893
-0.34568408203125,0.13196337890625,0.8942963867187499,0.9678211845379054,-0.1357421875,0.09716796875,-0.28125,44.48294117647059,217.63291836547893
-0.34568408203125,0.12170947265625,0.8996674804687499,0.9714485347752804,-0.14697265625,-0.02490234375,-0.35400390625,44.48294117647059,217.63291836547893
-0.34275439453125,0.11682666015625,0.91382763671875,0.9829598125685116,-0.24951171875,-0.126953125,-0.35498046875,44.48294117647059,217.63291836547893
-0.34470751953125,0.11292041015625,0.91626904296875,0.9854558600739616,-0.10791015625,-0.10693359375,-0.26953125,44.48294117647059,217.63291836547893
-0.34324267578125,0.11389697265625,0.92017529296875,0.988691369765032,-0.1142578125,0.06005859375,-0.19287109375,44.71823529411765,217.38899485189057
-0.33494189453125,0.12366259765625,0.90650341796875,0.9742827913702984,-0.12255859375,0.16552734375,-0.2255859375,44.53,217.38899485189057
-0.32761767578125,0.12317431640625,0.8952729492187499,0.9612590219650964,-0.16650390625,0.10791015625,-0.28857421875,44.57705882352941,217.38899485189057
-0.31980517578125,0.13001025390625,0.8938081054687499,0.9581601880577588,-0.16357421875,-0.03466796875,-0.41455078125,44.48294117647059,217.38899485189057
-0.31931689453125,0.12122119140625,0.90210888671875,0.9646026642488472,-0.16650390625,-0.18505859375,-0.5078125,44.48294117647059,217.73106131245072
-0.31443408203125,0.11731494140625,0.90650341796875,0.9666333504535278,-0.12158203125,-0.21923828125,-0.59423828125,44.57705882352941,217.73106131245072
-0.31785205078125,0.11975634765625,0.91382763671875,0.9749115132260908,-0.11279296875,-0.18212890625,-0.6044921875,44.57705882352941,217.73106131245072
-0.32322314453125,0.11243212890625,0.90699169921875,0.9694060693139775,-0.0888671875,-0.08935546875,-0.5576171875,45.235882352941175,217.73106131245072
-0.33835986328125,0.11047900390625,0.9006440429687499,0.9684279526732584,-0.080078125,-0.01513671875,-0.46044921875,44.48294117647059,217.73106131245072
-0.34373095703125,0.11096728515625,0.8972260742187499,0.9672018080289952,-0.0595703125,-0.056640625,-0.35791015625,44.48294117647059,217.59899688850297
-0.35252001953125,0.11145556640625,0.8972260742187499,0.9704160631972456,-0.076171875,-0.19873046875,-0.28466796875,45.33,217.59899688850297
-0.33738330078125,0.10950244140625,0.8991791992187499,0.966613422536462,-0.09228515625,-0.40771484375,-0.3095703125,44.48294117647059,217.59899688850297
-0.35007861328125,0.11389697265625,0.91187451171875,0.9833832828452445,-0.11279296875,-0.5712890625,-0.33837890625,44.67117647058824,217.59899688850297
-0.35593798828125,0.11731494140625,0.91382763671875,0.9876920555567056,-0.08349609375,-0.541015625,-0.36328125,44.48294117647059,217.96199660370937
-0.34861376953125,0.11926806640625,0.91871044921875,0.9898410586931572,-0.0947265625,-0.39013671875,-0.3740234375,44.48294117647059,217.96199660370937
-0.34959033203125,0.11829150390625,0.91578076171875,0.9873503348256362,-0.046875,-0.27490234375,-0.3681640625,45.33,217.96199660370937
-0.35105517578125,0.12561572265625,0.91040966796875,0.983801204386448,0.01318359375,-0.19775390625,-0.39794921875,44.53,217.96199660370937
-0.34128955078125,0.12659228515625,0.8986909179687499,0.969613082715504,0.0810546875,-0.25732421875,-0.4287109375,44.48294117647059,217.96199660370937
-0.31687548828125,0.12659228515625,0.8884370117187499,0.9517121442570248,0.0673828125,-0.5341796875,-0.53173828125,44.388823529411766,217.4662109733244
-0.30369189453125,0.11975634765625,0.8947846679687499,0.9524756960888244,0.0498046875,-0.8408203125,-0.62939453125,44.48294117647059,217.4662109733244
-0.30515673828125,0.10315478515625,0.90210888671875,0.9578945600200608,0.06640625,-1.0654296875,-0.68115234375,44.53,217.4662109733244
-0.30710986328125,0.08948291015625,0.93140576171875,0.9848047280032444,0.08935546875,-1.111328125,-0.63427734375,44.53,217.4662109733244
-0.31736376953125,0.08118212890625,0.93091748046875,0.9868726643833644,0.11767578125,-1.0244140625,-0.48486328125,44.53,217.8299294561208
-0.31834033203125,0.07629931640625,0.93042919921875,0.986336984727163,0.109375,-0.93798828125,-0.29541015625,44.57705882352941,217.8299294561208
-0.32127001953125,0.08215869140625,0.92652294921875,0.984077868591814,0.11083984375,-0.8603515625,-0.1630859375,44.48294117647059,217.8299294561208
-0.31687548828125,0.09192431640625,0.92212841796875,0.9793778505999544,0.08935546875,-0.84375,-0.15966796875,44.53,217.8299294561208
-0.31687548828125,0.10559619140625,0.92798779296875,0.9862666853402264,0.04931640625,-0.8310546875,-0.27490234375,44.57705882352941,217.8299294561208
-0.30613330078125,0.10315478515625,0.92994091796875,0.9844534618052884,0.00244140625,-0.80078125,-0.40771484375,44.57705882352941,217.8090062149064
-0.30418017578125,0.10120166015625,0.92066357421875,0.9748788500372428,-0.021484375,-0.78759765625,-0.51708984375,44.57705882352941,217.8090062149064
-0.29734423828125,0.10022509765625,0.92456982421875,0.9763646993286637,-0.0126953125,-0.79638671875,-0.52294921875,44.71823529411765,217.8090062149064
-0.29148486328125,0.09534228515625,0.93091748046875,0.980133119684867,-0.03271484375,-0.7646484375,-0.4921875,44.57705882352941,217.8090062149064
-0.28464892578125,0.09387744140625,0.93677685546875,0.9835592823492252,-0.00390625,-0.72314453125,-0.42041015625,44.57705882352941,217.64374259613297
-0.28074267578125,0.09778369140625,0.93677685546875,0.9828168584491048,0.021484375,-0.66064453125,-0.41552734375,44.34176470588236,217.64374259613297
-0.28367236328125,0.09631884765625,0.93824169921875,0.9849085319237948,0.0146484375,-0.66162109375,-0.41943359375,44.388823529411766,217.64374259613297
-0.28757861328125,0.09827197265625,0.93775341796875,0.9857688939800192,0.00390625,-0.72265625,-0.44091796875,45.28294117647059,217.64374259613297
-0.29636767578125,0.09192431640625,0.95044873046875,0.9998183177179716,0.0263671875,-0.74462890625,-0.443359375,44.53,217.64374259613297
-0.29978564453125,0.08752978515625,0.94703076171875,0.9971961490088656,0.01513671875,-0.70556640625,-0.39013671875,44.53,217.85302863427864
-0.29685595703125,0.08313525390625,0.94556591796875,0.9945500665582808,0.05224609375,-0.6142578125,-0.34716796875,44.53,217.85302863427864
-0.29148486328125,0.07971728515625,0.94214794921875,0.9894245950510164,0.0693359375,-0.61767578125,-0.30322265625,44.48294117647059,217.85302863427864
-0.27634814453125,0.07678759765625,0.94361279296875,0.9862402015705748,0.09130859375,-0.669921875,-0.31884765625,44.67117647058824,217.85302863427864
-0.28464892578125,0.08704150390625,0.95044873046875,0.9959688868636106,0.06103515625,-0.7275390625,-0.28857421875,44.48294117647059,217.6985885162815
-0.29148486328125,0.09436572265625,0.93433544921875,0.9832858418594912,0.04833984375,-0.69580078125,-0.240234375,44.53,217.6985885162815
-0.27146533203125,0.08948291015625,0.94605419921875,0.9882910328260084,0.07080078125,-0.6376953125,-0.25732421875,44.48294117647059,217.6985885162815
-0.27634814453125,0.08655322265625,0.94507763671875,0.9884490359972762,0.10205078125,-0.5771484375,-0.26220703125,44.388823529411766,217.6985885162815
-0.26414111328125,0.08167041015625,0.94165966796875,0.9814089432543218,0.08447265625,-0.6142578125,-0.283203125,44.67117647058824,217.6985885162815
-0.27195361328125,0.08264697265625,0.93921826171875,0.9812849907198016,0.10546875,-0.59326171875,-0.29736328125,44.81235294117647,217.4885827823281
-0.27000048828125,0.08655322265625,0.94849560546875,0.9899674932126944,0.15087890625,-0.44775390625,-0.185546875,44.67117647058824,217.4885827823281
-0.26414111328125,0.09241259765625,0.94263623046875,0.983297350206624,0.19140625,-0.35888671875,-0.07177734375,44.53,217.4885827823281
-0.25877001953125,0.09241259765625,0.93677685546875,0.9762442768875516,0.19140625,-0.38916015625,0.01611328125,44.34176470588236,217.4885827823281
-0.26804736328125,0.09094775390625,0.93287060546875,0.9748684267378108,0.19775390625,-0.4453125,-0.009765625,44.20058823529412,217.8191051757588
-0.26414111328125,0.09045947265625,0.92994091796875,0.97094982096464,0.2197265625,-0.48095703125,-0.01806640625,44.53,217.8191051757588
-0.26804736328125,0.08997119140625,0.93482373046875,0.9766471273149788,0.22705078125,-0.49853515625,-0.03515625,44.57705882352941,217.8191051757588
-0.26169970703125,0.09485400390625,0.94165966796875,0.9819403999206394,0.248046875,-0.568359375,0.02099609375,44.34176470588236,217.8191051757588
-0.26365283203125,0.09241259765625,0.95533154296875,0.995344795050804,0.2705078125,-0.541015625,0.06103515625,44.57705882352941,217.8191051757588
-0.25974658203125,0.09876025390625,0.96119091796875,1.0005547738200802,0.2646484375,-0.4091796875,0.08154296875,44.57705882352941,217.6545668404081
-0.25925830078125,0.09729541015625,0.95581982421875,0.9951245146869891,0.2724609375,-0.28515625,0.04248046875,44.48294117647059,217.6545668404081
-0.26365283203125,0.09827197265625,0.94898388671875,0.9898184751254516,0.255859375,-0.220703125,-0.04345703125,44.53,217.6545668404081
-0.25681689453125,0.09290087890625,0.93628857421875,0.975305995485934,0.125,-0.193359375,-0.068359375,44.53,217.6545668404081
-0.25974658203125,0.09045947265625,0.93921826171875,0.9786634489016915,0.26611328125,-0.27001953125,-0.029296875,44.48294117647059,217.9194256869953
-0.24900439453125,0.09387744140625,0.93970654296875,0.976659894435692,0.283203125,-0.34423828125,0.033203125,44.67117647058824,217.9194256869953
-0.24509814453125,0.09680712890625,0.94703076171875,0.9830116908263749,0.27392578125,-0.34521484375,0.06689453125,44.57705882352941,217.9194256869953
-0.24949267578125,0.10168994140625,0.95093701171875,0.9883666524667252,0.310546875,-0.3017578125,0.04833984375,44.71823529411765,217.9194256869953
-0.25584033203125,0.10022509765625,0.95777294921875,0.9964077317791384,0.31689453125,-0.23095703125,0.056640625,44.53,217.9194256869953
-0.25974658203125,0.10120166015625,0.95581982421875,0.995641300501772,0.3017578125,-0.16943359375,0.10791015625,44.48294117647059,217.7433355947585
-0.25974658203125,0.10266650390625,0.96070263671875,1.0004790123234006,0.3115234375,-0.2470703125,0.1923828125,44.48294117647059,217.7433355947585
-0.25144580078125,0.10999072265625,0.94556591796875,0.9845901964904246,0.29638671875,-0.09716796875,0.22998046875,44.67117647058824,217.7433355947585
-0.25242236328125,0.11194384765625,0.94898388671875,0.988341485400872,0.3291015625,-0.12451171875,0.18701171875,44.059411764705885,217.7433355947585
-0.24070361328125,0.11585009765625,0.93628857421875,0.973650742713316,0.2978515625,0.07568359375,0.0703125,44.57705882352941,218.0305741752609
-0.24216845703125,0.11585009765625,0.93531201171875,0.973075210851265,0.30078125,0.0546875,0.01953125,44.388823529411766,218.0305741752609
-0.24363330078125,0.11975634765625,0.93091748046875,0.969693829770932,0.2958984375,0.0146484375,-0.01123046875,44.48294117647059,218.0305741752609
-0.24949267578125,0.12219775390625,0.92017529296875,0.9611979276498388,0.35107421875,0.04345703125,0.04931640625,44.29470588235294,218.0305741752609
-0.25535205078125,0.13098681640625,0.91236279296875,0.9564350902722948,0.39404296875,0.0673828125,0.0478515625,44.53,218.0305741752609
-0.25144580078125,0.13489306640625,0.91382763671875,0.9573411511712951,0.4501953125,0.01171875,-0.0205078125,44.29470588235294,217.39116418486503
-0.25388720703125,0.13538134765625,0.90455029296875,0.9492091738374648,0.48583984375,-0.14306640625,-0.09912109375,44.48294117647059,217.39116418486503
-0.25291064453125,0.13098681640625,0.91529248046875,0.9585831549699242,0.51953125,-0.287109375,-0.1884765625,44.71823529411765,217.39116418486503
-0.26902392578125,0.11633837890625,0.92408154296875,0.9694509730279274,0.55810546875,-0.37109375,-0.1298828125,44.53,217.39116418486503
-0.27878955078125,0.10461962890625,0.92896435546875,0.975522246854864,0.55078125,-0.349609375,0.0458984375,44.53,217.9410740214535
-0.28513720703125,0.10999072265625,0.94849560546875,0.9965164823009988,0.5498046875,-0.2783203125,0.3515625,44.388823529411766,217.9410740214535
-0.27781298828125,0.11340869140625,0.95044873046875,0.9966917161258512,0.58544921875,-0.095703125,0.5830078125,44.29470588235294,217.9410740214535
-0.27097705078125,0.12903369140625,0.94507763671875,0.991589630338037,0.59228515625,-0.01220703125,0.685546875,44.53,217.9410740214535
-0.25681689453125,0.13879931640625,0.94361279296875,0.987737450239588,0.61328125,-0.083984375,0.63671875,44.48294117647059,217.9410740214535
-0.25486376953125,0.15540087890625,0.93677685546875,0.9831865800174616,0.63232421875,-0.18212890625,0.5595703125,44.34176470588236,217.67621536984635
-0.26707080078125,0.17249072265625,0.94214794921875,0.994345322435576,0.63134765625,-0.22998046875,0.51953125,45.04764705882353,217.67621536984635
-0.28953173828125,0.18030322265625,0.94507763671875,1.004743558823986,0.62109375,-0.072265625,0.45361328125,44.57705882352941,217.67621536984635
-0.28513720703125,0.18127978515625,0.92456982421875,0.9843754096866542,0.595703125,-0.064453125,0.3837890625,44.57705882352941,217.67621536984635
-0.27781298828125,0.17151416015625,0.91968701171875,0.9759207770695456,0.5478515625,-0.20458984375,0.283203125,44.059411764705885,217.4561097938696
-0.27537158203125,0.17102587890625,0.91138623046875,0.9673180555195308,0.53662109375,-0.33056640625,0.1318359375,44.53,217.4561097938696
-0.26707080078125,0.17932666015625,0.91187451171875,0.96695397449674,0.537109375,-0.41943359375,0.00146484375,44.15352941176471,217.4561097938696
-0.25291064453125,0.17004931640625,0.92212841796875,0.9711855555726696,0.4580078125,-0.6005859375,-0.11083984375,44.48294117647059,217.4561097938696
-0.24705126953125,0.17835009765625,0.94703076171875,0.9948418722352774,0.48681640625,-0.73974609375,-0.0859375,44.29470588235294,217.4561097938696
-0.25486376953125,0.18958056640625,0.96119091796875,1.012316310727137,0.4375,-0.68603515625,0.0205078125,44.48294117647059,217.67621536984635
-0.25291064453125,0.20227587890625,0.99390576171875,1.0453363040104542,0.43115234375,-0.552734375,0.1748046875,44.48294117647059,217.67621536984635
-0.25681689453125,0.21301806640625,0.99976513671875,1.053974355727118,0.4404296875,-0.365234375,0.2421875,44.67117647058824,217.67621536984635
-0.27830126953125,0.22620166015625,1.00806591796875,1.0699605986438605,0.443359375,-0.16162109375,0.2373046875,44.53,217.67621536984635
-0.28513720703125,0.21350634765625,1.00074169921875,1.062248622441246,0.453125,-0.00146484375,0.05224609375,44.57705882352941,217.7873578436038
-0.29832080078125,0.21008837890625,0.99976513671875,1.0642662992543186,0.46435546875,0.10400390625,-0.19775390625,44.48294117647059,217.7873578436038
-0.30662158203125,0.20032275390625,0.97974560546875,1.0459672326298075,0.46337890625,0.2490234375,-0.484375,44.57705882352941,217.7873578436038
-0.29880908203125,0.18469775390625,0.95240185546875,1.0151203978359855,0.43017578125,0.1103515625,-0.71728515625,44.53,217.7873578436038
-0.31736376953125,0.18274462890625,0.93775341796875,1.0067257990720415,0.47119140625,0.189453125,-0.64453125,44.48294117647059,217.7873578436038
-0.32419970703125,0.18274462890625,0.92261669921875,0.9948480402104296,0.47607421875,0.31005859375,-0.37744140625,44.20058823529412,217.71086312158025
-0.30222705078125,0.18469775390625,0.8947846679687499,0.96233780584257,0.47216796875,0.2890625,-0.16796875,44.57705882352941,217.71086312158025
-0.28318408203125,0.18030322265625,0.8830659179687499,0.9447263582086094,0.38232421875,0.2470703125,-0.0673828125,44.57705882352941,217.71086312158025
-0.26951220703125,0.17053759765625,0.8850190429687499,0.9407330165198532,0.341796875,0.1845703125,-0.10595703125,44.53,217.71086312158025
-0.26023486328125,0.17004931640625,0.8825776367187499,0.9357255147281692,0.330078125,0.111328125,-0.09130859375,44.388823529411766,217.721687265682
-0.26462939453125,0.17542041015625,0.90552685546875,0.9595727813587072,0.345703125,0.0634765625,0.03271484375,44.48294117647059,217.721687265682
-0.27488330078125,0.18372119140625,0.91431591796875,0.9722591748454548,0.35498046875,0.16748046875,0.232421875,44.57705882352941,217.721687265682
-0.28025439453125,0.19885791015625,0.92701123046875,0.9886540423732532,0.35107421875,0.2548828125,0.4111328125,44.57705882352941,217.721687265682
-0.27488330078125,0.20960009765625,0.92798779296875,0.9902799472295276,0.353515625,0.55908203125,0.3984375,44.71823529411765,217.721687265682
-0.28025439453125,0.22229541015625,0.91529248046875,0.9827095704394304,0.33642578125,0.64501953125,0.3330078125,44.48294117647059,217.78663241642897
-0.28171923828125,0.22961962890625,0.9001557617187499,0.970758105066486,0.34619140625,0.5888671875,0.1943359375,44.48294117647059,217.78663241642897
-0.27439501953125,0.23157275390625,0.9006440429687499,0.9695763297597436,0.33837890625,0.35791015625,-0.03564453125,44.57705882352941,217.78663241642897
-0.27195361328125,0.21887744140625,0.8977143554687499,0.963201518970951,0.2861328125,0.17333984375,-0.2275390625,44.57705882352941,217.78663241642897
-0.27781298828125,0.21448291015625,0.90357373046875,0.9693443462465056,0.3046875,0.07763671875,-0.29052734375,44.53,217.69931352872337
-0.28269580078125,0.21155322265625,0.91382763671875,0.9796696542337996,0.30322265625,0.037109375,-0.232421875,44.48294117647059,217.69931352872337
-0.28464892578125,0.21594775390625,0.93238232421875,0.998496490670414,0.34912109375,0.07177734375,-0.14111328125,44.20058823529412,217.69931352872337
-0.28123095703125,0.21155322265625,0.92603466796875,0.9906491929482154,0.35791015625,0.16552734375,-0.01513671875,44.48294117647059,217.69931352872337
-0.27830126953125,0.21643603515625,0.93189404296875,0.9963546864733992,0.34521484375,0.31298828125,0.09130859375,44.34176470588236,217.69931352872337
-0.26707080078125,0.21399462890625,0.92798779296875,0.9890813200792306,0.3818359375,0.44482421875,0.07421875,44.388823529411766,217.7873578436038
-0.27830126953125,0.21643603515625,0.91968701171875,0.9849468784970218,0.37646484375,0.4931640625,0.0615234375,45.235882352941175,217.7873578436038
-0.28074267578125,0.22034228515625,0.92554638671875,0.9919693980163038,0.3818359375,0.48828125,0.037109375,45.14176470588235,217.7873578436038
-0.28660205078125,0.21936572265625,0.92212841796875,0.9902438462389284,0.35791015625,0.4599609375,-0.0625,44.48294117647059,217.7873578436038
-0.29294970703125,0.21594775390625,0.91822216796875,0.9877170207180196,0.34619140625,0.46923828125,-0.1103515625,44.53,217.7202370334366
-0.29685595703125,0.21497119140625,0.91480419921875,0.9854962177846348,0.3173828125,0.53271484375,-0.1318359375,44.388823529411766,217.7202370334366
-0.29636767578125,0.20374072265625,0.91089794921875,0.979325867731163,0.2978515625,0.59716796875,-0.13134765625,44.48294117647059,217.7202370334366
-0.30271533203125,0.20471728515625,0.91138623046875,0.9819218910771736,0.29638671875,0.68359375,-0.015625,44.53,217.7202370334366
-0.30466845703125,0.21106494140625,0.8952729492187499,0.9689607483296032,0.2958984375,0.78125,0.07861328125,44.67117647058824,217.7202370334366
-0.30710986328125,0.20422900390625,0.8806245117187499,0.9547384378985974,0.2685546875,0.85888671875,0.15283203125,44.53,217.61054534734
-0.31199267578125,0.20081103515625,0.8615815429687499,0.9380763597735958,0.19482421875,0.85693359375,0.189453125,44.57705882352941,217.61054534734
-0.31687548828125,0.19592822265625,0.8679291992187499,0.9445099461430876,0.1767578125,0.8076171875,0.2255859375,44.57705882352941,217.61054534734
-0.31150439453125,0.19592822265625,0.8669526367187499,0.9418225578945912,0.13037109375,0.6923828125,0.1787109375,44.71823529411765,217.61054534734
-0.30466845703125,0.19543994140625,0.8859956054687499,0.957082991342244,0.24951171875,0.61865234375,0.1103515625,44.34176470588236,217.5232270925854
-0.31589892578125,0.19251025390625,0.8928315429687499,0.9664370094779872,-0.02392578125,0.67724609375,0.19091796875,44.48294117647059,217.5232270925854
-0.31003955078125,0.19495166015625,0.8967377929687499,0.9686430416746832,-0.041015625,0.68359375,0.3935546875,44.388823529411766,217.5232270925854
-0.30369189453125,0.20227587890625,0.8933198242187499,0.9649687074374452,-0.03076171875,0.60302734375,0.6708984375,44.29470588235294,217.5232270925854
-0.29148486328125,0.21350634765625,0.90210888671875,0.9717761210837312,-0.0615234375,0.4033203125,0.833984375,44.53,217.5232270925854
-0.27537158203125,0.21008837890625,0.91919873046875,0.9822896422324786,-0.083984375,0.03515625,0.8623046875,44.48294117647059,217.39116418486503
-0.28709033203125,0.21204150390625,0.94654248046875,1.0115953368104122,-0.1728515625,-0.28857421875,0.775390625,44.57705882352941,217.39116418486503
-0.30125048828125,0.21008837890625,0.96753857421875,1.0349009016531,-0.1630859375,-0.40966796875,0.689453125,44.57705882352941,217.39116418486503
-0.32615283203125,0.21497119140625,0.98316357421875,1.0579219709634613,-0.14599609375,-0.23779296875,0.66650390625,44.57705882352941,217.39116418486503
-0.33933642578125,0.21008837890625,0.97144482421875,1.050233965987983,-0.08935546875,0.2255859375,0.6123046875,44.53,217.56724842741949
-0.33298876953125,0.20715869140625,0.93580029296875,1.0146518774335778,-0.06005859375,0.609375,0.46044921875,44.57705882352941,217.56724842741949
-0.30369189453125,0.19836962890625,0.8864838867187499,0.95782720669668,-0.0673828125,0.71533203125,0.2119140625,45.33,217.56724842741949
-0.27390673828125,0.18958056640625,0.8410737304687499,0.9046384429811763,-0.10107421875,0.4228515625,-0.0966796875,44.57705882352941,217.56724842741949
-0.25242236328125,0.18079150390625,0.8137299804687499,0.8709529829346973,-0.16748046875,-0.125,-0.32666015625,44.57705882352941,217.56724842741949
-0.24168017578125,0.16760791015625,0.8083588867187499,0.86020102804506,-0.20361328125,-0.607421875,-0.3798828125,44.53,217.6459185431361
-0.24070361328125,0.15881884765625,0.8322846679687499,0.8808288280667027,-0.171875,-0.92919921875,-0.26123046875,44.34176470588236,217.6459185431361
-0.23533251953125,0.15198291015625,0.8625581054687499,0.9069105165551494,-0.12109375,-0.982421875,0.0634765625,44.67117647058824,217.6459185431361
-0.23972705078125,0.16126025390625,0.8962495117187499,0.9416672000352788,-0.07373046875,-0.90283203125,0.4208984375,44.53,217.6459185431361
-0.26511767578125,0.18079150390625,0.92603466796875,0.9800577310425792,-0.0078125,-0.67578125,0.82177734375,44.57705882352941,217.6675666814484
-0.27927783203125,0.20374072265625,0.94898388671875,1.0099885181448307,-0.01318359375,-0.39697265625,1.13427734375,44.57705882352941,217.6675666814484
-0.28074267578125,0.22278369140625,0.96167919921875,1.026292309905627,-0.06298828125,-0.20166015625,1.171875,44.34176470588236,217.6675666814484
-0.28953173828125,0.23303759765625,0.96851513671875,1.0373797373415856,-0.181640625,-0.24462890625,0.96484375,44.29470588235294,217.6675666814484
-0.29783251953125,0.24036181640625,0.96265576171875,1.0359460063375654,-0.24169921875,-0.009765625,0.6416015625,44.48294117647059,217.6675666814484
-0.29832080078125,0.23352587890625,0.95484326171875,1.027256195283048,-0.31396484375,0.03759765625,0.34326171875,44.29470588235294,217.7303369318973
-0.29490283203125,0.22815478515625,0.94898388671875,1.019604189664583,-0.34765625,0.01416015625,0.20703125,44.48294117647059,217.7303369318973
-0.29050830078125,0.21204150390625,0.94654248046875,1.0125706590325276,-0.34765625,0.0546875,0.1943359375,44.71823529411765,217.7303369318973
-0.29148486328125,0.20178759765625,0.93482373046875,0.9997885112049846,-0.322265625,0.20556640625,0.17822265625,44.67117647058824,217.7303369318973
-0.29343798828125,0.19153369140625,0.91626904296875,0.9809892797646264,-0.30419921875,0.2763671875,0.1103515625,44.57705882352941,217.73323715380545
-0.29246142578125,0.18030322265625,0.90113232421875,0.9644077993370423,-0.328125,0.150390625,0.08349609375,44.388823529411766,217.73323715380545
-0.30369189453125,0.17004931640625,0.8972260742187499,0.9623721551833274,-0.34033203125,0.01123046875,0.099609375,44.48294117647059,217.73323715380545
-0.30027392578125,0.15686572265625,0.8908784179687499,0.9531189018433396,-0.353515625,-0.07080078125,0.16796875,44.53,217.73323715380545
-0.29294970703125,0.15442431640625,0.8942963867187499,0.9536416662695923,-0.3427734375,-0.1298828125,0.3037109375,44.29470588235294,217.73323715380545
-0.29099658203125,0.15686572265625,0.9001557617187499,0.9589401759514512,-0.326171875,-0.119140625,0.375,44.53,218.0630463784324
-0.28611376953125,0.15540087890625,0.8923432617187499,0.949887898130655,-0.31689453125,-0.02880859375,0.73193359375,44.29470588235294,218.0630463784324
-0.27830126953125,0.16223681640625,0.8972260742187499,0.9533032096234284,-0.31201171875,-0.00439453125,0.95068359375,44.34176470588236,218.0630463784324
-0.28220751953125,0.17249072265625,0.8967377929687499,0.9557890995512142,-0.33984375,-0.0341796875,1.0927734375,44.059411764705885,218.0630463784324
-0.27781298828125,0.17688525390625,0.90259716796875,0.96080700306172,-0.41015625,-0.162109375,1.07861328125,44.48294117647059,217.7895368248376
-0.26658251953125,0.17932666015625,0.90943310546875,0.9645169071016634,-0.5029296875,-0.2568359375,0.9150390625,44.71823529411765,217.7895368248376
-0.28269580078125,0.17688525390625,0.92164013671875,0.98011522304257,-0.548828125,-0.17822265625,0.76123046875,44.53,217.7895368248376
-0.28025439453125,0.17590869140625,0.92652294921875,0.9838349296479298,-0.6357421875,-0.08740234375,0.65771484375,44.57705882352941,217.7895368248376
-0.26609423828125,0.16370166015625,0.93042919921875,0.981479939654008,-0.7080078125,-0.08837890625,0.5634765625,44.71823529411765,217.7895368248376
-0.26462939453125,0.15686572265625,0.94019482421875,0.9892430838182138,-0.76953125,-0.08447265625,0.56103515625,44.53,217.73468996446377
-0.27781298828125,0.14661181640625,0.95142529296875,1.001940701473081,-0.7685546875,-0.00244140625,0.6376953125,44.57705882352941,217.73468996446377
-0.28123095703125,0.14661181640625,0.95289013671875,1.0042835697941743,-0.77294921875,0.216796875,0.73681640625,44.57705882352941,217.73468996446377
-0.28660205078125,0.14954150390625,0.95337841796875,1.0066944942489542,-0.72265625,0.42431640625,0.83154296875,44.57705882352941,217.73468996446377
-0.29197314453125,0.14807666015625,0.95191357421875,1.0066352205205276,-0.69921875,0.62060546875,0.87255859375,44.48294117647059,217.49075452730105
-0.29929736328125,0.14905322265625,0.94458935546875,1.0020203717071776,-0.6669921875,0.78857421875,0.96044921875,44.29470588235294,217.49075452730105
-0.29685595703125,0.15295947265625,0.93140576171875,0.9894628605779512,-0.62060546875,0.8564453125,0.98876953125,44.059411764705885,217.49075452730105
