AccX,AccY,AccZ,Magnitude,GyroX,GyroY,GyroZ,Temperature,Altitude
-0.31052783203125,0.03430712890625,1.09400341796875,1.1377381034698302,-2.6650390625,3.26220703125,2.08642578125,47.02411764705882,305.9415132240436
-0.31150439453125,0.08362353515625,1.09205029296875,1.138684208118055,-2.69482421875,4.87255859375,2.3720703125,46.45941176470589,305.9415132240436
-0.27146533203125,0.13831103515625,1.04224560546875,1.0858633758718228,-2.60400390625,5.87060546875,2.59619140625,46.41235294117647,305.9415132240436
-0.22800830078125,0.17932666015625,0.97339794921875,1.015701434384739,-2.55810546875,6.060546875,2.98974609375,46.41235294117647,306.0091764177429
-0.16111376953125,0.22083056640625,0.94263623046875,0.9814717768658496,-2.46875,5.009765625,3.4130859375,46.55352941176471,306.0091764177429
-0.08591845703125,0.22815478515625,0.98609326171875,1.015783691567968,-2.36328125,3.09033203125,3.81103515625,46.36529411764706,306.0091764177429
-0.05222705078125,0.22571337890625,1.04908154296875,1.074358542595663,-2.2802734375,1.82275390625,4.01953125,46.97705882352941,306.0091764177429
-0.08835986328125,0.27502978515625,1.10132763671875,1.1385830718760408,-2.107421875,1.76953125,3.7685546875,46.36529411764706,306.0199310574844
-0.19480517578125,0.31653369140625,1.13501904296875,1.1943244375830748,-1.91259765625,2.8994140625,3.0927734375,46.41235294117647,306.0199310574844
-0.32127001953125,0.33020556640625,1.14331982421875,1.23265176022544,-1.73876953125,3.99658203125,2.62158203125,46.41235294117647,306.0199310574844
-0.40671923828125,0.34387744140625,1.13746044921875,1.2559810934218356,-1.5537109375,4.40234375,2.36669921875,46.45941176470589,306.0199310574844
-0.43064501953125,0.38831103515625,1.11060498046875,1.252870310731794,-1.47802734375,3.7724609375,2.2685546875,46.64764705882353,306.0199310574844
-0.39988330078125,0.42590869140625,1.05738232421875,1.2080406645594914,-1.36181640625,3.25439453125,2.19140625,47.02411764705882,306.17520049976474
-0.36619189453125,0.42786181640625,0.97632763671875,1.1271104168534958,-1.3095703125,3.37109375,1.69970703125,46.36529411764706,306.17520049976474
-0.30662158203125,0.43127978515625,0.8718354492187499,1.0198608229392023,-1.26318359375,3.8359375,1.3564453125,46.60058823529412,306.17520049976474
-0.20896533203125,0.41565478515625,0.7624604492187499,0.8931860651829924,-1.2177734375,4.1162109375,1.1591796875,46.64764705882353,306.17520049976474
-0.11570361328125,0.41223681640625,0.6677338867187499,0.7932181682233619,-1.20166015625,4.1416015625,0.92919921875,46.60058823529412,305.76317050693126
-0.06541064453125,0.41174853515625,0.5778901367187499,0.71258151725829,-1.1376953125,4.1240234375,0.650390625,46.45941176470589,305.76317050693126
-0.02146533203125,0.42004931640625,0.5041596679687499,0.6565661882087211,-1.0419921875,4.04345703125,0.32373046875,46.41235294117647,305.76317050693126
0.02345654296875,0.41809619140625,0.4528901367187499,0.6168177288418228,-0.9921875,3.68115234375,-0.05517578125,47.02411764705882,305.76317050693126
0.05177685546875,0.41126025390625,0.4387299804687499,0.6035725598197574,-0.9462890625,2.93212890625,-0.390625,46.45941176470589,305.76317050693126
0.03126904296875,0.39124072265625,0.4436127929687499,0.5923169474177665,-0.92333984375,1.78564453125,-0.58642578125,46.55352941176471,305.9968540463813
-0.02927783203125,0.36438525390625,0.4792573242187499,0.6027614681862871,-0.9775390625,0.6318359375,-0.8115234375,46.36529411764706,305.9968540463813
-0.11277392578125,0.31311572265625,0.5549409179687499,0.6470848758444747,-0.97900390625,-0.2392578125,-1.0478515625,45.65941176470588,305.9968540463813
-0.20164111328125,0.26526416015625,0.6428315429687499,0.7240556648934434,-0.90234375,-0.63525390625,-1.27783203125,46.64764705882353,305.9968540463813
-0.25828173828125,0.23206103515625,0.6960541992187499,0.777851675203846,-0.80810546875,-0.8818359375,-1.37451171875,46.55352941176471,305.90924926816155
-0.26267626953125,0.20276416015625,0.7512299804687499,0.8212542911752739,-0.794921875,-0.5849609375,-1.48095703125,46.36529411764706,305.90924926816155
-0.22898486328125,0.17297900390625,0.7829682617187499,0.8339035329480335,-0.7587890625,-0.34716796875,-1.94677734375,46.55352941176471,305.90924926816155
-0.22898486328125,0.14661181640625,0.7922456054687499,0.8376050332384702,-0.771484375,-0.26953125,-2.31982421875,46.45941176470589,305.90924926816155
-0.24363330078125,0.13049853515625,0.8088471679687499,0.8547635895723221,-0.7568359375,-0.48828125,-2.490234375,46.36529411764706,305.90924926816155
-0.26462939453125,0.10803759765625,0.8278901367187499,0.8758441170856263,-0.76025390625,-0.95068359375,-2.595703125,46.60058823529412,306.067654624664
-0.28464892578125,0.09583056640625,0.8825776367187499,0.9322831078820508,-0.8017578125,-1.607421875,-2.66650390625,46.45941176470589,306.067654624664
-0.28220751953125,0.10071337890625,0.95923779296875,1.0049484624746947,-0.9306640625,-2.33349609375,-2.71044921875,46.60058823529412,306.067654624664
-0.27048876953125,0.08752978515625,1.06080029296875,1.0982362675192503,-0.9287109375,-2.87451171875,-2.552734375,46.788823529411765,306.067654624664
-0.29734423828125,0.06018603515625,1.14624951171875,1.1857166179076513,-0.822265625,-2.1025390625,-2.8935546875,46.788823529411765,305.7340407803025
-0.35593798828125,0.06165087890625,1.20484326171875,1.2578314544010627,-0.47607421875,-0.78515625,-3.35302734375,46.788823529411765,305.7340407803025
-0.35300830078125,0.04651416015625,1.18921826171875,1.2413776627283384,-0.0087890625,0.20263671875,-3.34716796875,45.98882352941177,305.7340407803025
-0.33396533203125,0.03528369140625,1.12232373046875,1.1714897941729097,0.36572265625,0.2744140625,-2.97509765625,47.02411764705882,305.7340407803025
-0.33689501953125,0.03577197265625,1.07593701171875,1.1280152221485995,0.68798828125,-0.0087890625,-2.33056640625,46.45941176470589,305.7340407803025
-0.32664111328125,0.03870166015625,1.05835888671875,1.1082940803239076,0.95751953125,-0.6337890625,-1.7919921875,46.55352941176471,305.898494643325
-0.32175830078125,0.05872119140625,1.06519482421875,1.114278509163764,1.16552734375,-0.72314453125,-1.49365234375,46.41235294117647,305.898494643325
-0.31296923828125,0.07629931640625,1.06324169921875,1.1109699549276668,1.2509765625,-0.4970703125,-1.38427734375,46.55352941176471,305.898494643325
-0.30515673828125,0.09876025390625,1.03882763671875,1.087215287549224,1.56884765625,0.23583984375,-1.38818359375,46.41235294117647,305.898494643325
-0.28806689453125,0.11487353515625,0.99830029296875,1.0453621093887344,1.7021484375,0.7275390625,-1.49609375,46.41235294117647,305.6771333670694
-0.26511767578125,0.10657275390625,0.94556591796875,0.9877955451969292,1.763671875,0.87060546875,-1.3515625,46.55352941176471,305.6771333670694
-0.24705126953125,0.10071337890625,0.8982026367187499,0.9369874551327948,1.63037109375,0.74365234375,-1.28466796875,46.41235294117647,305.6771333670694
-0.24753955078125,0.09290087890625,0.8859956054687499,0.9246051132307638,1.58642578125,0.37109375,-1.24462890625,46.45941176470589,305.6771333670694
-0.23337939453125,0.07532275390625,0.8698823242187499,0.9037890888011476,1.45361328125,0.1240234375,-1.2685546875,47.02411764705882,305.6771333670694
-0.23679736328125,0.05774462890625,0.8796479492187499,0.9127912948693284,1.32080078125,-0.197265625,-1.1875,46.45941176470589,305.9031995087112
-0.23777392578125,0.04602587890625,0.8903901367187499,0.922740167585954,1.2333984375,-0.30712890625,-1.01611328125,46.60058823529412,305.9031995087112
-0.23484423828125,0.03333056640625,0.90162060546875,0.9322995543904852,1.10302734375,-0.2998046875,-0.81298828125,46.64764705882353,305.9031995087112
-0.23240283203125,0.03381884765625,0.90113232421875,0.9312326543591716,1.0126953125,-0.31396484375,-0.6474609375,46.36529411764706,305.9031995087112
-0.22507861328125,0.0225883789062499,0.90406201171875,0.931932796960798,0.86767578125,-0.2734375,-0.4912109375,46.45941176470589,305.9585407575484
-0.22507861328125,0.0274711914062499,0.93628857421875,0.9633542145682806,0.798828125,-0.33740234375,-0.2939453125,46.88294117647059,305.9585407575484
-0.23582080078125,0.04065478515625,0.96900341796875,0.9981141646486792,0.75927734375,-0.2822265625,-0.107421875,46.55352941176471,305.9585407575484
-0.24558642578125,0.04749072265625,1.00562451171875,1.0362667223432378,0.71337890625,-0.10205078125,0.0322265625,46.788823529411765,305.9585407575484
-0.23728564453125,0.05042041015625,1.03003857421875,1.0582183891992858,0.669921875,0.14794921875,0.09765625,46.45941176470589,305.9585407575484
-0.25242236328125,0.05823291015625,1.03980419921875,1.0715880243930984,0.63623046875,0.51513671875,0.13037109375,46.55352941176471,306.0031277506816
-0.26414111328125,0.06262744140625,1.02906201171875,1.0642656379425168,0.55224609375,0.82373046875,0.23095703125,46.55352941176471,306.0031277506816
-0.26072314453125,0.07288134765625,1.01001904296875,1.0456704624737012,0.41796875,0.908203125,0.30517578125,45.70647058823529,306.0031277506816
-0.25193408203125,0.08264697265625,0.99927685546875,1.0338546985208723,0.3701171875,0.88232421875,0.39697265625,46.45941176470589,306.0031277506816
-0.23923876953125,0.08655322265625,0.98121044921875,1.0136570400559894,0.017578125,0.7548828125,0.48681640625,46.41235294117647,305.90006247786334
-0.24070361328125,0.09583056640625,0.97095654296875,1.004927029807746,-0.15087890625,0.69384765625,0.55322265625,46.788823529411765,305.90006247786334
-0.23337939453125,0.10364306640625,0.95240185546875,0.986041135706914,-0.29443359375,0.8046875,0.58642578125,46.55352941176471,305.90006247786334
-0.22605517578125,0.11829150390625,0.95191357421875,0.9855116819073276,-0.3447265625,0.9306640625,0.787109375,46.64764705882353,305.90006247786334
-0.21775439453125,0.11926806640625,0.93384716796875,0.966287939035364,-0.35595703125,0.947265625,0.96533203125,46.55352941176471,305.90006247786334
-0.21189501953125,0.12268603515625,0.92652294921875,0.9583298690709372,-0.353515625,0.97607421875,1.07666015625,46.55352941176471,305.7340407803025
-0.21628955078125,0.14270556640625,0.92164013671875,0.9573748430324664,-0.29638671875,1.001953125,1.1591796875,46.45941176470589,305.7340407803025
-0.21531298828125,0.15247119140625,0.90357373046875,0.9413036882561632,-0.28564453125,0.994140625,1.1650390625,46.45941176470589,305.7340407803025
-0.20554736328125,0.16174853515625,0.8957612304687499,0.9331669138948055,-0.29638671875,0.82958984375,1.17431640625,46.64764705882353,305.7340407803025
-0.18894580078125,0.15491259765625,0.8845307617187499,0.9176563065615726,-0.3193359375,0.4697265625,1.146484375,46.55352941176471,305.7324734020688
-0.18650439453125,0.15833056640625,0.90699169921875,0.9394074727665878,-0.3291015625,0.0986328125,1.20947265625,46.36529411764706,305.7324734020688
-0.17771533203125,0.17542041015625,0.91040966796875,0.9440343336284618,-0.33935546875,-0.24560546875,1.43798828125,46.27117647058824,305.7324734020688
-0.13669970703125,0.18811572265625,0.92066357421875,0.949576617185868,-0.3037109375,-0.5126953125,1.96728515625,46.45941176470589,305.7324734020688
-0.14011767578125,0.22034228515625,0.90943310546875,0.9461777100612506,-0.259765625,-0.42333984375,2.06640625,46.36529411764706,305.7324734020688
-0.16794970703125,0.24768603515625,0.90503857421875,0.9532315022738252,-0.09375,-0.25,1.833984375,46.64764705882353,305.71253173679565
-0.16209033203125,0.27991259765625,0.8972260742187499,0.9537499495793748,0.1044921875,-0.2490234375,1.85986328125,46.36529411764706,305.71253173679565
-0.13181689453125,0.30090869140625,0.8762299804687499,0.9357888185482612,0.20068359375,-0.6845703125,2.015625,45.70647058823529,305.71253173679565
-0.12302783203125,0.33411181640625,0.8737885742187499,0.9435428054687444,0.25537109375,-1.07958984375,2.17138671875,45.89470588235295,305.71253173679565
-0.10837939453125,0.36780322265625,0.8708588867187499,0.9515358660251876,0.3173828125,-1.21240234375,2.2490234375,46.55352941176471,306.0907327691621
-0.07566455078125,0.38635791015625,0.8811127929687499,0.9650685534812666,0.3779296875,-1.158203125,2.11083984375,46.55352941176471,306.0907327691621
-0.05662158203125,0.39172900390625,0.90699169921875,0.9895916119818416,0.44091796875,-1.08203125,1.84326171875,45.65941176470588,306.0907327691621
-0.05125048828125,0.37903369140625,0.93384716796875,1.0091400719887054,0.4443359375,-1.173828125,1.60205078125,46.45941176470589,306.0907327691621
-0.04880908203125,0.34192431640625,0.8566987304687499,0.9237030255582052,0.36669921875,-1.53076171875,1.3779296875,46.36529411764706,306.0907327691621
-0.08933642578125,0.30383837890625,1.02662060546875,1.0743596348712892,0.32666015625,-1.8486328125,1.2861328125,46.45941176470589,305.9800496735019
-0.14011767578125,0.27844775390625,1.08765576171875,1.1314420757253858,0.35888671875,-1.97705078125,1.3564453125,46.45941176470589,305.9800496735019
-0.17234423828125,0.27356494140625,0.97779248046875,1.0298633154436465,0.455078125,-1.89404296875,1.47802734375,46.45941176470589,305.9800496735019
-0.16355517578125,0.30188525390625,1.08863232421875,1.1414925927857764,0.44189453125,-1.70361328125,1.63525390625,46.55352941176471,305.9800496735019
-0.13718798828125,0.34534228515625,1.06226513671875,1.1253839605813216,0.3544921875,-1.482421875,1.70458984375,46.45941176470589,306.0445767469014
-0.10886767578125,0.39270556640625,1.03296826171875,1.110447325376004,0.14697265625,-1.21728515625,1.63916015625,46.55352941176471,306.0445767469014
-0.08884814453125,0.42053759765625,1.01294873046875,1.1003685720645553,0.02783203125,-0.900390625,1.623046875,46.55352941176471,306.0445767469014
-0.07615283203125,0.43909228515625,0.99244091796875,1.087906367464026,0.025390625,-0.5615234375,1.6201171875,46.60058823529412,306.0445767469014
-0.08103564453125,0.44006884765625,0.96997998046875,1.0682174539260492,0.1298828125,-0.23193359375,1.57861328125,45.80058823529412,306.0445767469014
-0.07029345703125,0.42981494140625,0.93482373046875,1.0312989193269682,0.23974609375,0.05712890625,1.5146484375,47.02411764705882,306.13688985835546
-0.06394580078125,0.43176806640625,0.90406201171875,1.0039127699350676,0.3369140625,0.23095703125,1.3095703125,46.41235294117647,306.13688985835546
-0.06199267578125,0.41956103515625,0.8776948242187499,0.9747937004988724,0.4248046875,0.224609375,1.13427734375,46.64764705882353,306.13688985835546
-0.06443408203125,0.41077197265625,0.8684174804687499,0.9628261965852448,0.51416015625,0.01220703125,1.1748046875,46.88294117647059,306.13688985835546
-0.06687548828125,0.38977587890625,0.8733002929687499,0.958671460099496,0.62353515625,-0.234375,1.32958984375,47.02411764705882,306.23524984259376
-0.07371142578125,0.37512744140625,0.8796479492187499,0.9591321526001808,0.75390625,-0.2900390625,1.5439453125,46.64764705882353,306.23524984259376
-0.07371142578125,0.35754931640625,0.8859956054687499,0.9582604556503508,0.861328125,-0.18603515625,1.74072265625,45.65941176470588,306.23524984259376
-0.07957080078125,0.34387744140625,0.8972260742187499,0.9641565408703444,0.92724609375,0.07568359375,1.8544921875,46.788823529411765,306.23524984259376
-0.08982470703125,0.34924853515625,0.90455029296875,0.9737834717286424,0.9765625,0.3662109375,1.87841796875,46.55352941176471,306.23524984259376
-0.10935595703125,0.34436572265625,0.8962495117187499,0.9663382759338882,0.9892578125,0.6875,2.0400390625,46.55352941176471,306.25832882137854
-0.11179736328125,0.34631884765625,0.8884370117187499,0.9600810999443404,0.99560546875,0.826171875,2.25830078125,46.45941176470589,306.25832882137854
-0.11228564453125,0.35120166015625,0.8718354492187499,0.946597973048096,0.9892578125,0.83203125,2.533203125,46.55352941176471,306.25832882137854
-0.10837939453125,0.35950244140625,0.8811127929687499,0.9577827793759948,0.9130859375,0.71875,2.8916015625,46.41235294117647,306.25832882137854
-0.10349658203125,0.36829150390625,0.8850190429687499,0.9641622688940906,0.83349609375,0.5693359375,3.21484375,46.60058823529412,306.0799782894896
-0.10300830078125,0.37122119140625,0.8913666992187499,0.971056370894628,0.6923828125,0.5908203125,3.42578125,46.45941176470589,306.0799782894896
-0.09470751953125,0.38733447265625,0.8884370117187499,0.9738161180404644,0.5947265625,0.76318359375,3.4931640625,45.80058823529412,306.0799782894896
-0.07468798828125,0.39856494140625,0.8962495117187499,0.983715149506078,0.4775390625,0.93212890625,3.5849609375,46.36529411764706,306.0799782894896
-0.04685595703125,0.40979541015625,0.8840424804687499,0.9755300437033108,0.4267578125,1.13232421875,3.58740234375,46.45941176470589,306.0799782894896
-0.02097705078125,0.41809619140625,0.8708588867187499,0.966250310481146,0.35498046875,1.2841796875,3.44482421875,46.41235294117647,306.0015586437135
-0.0053520507812499,0.44983447265625,0.8689057617187499,0.9784563965683564,0.3017578125,1.341796875,3.3583984375,46.45941176470589,306.0015586437135
0.01173779296875,0.48792041015625,0.8728120117187499,1.000002455112662,0.17578125,1.29150390625,3.5283203125,46.55352941176471,306.0015586437135
0.01027294921875,0.50305712890625,0.8884370117187499,1.0210251378985693,0.02099609375,1.35205078125,3.8173828125,46.60058823529412,306.0015586437135
-0.0019340820312499,0.51038134765625,0.8977143554687499,1.0326586680619043,-0.00048828125,1.66845703125,3.54248046875,46.45941176470589,306.213740906334
-0.03416064453125,0.53772509765625,0.91871044921875,1.0650559233147954,-0.177734375,1.9677734375,3.25244140625,46.36529411764706,306.213740906334
-0.06052783203125,0.54065478515625,0.93482373046875,1.081603726976874,-0.32763671875,1.966796875,3.24755859375,47.02411764705882,306.213740906334
-0.07273486328125,0.52747119140625,0.93140576171875,1.0728620186505604,-0.5263671875,1.931640625,3.033203125,46.36529411764706,306.213740906334
-0.09373095703125,0.51917041015625,0.93580029296875,1.0742651420427831,-0.64306640625,2.03076171875,2.962890625,47.02411764705882,306.213740906334
-0.10642626953125,0.51038134765625,0.93726513671875,1.0725118215619651,-0.73291015625,2.212890625,3.0478515625,47.02411764705882,305.8677988658441
-0.09031298828125,0.50501025390625,0.94703076171875,1.0770603771582816,-0.8271484375,2.29296875,3.1630859375,46.45941176470589,305.8677988658441
-0.07957080078125,0.50012744140625,0.93384716796875,1.0623226925505196,-0.95263671875,2.35400390625,3.1201171875,45.70647058823529,305.8677988658441
-0.06101611328125,0.50354541015625,0.93580029296875,1.0644261996445663,-1.021484375,2.4072265625,2.9892578125,47.02411764705882,305.8677988658441
-0.05613330078125,0.49622119140625,0.91968701171875,1.046523109052734,-1.11767578125,2.5595703125,2.73828125,46.45941176470589,306.10305673395703
-0.05271533203125,0.51379931640625,0.90259716796875,1.0399280222187988,-1.185546875,2.66796875,2.5302734375,46.45941176470589,306.10305673395703
-0.06052783203125,0.52258837890625,0.8884370117187499,1.0325127389093112,-1.27978515625,2.68212890625,2.32763671875,46.36529411764706,306.10305673395703
-0.07127001953125,0.53186572265625,0.8772065429687499,1.0283247938505735,-1.34716796875,2.52001953125,2.18896484375,46.55352941176471,306.10305673395703
-0.06834033203125,0.52747119140625,0.8713471679687499,1.0208536358718772,-1.40869140625,2.3681640625,2.02978515625,46.55352941176471,306.10305673395703
-0.07468798828125,0.52942431640625,0.8659760742187499,1.0177342302954355,-1.45458984375,2.2080078125,1.84619140625,46.41235294117647,306.0799782894896
-0.08103564453125,0.51575244140625,0.8713471679687499,1.0157820847151535,-1.5029296875,2.1298828125,1.58251953125,46.55352941176471,306.0799782894896
-0.08347705078125,0.50403369140625,0.8791596679687499,1.0168284525241555,-1.5087890625,2.15771484375,1.3349609375,46.36529411764706,306.0799782894896
-0.08689501953125,0.48401416015625,0.8752534179687499,1.0039367496595966,-1.4931640625,2.2490234375,1.23095703125,46.55352941176471,306.0799782894896
-0.07957080078125,0.45667041015625,0.8850190429687499,0.9990686073871848,-1.48828125,1.96923828125,1.22509765625,46.55352941176471,306.27065365846533
-0.09177783203125,0.44299853515625,0.8947846679687499,1.0026517215039754,-1.44677734375,1.9501953125,1.173828125,46.45941176470589,306.27065365846533
-0.10300830078125,0.41663134765625,0.90308544921875,0.9998778517750728,-1.408203125,2.02490234375,1.0830078125,46.55352941176471,306.27065365846533
-0.11082080078125,0.39758837890625,0.90406201171875,0.9938238727058484,-1.29248046875,1.974609375,0.9267578125,46.45941176470589,306.27065365846533
-0.13230517578125,0.36682666015625,0.91089794921875,0.990858986955672,-1.1689453125,1.90673828125,0.7685546875,46.45941176470589,306.27065365846533
-0.15916064453125,0.34094775390625,0.91431591796875,0.9887118283465396,-1.07470703125,1.677734375,0.66845703125,46.55352941176471,306.18909268523095
-0.16648486328125,0.31165087890625,0.91480419921875,0.9806682430532117,-0.98828125,1.3818359375,0.638671875,46.60058823529412,306.18909268523095
-0.17136767578125,0.29309619140625,0.92066357421875,0.9812714581667809,-0.96240234375,1.1357421875,0.59130859375,46.45941176470589,306.18909268523095
-0.18113330078125,0.28918994140625,0.91578076171875,0.9772893626744512,-0.9404296875,1.00341796875,0.4736328125,46.74176470588235,306.18909268523095
-0.18601611328125,0.28479541015625,0.92456982421875,0.98515977379419,-0.9443359375,0.98779296875,0.31005859375,46.36529411764706,306.19066212781246
-0.18601611328125,0.26672900390625,0.92212841796875,0.9777868761394952,-0.90283203125,0.908203125,0.15283203125,46.36529411764706,306.19066212781246
-0.20847705078125,0.24133837890625,0.90747998046875,0.9618871081302148,-0.93115234375,0.91259765625,0.06640625,46.36529411764706,306.19066212781246
-0.21335986328125,0.22278369140625,0.8894135742187499,0.9413880764172448,-0.94677734375,0.7275390625,0.09375,46.36529411764706,306.19066212781246
-0.22654345703125,0.19885791015625,0.8830659179687499,0.933097970115342,-0.9970703125,0.46142578125,0.201171875,46.41235294117647,306.19066212781246
-0.23142626953125,0.17053759765625,0.8713471679687499,0.9175440466651597,-1.04541015625,0.080078125,0.34716796875,46.45941176470589,306.19066212781246
-0.22654345703125,0.14807666015625,0.8596284179687499,0.9012267484857266,-1.1552734375,-0.30322265625,0.51171875,45.70647058823529,306.19066212781246
-0.22654345703125,0.12317431640625,0.8620698242187499,0.8998101088420618,-1.27197265625,-0.6474609375,0.7041015625,46.55352941176471,306.19066212781246
-0.22800830078125,0.10754931640625,0.8713471679687499,0.9070835285748304,-1.39404296875,-0.91162109375,0.912109375,47.02411764705882,306.19066212781246
-0.22947314453125,0.09485400390625,0.8864838867187499,0.9206024590071918,-1.48193359375,-1.15283203125,1.09228515625,46.45941176470589,305.9677263746114
-0.24558642578125,0.08752978515625,0.90259716796875,0.9394976335482258,-1.5654296875,-1.26611328125,1.38330078125,46.55352941176471,305.9677263746114
-0.23972705078125,0.09729541015625,0.92017529296875,0.9558546047929432,-1.61474609375,-1.42138671875,1.71630859375,46.60058823529412,305.9677263746114
-0.20798876953125,0.09436572265625,0.93042919921875,0.9580515187725576,-1.666015625,-1.60791015625,2.0205078125,46.60058823529412,305.9677263746114
-0.21873095703125,0.10657275390625,0.94654248046875,0.9773145096492236,-1.6552734375,-1.62744140625,2.20361328125,45.65941176470588,305.9677263746114
-0.23630908203125,0.10364306640625,0.95826123046875,0.992395310994578,-1.69140625,-1.560546875,2.35205078125,47.02411764705882,305.84628985898485
-0.24216845703125,0.11487353515625,0.97681591796875,1.0129219260423392,-1.70361328125,-1.634765625,2.56005859375,46.41235294117647,305.84628985898485
-0.23582080078125,0.11682666015625,0.97583935546875,1.0107038964434831,-1.73486328125,-1.7724609375,2.85693359375,46.36529411764706,305.84628985898485
-0.24607470703125,0.10266650390625,0.98267529296875,1.018206218737671,-1.8427734375,-1.8583984375,3.0771484375,46.45941176470589,305.84628985898485
-0.25730517578125,0.10510791015625,0.98804638671875,1.02639626293611,-1.87255859375,-1.89697265625,3.35302734375,46.97705882352941,306.067654624664
-0.24802783203125,0.10754931640625,0.99585888671875,1.031900956089431,-1.94384765625,-1.923828125,3.6025390625,46.55352941176471,306.067654624664
-0.23240283203125,0.10168994140625,1.00513623046875,1.036653636621355,-2.0849609375,-1.97265625,3.79638671875,46.60058823529412,306.067654624664
-0.21677783203125,0.09387744140625,1.01392529296875,1.0410812178629094,-2.22607421875,-1.79931640625,3.984375,46.55352941176471,306.067654624664
-0.18552783203125,0.08655322265625,1.02808544921875,1.0482708274609749,-2.38134765625,-1.513671875,4.056640625,46.36529411764706,306.067654624664
-0.17918017578125,0.07776416015625,1.03736279296875,1.0555919496821358,-2.37353515625,-1.18310546875,4.08203125,46.55352941176471,306.1106728119348
-0.15671923828125,0.06311572265625,1.02710888671875,1.040911705799539,-2.3994140625,-0.966796875,4.01171875,45.70647058823529,306.1106728119348
-0.15232470703125,0.06067431640625,1.03199169921875,1.0449359101399114,-2.38818359375,-0.84765625,3.9326171875,46.55352941176471,306.1106728119348
-0.15427783203125,0.06311572265625,1.02808544921875,1.041510890388575,-2.4560546875,-0.7265625,3.8564453125,47.02411764705882,306.1106728119348
-0.15720751953125,0.05774462890625,1.02662060546875,1.0401915755944728,-2.44287109375,-0.5625,3.63818359375,46.45941176470589,306.14607460108016
-0.16306689453125,0.05969775390625,1.00953076171875,1.0243568678785515,-2.509765625,-0.46923828125,3.62353515625,45.70647058823529,306.14607460108016
-0.14988330078125,0.05920947265625,0.99439404296875,1.0073679954202683,-2.572265625,-0.4755859375,3.3740234375,46.36529411764706,306.14607460108016
-0.12937548828125,0.05188525390625,0.99537060546875,1.0050834486609326,-2.64697265625,-0.5400390625,3.3203125,46.36529411764706,306.14607460108016
-0.12253955078125,0.04407275390625,0.99244091796875,1.0009482128468017,-2.74560546875,-0.47314453125,3.14306640625,46.55352941176471,306.14607460108016
-0.11912158203125,0.06262744140625,1.01441357421875,1.023302031309418,-2.7724609375,-0.359375,2.93017578125,46.60058823529412,306.12456564039195
-0.11814501953125,0.06116259765625,1.01294873046875,1.0216478060223848,-2.7734375,-0.2587890625,2.7060546875,46.55352941176471,306.12456564039195
-0.11716845703125,0.09631884765625,1.01831982421875,1.02955380244736,-2.69384765625,-0.240234375,2.41845703125,46.36529411764706,306.12456564039195
-0.10544970703125,0.10657275390625,1.01831982421875,1.0292971665097717,-2.6318359375,-0.2158203125,2.1328125,46.45941176470589,306.12456564039195
-0.09373095703125,0.12366259765625,1.03833935546875,1.0498697764391285,-2.42578125,-0.27197265625,1.9619140625,46.97705882352941,305.8339671791832
-0.08250048828125,0.14368212890625,1.03394482421875,1.047135513800587,-2.1142578125,-0.287109375,1.79150390625,46.36529411764706,305.8339671791832
-0.07371142578125,0.14514697265625,1.03003857421875,1.0428233226872972,-1.837890625,-0.236328125,1.544921875,46.45941176470589,305.8339671791832
-0.07371142578125,0.15344775390625,1.03540966796875,1.0493106155913676,-1.54833984375,-0.16015625,1.283203125,46.41235294117647,305.8339671791832
-0.06443408203125,0.14563525390625,1.02662060546875,1.0388990546153032,-1.2841796875,-0.052734375,0.970703125,46.60058823529412,305.8339671791832
-0.07322314453125,0.12415087890625,1.01197216796875,1.0221852759512882,-1.10693359375,0.015625,0.70849609375,46.55352941176471,306.2491448822844
-0.07127001953125,0.12952197265625,1.01001904296875,1.0207809874034004,-0.833984375,0.08984375,0.5009765625,46.60058823529412,306.2491448822844
-0.05955126953125,0.10315478515625,1.00660107421875,1.0136236905389284,-0.6474609375,-0.0048828125,0.37451171875,46.55352941176471,306.2491448822844
-0.05466845703125,0.09583056640625,0.99488232421875,1.0009810071598872,-0.46826171875,-0.0322265625,0.017578125,46.55352941176471,306.2491448822844
-0.04685595703125,0.09338916015625,1.00513623046875,1.0105522538418945,-0.27587890625,-0.03466796875,-0.2353515625,46.45941176470589,305.9585407575484
-0.05320361328125,0.08069384765625,1.01246044921875,1.0170635588536168,-0.11181640625,0.0341796875,-0.42041015625,46.60058823529412,305.9585407575484
-0.04929736328125,0.07141650390625,1.00855419921875,1.01228065269393,0.05859375,0.2275390625,-0.70556640625,46.41235294117647,305.9585407575484
-0.06150439453125,0.06311572265625,1.01587841796875,1.019693750636811,0.21044921875,0.4228515625,-0.89453125,46.36529411764706,305.9585407575484
-0.07517626953125,0.05872119140625,1.01050732421875,1.0149998532613405,0.341796875,0.65380859375,-1.05126953125,46.41235294117647,305.9585407575484
-0.07566455078125,0.07141650390625,1.00025341796875,1.0056502082897845,0.45068359375,0.69287109375,-1.20849609375,46.45941176470589,306.135320113955
-0.05271533203125,0.05432666015625,1.00953076171875,1.0123648804118688,0.490234375,0.65771484375,-1.5,45.80058823529412,306.135320113955
-0.04294970703125,0.03528369140625,1.00269482421875,1.004234298721365,0.5634765625,0.59130859375,-1.62158203125,46.45941176470589,306.135320113955
-0.06882861328125,0.0260063476562499,1.00806591796875,1.0107475466677207,0.56689453125,0.685546875,-1.6630859375,46.97705882352941,306.135320113955
-0.06589892578125,0.0025688476562499,1.02027294921875,1.0224021509684582,0.5888671875,0.931640625,-2.03662109375,46.41235294117647,306.4227866016326
-0.10056689453125,0.0196586914062499,1.01539013671875,1.020547546256022,0.64501953125,1.17333984375,-2.19580078125,46.36529411764706,306.4227866016326
-0.09666064453125,0.00647509765625,0.99585888671875,1.0005599079253389,0.70361328125,1.240234375,-2.16064453125,46.45941176470589,306.4227866016326
-0.09324267578125,-0.00866162109375,0.8557221679687499,0.8608307900046074,0.681640625,1.0986328125,-2.20263671875,46.60058823529412,306.4227866016326
-0.12253955078125,-0.00426708984375,0.99195263671875,0.9995019675091616,0.744140625,0.96142578125,-2.10009765625,46.55352941176471,306.4227866016326
-0.12205126953125,-0.00133740234375,0.99439404296875,1.0018571823024252,0.77392578125,0.94287109375,-2.12109375,46.45941176470589,306.0907327691621
-0.10203173828125,0.00940478515625,0.98902294921875,0.9943165088048588,0.81494140625,0.87548828125,-2.2265625,46.41235294117647,306.0907327691621
-0.08689501953125,0.0035454101562499,0.97876904296875,0.9826251339277228,0.75048828125,1.1728515625,-2.3857421875,46.41235294117647,306.0907327691621
-0.09128955078125,0.00403369140625,0.97290966796875,0.9771915241012208,0.99853515625,1.34521484375,-2.4462890625,46.64764705882353,306.0907327691621
-0.09519580078125,-0.00573193359375,0.96216748046875,0.9668822865378645,1.06005859375,1.52197265625,-2.45849609375,46.55352941176471,306.15682910177225
-0.09226611328125,-0.01061474609375,0.95093701171875,0.9554616207630996,1.119140625,1.5322265625,-2.46826171875,46.55352941176471,306.15682910177225
-0.10007861328125,-0.02233349609375,0.93287060546875,0.9384892542974052,1.1552734375,1.60693359375,-2.52392578125,46.36529411764706,306.15682910177225
-0.10935595703125,-0.01891552734375,0.92066357421875,0.927328388116182,1.1923828125,1.57421875,-2.51025390625,46.36529411764706,306.15682910177225
-0.11765673828125,-0.02477490234375,0.91724560546875,0.925092646495938,1.22802734375,1.58056640625,-2.4716796875,46.45941176470589,306.15682910177225
-0.11716845703125,-0.01354443359375,0.90113232421875,0.9088186643969992,1.259765625,1.5986328125,-2.41357421875,46.27117647058824,306.09991824477027
-0.09421923828125,-0.01305615234375,0.90601513671875,0.9109945970969406,1.3017578125,1.51416015625,-2.30419921875,46.64764705882353,306.09991824477027
-0.09421923828125,-0.00182568359375,0.90552685546875,0.910417203241462,1.3212890625,1.330078125,-2.33642578125,46.74176470588235,306.09991824477027
-0.13621142578125,0.01379931640625,0.91724560546875,0.927406854836848,1.37158203125,1.2666015625,-2.3466796875,46.41235294117647,306.09991824477027
-0.14451220703125,0.0181938476562499,0.91089794921875,0.9224694401249864,1.439453125,1.212890625,-2.4345703125,46.41235294117647,306.09991824477027
-0.16599658203125,0.03284228515625,0.92164013671875,0.9370453684594456,1.48046875,1.2529296875,-2.51953125,46.27117647058824,306.09991824477027
-0.17380908203125,0.03430712890625,0.92554638671875,0.942349558316058,1.5908203125,1.31982421875,-2.47119140625,46.74176470588235,306.09991824477027
-0.16648486328125,0.03430712890625,0.91138623046875,0.9271025023607712,1.65966796875,1.30517578125,-2.3447265625,46.45941176470589,306.09991824477027
-0.14841845703125,0.03772509765625,0.91871044921875,0.9313861234119972,1.6953125,1.0146484375,-2.26220703125,46.41235294117647,306.09991824477027
-0.14158251953125,0.05530322265625,0.94507763671875,0.957222960286098,1.724609375,0.6494140625,-2.21533203125,47.02411764705882,306.09991824477027
-0.17332080078125,0.07678759765625,0.97681591796875,0.9950405884859188,1.771484375,0.68798828125,-2.3291015625,46.41235294117647,306.09991824477027
-0.20701220703125,0.09485400390625,1.00269482421875,1.0282257760006146,1.86328125,1.05419921875,-2.47216796875,46.45941176470589,306.09991824477027
-0.23484423828125,0.10608447265625,0.99341748046875,1.026296264288989,2.01416015625,1.44580078125,-2.40380859375,46.45941176470589,306.09991824477027
-0.24607470703125,0.11682666015625,0.97290966796875,1.010323934186874,2.1123046875,1.501953125,-2.18701171875,46.41235294117647,305.8677988658441
-0.24460986328125,0.11292041015625,0.95630810546875,0.993534195098265,2.216796875,1.33740234375,-1.93212890625,46.97705882352941,305.8677988658441
-0.22996142578125,0.10999072265625,0.93531201171875,0.969427034739162,2.2353515625,1.05078125,-1.78662109375,46.64764705882353,305.8677988658441
-0.20994189453125,0.11096728515625,0.92554638671875,0.9555236529895283,2.23681640625,0.72265625,-1.78369140625,46.60058823529412,305.8677988658441
-0.19822314453125,0.11292041015625,0.91236279296875,0.940451646843925,2.1884765625,0.41943359375,-2.00830078125,46.45941176470589,305.8677988658441
-0.20945361328125,0.13245166015625,0.90552685546875,0.938825406755612,2.1611328125,0.287109375,-2.2783203125,46.45941176470589,306.10148726239686
-0.21970751953125,0.14172900390625,0.8850190429687499,0.9228310848168012,2.14794921875,0.28271484375,-2.3857421875,46.55352941176471,306.10148726239686
-0.21482470703125,0.14905322265625,0.8596284179687499,0.898514070515722,2.1474609375,0.146484375,-2.30712890625,46.41235294117647,306.10148726239686
-0.22703173828125,0.16614306640625,0.8322846679687499,0.8785469237540644,2.10595703125,-0.0703125,-1.9814453125,46.45941176470589,306.10148726239686
-0.22410205078125,0.17590869140625,0.8210541992187499,0.8690774389727096,2.08837890625,-0.43212890625,-1.77880859375,46.41235294117647,306.25675883310174
-0.20652392578125,0.17932666015625,0.8225190429687499,0.8668031835481008,2.14794921875,-0.83349609375,-1.60693359375,46.55352941176471,306.25675883310174
-0.18308642578125,0.16028369140625,0.8078706054687499,0.8437217646929653,2.19970703125,-1.181640625,-1.693359375,46.64764705882353,306.25675883310174
-0.20652392578125,0.18225634765625,0.8049409179687499,0.8507640034706857,2.18408203125,-1.33349609375,-1.9580078125,46.60058823529412,306.25675883310174
-0.18552783203125,0.20764697265625,0.8029877929687499,0.8498983688467375,2.17529296875,-1.513671875,-2.5546875,46.36529411764706,306.25675883310174
-0.18601611328125,0.23206103515625,0.7829682617187499,0.8375521579561085,2.22314453125,-1.74169921875,-2.86474609375,46.55352941176471,305.9677263746114
-0.16111376953125,0.24085009765625,0.7732026367187499,0.8257171027067448,2.2666015625,-2.0205078125,-2.87939453125,46.41235294117647,305.9677263746114
-0.16209033203125,0.24670947265625,0.7761323242187499,0.8303735450588033,2.33642578125,-2.35546875,-2.705078125,46.41235294117647,305.9677263746114
-0.15134814453125,0.26917041015625,0.7858979492187499,0.844390050357637,2.45263671875,-2.765625,-2.443359375,45.80058823529412,305.9677263746114
-0.13084033203125,0.30774462890625,0.8166596679687499,0.8824732077482705,2.56787109375,-3.14794921875,-2.7470703125,47.02411764705882,306.067654624664
-0.15281298828125,0.34192431640625,0.8542573242187499,0.9327484245597552,2.7666015625,-3.3212890625,-3.2451171875,46.60058823529412,306.067654624664
-0.17332080078125,0.37805712890625,0.8855073242187499,0.9783100295639112,2.951171875,-3.4189453125,-3.47119140625,46.45941176470589,306.067654624664
-0.16941455078125,0.40979541015625,0.92115185546875,1.0223278872431596,3.13134765625,-3.4140625,-3.779296875,45.65941176470588,306.067654624664
-0.18308642578125,0.44543994140625,0.96656201171875,1.079897913324752,3.296875,-3.43115234375,-4.02197265625,46.83588235294118,306.067654624664
-0.19724658203125,0.47376025390625,1.01539013671875,1.1377047604937087,3.47021484375,-3.38232421875,-4.07958984375,46.64764705882353,305.8801217988094
-0.21921923828125,0.48401416015625,1.04371044921875,1.1711781604319544,3.65673828125,-3.375,-4.12890625,46.64764705882353,305.8801217988094
-0.22556689453125,0.48596728515625,1.05982373046875,1.187548300413632,3.794921875,-3.01904296875,-4.10009765625,46.55352941176471,305.8801217988094
-0.23240283203125,0.46399462890625,1.05982373046875,1.1800544189378268,3.8935546875,-2.650390625,-4.0126953125,45.70647058823529,305.8801217988094
-0.22117236328125,0.45178759765625,1.05347607421875,1.167407849308359,3.93310546875,-2.23486328125,-4.04541015625,46.55352941176471,306.3367507861713
-0.21384814453125,0.45276416015625,1.03199169921875,1.1470541752235837,3.9306640625,-2.037109375,-4.15673828125,45.65941176470588,306.3367507861713
-0.18894580078125,0.45471728515625,0.99976513671875,1.1144499332186255,3.85888671875,-2.07666015625,-4.251953125,46.55352941176471,306.3367507861713
-0.17185595703125,0.44446337890625,0.98316357421875,1.092562482802002,3.724609375,-2.3408203125,-4.48583984375,46.36529411764706,306.3367507861713
-0.16111376953125,0.44788134765625,0.96656201171875,1.0774031143489164,3.59423828125,-2.63623046875,-4.5615234375,46.45941176470589,306.3367507861713
-0.16550830078125,0.44153369140625,0.94214794921875,1.0535595647572198,3.41455078125,-2.7587890625,-4.68505859375,46.55352941176471,306.0600390838566
-0.16746142578125,0.45032275390625,0.92847607421875,1.04541940493137,3.2734375,-2.79931640625,-4.74609375,45.61235294117647,306.0600390838566
-0.14744189453125,0.45715869140625,0.90845654296875,1.0276314864064702,3.14013671875,-2.84619140625,-4.88232421875,46.41235294117647,306.0600390838566
-0.14890673828125,0.46838916015625,0.8986909179687499,1.0243080533203632,3.0263671875,-2.841796875,-5.0302734375,46.41235294117647,306.0600390838566
-0.12937548828125,0.47961962890625,0.91040966796875,1.0371204216151326,2.8955078125,-2.85400390625,-5.2421875,46.45941176470589,305.84472172262764
-0.16209033203125,0.44202197265625,0.96851513671875,1.0768835917137294,2.47705078125,-2.875,-6.03173828125,46.45941176470589,305.84472172262764
-0.11326220703125,0.44251025390625,0.96314404296875,1.0659690895424467,2.40283203125,-2.71142578125,-6.09521484375,46.64764705882353,305.84472172262764
-0.14793017578125,0.42346728515625,0.95826123046875,1.0580512578905423,2.36669921875,-2.611328125,-6.1826171875,46.45941176470589,305.84472172262764
-0.15232470703125,0.41272509765625,0.95484326171875,1.0513184470260275,2.28662109375,-2.56591796875,-6.20703125,46.41235294117647,305.84472172262764
-0.16355517578125,0.38635791015625,0.94800732421875,1.036696974548269,2.10791015625,-2.43603515625,-6.3271484375,46.36529411764706,306.25675883310174
-0.15134814453125,0.36292041015625,0.93824169921875,1.0173077071928238,1.88037109375,-2.30419921875,-6.41845703125,46.55352941176471,306.25675883310174
-0.16453173828125,0.33801806640625,0.92115185546875,0.9949108738738311,1.7275390625,-2.21923828125,-6.4072265625,46.55352941176471,306.25675883310174
-0.17087939453125,0.31653369140625,0.91529248046875,0.983439713492022,1.51806640625,-2.31689453125,-6.29150390625,45.80058823529412,306.25675883310174
-0.17087939453125,0.30139697265625,0.90601513671875,0.9700017167846736,1.345703125,-2.39208984375,-6.06884765625,46.74176470588235,306.25675883310174
-0.16843798828125,0.28284228515625,0.8986909179687499,0.957087498721072,1.1650390625,-2.43310546875,-5.87841796875,46.60058823529412,306.1106728119348
-0.17820361328125,0.27161181640625,0.90406201171875,0.9606547910831178,0.94287109375,-2.333984375,-5.63818359375,46.55352941176471,306.1106728119348
-0.18162158203125,0.27405322265625,0.90845654296875,0.9661184494514854,0.8154296875,-2.18017578125,-5.34033203125,47.02411764705882,306.1106728119348
-0.16355517578125,0.28381884765625,0.90552685546875,0.9629549936445002,0.66015625,-2.06591796875,-4.89013671875,46.55352941176471,306.1106728119348
-0.14646533203125,0.28040087890625,0.90650341796875,0.9601172809440772,0.4765625,-1.95654296875,-4.435546875,46.83588235294118,305.90924926816155
-0.15037158203125,0.26624072265625,0.90503857421875,0.955296056679295,0.2685546875,-1.58349609375,-4.33203125,46.41235294117647,305.90924926816155
-0.15916064453125,0.28381884765625,0.92164013671875,0.9773974578765184,0.18994140625,-1.49560546875,-4.17822265625,46.45941176470589,305.90924926816155
-0.17136767578125,0.29163134765625,0.93482373046875,0.9941383858829604,0.1279296875,-1.384765625,-3.919921875,46.60058823529412,305.90924926816155
-0.17966845703125,0.31116259765625,0.93628857421875,1.0028654998776032,-0.02783203125,-1.39404296875,-3.47802734375,47.02411764705882,305.90924926816155
-0.18552783203125,0.32141650390625,0.93384716796875,1.004887893530809,-0.13525390625,-1.27978515625,-3.0712890625,46.60058823529412,305.79856823636214
-0.18210986328125,0.33655322265625,0.93921826171875,1.0141809587694954,-0.18017578125,-1.0029296875,-2.62646484375,46.41235294117647,305.79856823636214
-0.16892626953125,0.34827197265625,0.94117138671875,1.0176605675045658,-0.2548828125,-0.7958984375,-2.330078125,46.41235294117647,305.79856823636214
-0.17722705078125,0.35364306640625,0.94214794921875,1.0218197513078964,-0.41064453125,-0.60693359375,-2.103515625,46.45941176470589,305.79856823636214
-0.13816455078125,0.36292041015625,0.94751904296875,1.024008302695335,-0.43994140625,-0.67529296875,-2.0078125,46.45941176470589,305.898494643325
-0.15720751953125,0.36145556640625,0.95874951171875,1.0366122500260997,-0.52294921875,-0.6298828125,-1.87744140625,46.55352941176471,305.898494643325
-0.15623095703125,0.36780322265625,0.96119091796875,1.0409492318633178,-0.580078125,-0.431640625,-1.69921875,46.41235294117647,305.898494643325
-0.15134814453125,0.37122119140625,0.94556591796875,1.0270376521949975,-0.67919921875,-0.2705078125,-1.5751953125,46.55352941176471,305.898494643325
-0.15476611328125,0.37219775390625,0.93482373046875,1.01802707472864,-0.78466796875,-0.24365234375,-1.41162109375,45.80058823529412,305.898494643325
-0.15281298828125,0.37268603515625,0.92066357421875,1.0049219407900172,-0.8603515625,-0.32177734375,-1.2724609375,46.45941176470589,306.1106728119348
-0.14695361328125,0.37512744140625,0.91724560546875,1.0018260639972132,-0.94287109375,-0.38720703125,-1.09130859375,46.45941176470589,306.1106728119348
-0.13474658203125,0.36975634765625,0.91382763671875,0.9949660032544678,-0.98974609375,-0.35205078125,-1.0166015625,46.88294117647059,306.1106728119348
-0.13523486328125,0.38342822265625,0.91138623046875,0.997963191337269,-1.04248046875,-0.177734375,-1.0439453125,47.02411764705882,306.1106728119348
-0.12986376953125,0.39661181640625,0.90259716796875,0.994407954098889,-1.06103515625,-0.03759765625,-1.07763671875,46.45941176470589,305.74479532240395
-0.12546923828125,0.39758837890625,0.90308544921875,0.9946770216441156,-1.08740234375,0.03466796875,-1.107421875,45.80058823529412,305.74479532240395
-0.13230517578125,0.39368212890625,0.90357373046875,0.9944524948693516,-1.1162109375,0.0830078125,-1.140625,46.45941176470589,305.74479532240395
-0.14255908203125,0.40051806640625,0.8942963867187499,0.9902039389366242,-1.06787109375,0.212890625,-1.1533203125,46.36529411764706,305.74479532240395
-0.14597705078125,0.40491259765625,0.8933198242187499,0.9916066858577256,-1.0556640625,0.263671875,-1.1640625,46.60058823529412,305.74479532240395
-0.14500048828125,0.40637744140625,0.8923432617187499,0.991183264195148,-1.06298828125,0.20263671875,-1.20263671875,46.36529411764706,305.9677263746114
-0.15037158203125,0.41077197265625,0.90552685546875,1.0056461167715065,-1.0068359375,0.1640625,-1.232421875,46.64764705882353,305.9677263746114
-0.15281298828125,0.40540087890625,0.90406201171875,1.002511747082476,-0.96630859375,0.18505859375,-1.2099609375,45.70647058823529,305.9677263746114
-0.15378955078125,0.40491259765625,0.90894482421875,1.0068694707578956,-0.9072265625,0.22509765625,-1.15380859375,46.55352941176471,305.9677263746114
-0.15232470703125,0.40979541015625,0.91285107421875,1.0121423705485364,-0.8701171875,0.26708984375,-1.12255859375,47.02411764705882,306.279837745424
-0.15720751953125,0.40784228515625,0.90601513671875,1.0059388459156626,-0.8369140625,0.3828125,-1.20849609375,45.70647058823529,306.279837745424
-0.15818408203125,0.40540087890625,0.8991791992187499,0.998947100067717,-0.849609375,0.46630859375,-1.3623046875,46.55352941176471,306.279837745424
-0.16892626953125,0.39905322265625,0.8889252929687499,0.988922512399056,-0.80517578125,0.4814453125,-1.4560546875,46.55352941176471,306.279837745424
-0.17527392578125,0.39661181640625,0.8767182617187499,0.978088335684964,-0.8193359375,0.41015625,-1.47412109375,46.36529411764706,306.279837745424
-0.18064501953125,0.40002978515625,0.8737885742187499,0.9778358372082898,-0.84375,0.244140625,-1.4775390625,46.55352941176471,305.8662308502174
-0.18650439453125,0.41760791015625,0.8762299804687499,0.9884124819511358,-0.84326171875,0.197265625,-1.51513671875,46.41235294117647,305.8662308502174
-0.18406298828125,0.42395556640625,0.8698823242187499,0.9850445492108884,-0.84716796875,0.19189453125,-1.64453125,45.89470588235295,305.8662308502174
-0.17771533203125,0.43616259765625,0.8596284179687499,0.9801946581229062,-0.890625,0.169921875,-1.82421875,46.13,305.8662308502174
-0.18210986328125,0.43958056640625,0.8508393554687499,0.974844954585514,-0.888671875,0.07177734375,-1.9833984375,46.64764705882353,306.0230676681784
-0.19089892578125,0.44788134765625,0.8606049804687499,0.9887775451791122,-0.947265625,-0.0634765625,-2.1748046875,46.45941176470589,306.0230676681784
-0.19871142578125,0.45325244140625,0.8718354492187499,1.0025073849559427,-0.96484375,-0.171875,-2.27734375,47.02411764705882,306.0230676681784
-0.17966845703125,0.44690478515625,0.8772065429687499,1.0007477007091894,-0.97900390625,-0.3154296875,-2.2294921875,46.45941176470589,306.0230676681784
-0.17332080078125,0.43713916015625,0.8762299804687499,0.9944394018731514,-0.95947265625,-0.2275390625,-2.357421875,45.84764705882353,306.0230676681784
-0.16209033203125,0.41907275390625,0.8752534179687499,0.9838515103767176,-0.86572265625,-0.0390625,-2.669921875,46.97705882352941,306.187523696583
-0.14793017578125,0.41321337890625,0.8718354492187499,0.9760766793281412,-0.73583984375,-0.04541015625,-2.8681640625,46.36529411764706,306.187523696583
-0.15525439453125,0.41565478515625,0.8772065429687499,0.9830382222842298,-0.62548828125,-0.25537109375,-2.91650390625,46.55352941176471,306.187523696583
-0.15427783203125,0.41174853515625,0.8825776367187499,0.9860435033484244,-0.53076171875,-0.3876953125,-2.83544921875,46.64764705882353,306.187523696583
-0.14011767578125,0.39270556640625,0.8913666992187499,0.9840656570721908,-0.4560546875,-0.28564453125,-2.736328125,46.55352941176471,305.8677988658441
-0.13572314453125,0.40295947265625,0.90845654296875,1.003040576959669,-0.42333984375,-0.103515625,-2.63818359375,46.60058823529412,305.8677988658441
-0.14060595703125,0.40442431640625,0.92359326171875,1.018014526392239,-0.36669921875,0.10595703125,-2.677734375,47.02411764705882,305.8677988658441
-0.15525439453125,0.37903369140625,0.93531201171875,1.021067591057364,-0.31591796875,0.31689453125,-2.814453125,46.55352941176471,305.8677988658441
-0.15720751953125,0.34436572265625,0.93238232421875,1.006299534757563,-0.26025390625,0.3955078125,-2.869140625,46.36529411764706,305.8677988658441
-0.15378955078125,0.32483447265625,0.92603466796875,0.9933322036636864,-0.232421875,0.353515625,-2.8212890625,46.36529411764706,306.03539112663606
-0.13230517578125,0.30090869140625,0.93140576171875,0.9877081517661044,-0.26806640625,0.29443359375,-2.67822265625,45.80058823529412,306.03539112663606
-0.12742236328125,0.28479541015625,0.95630810546875,1.005917529867869,-0.28466796875,0.27880859375,-2.50048828125,46.41235294117647,306.03539112663606
-0.13084033203125,0.26770556640625,0.96558544921875,1.0105150778261125,-0.30029296875,0.3212890625,-2.2900390625,46.45941176470589,306.03539112663606
-0.13474658203125,0.25061572265625,0.98414013671875,1.024449457275672,-0.28369140625,0.54248046875,-2.03857421875,46.36529411764706,305.9338943193296
-0.13474658203125,0.23743212890625,1.00025341796875,1.036840179277513,-0.1806640625,0.88818359375,-1.89794921875,47.02411764705882,305.9338943193296
-0.13621142578125,0.23254931640625,0.99781201171875,1.0335673890969057,-0.0732421875,1.26806640625,-1.95361328125,45.80058823529412,305.9338943193296
-0.14841845703125,0.23547900390625,0.98951123046875,1.0279157917319863,0.00537109375,1.57080078125,-2.001953125,46.74176470588235,305.9338943193296
-0.15818408203125,0.22864306640625,0.98218701171875,1.0207796929860673,0.10205078125,1.68017578125,-2.041015625,47.02411764705882,305.9338943193296
-0.17527392578125,0.22278369140625,0.95972607421875,1.0007135752805094,0.09521484375,1.697265625,-2.0087890625,46.55352941176471,306.1814776036748
-0.18650439453125,0.21838916015625,0.93726513671875,0.9802773336977844,0.1201171875,1.7431640625,-1.9736328125,46.55352941176471,306.1814776036748
-0.20017626953125,0.21252978515625,0.91187451171875,0.957473014546268,0.189453125,1.64208984375,-2.00732421875,46.41235294117647,306.1814776036748
-0.20066455078125,0.20618212890625,0.9006440429687499,0.9454824294272474,0.23095703125,1.244140625,-1.98974609375,46.45941176470589,306.1814776036748
-0.19480517578125,0.20618212890625,0.8786713867187499,0.9233220091764996,0.2255859375,0.77685546875,-1.9501953125,47.02411764705882,306.12456564039195
-0.18259814453125,0.19885791015625,0.8806245117187499,0.9210787596388558,0.1953125,0.4912109375,-2.01220703125,46.41235294117647,306.12456564039195
-0.18748095703125,0.19348681640625,0.8908784179687499,0.9307258527487468,0.1923828125,0.5205078125,-2.1728515625,46.45941176470589,306.12456564039195
-0.18210986328125,0.18616259765625,0.8840424804687499,0.9216027464931832,0.15087890625,0.650390625,-2.29150390625,46.55352941176471,306.12456564039195
-0.17527392578125,0.16223681640625,0.8698823242187499,0.90207371741151,0.095703125,0.7587890625,-2.4306640625,46.45941176470589,306.12456564039195
-0.18113330078125,0.13586962890625,0.8527924804687499,0.8823405484590834,0.02587890625,0.6884765625,-2.44384765625,46.45941176470589,306.2690832766178
-0.17722705078125,0.10754931640625,0.8488862304687499,0.8738330019331583,-0.0634765625,0.4697265625,-2.330078125,46.27117647058824,306.2690832766178
-0.18015673828125,0.08069384765625,0.8415620117187499,0.864404168757774,-0.17236328125,0.22314453125,-2.103515625,46.55352941176471,306.2690832766178
-0.19382861328125,0.06555712890625,0.8420502929687499,0.8665540746922379,-0.23486328125,0.05517578125,-1.9580078125,46.45941176470589,306.2690832766178
-0.20017626953125,0.04504931640625,0.8693940429687499,0.8932782219116655,-0.29541015625,-0.13720703125,-1.87353515625,46.41235294117647,306.18909268523095
-0.19724658203125,0.0304008789062499,0.8928315429687499,0.91486534073668,-0.322265625,-0.40380859375,-1.51220703125,46.55352941176471,306.18909268523095
-0.19431689453125,0.01184619140625,0.92164013671875,0.9419766076511976,-0.35791015625,-0.5849609375,-1.255859375,46.788823529411765,306.18909268523095
-0.19822314453125,0.0020805664062499,0.95386669921875,0.9742476192749464,-0.39697265625,-0.529296875,-0.998046875,45.80058823529412,306.18909268523095
-0.20652392578125,-0.02086865234375,0.98365185546875,1.0053151771150468,-0.4287109375,-0.33935546875,-0.8505859375,46.45941176470589,306.18909268523095
-0.24460986328125,-0.00914990234375,1.00025341796875,1.0297692003966417,-0.50830078125,-0.27880859375,-0.55322265625,46.60058823529412,306.0784091511373
-0.24216845703125,-0.01452099609375,1.04273388671875,1.070584130005691,-0.61669921875,-0.53759765625,-0.0625,46.55352941176471,306.0784091511373
-0.26316455078125,-0.02233349609375,1.07691357421875,1.1088269532132913,-0.765625,-0.7685546875,0.3837890625,46.41235294117647,306.0784091511373
-0.28904345703125,-0.01940380859375,1.11890576171875,1.1557996069595868,-0.80517578125,-0.6923828125,0.30517578125,46.55352941176471,306.0784091511373
-0.32127001953125,-0.01305615234375,1.13648388671875,1.181092931709859,-0.853515625,-0.3974609375,0.30126953125,46.55352941176471,306.10148726239686
-0.34910205078125,-0.01940380859375,1.13648388671875,1.1890518804572718,-0.87109375,-0.09228515625,0.6015625,46.41235294117647,306.10148726239686
-0.33591845703125,-0.01745068359375,1.11255810546875,1.16229569136961,-0.958984375,0.130859375,1.02099609375,46.36529411764706,306.10148726239686
-0.31980517578125,-0.00524365234375,1.07251904296875,1.1191961150205008,-0.96630859375,0.18310546875,1.48046875,46.55352941176471,306.10148726239686
-0.27293017578125,-0.00329052734375,1.02564404296875,1.0613422686859633,-0.986328125,0.18115234375,1.74755859375,46.55352941176471,306.10148726239686
-0.26072314453125,0.0162407226562499,0.96021435546875,0.9951140274435524,-1.0146484375,0.283203125,1.8154296875,46.788823529411765,305.9247084097547
-0.26169970703125,0.0240532226562499,0.92896435546875,0.9654222226113623,-1.1171875,0.29443359375,1.77587890625,46.60058823529412,305.9247084097547
-0.26023486328125,0.04895556640625,0.8938081054687499,0.9322080030501796,-1.12841796875,0.1640625,1.8076171875,45.65941176470588,305.9247084097547
-0.25632861328125,0.06751025390625,0.8669526367187499,0.9065698355244166,-1.42041015625,-0.24853515625,1.75439453125,46.41235294117647,305.9247084097547
-0.24802783203125,0.07922900390625,0.8767182617187499,0.9145654437782158,-1.5791015625,-0.84033203125,1.73193359375,46.41235294117647,306.0692238233839
-0.22849658203125,0.09241259765625,0.90210888671875,0.9351744327677496,-1.626953125,-1.28173828125,1.66455078125,46.55352941176471,306.0692238233839
-0.21628955078125,0.12024462890625,0.91529248046875,0.9481562452257504,-1.61328125,-1.47900390625,1.619140625,46.55352941176471,306.0692238233839
-0.18699267578125,0.14124072265625,0.94996044921875,0.9784375593834184,-1.5556640625,-1.521484375,1.40673828125,46.55352941176471,306.0692238233839
-0.16990283203125,0.15149462890625,0.98755810546875,1.013453800918773,-1.43701171875,-1.3798828125,1.0869140625,46.45941176470589,306.0692238233839
-0.16453173828125,0.13538134765625,1.00611279296875,1.0284268347191503,-1.3583984375,-1.13330078125,0.7529296875,46.64764705882353,305.9554034224811
-0.17625048828125,0.11633837890625,1.03199169921875,1.053378241792717,-1.27392578125,-0.796875,0.43115234375,46.36529411764706,305.9554034224811
-0.19529345703125,0.08899462890625,1.03638623046875,1.0583742235327744,-1.1943359375,-0.51123046875,0.283203125,46.41235294117647,305.9554034224811
-0.20994189453125,0.06311572265625,1.01978466796875,1.0430819538990812,-1.0830078125,-0.34326171875,0.20556640625,46.55352941176471,305.9554034224811
-0.22800830078125,0.0274711914062499,1.01490185546875,1.040561496412559,-1.033203125,-0.3642578125,0.18115234375,46.60058823529412,306.03539112663606
-0.25632861328125,0.0035454101562499,0.99488232421875,1.0273790765646176,-1.0341796875,-0.4248046875,0.29931640625,46.41235294117647,306.03539112663606
-0.27097705078125,-0.01598583984375,0.98218701171875,1.0190070829560616,-1.01708984375,-0.52685546875,0.5439453125,46.788823529411765,306.03539112663606
-0.26560595703125,-0.01793896484375,0.97632763671875,1.0119703479306943,-0.986328125,-0.59912109375,0.70068359375,46.55352941176471,306.03539112663606
-0.26609423828125,-0.01452099609375,0.96656201171875,1.0026261144972388,-0.94091796875,-0.525390625,0.841796875,46.41235294117647,306.03539112663606
-0.26414111328125,-0.00475537109375,0.95972607421875,0.9954231657014172,-0.92236328125,-0.33935546875,0.9169921875,46.55352941176471,305.89401433521715
-0.25046923828125,0.00793994140625,0.94165966796875,0.974433585358048,-0.89599609375,-0.08984375,0.904296875,46.55352941176471,305.89401433521715
-0.23582080078125,0.01135791015625,0.92945263671875,0.9589695803870236,-0.90771484375,0.072265625,0.76806640625,46.36529411764706,305.89401433521715
-0.22849658203125,0.0167290039062499,0.91040966796875,0.938795137984123,-0.97607421875,0.11669921875,0.6494140625,46.55352941176471,305.89401433521715
-0.22410205078125,0.00403369140625,0.90747998046875,0.934750188436614,-1.0263671875,0.07958984375,0.54150390625,46.45941176470589,305.76787209835726
-0.22752001953125,-0.00133740234375,0.90650341796875,0.9346205618974768,-1.08251953125,-0.0625,0.50634765625,45.80058823529412,305.76787209835726
-0.22605517578125,-0.00475537109375,0.90699169921875,0.9347499657680906,-1.0908203125,-0.18212890625,0.52197265625,46.55352941176471,305.76787209835726
-0.21482470703125,-0.00768505859375,0.91675732421875,0.9416223799301788,-1.130859375,-0.322265625,0.51318359375,46.45941176470589,305.76787209835726
-0.20701220703125,-0.00719677734375,0.91529248046875,0.938438155802886,-1.09130859375,-0.39111328125,0.43994140625,46.55352941176471,305.76787209835726
-0.20017626953125,0.0015922851562499,0.92652294921875,0.9479018143692292,-1.09423828125,-0.44580078125,0.36279296875,46.83588235294118,306.0799782894896
-0.19285205078125,0.00452197265625,0.93872998046875,0.9583456255224924,-1.08447265625,-0.46044921875,0.28759765625,46.41235294117647,306.0799782894896
-0.19919970703125,0.01282275390625,0.94849560546875,0.9692723352559932,-1.02294921875,-0.3623046875,0.14599609375,46.36529411764706,306.0799782894896
-0.21043017578125,0.03674853515625,0.95874951171875,0.9822585911746454,-0.96875,-0.34130859375,0.1494140625,47.02411764705882,306.0799782894896
-0.20603564453125,0.03723681640625,0.97242138671875,0.9947062986939896,-0.91796875,-0.34375,0.28125,46.36529411764706,305.9677263746114
-0.21628955078125,0.04797900390625,0.97535107421875,1.000196416996512,-0.81689453125,-0.16845703125,0.537109375,46.55352941176471,305.9677263746114
-0.21238330078125,0.04993212890625,0.97828076171875,1.0023138893065715,-0.66552734375,0.00634765625,0.53369140625,46.45941176470589,305.9677263746114
-0.21580126953125,0.05042041015625,0.97290966796875,0.9978304604083236,-0.4931640625,0.12841796875,0.35009765625,46.41235294117647,305.9677263746114
-0.24168017578125,0.05286181640625,0.96314404296875,0.994409436050168,-0.4013671875,0.12451171875,0.32958984375,46.74176470588235,305.9677263746114
-0.23826220703125,0.03821337890625,0.96021435546875,0.9900710833445756,-0.3642578125,-0.16162109375,0.4482421875,46.41235294117647,305.9554034224811
-0.23142626953125,0.04358447265625,0.95630810546875,0.9848771075982544,-0.29052734375,-0.287109375,0.53125,46.55352941176471,305.9554034224811
-0.22410205078125,0.04456103515625,0.96070263671875,0.987500365173055,-0.26220703125,-0.37646484375,0.5478515625,46.55352941176471,305.9554034224811
-0.21482470703125,0.04602587890625,0.96949169921875,0.9940735340678848,-0.2373046875,-0.361328125,0.4736328125,46.45941176470589,305.9554034224811
-0.22214892578125,0.03626025390625,0.98414013671875,1.0095527524304555,-0.22119140625,-0.298828125,0.41455078125,46.60058823529412,305.7770590300857
-0.23093798828125,0.03235400390625,0.99146435546875,1.0185188776675766,-0.16748046875,-0.224609375,0.38525390625,46.55352941176471,305.7770590300857
-0.23386767578125,0.04016650390625,0.98560498046875,1.0137675351559543,-0.11181640625,-0.171875,0.33935546875,46.27117647058824,305.7770590300857
-0.23484423828125,0.03821337890625,0.99195263671875,1.0200892667186598,-0.08251953125,-0.10205078125,0.29150390625,46.45941176470589,305.7770590300857
-0.22849658203125,0.03626025390625,0.98658154296875,1.0133452693627718,-0.07373046875,-0.03857421875,0.24658203125,46.45941176470589,305.7770590300857
-0.22898486328125,0.03479541015625,0.97437451171875,1.0015240772278151,-0.0439453125,0.0068359375,0.19873046875,46.41235294117647,306.17833814384767
-0.23679736328125,0.0260063476562499,0.97486279296875,1.0035471022778162,-0.04736328125,0.01416015625,0.1865234375,46.55352941176471,306.17833814384767
-0.22800830078125,0.01282275390625,0.96363232421875,0.9903229092180608,-0.01318359375,-0.10498046875,0.2783203125,46.55352941176471,306.17833814384767
-0.22068408203125,0.0011040039062499,0.95289013671875,0.9781115966710948,-0.0205078125,-0.17626953125,0.3828125,46.74176470588235,306.17833814384767
-0.22312548828125,-0.00231396484375,0.94751904296875,0.9734385829329244,-0.02294921875,-0.16943359375,0.4052734375,46.64764705882353,305.9908041518267
-0.22214892578125,-0.00426708984375,0.94996044921875,0.9755988972735604,-0.04833984375,-0.18359375,0.41943359375,46.60058823529412,305.9908041518267
-0.22019580078125,-0.01354443359375,0.94849560546875,0.9738139226549404,-0.08544921875,-0.14013671875,0.47998046875,45.84764705882353,305.9908041518267
-0.20847705078125,-0.01159130859375,0.95484326171875,0.9774061047420692,-0.115234375,-0.12646484375,0.54638671875,46.74176470588235,305.9908041518267
-0.20945361328125,-0.01452099609375,0.93872998046875,0.9619228927907816,-0.13037109375,-0.07373046875,0.595703125,46.41235294117647,305.9908041518267
-0.21043017578125,-0.01061474609375,0.93628857421875,0.9597029883909616,-0.189453125,-0.06005859375,0.615234375,46.45941176470589,305.68945512785217
-0.20847705078125,-0.00719677734375,0.94312451171875,0.9659183810816075,-0.21826171875,-0.123046875,0.6953125,46.45941176470589,305.68945512785217
-0.32566455078125,0.0011040039062499,0.94751904296875,1.001923627453008,-0.2373046875,-0.10400390625,0.7294921875,46.788823529411765,305.68945512785217
-0.20847705078125,0.01086962890625,0.94556591796875,0.9683365813388918,-0.24365234375,-0.1279296875,0.74072265625,46.64764705882353,305.68945512785217
-0.21384814453125,0.01428759765625,0.96021435546875,0.9838428598178228,-0.2392578125,-0.1279296875,0.7802734375,45.80058823529412,305.8801217988094
-0.21335986328125,0.0250297851562499,0.96216748046875,0.9858575870154592,-0.20166015625,-0.06982421875,0.8466796875,46.64764705882353,305.8801217988094
-0.21335986328125,0.0186821289062499,0.96412060546875,0.9876234075239876,-0.19677734375,0.0205078125,0.82763671875,46.45941176470589,305.8801217988094
-0.21433642578125,0.0294243164062499,0.96265576171875,0.986667121871892,-0.13671875,0.0361328125,0.8974609375,46.97705882352941,305.8801217988094
-0.21091845703125,0.03674853515625,0.96900341796875,0.9923732535632412,-0.12890625,0.06298828125,0.99169921875,47.02411764705882,305.8801217988094
-0.21335986328125,0.03430712890625,0.95826123046875,0.9823258095828828,-0.06982421875,0.0693359375,1.04296875,46.36529411764706,305.9016307663253
-0.21091845703125,0.04895556640625,0.97046826171875,0.9943298698128364,-0.07666015625,0.06689453125,1.02490234375,46.41235294117647,305.9016307663253
-0.21482470703125,0.05188525390625,0.96558544921875,0.9905538824652363,-0.02783203125,0.0185546875,1.0078125,46.45941176470589,305.9016307663253
-0.20994189453125,0.05090869140625,0.96900341796875,0.9927914775899253,-0.0234375,0.02490234375,0.9921875,46.36529411764706,305.9016307663253
-0.22117236328125,0.05188525390625,0.96656201171875,0.9929005067730232,-0.0029296875,0.08642578125,0.9423828125,46.41235294117647,306.10148726239686
-0.22556689453125,0.06213916015625,0.96997998046875,0.9977990086402936,0.0009765625,0.1240234375,0.828125,46.55352941176471,306.10148726239686
-0.22361376953125,0.06799853515625,0.96119091796875,0.9891991202447457,0.03369140625,0.0009765625,0.80615234375,47.02411764705882,306.10148726239686
-0.20750048828125,0.05286181640625,0.96802685546875,0.9914266574888136,0.0439453125,-0.2724609375,0.91796875,46.60058823529412,306.10148726239686
-0.19627001953125,0.03967822265625,0.96802685546875,0.9885202450272186,0.05859375,-0.33642578125,0.96826171875,46.45941176470589,306.10148726239686
-0.19529345703125,0.04846728515625,0.96851513671875,0.9891967358129388,0.0859375,-0.13037109375,0.78369140625,46.788823529411765,305.8677988658441
-0.21726611328125,0.06067431640625,0.95093701171875,0.9773265252249592,0.06640625,-0.0244140625,0.64892578125,46.60058823529412,305.8677988658441
-0.20798876953125,0.04749072265625,0.93872998046875,0.9626674780111748,0.01220703125,-0.166015625,0.7314453125,46.45941176470589,305.8677988658441
-0.18503955078125,0.03870166015625,0.92847607421875,0.9475258699628408,-0.0185546875,-0.3125,0.865234375,45.70647058823529,305.8677988658441
-0.18308642578125,0.04651416015625,0.92261669921875,0.9417567520743856,-0.0283203125,-0.32763671875,1.0263671875,46.55352941176471,305.94308081712086
-0.18455126953125,0.05286181640625,0.91480419921875,0.934730049601286,-0.07373046875,-0.33251953125,1.12060546875,45.61235294117647,305.94308081712086
-0.19334033203125,0.04553759765625,0.91871044921875,0.9399377885232478,-0.12646484375,-0.3369140625,0.90234375,46.64764705882353,305.94308081712086
-0.19822314453125,0.04407275390625,0.92652294921875,0.9485144163868824,-0.1650390625,-0.3857421875,0.90673828125,45.70647058823529,305.94308081712086
-0.19968798828125,0.05090869140625,0.94019482421875,0.9625140492544696,-0.162109375,-0.376953125,0.97021484375,46.55352941176471,305.94308081712086
-0.20554736328125,0.05481494140625,0.94898388671875,0.9725352505719624,-0.17431640625,-0.61572265625,1.015625,46.60058823529412,305.91395395244945
-0.20847705078125,0.04944384765625,0.95581982421875,0.9795401528998514,-0.1552734375,-0.6533203125,1.05517578125,46.55352941176471,305.91395395244945
-0.21140673828125,0.05579150390625,0.96167919921875,0.9862212647823276,-0.13671875,-0.572265625,1.087890625,46.55352941176471,305.91395395244945
-0.20847705078125,0.04846728515625,0.95630810546875,0.9799678316241276,-0.24951171875,-0.52197265625,1.09130859375,47.02411764705882,305.91395395244945
-0.20261767578125,0.04749072265625,0.94849560546875,0.9710577762784968,-0.0986328125,-0.5458984375,1.19189453125,46.45941176470589,306.1660145066529
-0.19041064453125,0.05188525390625,0.95630810546875,0.9764596692690136,-0.0673828125,-0.5703125,1.25634765625,46.41235294117647,306.1660145066529
-0.18992236328125,0.05286181640625,0.95191357421875,0.9721133310936636,-0.0654296875,-0.51171875,1.201171875,46.60058823529412,306.1660145066529
-0.19724658203125,0.05335009765625,0.95191357421875,0.9735974013034636,-0.0185546875,-0.44482421875,1.1513671875,46.45941176470589,306.1660145066529
-0.19529345703125,0.04749072265625,0.95972607421875,0.980545277196807,-0.029296875,-0.44970703125,1.0986328125,46.36529411764706,306.1660145066529
-0.18748095703125,0.04749072265625,0.96216748046875,0.9814126239555656,-0.02880859375,-0.47119140625,1.1279296875,46.45941176470589,306.0875950671169
-0.19236376953125,0.04553759765625,0.96167919921875,0.9817863183191088,-0.037109375,-0.41845703125,1.169921875,46.45941176470589,306.0875950671169
-0.19675830078125,0.05188525390625,0.96363232421875,0.9848823101155136,-0.0625,-0.42724609375,1.14794921875,46.41235294117647,306.0875950671169
-0.20164111328125,0.04993212890625,0.97779248046875,0.9996151714153017,-0.091796875,-0.43310546875,1.00048828125,46.45941176470589,306.0875950671169
-0.20847705078125,0.04211962890625,0.97779248046875,1.0006572233801536,-0.11376953125,-0.42431640625,1.109375,46.41235294117647,306.14607460108016
-0.21726611328125,0.04016650390625,0.97632763671875,1.0010162667195828,-0.103515625,-0.396484375,1.1083984375,46.41235294117647,306.14607460108016
-0.21580126953125,0.04260791015625,0.97486279296875,0.9993713459240334,-0.130859375,-0.36083984375,1.130859375,46.55352941176471,306.14607460108016
-0.21287158203125,0.04065478515625,0.96705029296875,0.9910365236072448,-0.14697265625,-0.39794921875,1.11669921875,45.80058823529412,306.14607460108016
-0.21335986328125,0.04553759765625,0.96314404296875,0.9875436960286292,-0.18017578125,-0.4345703125,1.07958984375,46.45941176470589,306.14607460108016
-0.21384814453125,0.03626025390625,0.96119091796875,0.9853597392416702,-0.19091796875,-0.51904296875,1.04638671875,46.97705882352941,305.8677988658441
-0.21140673828125,0.03284228515625,0.96119091796875,0.9847128543238428,-0.18701171875,-0.58447265625,1.08203125,46.36529411764706,305.8677988658441
-0.20798876953125,0.03430712890625,0.97437451171875,0.9969162434387684,-0.1845703125,-0.62451171875,1.12890625,46.55352941176471,305.8677988658441
-0.32224658203125,0.0308891601562499,0.97339794921875,1.0258170243221982,-0.1591796875,-0.61181640625,1.1533203125,46.45941176470589,305.8677988658441
-0.19578173828125,0.0221000976562499,0.97876904296875,0.9984025955669418,-0.11669921875,-0.578125,1.140625,46.55352941176471,305.94464886412186
-0.19480517578125,0.0221000976562499,0.97339794921875,0.9929456371679406,-0.0888671875,-0.49169921875,1.08837890625,46.60058823529412,305.94464886412186
-0.19041064453125,0.0186821289062499,0.96997998046875,0.9886690032571226,-0.0556640625,-0.427734375,1.02880859375,46.41235294117647,305.94464886412186
-0.18943408203125,0.0157524414062499,0.95484326171875,0.9735805386792512,-0.02587890625,-0.40625,0.98974609375,46.55352941176471,305.94464886412186
-0.19627001953125,0.0269829101562499,0.95337841796875,0.9737455549864624,-0.0478515625,-0.4736328125,1.04345703125,46.64764705882353,305.94464886412186
-0.17869189453125,0.0284477539062499,0.95093701171875,0.9679985889091284,-0.080078125,-0.60107421875,1.20068359375,46.60058823529412,306.3244258363033
-0.17332080078125,0.03186572265625,0.96021435546875,0.9762515724505264,-0.08447265625,-0.5048828125,1.22119140625,46.45941176470589,306.3244258363033
-0.17087939453125,0.03626025390625,0.96705029296875,0.9827007899761032,-0.03564453125,-0.29931640625,1.0673828125,46.55352941176471,306.3244258363033
-0.16843798828125,0.03577197265625,0.96900341796875,0.9841842378127552,0.00927734375,-0.16796875,0.87939453125,46.55352941176471,306.3244258363033
-0.17283251953125,0.04065478515625,0.96412060546875,0.980332817594642,0.013671875,-0.24560546875,0.7626953125,45.61235294117647,305.9123852704314
-0.17332080078125,0.03772509765625,0.96753857421875,0.9836636496170216,-0.01171875,-0.2841796875,0.76953125,46.41235294117647,305.9123852704314
-0.16697314453125,0.03821337890625,0.96753857421875,0.9825839332715236,0.00537109375,-0.2724609375,0.83154296875,46.97705882352941,305.9123852704314
-0.16062548828125,0.04993212890625,0.97632763671875,0.9907115721558518,0.0068359375,-0.26123046875,0.873046875,46.64764705882353,305.9123852704314
-0.14793017578125,0.05627978515625,0.98218701171875,0.994857817536211,0.0390625,-0.22900390625,0.80029296875,46.36529411764706,305.9123852704314
-0.15818408203125,0.05872119140625,1.00171826171875,1.0158296402394806,0.07080078125,-0.2197265625,0.7177734375,47.02411764705882,305.6126060818664
-0.17429736328125,0.06799853515625,1.01392529296875,1.0310421287958884,0.10009765625,-0.22021484375,0.64697265625,46.64764705882353,305.6126060818664
-0.17332080078125,0.07727587890625,1.02173779296875,1.0392111330354576,0.13916015625,-0.130859375,0.603515625,46.97705882352941,305.6126060818664
-0.17478564453125,0.08655322265625,1.02271435546875,1.0411465481709326,0.181640625,0.01513671875,0.51953125,46.55352941176471,305.6126060818664
-0.17966845703125,0.07874072265625,1.01197216796875,1.030809645181782,0.21044921875,0.1708984375,0.45703125,46.36529411764706,306.2598992635938
-0.17576220703125,0.07581103515625,0.98902294921875,1.0073758288510362,0.23828125,0.18115234375,0.44140625,46.36529411764706,306.2598992635938
-0.16599658203125,0.07092822265625,0.98121044921875,0.9976771139358128,0.2236328125,0.10107421875,0.486328125,46.45941176470589,306.2598992635938
-0.15769580078125,0.06751025390625,0.97095654296875,0.9859930062126973,0.2060546875,-0.08154296875,0.5595703125,46.45941176470589,306.2598992635938
-0.13914111328125,0.06799853515625,0.97535107421875,0.9875696269976162,0.146484375,-0.18994140625,0.5908203125,46.788823529411765,306.2598992635938
-0.13865283203125,0.07678759765625,0.98365185546875,0.9963392573572613,0.12890625,-0.193359375,0.5732421875,46.41235294117647,305.97848089973195
-0.13816455078125,0.08704150390625,0.98951123046875,1.0028948806922018,0.08984375,-0.10205078125,0.49072265625,46.55352941176471,305.97848089973195
-0.13230517578125,0.09631884765625,0.99390576171875,1.007288758564327,0.115234375,0.056640625,0.3701171875,46.60058823529412,305.97848089973195
-0.14353564453125,0.10217822265625,0.98121044921875,0.9969036142437504,0.15869140625,0.2119140625,0.2890625,46.45941176470589,305.97848089973195
-0.15378955078125,0.10315478515625,0.97046826171875,0.9879781286210454,0.18115234375,0.23486328125,0.314453125,46.41235294117647,306.1660145066529
-0.15037158203125,0.10608447265625,0.95923779296875,0.976730603329748,0.17138671875,0.04736328125,0.43115234375,46.45941176470589,306.1660145066529
-0.15720751953125,0.10950244140625,0.95874951171875,0.977704257478732,0.16552734375,-0.2158203125,0.56201171875,46.45941176470589,306.1660145066529
-0.14890673828125,0.11047900390625,0.96509716796875,0.9827468497181658,0.14306640625,-0.45849609375,0.63330078125,46.45941176470589,306.1660145066529
-0.14597705078125,0.11047900390625,0.96802685546875,0.985185719835415,0.1767578125,-0.60498046875,0.6650390625,46.45941176470589,306.1660145066529
-0.14255908203125,0.11243212890625,0.97730419921875,0.9940259419605638,0.251953125,-0.66015625,0.70849609375,45.70647058823529,306.0230676681784
-0.12595751953125,0.10852587890625,0.97828076171875,0.992308627327132,0.30859375,-0.67333984375,0.67822265625,46.55352941176471,306.0230676681784
-0.11472705078125,0.10999072265625,0.97828076171875,0.991107211153478,0.35986328125,-0.6416015625,0.70849609375,46.41235294117647,306.0230676681784
-0.09861376953125,0.11096728515625,0.97437451171875,0.98561863974017,0.43994140625,-0.654296875,0.74755859375,45.80058823529412,306.0230676681784
-0.09421923828125,0.10950244140625,0.97242138671875,0.983092774301716,0.45263671875,-0.66357421875,0.83740234375,46.55352941176471,306.01231314916737
-0.08298876953125,0.10901416015625,0.97388623046875,0.9834762899427288,0.5048828125,-0.74462890625,0.8916015625,46.60058823529412,306.01231314916737
-0.07810595703125,0.11292041015625,0.98755810546875,0.9970569548579707,0.521484375,-0.814453125,0.9677734375,45.65941176470588,306.01231314916737
-0.07859423828125,0.11243212890625,0.98169873046875,0.9912368209995815,0.48291015625,-0.71484375,0.98681640625,46.45941176470589,306.01231314916737
-0.07468798828125,0.10803759765625,0.8596284179687499,0.8696041829937857,0.43701171875,-0.65478515625,0.9130859375,46.60058823529412,306.01231314916737
-0.06345751953125,0.11096728515625,0.99488232421875,1.0030610321425657,0.47314453125,-0.69482421875,0.84033203125,46.55352941176471,305.84472172262764
-0.07761767578125,0.10901416015625,0.98853466796875,0.9975516931389282,0.36962890625,-0.66259765625,0.85009765625,46.41235294117647,305.84472172262764
-0.06541064453125,0.11877978515625,0.99439404296875,1.003596882454053,0.326171875,-0.705078125,1.0400390625,46.45941176470589,305.84472172262764
-0.05369189453125,0.11975634765625,1.00660107421875,1.0151207440303156,0.25927734375,-0.67626953125,1.21630859375,45.80058823529412,305.84472172262764
-0.03709033203125,0.12122119140625,1.00855419921875,1.016489961946459,0.24169921875,-0.529296875,1.06689453125,46.60058823529412,306.03539112663606
-0.04539111328125,0.12415087890625,1.02271435546875,1.0312218222962344,0.31982421875,-0.31201171875,0.8544921875,46.64764705882353,306.03539112663606
-0.04441455078125,0.13391650390625,1.03247998046875,1.0420754254891167,0.357421875,-0.240234375,0.71630859375,46.45941176470589,306.03539112663606
-0.03806689453125,0.13538134765625,1.03443310546875,1.0439487762539874,0.4169921875,-0.28759765625,0.66552734375,45.65941176470588,306.03539112663606
-0.04734423828125,0.14856494140625,1.04273388671875,1.054327737103158,0.46875,-0.171875,0.68505859375,46.64764705882353,306.03539112663606
-0.04978564453125,0.16321337890625,1.04273388671875,1.0566036039910986,0.56396484375,-0.0556640625,0.71875,45.65941176470588,305.7017772353853
-0.05027392578125,0.17297900390625,1.03882763671875,1.0543301485855938,0.6884765625,0.07568359375,0.69677734375,46.45941176470589,305.7017772353853
-0.05418017578125,0.17639697265625,1.03638623046875,1.0526859940719275,0.78857421875,0.2490234375,0.7275390625,46.55352941176471,305.7017772353853
-0.07127001953125,0.18323291015625,1.03345654296875,1.0519915119682446,0.88720703125,0.1396484375,0.8173828125,47.02411764705882,305.7017772353853
-0.06443408203125,0.18127978515625,1.03540966796875,1.0531321341392368,0.984375,0.134765625,0.7939453125,46.41235294117647,305.8785533896218
-0.06101611328125,0.17981494140625,1.02271435546875,1.0401927860328315,1.087890625,0.22119140625,0.6923828125,46.55352941176471,305.8785533896218
-0.05613330078125,0.17346728515625,1.01929638671875,1.035474273197542,1.1640625,0.24560546875,0.6103515625,45.61235294117647,305.8785533896218
-0.06492236328125,0.17493212890625,1.00171826171875,1.018948300375701,1.22216796875,0.265625,0.533203125,46.64764705882353,305.8785533896218
-0.06785205078125,0.17883837890625,0.99439404296875,1.0126236118404377,1.26806640625,0.2109375,0.49169921875,46.97705882352941,305.8785533896218
-0.06638720703125,0.18225634765625,0.98706982421875,1.0059480480629404,1.30517578125,0.23974609375,0.4599609375,46.60058823529412,305.8677988658441
-0.05955126953125,0.18665087890625,0.97046826171875,0.9900472470052484,1.32958984375,0.31884765625,0.41455078125,46.60058823529412,305.8677988658441
-0.05369189453125,0.19788134765625,0.95533154296875,0.97708658996,1.3779296875,0.41015625,0.3212890625,46.41235294117647,305.8677988658441
-0.05906298828125,0.20667041015625,0.94703076171875,0.9711170674334064,1.37158203125,0.43359375,0.2451171875,47.02411764705882,305.8677988658441
-0.05662158203125,0.20178759765625,0.93726513671875,0.9604114611082164,1.34619140625,0.38134765625,0.248046875,46.55352941176471,305.84472172262764
-0.05027392578125,0.20569384765625,0.93970654296875,0.963268297763074,1.32666015625,0.3037109375,0.2666015625,46.45941176470589,305.84472172262764
-0.05466845703125,0.20764697265625,0.93482373046875,0.9591669888476108,1.322265625,0.310546875,0.26953125,46.45941176470589,305.84472172262764
-0.05173876953125,0.20422900390625,0.93042919921875,0.9539836901477882,1.30859375,0.26953125,0.26318359375,46.55352941176471,305.84472172262764
-0.05271533203125,0.20960009765625,0.92994091796875,0.9547257292443918,1.294921875,0.248046875,0.37353515625,46.45941176470589,305.84472172262764
-0.05222705078125,0.21252978515625,0.92212841796875,0.9477433163243192,1.2607421875,0.26953125,0.19482421875,46.55352941176471,305.9123852704314
-0.06687548828125,0.21790087890625,0.92603466796875,0.9536735973282288,1.22900390625,0.3271484375,0.14453125,45.80058823529412,305.9123852704314
-0.06834033203125,0.22424853515625,0.92603466796875,0.9552476185690588,1.22802734375,0.4013671875,0.12841796875,46.36529411764706,305.9123852704314
-0.08054736328125,0.23157275390625,0.92945263671875,0.9612471180641964,1.16796875,0.42236328125,0.0830078125,46.45941176470589,305.9123852704314
-0.08787158203125,0.24670947265625,0.93238232421875,0.9684646495058856,1.126953125,0.447265625,0.06494140625,46.55352941176471,305.9338943193296
-0.10203173828125,0.25110400390625,0.93775341796875,0.9761378843721396,1.07666015625,0.41796875,0.03466796875,47.02411764705882,305.9338943193296
-0.10252001953125,0.26135791015625,0.94361279296875,0.9844914497649104,1.06689453125,0.3603515625,0.0576171875,46.55352941176471,305.9338943193296
-0.10789111328125,0.26868212890625,0.94165966796875,0.9851667417232874,1.021484375,0.373046875,0.03955078125,46.41235294117647,305.9338943193296
-0.12400439453125,0.27454150390625,0.94507763671875,0.9919283576226988,1.033203125,0.45458984375,0.01513671875,46.60058823529412,305.9338943193296
-0.12791064453125,0.28381884765625,0.93970654296875,0.9899306330079904,1.0458984375,0.56640625,-0.033203125,45.80058823529412,306.0445767469014
-0.12986376953125,0.27502978515625,0.92652294921875,0.9751670404545923,1.02392578125,0.611328125,-0.07958984375,47.02411764705882,306.0445767469014
-0.12253955078125,0.27795947265625,0.92603466796875,0.9745858690874828,1.01123046875,0.62451171875,-0.076171875,46.60058823529412,306.0445767469014
-0.12937548828125,0.28528369140625,0.90943310546875,0.9618697286394466,0.96337890625,0.36328125,0.037109375,45.80058823529412,306.0445767469014
-0.11228564453125,0.28723681640625,0.91089794921875,0.9616902456393744,0.91015625,0.09423828125,0.16845703125,46.55352941176471,305.9477863199148
-0.09421923828125,0.27600634765625,0.91675732421875,0.962029500752219,0.8974609375,-0.0478515625,0.44921875,46.60058823529412,305.9477863199148
-0.07712939453125,0.25989306640625,0.92310498046875,0.962089473195197,0.8759765625,-0.05224609375,0.3759765625,46.41235294117647,305.9477863199148
-0.09714892578125,0.25940478515625,0.92505810546875,0.9656403340974546,0.8916015625,0.0224609375,0.27587890625,47.02411764705882,305.9477863199148
-0.10935595703125,0.25256884765625,0.92847607421875,0.9684098143561372,0.8037109375,-0.060546875,0.390625,46.36529411764706,305.9477863199148
-0.11423876953125,0.24622119140625,0.95386669921875,0.991734365362016,0.72509765625,-0.1865234375,0.65380859375,46.45941176470589,306.03539112663606
-0.13279345703125,0.25159228515625,0.97144482421875,1.0122439561103105,0.68212890625,-0.11083984375,0.92529296875,46.64764705882353,306.03539112663606
-0.15037158203125,0.26477587890625,0.98999951171875,1.0357687540839031,0.62744140625,0.06982421875,1.14306640625,47.02411764705882,306.03539112663606
-0.15769580078125,0.28186572265625,1.00708935546875,1.057612982660024,0.56494140625,0.29736328125,1.2060546875,46.55352941176471,306.03539112663606
-0.15916064453125,0.30042041015625,0.99683544921875,1.0532167138937738,0.4833984375,0.5009765625,1.2373046875,46.45941176470589,305.8124581329807
-0.14939501953125,0.30969775390625,0.98462841796875,1.042940406786007,0.37060546875,0.50927734375,1.21044921875,46.36529411764706,305.8124581329807
-0.14402392578125,0.33020556640625,0.97095654296875,1.0356327609809093,0.2509765625,0.47314453125,1.17822265625,46.45941176470589,305.8124581329807
-0.14890673828125,0.33264697265625,0.95435498046875,1.021577531990811,0.1826171875,0.5498046875,1.12060546875,45.70647058823529,305.8124581329807
-0.14695361328125,0.34094775390625,0.94214794921875,1.012661588867292,0.14208984375,0.71435546875,1.0126953125,46.55352941176471,305.8124581329807
-0.15085986328125,0.33948291015625,0.92017529296875,0.9923355855896324,0.09912109375,0.8564453125,0.91552734375,46.45941176470589,306.067654624664
-0.15476611328125,0.33460009765625,0.90162060546875,0.9740787911547976,0.0986328125,0.94970703125,0.85400390625,46.64764705882353,306.067654624664
-0.15671923828125,0.32874072265625,0.8830659179687499,0.9552155766412102,0.04296875,0.98095703125,0.8310546875,46.45941176470589,306.067654624664
-0.14646533203125,0.32727587890625,0.8781831054687499,0.9485605732538224,0.06640625,0.9326171875,0.85400390625,46.60058823529412,306.067654624664
-0.15476611328125,0.32043994140625,0.8674409179687499,0.9375969560717936,0.04931640625,0.89111328125,0.794921875,46.55352941176471,305.7770590300857
-0.15476611328125,0.32239306640625,0.8698823242187499,0.940523841843057,0.0595703125,0.82177734375,0.75244140625,46.55352941176471,305.7770590300857
-0.15818408203125,0.32336962890625,0.8679291992187499,0.9396229113657966,0.0322265625,0.65087890625,0.775390625,46.55352941176471,305.7770590300857
-0.14109423828125,0.32434619140625,0.8703706054687499,0.9394961558303174,0.0048828125,0.5185546875,0.8330078125,47.02411764705882,305.7770590300857
-0.14255908203125,0.32825244140625,0.8855073242187499,0.9550895132938098,-0.12353515625,0.40576171875,0.86767578125,46.64764705882353,305.7770590300857
-0.15769580078125,0.33313525390625,0.8864838867187499,0.9600524696031998,-0.05029296875,0.3935546875,0.86328125,46.60058823529412,306.03539112663606
-0.16111376953125,0.33069384765625,0.8899018554687499,0.9629337360259986,-0.10693359375,0.404296875,0.890625,46.45941176470589,306.03539112663606
-0.16160205078125,0.32678759765625,0.90308544921875,0.9738935698469726,-0.11669921875,0.4150390625,0.93701171875,46.36529411764706,306.03539112663606
-0.16502001953125,0.33508837890625,0.90357373046875,0.9777327420708206,-0.154296875,0.388671875,0.9365234375,46.45941176470589,306.03539112663606
-0.17087939453125,0.34436572265625,0.91724560546875,0.994548650980766,-0.18115234375,0.3896484375,0.908203125,46.55352941176471,306.0246366544209
-0.17918017578125,0.35754931640625,0.92505810546875,1.0078092813370043,-0.1904296875,0.38671875,0.75048828125,46.36529411764706,306.0246366544209
-0.18015673828125,0.36633837890625,0.93091748046875,1.0164977194514917,-0.17236328125,0.3984375,0.888671875,46.788823529411765,306.0246366544209
-0.18113330078125,0.37268603515625,0.93238232421875,1.0203141437655143,-0.17431640625,0.3984375,0.86181640625,46.41235294117647,306.0246366544209
-0.17869189453125,0.38733447265625,0.92408154296875,1.017784596530409,-0.158203125,0.35302734375,0.83154296875,46.88294117647059,306.0246366544209
-0.16599658203125,0.38782275390625,0.92212841796875,1.014042490687168,-0.14501953125,0.2958984375,0.80078125,46.60058823529412,306.11224176919364
-0.17234423828125,0.38538134765625,0.90992138671875,1.003084368135734,-0.15380859375,0.19189453125,0.76611328125,45.80058823529412,306.11224176919364
-0.17234423828125,0.38293994140625,0.90162060546875,0.99461814350976,-0.14599609375,0.103515625,0.67236328125,46.74176470588235,306.11224176919364
-0.17234423828125,0.37024462890625,0.90406201171875,0.9920240635869798,-0.1962890625,0.04150390625,0.55224609375,46.36529411764706,306.11224176919364
-0.17625048828125,0.36682666015625,0.8933198242187499,0.9816548994239198,-0.21484375,-0.04833984375,0.50244140625,46.45941176470589,305.89087627578635
-0.15916064453125,0.36389697265625,0.90699169921875,0.990144969147297,-0.26123046875,-0.23779296875,0.544921875,46.36529411764706,305.89087627578635
-0.14158251953125,0.35364306640625,0.90113232421875,0.9783396618792056,-0.30517578125,-0.365234375,0.7001953125,45.89470588235295,305.89087627578635
-0.13181689453125,0.34290087890625,0.91675732421875,0.9876237633569088,-0.3251953125,-0.2587890625,0.7236328125,46.41235294117647,305.89087627578635
-0.13181689453125,0.33752978515625,0.91529248046875,0.9844096577919804,-0.314453125,-0.01513671875,0.54296875,46.36529411764706,305.89087627578635
-0.14353564453125,0.33801806640625,0.92994091796875,0.9998243872703758,-0.310546875,0.0634765625,0.4345703125,46.60058823529412,306.0230676681784
-0.14402392578125,0.33460009765625,0.94019482421875,1.0082987771671357,-0.5,-0.0185546875,0.45263671875,46.55352941176471,306.0230676681784
-0.14255908203125,0.31946337890625,0.95337841796875,1.0155345145195152,-0.42431640625,0.11962890625,0.57080078125,46.36529411764706,306.0230676681784
-0.15769580078125,0.31702197265625,0.94898388671875,1.012887611723396,-0.41552734375,0.4423828125,0.7685546875,46.45941176470589,306.0230676681784
-0.14841845703125,0.31848681640625,0.93970654296875,1.0032498579668,-0.47998046875,0.69873046875,0.9541015625,46.45941176470589,306.0569001117576
-0.14158251953125,0.31702197265625,0.93580029296875,0.9981336229704292,-0.60546875,0.84619140625,0.95361328125,46.45941176470589,306.0569001117576
-0.15281298828125,0.31751025390625,0.94019482421875,1.0040572086344397,-0.697265625,0.96142578125,0.9765625,46.55352941176471,306.0569001117576
-0.15916064453125,0.30432666015625,0.94849560546875,1.008757027456558,-0.81103515625,1.07421875,1.0224609375,45.65941176470588,306.0569001117576
-0.16794970703125,0.29944384765625,0.95581982421875,1.015610780939541,-0.91357421875,1.19873046875,1.130859375,46.60058823529412,306.0569001117576
-0.17087939453125,0.28870166015625,0.96558544921875,1.0222053002187557,-1.04638671875,1.396484375,1.27783203125,46.36529411764706,306.3013467237178
-0.17771533203125,0.28430712890625,0.98902294921875,1.0443082288612144,-1.1650390625,1.6171875,1.3935546875,47.02411764705882,306.3013467237178
-0.18552783203125,0.26526416015625,1.00318310546875,1.054116689090701,-1.29296875,1.837890625,1.50146484375,46.97705882352941,306.3013467237178
-0.18894580078125,0.26282275390625,1.01929638671875,1.069458479596863,-1.40478515625,2.0537109375,1.61474609375,46.45941176470589,306.3013467237178
-0.19236376953125,0.25110400390625,1.02466748046875,1.072380756138508,-1.50927734375,2.24853515625,1.716796875,46.74176470588235,306.067654624664
-0.18552783203125,0.23889697265625,1.02857373046875,1.072126978959553,-1.58935546875,2.41552734375,1.79638671875,46.41235294117647,306.067654624664
-0.20701220703125,0.23303759765625,1.02222607421875,1.068693933076268,-1.728515625,2.5771484375,1.7939453125,46.55352941176471,306.067654624664
-0.21775439453125,0.23108447265625,1.02173779296875,1.0699369735742106,-1.81005859375,2.61572265625,1.779296875,46.45941176470589,306.067654624664
-0.23679736328125,0.21545947265625,1.01734326171875,1.06652852178402,-1.90966796875,2.60205078125,1.86474609375,45.84764705882353,306.067654624664
-0.23289111328125,0.20618212890625,1.01343701171875,1.06009618320562,-1.9609375,2.56982421875,1.95361328125,46.55352941176471,305.65405732479155
-0.24607470703125,0.19934619140625,0.99878857421875,1.0477930527821877,-2.0478515625,2.5244140625,2.0556640625,46.55352941176471,305.65405732479155
-0.25144580078125,0.18713916015625,0.98560498046875,1.0342452482459443,-2.08642578125,2.43310546875,2.14599609375,46.45941176470589,305.65405732479155
-0.24656298828125,0.17346728515625,0.96656201171875,1.0124852239452466,-2.10595703125,2.36962890625,2.2001953125,45.80058823529412,305.65405732479155
-0.23728564453125,0.16126025390625,0.94312451171875,0.9857957147377184,-2.107421875,2.25537109375,2.23876953125,47.02411764705882,306.29216248890936
-0.22312548828125,0.16467822265625,0.92945263671875,0.9699412891723932,-2.05224609375,2.11376953125,2.1953125,46.41235294117647,306.29216248890936
-0.21970751953125,0.16126025390625,0.90455029296875,0.94471556361602,-1.978515625,1.9296875,2.09423828125,46.60058823529412,306.29216248890936
-0.21238330078125,0.17542041015625,0.8967377929687499,0.9380925626443216,-1.9140625,1.6875,2.07275390625,46.55352941176471,306.29216248890936
-0.21677783203125,0.18274462890625,0.8801362304687499,0.924677247496656,-1.83056640625,1.52294921875,2.07080078125,46.36529411764706,306.29216248890936
-0.21580126953125,0.17639697265625,0.8659760742187499,0.9097255855547358,-1.759765625,1.4091796875,2.146484375,46.36529411764706,306.0891636911728
-0.19187548828125,0.17981494140625,0.8635346679687499,0.9026858473134496,-1.6943359375,1.24072265625,2.21044921875,46.55352941176471,306.0891636911728
-0.18259814453125,0.18127978515625,0.8733002929687499,0.9104163029031586,-1.61962890625,1.06689453125,2.25146484375,46.36529411764706,306.0891636911728
-0.17039111328125,0.17786181640625,0.8718354492187499,0.9059608201986518,-1.5322265625,0.93408203125,2.23388671875,45.89470588235295,306.0891636911728
-0.16502001953125,0.16858447265625,0.8752534179687499,0.9064882111383794,-1.4228515625,0.89453125,2.0498046875,47.02411764705882,306.1229962895574
-0.16941455078125,0.15784228515625,0.8693940429687499,0.899700771895472,-1.34716796875,0.90283203125,1.796875,45.84764705882353,306.1229962895574
-0.18503955078125,0.16565478515625,0.8781831054687499,0.9126262706766816,-1.25244140625,0.81494140625,1.72607421875,46.41235294117647,306.1229962895574
-0.18406298828125,0.16077197265625,0.8850190429687499,0.918142427548214,-1.24853515625,0.54345703125,1.92333984375,45.80058823529412,306.1229962895574
-0.18259814453125,0.16174853515625,0.8928315429687499,0.9255554198055386,-1.2177734375,0.34521484375,2.107421875,46.64764705882353,306.1229962895574
-0.17136767578125,0.15344775390625,0.91431591796875,0.9428078761511162,-1.1416015625,0.35498046875,1.97509765625,45.80058823529412,306.1261354451552
-0.19871142578125,0.16126025390625,0.92896435546875,0.9635693405030048,-1.00927734375,0.4814453125,1.6689453125,46.55352941176471,306.1261354451552
-0.21873095703125,0.15784228515625,0.94165966796875,0.9795306778382032,-0.97607421875,0.4208984375,1.52490234375,46.36529411764706,306.1261354451552
-0.21873095703125,0.14612353515625,0.95240185546875,0.9880610372799264,-1.01513671875,0.2451171875,1.517578125,46.64764705882353,306.1261354451552
-0.22068408203125,0.15100634765625,0.96509716796875,1.0014574003499883,-0.9716796875,0.1552734375,1.5126953125,46.55352941176471,306.0799782894896
-0.24119189453125,0.16028369140625,0.96314404296875,1.005738951828245,-0.947265625,0.18701171875,1.54052734375,46.45941176470589,306.0799782894896
-0.24656298828125,0.16028369140625,0.96558544921875,1.009375761876601,-0.94287109375,0.2734375,1.51025390625,46.60058823529412,306.0799782894896
-0.24705126953125,0.15442431640625,0.95728466796875,1.0006373642846742,-0.93408203125,0.30517578125,1.45263671875,46.64764705882353,306.0799782894896
-0.24265673828125,0.16077197265625,0.96314404296875,1.0061691544324276,-0.92529296875,0.1259765625,1.36474609375,46.36529411764706,306.0799782894896
-0.23679736328125,0.17053759765625,0.95728466796875,1.0007746994200828,-0.8984375,0.16357421875,1.27587890625,46.64764705882353,305.8017036302225
-0.22459033203125,0.17297900390625,0.95142529296875,0.99276011258258,-0.869140625,0.13427734375,1.0849609375,46.45941176470589,305.8017036302225
-0.22312548828125,0.17493212890625,0.94996044921875,0.9913682909616932,-0.82568359375,0.1611328125,0.84033203125,46.45941176470589,305.8017036302225
-0.22556689453125,0.18225634765625,0.93824169921875,0.9820362958273768,-0.73876953125,0.1708984375,0.65185546875,46.55352941176471,305.8017036302225
-0.22361376953125,0.17639697265625,0.92554638671875,0.9683775729819432,-0.6806640625,0.10498046875,0.474609375,47.02411764705882,306.0031277506816
-0.22117236328125,0.17590869140625,0.91333935546875,0.9560595484799804,-0.62109375,0.00634765625,0.36669921875,46.55352941176471,306.0031277506816
-0.21287158203125,0.17444384765625,0.91187451171875,0.9525020165563496,-0.56640625,-0.1640625,0.23828125,46.55352941176471,306.0031277506816
-0.20994189453125,0.16126025390625,0.91822216796875,0.9556214827631858,-0.49462890625,-0.2333984375,0.1455078125,46.55352941176471,306.0031277506816
-0.22459033203125,0.15247119140625,0.92603466796875,0.9650018071126816,-0.46923828125,-0.23974609375,0.0205078125,46.55352941176471,306.0031277506816
-0.22263720703125,0.13635791015625,0.92408154296875,0.960253874593777,-0.3955078125,-0.26123046875,-0.0546875,46.41235294117647,305.82634961739524
-0.21970751953125,0.12854541015625,0.92554638671875,0.9599121994114602,-0.35791015625,-0.30419921875,-0.1220703125,46.45941176470589,305.82634961739524
-0.22263720703125,0.11633837890625,0.93042919921875,0.963742932072684,-0.32666015625,-0.40869140625,-0.1630859375,46.45941176470589,305.82634961739524
-0.23630908203125,0.11047900390625,0.94214794921875,0.9775941646571268,-0.29541015625,-0.4580078125,-0.169921875,46.45941176470589,305.82634961739524
-0.24070361328125,0.10608447265625,0.95386669921875,0.9894714875446776,-0.28564453125,-0.46484375,-0.1826171875,45.70647058823529,306.2659438747382
-0.25144580078125,0.10461962890625,0.95679638671875,0.9948012782063868,-0.29150390625,-0.36962890625,-0.1591796875,46.83588235294118,306.2659438747382
-0.24656298828125,0.10120166015625,0.95874951171875,0.9951058785021332,-0.30224609375,-0.29833984375,-0.14453125,45.80058823529412,306.2659438747382
-0.24314501953125,0.09924853515625,0.94947216796875,0.9851229212645451,-0.34228515625,-0.23486328125,-0.1455078125,46.55352941176471,306.2659438747382
-0.23533251953125,0.09338916015625,0.94117138671875,0.9746314735127892,-0.39501953125,-0.23583984375,-0.17333984375,46.36529411764706,306.2659438747382
-0.22410205078125,0.09143603515625,0.93091748046875,0.9618677836021654,-0.4619140625,-0.2392578125,-0.193359375,46.55352941176471,306.0369605064444
-0.21873095703125,0.08557666015625,0.93189404296875,0.9610375141730666,-0.6240234375,-0.23876953125,-0.1533203125,46.74176470588235,306.0369605064444
-0.21384814453125,0.08020556640625,0.93287060546875,0.9604225780090958,-0.541015625,-0.224609375,-0.0859375,46.55352941176471,306.0369605064444
-0.21335986328125,0.08850634765625,0.93433544921875,0.9624648235139016,-0.525390625,-0.1796875,-0.06787109375,46.55352941176471,306.0369605064444
-0.22459033203125,0.08606494140625,0.94410107421875,0.974256039099664,-0.55224609375,-0.1064453125,-0.05810546875,46.41235294117647,305.84472172262764
-0.22166064453125,0.08704150390625,0.93677685546875,0.9665715398656172,-0.53564453125,-0.02880859375,-0.06005859375,46.36529411764706,305.84472172262764
-0.22898486328125,0.08460009765625,0.94165966796875,0.972786808306114,-0.51513671875,-0.0078125,-0.07666015625,46.60058823529412,305.84472172262764
-0.23679736328125,0.08508837890625,0.94458935546875,0.9775285540313972,-0.51416015625,0.052734375,-0.02685546875,46.74176470588235,305.84472172262764
-0.23044970703125,0.10120166015625,0.94410107421875,0.9770750645831504,-0.537109375,-0.04248046875,0.03955078125,46.55352941176471,305.84472172262764
-0.21970751953125,0.10168994140625,0.95093701171875,0.9812713378971012,-0.53662109375,-0.02490234375,0.17431640625,46.45941176470589,306.135320113955
-0.20798876953125,0.09045947265625,0.96119091796875,0.9875880847954668,-0.49658203125,0.2060546875,0.26806640625,46.55352941176471,306.135320113955
-0.21970751953125,0.09876025390625,0.96167919921875,0.991388856150914,-0.455078125,0.56396484375,0.0595703125,46.45941176470589,306.135320113955
-0.24021533203125,0.10559619140625,0.95191357421875,0.9874175480334064,-0.39599609375,0.61865234375,-0.087890625,46.36529411764706,306.135320113955
-0.23923876953125,0.10022509765625,0.94312451171875,0.9781431917933906,-0.4326171875,0.4091796875,-0.0185546875,46.97705882352941,305.8893079269615
-0.23533251953125,0.09192431640625,0.94361279296875,0.9768503353891872,-0.43408203125,0.26123046875,0.1025390625,46.60058823529412,305.8893079269615
-0.24070361328125,0.10608447265625,0.94117138671875,0.9772388264715536,-0.4208984375,0.2705078125,0.2421875,46.64764705882353,305.8893079269615
-0.24705126953125,0.12170947265625,0.95435498046875,0.9932980188527372,-0.443359375,0.310546875,0.2626953125,46.55352941176471,305.8893079269615
-0.24607470703125,0.12268603515625,0.96705029296875,1.0053809694806348,-0.625,0.34033203125,0.1611328125,46.55352941176471,305.8893079269615
-0.25632861328125,0.12756884765625,0.97730419921875,1.0183818864697245,-0.54638671875,0.34375,0.126953125,46.45941176470589,306.2690832766178
-0.25730517578125,0.13049853515625,0.98169873046875,1.0232146493115226,-0.56982421875,0.39599609375,0.10546875,46.41235294117647,306.2690832766178
-0.24607470703125,0.13245166015625,0.98462841796875,1.023518111803746,-0.57568359375,0.38134765625,0.0361328125,46.36529411764706,306.2690832766178
-0.24705126953125,0.12463916015625,0.96851513671875,1.0072689909228798,-0.57568359375,0.40185546875,0.0029296875,47.02411764705882,306.2690832766178
-0.24753955078125,0.11829150390625,0.95923779296875,0.997700281926864,-0.599609375,0.423828125,-0.06982421875,46.74176470588235,305.4573417385777
-0.24656298828125,0.10999072265625,0.95777294921875,0.9950981300936136,-0.54296875,0.3857421875,-0.11865234375,46.64764705882353,305.4573417385777
-0.25144580078125,0.10266650390625,0.95630810546875,0.9941280573145924,-0.49853515625,0.3154296875,-0.1171875,46.224117647058826,305.4573417385777
-0.24705126953125,0.10217822265625,0.94800732421875,0.9849835560731895,-0.4560546875,0.302734375,-0.07177734375,46.60058823529412,305.4573417385777
-0.23142626953125,0.08997119140625,0.94751904296875,0.97951277189255,-0.4140625,0.337890625,-0.06982421875,46.41235294117647,305.4573417385777
-0.24412158203125,0.09534228515625,0.95044873046875,0.9859200207937328,-0.369140625,0.41064453125,-0.12158203125,46.36529411764706,306.15682910177225
-0.24168017578125,0.08997119140625,0.93970654296875,0.9744498496828838,-0.37255859375,0.431640625,-0.169921875,46.45941176470589,306.15682910177225
-0.23093798828125,0.08850634765625,0.93824169921875,0.970290273144963,-0.33935546875,0.33642578125,-0.17919921875,46.36529411764706,306.15682910177225
-0.23630908203125,0.08460009765625,0.94312451171875,0.9759523571254026,-0.341796875,0.27587890625,-0.21240234375,47.02411764705882,306.15682910177225
-0.23777392578125,0.08411181640625,0.94165966796875,0.9748508438318152,-0.32177734375,0.3037109375,-0.220703125,46.55352941176471,306.2690832766178
-0.23093798828125,0.08655322265625,0.93384716796875,0.9658645598151056,-0.3173828125,0.34765625,-0.27587890625,46.45941176470589,306.2690832766178
-0.21726611328125,0.08264697265625,0.92115185546875,0.950029382126208,-0.32177734375,0.31396484375,-0.384765625,45.70647058823529,306.2690832766178
-0.22312548828125,0.07825244140625,0.92994091796875,0.9595303742036236,-0.24169921875,0.3720703125,-0.46240234375,46.55352941176471,306.2690832766178
-0.23093798828125,0.09045947265625,0.93091748046875,0.9633912113295008,-0.16796875,0.1982421875,-0.6005859375,46.55352941176471,306.2690832766178
-0.23972705078125,0.10022509765625,0.93238232421875,0.9679105989666807,-0.10400390625,0.2724609375,-0.74609375,46.60058823529412,305.7786266207821
-0.24021533203125,0.10120166015625,0.93775341796875,0.973307071110314,-0.03466796875,0.35888671875,-0.82666015625,45.70647058823529,305.7786266207821
-0.22849658203125,0.13147509765625,0.94605419921875,0.9820972137029584,0.0,0.34130859375,-0.935546875,46.64764705882353,305.7786266207821
-0.21921923828125,0.13293994140625,0.94361279296875,0.9778216634478876,0.0078125,0.3642578125,-1.099609375,46.55352941176471,305.7786266207821
-0.24216845703125,0.13440478515625,0.95484326171875,0.9942011176333968,0.04833984375,0.328125,-1.08056640625,45.70647058823529,306.067654624664
-0.24363330078125,0.14514697265625,0.96949169921875,1.010118301871073,0.15673828125,0.11767578125,-1.05908203125,45.61235294117647,306.067654624664
-0.24168017578125,0.12317431640625,0.97437451171875,1.011428152997016,0.19775390625,0.03125,-1.18359375,46.97705882352941,306.067654624664
-0.24900439453125,0.10950244140625,0.96851513671875,1.0059898325644958,0.28466796875,0.15869140625,-1.38525390625,46.55352941176471,306.067654624664
-0.26755908203125,0.09583056640625,0.95630810546875,0.9976455043853892,0.2998046875,0.3349609375,-1.56591796875,46.45941176470589,306.067654624664
-0.27488330078125,0.08655322265625,0.94263623046875,0.9857055099739028,0.296875,0.2529296875,-1.47021484375,46.60058823529412,306.2029864585522
-0.24753955078125,0.08460009765625,0.95142529296875,0.986733547532008,0.3193359375,-0.0810546875,-1.14013671875,46.55352941176471,306.2029864585522
-0.23972705078125,0.07483447265625,0.94458935546875,0.97740386107222,0.2666015625,-0.08544921875,-0.88134765625,46.74176470588235,306.2029864585522
-0.25828173828125,0.05872119140625,0.97144482421875,1.006907483908602,0.3212890625,0.12646484375,-0.93701171875,47.02411764705882,306.2029864585522
-0.30906298828125,0.03870166015625,0.95630810546875,1.005754911402085,0.4775390625,0.6552734375,-1.16845703125,45.80058823529412,305.8893079269615
-0.36814501953125,0.00940478515625,0.91822216796875,0.9893185306759046,0.4677734375,0.64208984375,-0.96044921875,45.65941176470588,305.8893079269615
-0.37791064453125,0.00403369140625,0.8845307617187499,0.9618874125089368,0.30322265625,0.06884765625,-0.44091796875,46.41235294117647,305.8893079269615
-0.35544970703125,0.00842822265625,0.8855073242187499,0.9542215415776332,0.1083984375,-0.5341796875,0.052734375,47.02411764705882,305.8893079269615
-0.33152392578125,0.01233447265625,0.90357373046875,0.9625516811965644,-0.11962890625,-0.6923828125,0.328125,46.41235294117647,305.8893079269615
-0.33005908203125,0.0186821289062499,0.94410107421875,1.0003073817146302,-0.12646484375,-0.4208984375,0.40966796875,46.45941176470589,306.1229962895574
-0.33054736328125,0.0191704101562499,0.95581982421875,1.0115436720020088,-0.3330078125,-0.04833984375,0.384765625,46.41235294117647,306.1229962895574
-0.31443408203125,0.03772509765625,0.94410107421875,0.9958005891126024,-0.39111328125,0.1240234375,0.3828125,46.60058823529412,306.1229962895574
-0.29343798828125,0.05969775390625,0.92798779296875,0.9751056448852145,-0.4658203125,0.0859375,0.3447265625,46.97705882352941,306.1229962895574
-0.29099658203125,0.07727587890625,0.92847607421875,0.9760729443086028,-0.533203125,0.013671875,0.28564453125,46.55352941176471,305.90006247786334
-0.28953173828125,0.09631884765625,0.92505810546875,0.9740833877956356,-0.57666015625,-0.1083984375,0.2392578125,46.45941176470589,305.90006247786334
-0.27683642578125,0.11243212890625,0.92212841796875,0.9693297733358234,-0.54736328125,-0.22021484375,0.1328125,46.45941176470589,305.90006247786334
-0.28806689453125,0.11292041015625,0.92359326171875,0.9740421283738262,-0.5791015625,-0.2607421875,0.16357421875,46.55352941176471,305.90006247786334
-0.28709033203125,0.10022509765625,0.92749951171875,0.9760744199007254,-0.6259765625,-0.28125,0.15625,46.45941176470589,305.90006247786334
-0.29050830078125,0.07727587890625,0.91968701171875,0.967569549855568,-0.740234375,-0.22119140625,0.03955078125,46.45941176470589,306.0338222007564
-0.30613330078125,0.06995166015625,0.92310498046875,0.9750557099838192,-0.82763671875,-0.27685546875,0.0517578125,47.02411764705882,306.0338222007564
-0.31052783203125,0.06409228515625,0.92896435546875,0.9815855180339856,-0.87451171875,-0.43896484375,0.14501953125,46.55352941176471,306.0338222007564
-0.31736376953125,0.04797900390625,0.94214794921875,0.9953213075404428,-0.87744140625,-0.572265625,0.33984375,46.45941176470589,306.0338222007564
-0.30662158203125,0.03870166015625,0.94117138671875,0.9906150575497484,-0.78369140625,-0.654296875,0.6396484375,46.60058823529412,306.155259932031
-0.29490283203125,0.04944384765625,0.95435498046875,1.0001028962844845,-0.66064453125,-0.6962890625,0.888671875,46.45941176470589,306.155259932031
-0.27927783203125,0.05579150390625,0.95337841796875,0.9950071392813182,-0.4931640625,-0.71923828125,0.97607421875,46.36529411764706,306.155259932031
-0.25925830078125,0.06946337890625,0.95923779296875,0.9960809058468156,-0.36083984375,-0.66650390625,0.89697265625,46.55352941176471,306.155259932031
-0.26169970703125,0.08606494140625,0.95728466796875,0.9961364596919154,-0.2197265625,-0.56005859375,0.81591796875,47.02411764705882,306.155259932031
-0.25730517578125,0.10266650390625,0.96070263671875,0.9998479487934704,-0.04541015625,-0.45263671875,0.81591796875,46.74176470588235,306.06608587988256
-0.24705126953125,0.11243212890625,0.95435498046875,0.9922039821190508,0.12841796875,-0.4541015625,0.7880859375,46.36529411764706,306.06608587988256
-0.23777392578125,0.12805712890625,0.95240185546875,0.9899516969758964,0.3017578125,-0.56689453125,0.77392578125,46.55352941176471,306.06608587988256
-0.22654345703125,0.13049853515625,0.94751904296875,0.9829263158497754,0.4931640625,-0.62060546875,0.6484375,46.55352941176471,306.06608587988256
-0.21921923828125,0.13635791015625,0.92701123046875,0.9622891330104364,0.671875,-0.525390625,0.42919921875,46.55352941176471,306.19984724017627
-0.22263720703125,0.14026416015625,0.91285107421875,0.9500202336168106,0.78564453125,-0.3779296875,0.22216796875,46.60058823529412,306.19984724017627
-0.22361376953125,0.14270556640625,0.8923432617187499,0.930937427189476,0.91162109375,-0.44677734375,0.11083984375,46.60058823529412,306.19984724017627
-0.21775439453125,0.13879931640625,0.8942963867187499,0.930832022370699,1.0263671875,-0.73095703125,0.12353515625,46.41235294117647,306.19984724017627
-0.20994189453125,0.12756884765625,0.90699169921875,0.9396719387229936,1.11474609375,-0.962890625,-0.146484375,46.60058823529412,306.19984724017627
-0.21140673828125,0.13196337890625,0.91626904296875,0.9495557389990016,1.22265625,-0.9970703125,-0.3583984375,46.88294117647059,305.97848089973195
-0.21628955078125,0.14124072265625,0.92847607421875,0.963741631304924,1.296875,-0.93310546875,-0.49267578125,45.84764705882353,305.97848089973195
-0.20457080078125,0.15442431640625,0.93970654296875,0.9740351476862108,1.337890625,-1.03173828125,-0.6103515625,47.02411764705882,305.97848089973195
-0.18894580078125,0.16418994140625,0.96265576171875,0.9946682703606072,1.4287109375,-1.12353515625,-0.72802734375,47.02411764705882,305.97848089973195
-0.17966845703125,0.15686572265625,0.97193310546875,1.0007704886249325,1.52197265625,-0.92724609375,-0.9248046875,46.41235294117647,306.201416622395
-0.19968798828125,0.16858447265625,0.97388623046875,1.008340422169631,1.7041015625,-0.53271484375,-1.3544921875,46.45941176470589,306.201416622395
-0.22605517578125,0.16907275390625,0.96363232421875,1.0041283757021138,1.82373046875,-0.2900390625,-1.76806640625,47.02411764705882,306.201416622395
-0.24607470703125,0.16809619140625,0.94898388671875,0.9946755794014586,1.86279296875,-0.3076171875,-1.77490234375,47.02411764705882,306.201416622395
-0.24851611328125,0.15002978515625,0.92652294921875,0.9709345860682168,1.85400390625,-0.5986328125,-1.6533203125,46.97705882352941,306.201416622395
-0.25046923828125,0.16614306640625,0.92896435546875,0.9763775558520028,1.8720703125,-0.77099609375,-1.51171875,46.97705882352941,305.7694402033402
-0.24265673828125,0.17639697265625,0.92847607421875,0.9757386970865952,1.7939453125,-0.98583984375,-1.5859375,46.55352941176471,305.7694402033402
-0.23923876953125,0.18420947265625,0.94165966796875,0.9888838399640963,1.70556640625,-1.1142578125,-1.8291015625,46.45941176470589,305.7694402033402
-0.23191455078125,0.18909228515625,0.94849560546875,0.9945773799776526,1.65966796875,-1.03662109375,-2.0791015625,46.41235294117647,305.7694402033402
-0.22947314453125,0.19690478515625,0.94800732421875,0.995061458027032,1.6240234375,-0.94189453125,-2.208984375,46.36529411764706,305.810890269449
-0.22849658203125,0.19299853515625,0.93482373046875,0.9815062555174736,1.5791015625,-0.88525390625,-2.23291015625,46.64764705882353,305.810890269449
-0.22068408203125,0.19836962890625,0.92945263671875,0.9756711421569336,1.50927734375,-0.8408203125,-2.3740234375,46.788823529411765,305.810890269449
-0.21384814453125,0.19446337890625,0.90992138671875,0.9547271676574764,1.49951171875,-0.8681640625,-2.45556640625,46.45941176470589,305.810890269449
-0.19871142578125,0.19299853515625,0.90796826171875,0.9492844829644292,1.279296875,-0.96826171875,-2.57958984375,47.02411764705882,305.810890269449
-0.19724658203125,0.19251025390625,0.8996674804687499,0.9409399488782736,1.0966796875,-1.0849609375,-2.6533203125,46.55352941176471,306.0015586437135
-0.19627001953125,0.19153369140625,0.92847607421875,0.9681295863194984,0.96875,-1.1806640625,-2.662109375,46.55352941176471,306.0015586437135
-0.19382861328125,0.18713916015625,0.95289013671875,0.9902475494776024,0.75146484375,-1.150390625,-2.69287109375,46.55352941176471,306.0015586437135
-0.20505908203125,0.19153369140625,0.96802685546875,1.0078741860847114,0.7998046875,-0.91064453125,-2.7939453125,46.55352941176471,306.0015586437135
-0.20457080078125,0.19202197265625,0.98023388671875,1.019598020391775,0.71484375,-0.7177734375,-2.9287109375,46.45941176470589,305.6878879620763
-0.20261767578125,0.18079150390625,0.98072216796875,1.0176224551222346,0.62939453125,-0.63818359375,-2.96728515625,46.55352941176471,305.6878879620763
-0.07761767578125,0.17835009765625,0.97242138671875,0.9916837269390344,0.50732421875,-0.65283203125,-2.93603515625,46.55352941176471,305.6878879620763
-0.20408251953125,0.18274462890625,0.97730419921875,1.0149723010914673,0.4599609375,-0.69189453125,-2.8427734375,46.55352941176471,305.6878879620763
-0.20701220703125,0.17493212890625,0.97681591796875,1.013718225731763,0.3701171875,-0.60498046875,-2.775390625,46.55352941176471,305.6878879620763
-0.21677783203125,0.16565478515625,0.8537690429687499,0.8963011296640808,0.306640625,-0.62158203125,-2.73681640625,46.36529411764706,305.9123852704314
-0.21970751953125,0.15002978515625,0.97535107421875,1.0109846925410269,0.201171875,-0.5068359375,-2.72265625,46.55352941176471,305.9123852704314
-0.21287158203125,0.14075244140625,0.97535107421875,1.0081841489420356,0.10693359375,-0.53564453125,-2.6396484375,46.36529411764706,305.9123852704314
-0.21384814453125,0.13293994140625,0.97535107421875,1.0073300228426754,-0.01171875,-0.53955078125,-2.5712890625,46.45941176470589,305.9123852704314
-0.21726611328125,0.12219775390625,0.97193310546875,1.0033896633642394,-0.119140625,-0.35986328125,-2.458984375,46.55352941176471,305.9354628806221
-0.21189501953125,0.10852587890625,0.96412060546875,0.9930790036970631,-0.2333984375,-0.24560546875,-2.33056640625,46.55352941176471,305.9354628806221
-0.20261767578125,0.09192431640625,0.95191357421875,0.9775701792033488,-0.35302734375,-0.22998046875,-2.16552734375,46.55352941176471,305.9354628806221
-0.20066455078125,0.07776416015625,0.95581982421875,0.9797474485369224,-0.45654296875,-0.220703125,-1.958984375,46.55352941176471,305.9354628806221
-0.20896533203125,0.07190478515625,0.94898388671875,0.9743753000621076,-0.5380859375,-0.1708984375,-1.77587890625,46.45941176470589,305.9354628806221
-0.22654345703125,0.06213916015625,0.94410107421875,0.972887481412723,-0.55810546875,-0.14794921875,-1.59130859375,46.55352941176471,305.89087627578635
-0.22117236328125,0.05676806640625,0.94605419921875,0.9732206201588351,-0.623046875,-0.21533203125,-1.447265625,46.55352941176471,305.89087627578635
-0.21433642578125,0.05627978515625,0.96900341796875,0.9940196887733336,-0.65966796875,-0.2880859375,-1.25732421875,46.45941176470589,305.89087627578635
-0.22019580078125,0.06506884765625,0.97828076171875,1.0048648637334403,-0.681640625,-0.35009765625,-1.12060546875,45.84764705882353,305.89087627578635
-0.20701220703125,0.06067431640625,0.98023388671875,1.003690141031116,-0.71435546875,-0.21142578125,-0.7265625,46.55352941176471,305.7770590300857
-0.32175830078125,0.05627978515625,0.97437451171875,1.0276679947463692,-0.72119140625,0.0869140625,-0.57080078125,45.70647058823529,305.7770590300857
-0.19822314453125,0.04797900390625,0.96607373046875,0.9873666251932458,-0.71142578125,0.42822265625,-0.71484375,46.55352941176471,305.7770590300857
-0.20945361328125,0.04602587890625,0.94751904296875,0.9714841915512984,-0.7021484375,0.4677734375,-0.80810546875,46.45941176470589,305.7770590300857
-0.21482470703125,0.05481494140625,0.93921826171875,0.9650312304264682,-0.76806640625,0.17236328125,-0.57763671875,46.55352941176471,305.7770590300857
-0.20066455078125,0.05237353515625,0.93872998046875,0.9613652923607464,-0.84814453125,-0.0537109375,-0.2578125,46.55352941176471,306.32285575626975
-0.20164111328125,0.05969775390625,0.95581982421875,0.978679976680996,-0.81201171875,-0.06298828125,-0.06982421875,45.89470588235295,306.32285575626975
-0.20212939453125,0.06751025390625,0.96949169921875,0.9926369333095132,-0.76416015625,0.02490234375,0.01806640625,46.41235294117647,306.32285575626975
-0.21140673828125,0.06067431640625,0.98218701171875,1.0065115536600115,-0.72412109375,0.16162109375,0.08447265625,46.55352941176471,306.32285575626975
-0.22068408203125,0.06311572265625,0.99048779296875,1.0167355243761778,-0.67626953125,0.248046875,0.1513671875,46.64764705882353,306.0799782894896
-0.22507861328125,0.06311572265625,0.98023388671875,1.007721414516323,-0.59033203125,0.31005859375,0.2490234375,47.02411764705882,306.0799782894896
-0.22849658203125,0.06702197265625,0.97095654296875,0.9997295840138596,-0.58251953125,0.294921875,0.25244140625,46.36529411764706,306.0799782894896
-0.23875048828125,0.07239306640625,0.97437451171875,1.005807258278338,-0.544921875,0.20703125,0.353515625,46.41235294117647,306.0799782894896
-0.23533251953125,0.06311572265625,0.96753857421875,0.9977453992861096,-0.5986328125,0.04248046875,0.47802734375,46.36529411764706,306.0799782894896
-0.22703173828125,0.06702197265625,0.97437451171875,1.002716831459856,-0.5947265625,-0.02001953125,0.61767578125,46.45941176470589,305.8677988658441
-0.22361376953125,0.07825244140625,0.96509716796875,0.9937500219528628,-0.5908203125,0.05810546875,0.67626953125,46.83588235294118,305.8677988658441
-0.21140673828125,0.06653369140625,0.96363232421875,0.9887905730548248,-0.51123046875,0.17919921875,0.69921875,46.45941176470589,305.8677988658441
-0.20554736328125,0.07141650390625,0.95337841796875,0.9778959266868136,-0.427734375,0.23193359375,0.76025390625,45.70647058823529,305.8677988658441
-0.19480517578125,0.07288134765625,0.95142529296875,0.9738946736932216,-0.2958984375,0.173828125,0.7646484375,46.55352941176471,306.0015586437135
-0.20750048828125,0.09241259765625,0.95679638671875,0.9833899869739312,-0.16650390625,0.04931640625,0.7626953125,46.97705882352941,306.0015586437135
-0.22703173828125,0.08752978515625,0.95289013671875,0.9834655490317812,-0.08154296875,-0.0458984375,0.69140625,46.36529411764706,306.0015586437135
-0.24460986328125,0.09485400390625,0.96656201171875,1.0015355159799957,-0.05517578125,-0.05224609375,0.67822265625,46.55352941176471,306.0015586437135
-0.24363330078125,0.09045947265625,0.95679638671875,0.9914632757096298,0.01513671875,-0.00341796875,0.65771484375,46.45941176470589,306.0015586437135
-0.22312548828125,0.09290087890625,0.95093701171875,0.9811711150858884,0.01025390625,0.0166015625,0.654296875,46.36529411764706,306.09991824477027
-0.19675830078125,0.08899462890625,0.94068310546875,0.9651521008705402,-0.08203125,-0.02783203125,0.66552734375,46.64764705882353,306.09991824477027
-0.19480517578125,0.07678759765625,0.93287060546875,0.9560820875911304,-0.20703125,0.10595703125,0.5283203125,46.45941176470589,306.09991824477027
-0.20701220703125,0.07043994140625,0.93580029296875,0.9610088592337028,-0.27392578125,0.18212890625,0.4580078125,46.45941176470589,306.09991824477027
-0.21677783203125,0.06165087890625,0.93335888671875,0.9601834568179908,-0.26953125,0.150390625,0.3974609375,46.60058823529412,306.24443473636563
-0.22459033203125,0.04553759765625,0.93531201171875,0.9629761416087028,-0.27490234375,0.13671875,0.35107421875,46.45941176470589,306.24443473636563
-0.24607470703125,0.04797900390625,0.93384716796875,0.9669153424057384,-0.2861328125,0.125,0.478515625,46.64764705882353,306.24443473636563
-0.23044970703125,0.04065478515625,0.94898388671875,0.97740999395275,-0.23681640625,0.00927734375,0.58203125,46.60058823529412,306.24443473636563
-0.21824267578125,0.05579150390625,0.94703076171875,0.973452526362676,-0.18017578125,-0.13720703125,0.712890625,45.89470588235295,306.24443473636563
