AccX,AccY,AccZ,Magnitude,GyroX,GyroY,GyroZ,Temperature,Altitude
0.1480546875,0.30718701171875,0.92394287109375,0.9848626704796868,-0.13134765625,0.5771484375,0.078125,43.54176470588236,283.1500407819557
0.1539140625,0.29986279296875,0.92638427734375,0.9857966638977712,-0.140625,0.60888671875,0.0830078125,44.76529411764706,283.1500407819557
0.150984375,0.30376904296875,0.93663818359375,0.9961741815195224,-0.13427734375,0.63623046875,0.07763671875,44.059411764705885,283.1500407819557
0.1500078125,0.29937451171875,0.93566162109375,0.993775684581616,-0.12939453125,0.6845703125,0.07470703125,44.20058823529412,283.1500407819557
0.1421953125,0.30132763671875,0.93273193359375,0.990457829235054,-0.12939453125,0.70068359375,0.00830078125,44.76529411764706,283.1500407819557
0.15147265625,0.31304638671875,0.92980224609375,0.9927105432451488,-0.1123046875,0.779296875,0.10107421875,44.62411764705882,283.1500407819557
0.158796875,0.32915966796875,0.92247802734375,0.992233967096007,-0.05419921875,0.7900390625,0.28515625,44.71823529411765,283.4625508505081
0.14658984375,0.30425732421875,0.93224365234375,0.9915338264359002,-0.0654296875,0.595703125,0.193359375,44.62411764705882,283.4625508505081
0.12705859375,0.30962841796875,0.92589599609375,0.9845288411428058,-0.1201171875,0.5322265625,-0.0205078125,44.76529411764706,283.4625508505081
0.1324296875,0.31109326171875,0.93029052734375,0.9898268054986544,-0.1162109375,0.666015625,-0.1669921875,44.059411764705885,283.4625508505081
0.16026171875,0.31304638671875,0.92882568359375,0.9931762226502237,-0.1640625,0.60595703125,-0.12890625,43.40058823529412,283.30095327769453
0.1734453125,0.31353466796875,0.92736083984375,0.9941757348287084,-0.140625,0.45166015625,-0.125,44.20058823529412,283.30095327769453
0.17100390625,0.31109326171875,0.92980224609375,0.9952655777633184,-0.14453125,0.3349609375,0.142578125,44.01235294117648,283.30095327769453
0.15684375,0.31011669921875,0.92540771484375,0.9885098723536992,-0.09228515625,0.43212890625,0.306640625,44.01235294117648,283.30095327769453
0.1461015625,0.30816357421875,0.92589599609375,0.9867085945823388,-0.05615234375,0.68212890625,0.39404296875,44.15352941176471,283.30095327769453
0.1402421875,0.30669873046875,0.92589599609375,0.9854011254348992,-0.0576171875,0.8779296875,0.43603515625,43.30647058823529,283.3233419742978
0.13682421875,0.30083935546875,0.92882568359375,0.9858713583114168,-0.08203125,0.923828125,0.427734375,44.20058823529412,283.3233419742978
0.139265625,0.30181591796875,0.92833740234375,0.9860517710730514,-0.1142578125,0.8642578125,0.3291015625,44.29470588235294,283.3233419742978
0.1441484375,0.30230419921875,0.92638427734375,0.9850656984225384,-0.11865234375,0.66455078125,0.26513671875,43.54176470588236,283.3233419742978
0.150984375,0.30669873046875,0.91857177734375,0.9801196370330204,-0.14306640625,0.4384765625,0.2080078125,44.71823529411765,283.4945972992078
0.16026171875,0.31255810546875,0.91661865234375,0.981614049214553,-0.19580078125,0.2158203125,0.1220703125,43.30647058823529,283.4945972992078
0.17002734375,0.31988232421875,0.91466552734375,0.9837921659991457,-0.20751953125,0.0732421875,0.0087890625,44.29470588235294,283.4945972992078
0.17979296875,0.31597607421875,0.90782958984375,0.9779166402544252,-0.28955078125,-0.02978515625,-0.10205078125,43.54176470588236,283.4945972992078
0.19834765625,0.30523388671875,0.9000170898437501,0.970845137162522,-0.3466796875,-0.078125,-0.287109375,43.447647058823534,283.4945972992078
0.20518359375,0.29888623046875,0.8819506835937501,0.9535566549500176,-0.43994140625,0.0478515625,-0.408203125,44.059411764705885,283.6675654091353
0.21885546875,0.28423779296875,0.8643725585937501,0.9358572322760744,-0.53125,0.3642578125,-0.4912109375,44.71823529411765,283.6675654091353
0.22178515625,0.25835888671875,0.8350756835937501,0.9018255747144,-0.70654296875,0.912109375,-0.662109375,44.059411764705885,283.6675654091353
0.21885546875,0.21929638671875,0.7994311523437501,0.8573673592850021,-0.96923828125,1.541015625,-1.07470703125,43.96529411764706,283.6675654091353
0.326765625,0.19195263671875,0.7593920898437501,0.8487036788786645,-1.2861328125,2.26953125,-1.6240234375,44.48294117647059,283.3664122253832
0.14268359375,0.14458935546875,0.7090991210937501,0.7376220259565277,-1.638671875,3.3828125,-2.2177734375,44.20058823529412,283.3664122253832
0.08701953125,0.11724560546875,0.6690600585937501,0.684806755826909,-2.0419921875,4.92724609375,-2.423828125,44.059411764705885,283.3664122253832
0.04209765625,0.11968701171875,0.6060717773437501,0.6192093286833779,-2.51416015625,6.5400390625,-2.15087890625,44.20058823529412,283.3664122253832
0.0064531249999999,0.10406201171875,0.5342944335937501,0.5443721951702576,-3.19677734375,8.54296875,-1.7509765625,44.57705882352941,283.3664122253832
-0.01551953125,0.09673779296875,0.44005615234375,0.4508308703430481,-4.31982421875,11.119140625,-1.49462890625,43.96529411764706,283.313002345379
-0.036515625,0.10455029296875,0.31163818359375,0.3307302709196785,-5.42041015625,13.22607421875,-1.70458984375,43.447647058823534,283.313002345379
-0.15419140625,0.08843701171875,0.11730224609375,0.212969274172904,-6.25537109375,15.99951171875,-2.78955078125,43.54176470588236,283.313002345379
-0.51503125,0.12359326171875,-0.1453930664062499,0.5492464169913667,-7.02197265625,15.99951171875,-6.37744140625,44.15352941176471,283.313002345379
-0.7796796875,0.24322216796875,-0.3270336914062499,0.8797775135830166,-7.6650390625,15.99951171875,-10.4345703125,43.96529411764706,283.09765268938185
-0.57997265625,0.35406201171875,-0.4583813476562499,0.8196594719877084,-7.29296875,15.99951171875,-12.98681640625,43.447647058823534,283.09765268938185
-0.25575390625,0.28277294921875,-0.4051586914062499,0.5563489611691824,-6.52392578125,15.99951171875,-12.82275390625,44.76529411764706,283.09765268938185
0.13780078125,0.18902294921875,-0.3636547851562499,0.4323927999071016,-5.5419921875,15.99951171875,-13.25439453125,44.059411764705885,283.09765268938185
0.7154375,0.23589794921875,-0.4818188476562499,0.8942304293685485,-3.42919921875,15.99951171875,-15.02294921875,44.15352941176471,283.09765268938185
1.28135546875,0.23492138671875,-0.6146313476562499,1.440427571506159,-1.78759765625,15.99951171875,16.0,44.059411764705885,283.3560728021879
1.6841875,0.19488232421875,-0.7952954101562499,1.8726882935674984,-0.20703125,12.99755859375,16.0,44.059411764705885,283.3560728021879
1.54991015625,0.10247509765625,-0.7764965820312499,2.0521523662411245,1.24365234375,-6.48291015625,16.0,43.40058823529412,283.3560728021879
1.4156328125,0.01006787109375,-0.7576977539062499,2.0624721411957445,3.41650390625,16.0,-12.5771484375,43.96529411764706,283.3560728021879
1.28135546875,-0.0823393554687499,-0.7388989257812499,1.78292125828483,8.6640625,16.0,-6.3740234375,44.059411764705885,283.3557302226842
1.147078125,-0.17474658203125,-0.7201000976562499,1.3656019710844227,14.95703125,16.0,-0.3525390625,44.20058823529412,283.3557302226842
0.97325,-0.06048876953125,-0.4163891601562499,1.060308627916906,15.99951171875,16.0,5.3837890625,44.57705882352941,283.3557302226842
0.80088671875,-0.05609423828125,0.13439208984375,0.8140192464868786,15.99951171875,16.0,8.8642578125,44.15352941176471,283.3557302226842
0.68858203125,0.00201123046875,0.33556396484375,0.7659976718698509,15.99951171875,16.0,11.03857421875,44.20058823529412,283.3557302226842
0.64756640625,0.15581982421875,0.6783374023437501,0.9506648723612168,15.99951171875,16.0,13.03564453125,44.29470588235294,283.1190166623627
0.670515625,0.33599560546875,0.8057788085937501,1.1008014074492345,15.99951171875,16.0,13.6767578125,44.059411764705885,283.1190166623627
0.721296875,0.35699169921875,0.96837646484375,1.2591525852171908,15.99951171875,16.0,12.68603515625,43.54176470588236,283.1190166623627
1.02158984375,0.82427685546875,1.2437670898437505,1.8083237312751803,15.7744140625,16.0,13.11865234375,44.76529411764706,283.1190166623627
0.7035966796875,0.86260693359375,1.2368090820312505,2.694776944324979,9.54345703125,16.0,10.82666015625,44.15352941176471,282.8926490993118
0.3856035156249999,0.90093701171875,1.2298510742187505,2.34070678996066,12.4072265625,16.0,2.7978515625,43.30647058823529,282.8926490993118
0.0676103515624999,0.93926708984375,1.2228930664062505,1.2501256816663049,15.99951171875,16.0,6.69873046875,44.62411764705882,282.8926490993118
-0.2503828125,0.97759716796875,1.2159350585937505,1.5801537400940826,15.99951171875,16.0,10.8447265625,44.20058823529412,282.8926490993118
0.47715625,-1.12738330078125,1.2755053710937505,1.767932449355318,15.99951171875,-14.7802734375,5.71728515625,44.62411764705882,282.8926490993118
1.30772265625,-0.37250048828125,0.96154052734375,1.6653694320371748,5.3349609375,-10.294921875,5.53564453125,43.30647058823529,282.8388986994343
0.64854296875,1.10552685546875,1.4473803710937505,1.933315170660275,5.54345703125,0.50537109375,3.62744140625,43.40058823529412,282.8388986994343
0.963484375,0.87994091796875,0.8272631835937501,1.5449797846297193,1.921875,6.02490234375,5.6337890625,44.20058823529412,282.8388986994343
1.2242265625,0.79058544921875,0.91466552734375,1.72057230471666,1.6064453125,8.09423828125,7.052734375,43.447647058823534,282.8388986994343
1.783796875,0.79986279296875,0.6646655273437501,2.0648225207205293,0.22119140625,7.4619140625,7.837890625,43.40058823529412,282.9036714473087
2.12119921875,0.67046826171875,0.40538818359375,2.2612725167469785,-2.845703125,6.8291015625,7.3916015625,44.059411764705885,282.9036714473087
2.7535234375,0.72271435546875,-0.1429516601562499,2.850375859005941,-4.53125,7.45849609375,6.30419921875,44.15352941176471,282.9036714473087
3.60752734375,0.39605419921875,-0.3065258789062499,3.642124459578776,-4.21875,9.29833984375,3.7861328125,43.447647058823534,282.9036714473087
3.6441484375,0.18951123046875,-0.4129711914062499,3.6723667499228574,-5.1220703125,14.82568359375,-0.724609375,43.58882352941177,282.9036714473087
3.39854296875,0.47515576171875,0.09777099609375,3.432990893668632,-4.73486328125,15.99951171875,-5.1259765625,44.76529411764706,283.0004910325737
2.82920703125,0.44097607421875,0.15929443359375,2.8677948044240846,-4.69580078125,15.99951171875,-5.9658203125,43.30647058823529,283.0004910325737
2.3707109375,0.38677685546875,0.23009521484375,2.4130500394733665,-4.33349609375,15.1884765625,-4.71923828125,44.71823529411765,283.0004910325737
1.858015625,0.22759716796875,-0.0438305664062499,1.8724165274219915,-3.82421875,15.99951171875,-6.77783203125,44.01235294117648,283.0004910325737
1.53330859375,0.37847607421875,0.34484130859375,1.6165379397144657,-2.9873046875,15.99951171875,-5.939453125,43.54176470588236,282.9257171391976
1.6929765625,0.33355419921875,0.47130615234375,1.7887307047814234,-2.66552734375,15.99951171875,-4.49609375,44.059411764705885,282.9257171391976
1.709578125,0.56890576171875,0.6793139648437501,1.9255592938227173,-2.2783203125,15.99951171875,-1.9384765625,44.15352941176471,282.9257171391976
2.21885546875,0.48540966796875,0.5616381835937501,2.339739213294892,-0.29638671875,15.99951171875,0.1630859375,44.01235294117648,282.9257171391976
2.41807421875,0.16509716796875,0.41710693359375,2.459332876270861,1.40625,15.99951171875,-0.134765625,43.40058823529412,282.9257171391976
2.467390625,0.08111279296875,0.28429443359375,2.485039055325585,0.72412109375,15.99951171875,-2.05859375,44.059411764705885,282.882648234762
1.99424609375,0.39556591796875,0.13781005859375,2.037763845529017,-0.37939453125,15.99951171875,-5.7080078125,43.40058823529412,282.882648234762
1.4654375,1.46050732421875,1.5572436523437505,2.589516654371577,0.3193359375,15.99951171875,-8.7041015625,43.40058823529412,282.882648234762
1.04795703125,1.98199169921875,3.0587084960937503,3.792387466912424,1.7421875,10.7841796875,-7.41455078125,44.20058823529412,282.882648234762
1.48448046875,2.29253857421875,3.4752124023437503,4.4200131920374375,4.0390625,11.24072265625,-3.580078125,44.71823529411765,282.47299415613287
1.41075,1.65826123046875,4.29601318359375,4.816199242617258,-2.89697265625,6.38427734375,-2.78759765625,43.40058823529412,282.47299415613287
1.28526171875,1.81011669921875,5.15294677734375,5.610818179250877,2.15185546875,15.99951171875,-2.41064453125,43.54176470588236,282.47299415613287
0.89073046875,-0.46478564453125,3.3970874023437503,3.54254559356468,4.36962890625,15.99951171875,-6.1923828125,44.15352941176471,282.47299415613287
0.9976640625,-0.65960986328125,0.7520678710937501,1.412807430640637,6.31591796875,15.99951171875,-11.27294921875,44.059411764705885,282.47299415613287
1.06553515625,-0.77386767578125,-0.7742993164062499,1.5276700495234472,5.76025390625,15.99951171875,-12.1982421875,44.059411764705885,282.5487853056463
0.07432421875,-0.62396533203125,-1.65564697265625,1.7708821878192436,5.97900390625,15.99951171875,-10.8388671875,43.54176470588236,282.5487853056463
-0.8226484375,-0.44378955078125,-2.0560375976562497,2.258537185897079,6.50244140625,15.99951171875,-7.72705078125,44.01235294117648,282.5487853056463
-1.04969921875,-1.01068408203125,-2.3700024414062497,2.7821326955749783,6.17626953125,15.99951171875,-10.021484375,43.30647058823529,282.5487853056463
-1.29481640625,-0.92474658203125,-2.1204907226562497,2.65107273980626,3.8173828125,15.99951171875,-8.98974609375,43.96529411764706,282.73173833272483
-1.2835859375,-0.39544970703125,-2.5282055664062497,2.862830193313324,1.85693359375,15.99951171875,-8.06689453125,44.20058823529412,282.73173833272483
-0.5531171875,-0.20355517578125,-1.70301025390625,1.8021146627240665,-2.9208984375,15.99951171875,-9.66845703125,44.059411764705885,282.73173833272483
-0.4613203125,-0.01459033203125,-0.97205322265625,1.076065414456891,-3.5087890625,15.99951171875,-9.9814453125,43.447647058823534,282.73173833272483
-0.82508984375,0.42974560546875,-0.2254711914062499,0.95723131678464,-4.82666015625,15.99951171875,-10.20654296875,44.059411764705885,282.73173833272483
-1.11512890625,0.93755810546875,0.33947021484375,1.495917011551956,-1.80224609375,15.99951171875,-9.5107421875,44.059411764705885,282.796170529204
-1.21180859375,1.10552685546875,0.96349365234375,1.9023642432919288,0.291015625,15.99951171875,-9.81787109375,43.87117647058824,282.796170529204
-1.34852734375,1.12847607421875,0.8423999023437501,1.9497748183814336,3.97216796875,15.99951171875,-9.27685546875,44.29470588235294,282.796170529204
-1.41346875,0.96246044921875,0.6031420898437501,1.8132855274550688,6.50390625,15.20556640625,-8.19677734375,44.15352941176471,282.796170529204
-1.41395703125,0.53912060546875,0.48790771484375,1.5899620912670702,7.27392578125,13.31884765625,-7.2294921875,43.30647058823529,282.5063972280469
-1.42274609375,0.30279248046875,0.31896240234375,1.489169818260563,7.3740234375,10.13427734375,-6.97412109375,44.15352941176471,282.5063972280469
-1.44325390625,-0.03168017578125,0.22374755859375,1.4608382666880266,6.9501953125,7.02001953125,-8.57470703125,44.20058823529412,282.5063972280469
-1.9339765625,0.19683544921875,0.08019287109375,1.9456208353486355,5.9951171875,6.3935546875,-11.2568359375,43.30647058823529,282.5063972280469
-2.9105390625,0.20122998046875,0.48595458984375,2.957682032059572,4.9248046875,9.06201171875,-12.845703125,44.76529411764706,282.5063972280469
-3.323625,0.19390576171875,1.4005053710937505,3.611855185291233,3.09130859375,7.07373046875,-12.06884765625,43.40058823529412,282.5170791281277
-3.1595625,-0.00726611328125,1.7549975585937505,3.614264021689408,1.35595703125,2.67431640625,-13.4970703125,44.62411764705882,282.5170791281277
-3.1019453125,0.31890576171875,1.2916186523437505,3.3752102674767426,1.40185546875,-0.419921875,-12.0546875,44.059411764705885,282.5170791281277
-3.167375,0.66363232421875,0.47521240234375,3.2708560163532567,4.9052734375,4.51123046875,-7.05810546875,44.20058823529412,282.5170791281277
-2.21766796875,0.89703076171875,-0.6204907226562499,2.471381019590453,6.1640625,12.46142578125,-3.15771484375,43.54176470588236,282.3982198435917
-1.14930859375,0.56011669921875,-1.59802978515625,2.0465434651279315,7.8798828125,14.36767578125,-1.611328125,44.059411764705885,282.3982198435917
-0.4574140625,-0.31341845703125,-1.71717041015625,1.8044758162127823,5.4306640625,6.5791015625,-4.267578125,44.76529411764706,282.3982198435917
-0.59462109375,-0.12543017578125,-1.81043212890625,1.909704549794281,0.892578125,-1.240234375,-6.14697265625,43.447647058823534,282.3982198435917
-0.6582197265625,-0.1143217773437499,-1.39112060546875,2.765266649297057,-0.59326171875,1.48486328125,-9.08544921875,43.30647058823529,282.3982198435917
-0.721818359375,-0.1032133789062499,-0.97180908203125,2.7288437378756027,-7.626953125,5.99853515625,-14.255859375,44.29470588235294,282.322768418841
-0.7854169921875,-0.09210498046875,-0.5524975585937499,1.3574203813540358,-9.1650390625,3.7080078125,-13.43017578125,44.57705882352941,282.322768418841
-0.849015625,-0.08099658203125,-0.1331860351562499,0.8632071001535654,-10.79931640625,2.37548828125,-11.81982421875,43.30647058823529,282.322768418841
-0.7445234375,0.22759716796875,0.33263427734375,0.8466174946917945,-9.57861328125,-1.5224609375,-8.978515625,44.15352941176471,282.322768418841
-1.0501875,0.09917919921875,0.8541186523437501,1.3572947251777805,-8.466796875,-3.61669921875,-4.3642578125,43.87117647058824,282.20492808698083
-0.93055859375,0.36480419921875,1.5298999023437505,1.827461384369319,-3.0478515625,-1.6591796875,-0.802734375,44.62411764705882,282.20492808698083
-0.35926953125,0.08550732421875,1.7217944335937505,1.7609549029245664,0.1845703125,-3.31494140625,3.86474609375,44.059411764705885,282.20492808698083
-0.7845625,-0.45648486328125,0.8926928710937501,1.273113234913829,1.19482421875,-4.25634765625,6.46044921875,44.059411764705885,282.20492808698083
-1.1351484375,-0.76703173828125,0.47472412109375,1.4499181541858426,1.19970703125,2.412109375,6.7431640625,44.29470588235294,282.20492808698083
-1.05360546875,-0.80414111328125,0.29357177734375,1.3575388769025674,1.1962890625,10.47900390625,5.716796875,44.059411764705885,282.4206021911655
-0.829484375,-0.76556689453125,0.01085693359375,1.1288289823433937,2.49072265625,15.99951171875,5.765625,44.059411764705885,282.4206021911655
-0.88856640625,-0.64544970703125,-0.0155102539062499,1.0983606650818314,2.48486328125,15.99951171875,3.322265625,43.87117647058824,282.4206021911655
-1.24940625,-0.10687548828125,-0.5628735351562499,1.3745053525227584,2.833984375,15.99951171875,2.39697265625,44.20058823529412,282.4206021911655
-1.33583203125,0.00298779296875,-0.8792797851562499,1.5992464110338802,3.34814453125,15.99951171875,3.0234375,43.30647058823529,282.3658350459299
-1.23329296875,0.02984326171875,-0.94617431640625,1.5547179821643011,1.81494140625,15.9111328125,1.9482421875,43.58882352941177,282.3658350459299
-1.071671875,0.07476513671875,-1.19861572265625,1.6095807168121,-3.89208984375,8.90869140625,-2.24609375,44.15352941176471,282.3658350459299
-0.7171796875,-0.02533251953125,-0.8348461914062499,1.1008890062190284,0.095703125,2.5830078125,-2.0087890625,44.059411764705885,282.3658350459299
-0.80555859375,-0.00824267578125,-0.5867993164062499,0.9966574273055684,-0.46142578125,-6.81396484375,-5.33837890625,44.15352941176471,282.3658350459299
-0.77430859375,-0.00140673828125,-0.5614086914062499,0.9564180550649244,2.58154296875,-7.60791015625,-5.37255859375,43.54176470588236,282.54912490846345
-0.8187421875,-0.10003955078125,-0.3958813476562499,0.9149145986019286,7.6083984375,-8.048828125,-5.1767578125,43.82411764705883,282.54912490846345
-0.76551953125,-0.38031298828125,0.16271240234375,0.8701341549767532,7.806640625,-9.76123046875,-4.96923828125,44.20058823529412,282.54912490846345
-0.73817578125,-0.34027392578125,0.30577880859375,0.8684414248385696,4.560546875,-12.5546875,-3.68115234375,44.20058823529412,282.54912490846345
-0.73133984375,-0.22064501953125,0.26525146484375,0.8086411634971197,1.79052734375,-14.9765625,-2.31396484375,44.71823529411765,282.56014684287845
-0.720109375,-0.14935595703125,0.26232177734375,0.7808184351898944,1.1220703125,-13.95263671875,-0.05078125,44.71823529411765,282.56014684287845
-1.0023359375,-0.21380908203125,0.22765380859375,1.0498656636590653,1.19287109375,-10.6142578125,-0.3544921875,44.15352941176471,282.56014684287845
-1.23329296875,-0.11273486328125,0.30724365234375,1.2759778046944068,0.56884765625,-6.6650390625,-1.4970703125,44.71823529411765,282.56014684287845
-1.261125,-0.04437548828125,0.26329833984375,1.2890816364178317,0.3017578125,-2.98095703125,-1.70849609375,44.059411764705885,282.56014684287845
-1.229875,-0.01800830078125,0.25939208984375,1.2570604881212106,0.4052734375,0.54638671875,-1.53857421875,43.40058823529412,282.5815106708774
-1.009171875,-0.06927783203125,0.31798583984375,1.060350076928889,0.23583984375,4.283203125,-1.0244140625,44.76529411764706,282.5815106708774
-1.040421875,-0.17132861328125,0.39122802734375,1.1246735264451964,-0.42724609375,9.6552734375,0.833984375,44.20058823529412,282.5815106708774
-1.02284375,-0.26507861328125,0.24425537109375,1.0844983607370362,-0.01953125,15.99951171875,1.419921875,43.30647058823529,282.5815106708774
-1.042375,-0.12884814453125,0.16906005859375,1.0638274241557546,0.37548828125,15.99951171875,-0.31689453125,44.20058823529412,282.6142371926678
-1.07313671875,0.17583935546875,0.11827880859375,1.0938609475721943,0.435546875,15.99951171875,-3.97509765625,44.059411764705885,282.6142371926678
-0.99305859375,0.18609326171875,0.16417724609375,1.0235967178595184,-0.6494140625,15.1923828125,-6.08642578125,44.15352941176471,282.6142371926678
-1.02626171875,0.02300732421875,0.07042724609375,1.0289326748294858,-1.66064453125,10.7958984375,-6.63720703125,44.059411764705885,282.6142371926678
-1.0189375,-0.11224658203125,-0.0540844726562499,1.0265271814552466,-1.52783203125,9.00927734375,-5.5,44.20058823529412,282.6142371926678
-0.91298046875,-0.15619189453125,-0.0682446289062499,0.9287553895460218,-0.7412109375,8.171875,-2.75146484375,44.76529411764706,282.4846935080885
-0.8499921875,-0.15668017578125,-0.0819165039062499,0.8681852969879766,-0.5498046875,7.3876953125,-0.603515625,44.71823529411765,282.4846935080885
-0.89833203125,-0.09320361328125,-0.1639477539062499,0.9179140580192332,-0.47900390625,6.466796875,0.126953125,43.40058823529412,282.4846935080885
-0.9320234375,-0.03558642578125,-0.2103344726562499,0.956124820374821,-0.24658203125,5.37939453125,-0.3310546875,43.40058823529412,282.4846935080885
-0.9867109375,-0.04242236328125,-0.2264477539062499,1.013250569374467,-0.123046875,4.240234375,-1.1513671875,43.447647058823534,282.47401158855257
-1.0335859375,-0.11127001953125,-0.2562329101562499,1.0706709166178838,-0.0908203125,3.4580078125,-1.5048828125,44.71823529411765,282.47401158855257
-1.0199140625,-0.16937548828125,-0.2576977539062499,1.0655143749776874,-0.0859375,3.5654296875,-0.73388671875,44.15352941176471,282.47401158855257
-0.96376171875,-0.18646533203125,-0.2528149414062499,1.0136672852448796,-0.0859375,3.97265625,0.755859375,44.20058823529412,282.47401158855257
-0.9242109375,-0.14837939453125,-0.2503735351562499,0.9689526349738296,-0.1884765625,3.953125,2.1201171875,44.059411764705885,282.47401158855257
-0.919328125,-0.03998095703125,-0.2879711914062499,0.964204379486572,-0.4375,2.587890625,2.0498046875,44.76529411764706,282.2166278082264
-0.911515625,0.05718701171875,-0.3441235351562499,0.9759877542146193,-0.40869140625,1.03662109375,1.24072265625,44.29470588235294,282.2166278082264
-0.8968671875,0.06451123046875,-0.3045727539062499,0.9493666379712264,-0.26220703125,-0.13818359375,0.36767578125,44.20058823529412,282.2166278082264
-0.93348828125,0.01177685546875,-0.2894360351562499,0.97740077962051,-0.3642578125,-0.4619140625,0.017578125,43.54176470588236,282.2166278082264
-0.9749921875,-0.14252001953125,-0.2791821289062499,1.0241408022112235,-0.435546875,-0.3486328125,0.23095703125,44.059411764705885,282.2166278082264
-1.0218671875,-0.02093798828125,-0.2826000976562499,1.060430932893674,-0.5361328125,-0.1435546875,0.595703125,44.15352941176471,282.2166278082264
-1.05848828125,-0.01019580078125,-0.2982250976562499,1.099745245395146,-0.59033203125,-0.0517578125,0.69140625,44.76529411764706,282.2166278082264
-1.0648359375,-0.01752001953125,-0.2987133789062499,1.1060796569928717,-0.57763671875,0.0400390625,0.34326171875,44.71823529411765,282.2166278082264
-1.03309765625,-0.05023486328125,-0.2728344726562499,1.0696976013377535,-0.3798828125,0.45654296875,-0.12353515625,44.20058823529412,282.2166278082264
-1.0033125,-0.10003955078125,-0.2249829101562499,1.0330833433170528,-0.275390625,0.62939453125,-0.5107421875,44.059411764705885,282.12015217776394
-0.96278515625,-0.14252001953125,-0.2025219726562499,0.994123917060194,-0.22900390625,1.14404296875,-0.61376953125,44.15352941176471,282.12015217776394
-0.94130078125,-0.18646533203125,-0.2000805664062499,0.980228908921192,-0.185546875,1.65966796875,-0.59130859375,44.20058823529412,282.12015217776394
-0.92909375,-0.20843798828125,-0.1981274414062499,0.9725821683981176,-0.08447265625,2.28759765625,-0.5009765625,44.059411764705885,282.12015217776394
-0.9408125,-0.19671923828125,-0.2088696289062499,0.983591958459218,-0.025390625,2.5478515625,-0.65771484375,44.62411764705882,282.53912360583934
-0.9769453125,-0.19476611328125,-0.2313305664062499,1.0226777661865167,-0.09765625,2.47119140625,-0.63525390625,43.54176470588236,282.53912360583934
-1.00721875,-0.19525439453125,-0.2669750976562499,1.060136591059799,-0.26611328125,1.896484375,-0.74072265625,44.71823529411765,282.53912360583934
-0.9867109375,-0.19720751953125,-0.2796704101562499,1.0443681430696563,-0.28466796875,1.49267578125,-0.53173828125,44.57705882352941,282.53912360583934
-0.93934765625,-0.22845751953125,-0.2576977539062499,1.000487376182761,-0.30419921875,1.28173828125,-0.048828125,44.62411764705882,282.53912360583934
-0.90028515625,-0.22308642578125,-0.2318188476562499,0.956044399628287,-0.39404296875,1.01806640625,0.45703125,44.059411764705885,282.19492447692454
-0.89442578125,-0.18793017578125,-0.2410961914062499,0.9452209279551758,-0.4873046875,0.57470703125,0.71484375,43.54176470588236,282.19492447692454
-0.91981640625,-0.14593798828125,-0.2601391601562499,0.9669707856378302,-0.52099609375,-0.12255859375,0.77001953125,44.71823529411765,282.19492447692454
-0.9593671875,-0.12347705078125,-0.2650219726562499,1.002930021742248,-0.51806640625,-0.82568359375,0.720703125,44.15352941176471,282.19492447692454
-0.99305859375,-0.12982470703125,-0.2562329101562499,1.0337674445558915,-0.5244140625,-1.20849609375,0.7978515625,44.20058823529412,282.34548929973164
-1.001359375,-0.12201220703125,-0.2401196289062499,1.0369498602879037,-0.47509765625,-1.20703125,1.04150390625,44.20058823529412,282.34548929973164
-1.00184765625,-0.10882861328125,-0.2205883789062499,1.0316014861906828,-0.4189453125,-0.9755859375,1.22216796875,44.15352941176471,282.34548929973164
-0.9964765625,-0.08832080078125,-0.2108227539062499,1.0223562671725903,-0.51953125,-0.75830078125,1.01611328125,44.62411764705882,282.34548929973164
-0.9886640625,-0.06390673828125,-0.2069165039062499,1.012104312442911,-0.4541015625,-0.38134765625,0.646484375,44.15352941176471,282.34548929973164
-0.9906171875,-0.06732470703125,-0.2049633789062499,1.0138367792894083,-0.35546875,0.06640625,0.26953125,43.447647058823534,282.43128404393883
-0.993546875,-0.07709033203125,-0.2015454101562499,1.0167098231403122,-0.31787109375,0.6591796875,0.0263671875,44.15352941176471,282.43128404393883
-0.99696484375,-0.08148486328125,-0.2030102539062499,1.0206820493221709,-0.27197265625,1.34326171875,-0.05029296875,43.40058823529412,282.43128404393883
-1.00282421875,-0.09222705078125,-0.2054516601562499,1.027799896511142,-0.28076171875,2.04296875,-0.14013671875,44.20058823529412,282.43128404393883
-1.00087109375,-0.09613330078125,-0.2132641601562499,1.0278453968523529,-0.31982421875,2.4990234375,-0.36376953125,44.15352941176471,282.2166278082264
-0.98915234375,-0.08294970703125,-0.2161938476562499,1.015895069781866,-0.416015625,2.54296875,-0.4755859375,44.15352941176471,282.2166278082264
-0.9925703125,-0.09125048828125,-0.2406079101562499,1.0253851195027517,-0.48681640625,2.29541015625,-0.68115234375,43.58882352941177,282.2166278082264
-0.97841015625,-0.11273486328125,-0.2450024414062499,1.0148998864652683,-0.4267578125,2.12646484375,-0.9990234375,43.447647058823534,282.2166278082264
-0.958390625,-0.12982470703125,-0.2445141601562499,0.9975741672480082,-0.38623046875,2.04736328125,-1.017578125,44.76529411764706,282.2166278082264
-0.9437421875,-0.13959033203125,-0.2601391601562499,0.9888413219069472,-0.2978515625,2.390625,-0.765625,44.71823529411765,282.1839032418395
-0.93690625,-0.13714892578125,-0.2801586914062499,0.9874674888331644,-0.2900390625,2.64453125,-0.5673828125,44.388823529411766,282.1839032418395
-0.9320234375,-0.10834033203125,-0.3148266601562499,0.9897076040624811,-0.25927734375,2.76171875,-0.48291015625,44.76529411764706,282.1839032418395
-0.93690625,-0.09466845703125,-0.3382641601562499,1.0005888666640028,-0.25,2.5146484375,-0.5517578125,43.40058823529412,282.1839032418395
-0.9398359375,-0.09271533203125,-0.3441235351562499,1.0051411491221538,-0.0546875,1.95263671875,-0.61865234375,44.059411764705885,282.4206021911655
-0.92372265625,-0.09564501953125,-0.3407055664062499,0.9891874435165928,-0.02587890625,1.2138671875,-0.41162109375,44.62411764705882,282.4206021911655
-0.9222578125,-0.10980517578125,-0.3319165039062499,0.9862987452648332,-0.037109375,0.59375,-0.0478515625,44.29470588235294,282.4206021911655
-0.92860546875,-0.09857470703125,-0.3226391601562499,0.9879884195298214,-0.095703125,0.05615234375,0.2861328125,44.76529411764706,282.4206021911655
-0.93544140625,-0.07953173828125,-0.3206860351562499,0.992076335301498,-0.12646484375,-0.4560546875,0.47412109375,44.29470588235294,282.4206021911655
-0.95253125,-0.06781298828125,-0.3177563476562499,1.0064211246203227,-0.13232421875,-0.75634765625,0.52685546875,44.15352941176471,282.3448100208906
-0.9632734375,-0.07074267578125,-0.3011547851562499,1.0117284448864057,-0.12890625,-1.1064453125,0.5224609375,44.059411764705885,282.3448100208906
-0.97548046875,-0.07464892578125,-0.2830883789062499,1.0184663162347507,-0.12744140625,-0.97412109375,0.640625,44.059411764705885,282.3448100208906
-0.9867109375,-0.08246142578125,-0.2694165039062499,1.026149898163554,-0.1591796875,-0.61962890625,0.7470703125,44.15352941176471,282.3448100208906
-1.024796875,-0.08050830078125,-0.2757641601562499,1.0643007533263948,-0.1162109375,-0.27587890625,0.62353515625,43.96529411764706,282.3451494415076
-1.0277265625,-0.08343798828125,-0.2689282226562499,1.0656013204278316,-0.08056640625,0.15478515625,0.11181640625,44.20058823529412,282.3451494415076
-1.01942578125,-0.09515673828125,-0.2733227539062499,1.0597117797403195,0.017578125,0.736328125,-0.43310546875,44.059411764705885,282.3451494415076
-0.9671796875,-0.11810595703125,-0.2420727539062499,1.0039844536558429,0.05029296875,1.5830078125,-0.6640625,44.059411764705885,282.3451494415076
-0.962296875,-0.11371142578125,-0.2474438476562499,1.0000870070803338,-0.01708984375,2.09716796875,-0.828125,44.059411764705885,282.3451494415076
-0.97255078125,-0.10394580078125,-0.2845532226562499,1.0186413932950584,-0.0625,2.27099609375,-0.88671875,44.76529411764706,282.367193127557
-0.962296875,-0.12054736328125,-0.2952954101562499,1.0137782408831704,-0.072265625,2.26953125,-0.76611328125,44.15352941176471,282.367193127557
-0.9515546875,-0.13763720703125,-0.2923657226562499,1.0049268828362077,-0.11572265625,2.1201171875,-0.58349609375,44.01235294117648,282.367193127557
-0.9359296875,-0.14691455078125,-0.2962719726562499,0.9926355559603584,-0.15234375,1.89697265625,-0.28857421875,43.447647058823534,282.367193127557
-0.92469921875,-0.15570361328125,-0.1712719726562499,0.9532294314399136,-0.1962890625,1.59619140625,-0.04150390625,44.059411764705885,282.3565113548919
-0.933,-0.14789111328125,-0.1722485351562499,0.9602241088678422,-0.21337890625,1.205078125,0.16796875,44.059411764705885,282.3565113548919
-0.94716015625,-0.13568408203125,-0.3104321289062499,1.0059277500702792,-0.150390625,0.68017578125,0.28564453125,43.30647058823529,282.3565113548919
-0.9691328125,-0.13275439453125,-0.3104321289062499,1.026260319893927,-0.107421875,0.03369140625,0.21533203125,44.059411764705885,282.3565113548919
-0.97841015625,-0.13373095703125,-0.3031079101562499,1.0329786096144165,-0.02001953125,-0.46875,0.13427734375,43.447647058823534,282.3565113548919
-0.974015625,-0.12787158203125,-0.2874829101562499,1.023574131593419,0.015625,-0.70751953125,0.279296875,44.71823529411765,282.5604872614272
-0.97059765625,-0.13275439453125,-0.2703930664062499,1.0162656886591843,0.005859375,-0.78125,0.45068359375,44.15352941176471,282.5604872614272
-0.9828046875,-0.12884814453125,-0.2659985351562499,1.0262855932080452,-0.046875,-0.73388671875,0.5205078125,43.30647058823529,282.5604872614272
-0.98719921875,-0.11957080078125,-0.2591625976562499,1.0276306369138744,-0.0380859375,-0.5458984375,0.41845703125,43.40058823529412,282.5604872614272
-0.9847578125,-0.11615283203125,-0.2503735351562499,1.022705400775464,-0.0634765625,-0.30029296875,0.28955078125,44.059411764705885,282.4743516079228
-0.989640625,-0.11224658203125,-0.2493969726562499,1.0267359503777935,-0.07861328125,0.06494140625,0.21923828125,44.059411764705885,282.4743516079228
-0.99012890625,-0.11273486328125,-0.2440258789062499,1.0259693123904006,-0.0830078125,0.4150390625,0.1630859375,43.30647058823529,282.4743516079228
-0.99305859375,-0.11761767578125,-0.2484204101562499,1.030394093761756,-0.0732421875,0.8115234375,0.06982421875,44.059411764705885,282.4743516079228
-0.99012890625,-0.12396533203125,-0.2435375976562499,1.027148098381931,-0.08251953125,1.1142578125,-0.08642578125,44.20058823529412,282.4743516079228
-0.9828046875,-0.11566455078125,-0.2655102539062499,1.0245872520233514,-0.08154296875,1.4091796875,-0.23681640625,44.15352941176471,282.35583131983594
-0.97548046875,-0.12152392578125,-0.2674633789062499,1.0187575121224652,-0.06689453125,1.568359375,-0.44091796875,44.20058823529412,282.35583131983594
-0.9691328125,-0.12445361328125,-0.2747875976562499,1.014995238387162,-0.06396484375,1.716796875,-0.54541015625,43.30647058823529,282.35583131983594
-0.9652265625,-0.12250048828125,-0.2918774414062499,1.015805654338747,-0.06689453125,1.82177734375,-0.5888671875,43.63588235294118,282.35583131983594
-0.9671796875,-0.13080126953125,-0.2957836914062499,1.0198203332575264,-0.06982421875,1.75341796875,-0.65625,44.01235294117648,282.48503346795184
-0.96962109375,-0.13031298828125,-0.3031079101562499,1.0242172355311274,-0.09033203125,1.67333984375,-0.60595703125,44.62411764705882,282.48503346795184
-0.970109375,-0.13324267578125,-0.3060375976562499,1.0259263235200893,-0.09033203125,1.6201171875,-0.48486328125,44.71823529411765,282.48503346795184
-0.95253125,-0.14349658203125,-0.3026196289062499,1.009695840875147,-0.15185546875,1.23583984375,-0.39453125,43.87117647058824,282.48503346795184
-0.93934765625,-0.12689501953125,-0.3099438476562499,0.9972670424636348,-0.1279296875,1.0341796875,-0.18408203125,44.76529411764706,282.48503346795184
-0.9378828125,-0.13031298828125,-0.3070141601562499,0.995421186952612,-0.12158203125,0.775390625,-0.099609375,44.71823529411765,282.22696994826435
-0.94911328125,-0.12543017578125,-0.3114086914062499,1.0067393519302847,-0.1142578125,0.46044921875,-0.0625,44.15352941176471,282.22696994826435
-0.96376171875,-0.13275439453125,-0.3050610351562499,1.019569818583267,-0.09619140625,0.23876953125,0.0068359375,43.54176470588236,282.22696994826435
-0.96473828125,-0.13763720703125,-0.2982250976562499,1.019118325289388,-0.119140625,0.0869140625,0.11376953125,43.54176470588236,282.22696994826435
-0.9652265625,-0.14105517578125,-0.2948071289062499,1.0190535426679954,-0.09619140625,0.03662109375,0.30126953125,44.43588235294118,282.2483336625819
-0.96766796875,-0.13714892578125,-0.2850415039062499,1.0180568670446846,-0.087890625,-0.015625,0.3505859375,44.059411764705885,282.2483336625819
-0.9671796875,-0.12787158203125,-0.2826000976562499,1.015701976270153,-0.07275390625,-0.0302734375,0.267578125,44.34176470588236,282.2483336625819
-0.9730390625,-0.11078173828125,-0.2845532226562499,1.0198275085579678,-0.0751953125,-0.0712890625,0.15478515625,43.58882352941177,282.2483336625819
-0.98231640625,-0.09369189453125,-0.2909008789062499,1.0287599401401664,-0.0927734375,0.0625,0.1484375,44.71823529411765,282.2483336625819
-0.98719921875,-0.11224658203125,-0.2913891601562499,1.035407762833017,-0.09375,0.2412109375,0.23193359375,44.57705882352941,282.38855671294874
-0.99208203125,-0.11810595703125,-0.2762524414062499,1.036576666338919,-0.0908203125,0.326171875,-0.0283203125,44.20058823529412,282.38855671294874
-0.96473828125,-0.11957080078125,-0.2762524414062499,1.0106099836690643,-0.08349609375,0.61767578125,-0.22119140625,43.30647058823529,282.38855671294874
-0.94520703125,-0.10443408203125,-0.2752758789062499,0.989999807536222,-0.07421875,0.7900390625,-0.267578125,44.29470588235294,282.38855671294874
-0.96278515625,-0.10101611328125,-0.2811352539062499,1.0080657435042215,-0.0625,0.8408203125,-0.3447265625,44.57705882352941,282.1839032418395
-0.97596875,-0.11761767578125,-0.2889477539062499,1.0246168665019195,-0.08154296875,0.85302734375,-0.33251953125,44.20058823529412,282.1839032418395
-0.9769453125,-0.12738330078125,-0.4178540039062499,1.0701638274180891,-0.08154296875,0.859375,-0.16552734375,43.30647058823529,282.1839032418395
-0.9710859375,-0.14203173828125,-0.2899243164062499,1.0233459932657571,-0.09375,0.9033203125,0.06298828125,43.40058823529412,282.1839032418395
-0.95790234375,-0.13275439453125,-0.2874829101562499,1.008884063240672,-0.115234375,0.978515625,0.302734375,44.34176470588236,282.1839032418395
-0.95790234375,-0.11957080078125,-0.2889477539062499,1.007653155132598,-0.11376953125,0.89404296875,0.345703125,44.62411764705882,282.37719511655405
-0.96571484375,-0.11273486328125,-0.2996899414062499,1.0174125858363512,-0.08935546875,0.57861328125,0.20654296875,43.30647058823529,282.37719511655405
-0.9691328125,-0.11468798828125,-0.2967602539062499,1.0200188190512285,-0.0791015625,0.33203125,0.0615234375,44.059411764705885,282.37719511655405
-0.97548046875,-0.12835986328125,-0.2982250976562499,1.028093676804979,-0.06982421875,0.2001953125,0.080078125,44.15352941176471,282.37719511655405
-0.974015625,-0.12201220703125,-0.2884594726562499,1.0231335610632168,-0.08447265625,0.1669921875,0.21875,44.01235294117648,282.36685295072994
-0.96962109375,-0.12152392578125,-0.2816235351562499,1.016978340740911,-0.1005859375,0.22900390625,0.3310546875,44.71823529411765,282.36685295072994
-0.974015625,-0.11810595703125,-0.2811352539062499,1.0206333748312073,-0.1220703125,0.33203125,0.33154296875,44.76529411764706,282.36685295072994
-0.958390625,-0.11127001953125,-0.2777172851562499,1.0040022399421893,-0.1279296875,0.46142578125,0.19140625,44.059411764705885,282.36685295072994
-0.94813671875,-0.10931689453125,-0.2782055664062499,0.9941387016163266,-0.1142578125,0.50048828125,0.03271484375,44.059411764705885,282.36685295072994
-0.9515546875,-0.12054736328125,-0.2747875976562499,0.9977455657245377,-0.1015625,0.77978515625,-0.05224609375,44.20058823529412,282.3778749135776
-0.9730390625,-0.12152392578125,-0.2884594726562499,1.022145757244674,-0.05859375,0.84716796875,-0.1044921875,44.76529411764706,282.3778749135776
-0.99305859375,-0.13128955078125,-0.3050610351562499,1.0471220329721234,-0.06005859375,0.77392578125,-0.1220703125,44.059411764705885,282.3778749135776
-0.99794140625,-0.13910205078125,-0.3001782226562499,1.0513531263076372,-0.0732421875,0.6728515625,0.021484375,44.15352941176471,282.3778749135776
-0.9847578125,-0.14105517578125,-0.2904125976562499,1.0363319877201105,-0.11767578125,0.52685546875,0.2255859375,44.01235294117648,282.5715099059057
-0.9749921875,-0.13421923828125,-0.2923657226562499,1.0266948355744006,-0.13134765625,0.45703125,0.31201171875,44.059411764705885,282.5715099059057
-0.96473828125,-0.12347705078125,-0.2899243164062499,1.0149003116673434,-0.15869140625,0.416015625,0.255859375,44.62411764705882,282.5715099059057
-0.96571484375,-0.12689501953125,-0.2928540039062499,1.0170894616624662,-0.14453125,0.3916015625,0.24755859375,43.82411764705883,282.5715099059057
-0.96815625,-0.12738330078125,-0.2845532226562499,1.0171153161053306,-0.14990234375,0.39306640625,0.0048828125,44.29470588235294,282.5715099059057
-0.9652265625,-0.12982470703125,-0.2830883789062499,1.0142267013755282,-0.134765625,0.44677734375,0.00390625,44.76529411764706,282.37855646105845
-0.966203125,-0.13031298828125,-0.2752758789062499,1.0130679953399788,-0.12255859375,0.59619140625,0.044921875,44.62411764705882,282.37855646105845
-0.96766796875,-0.12982470703125,-0.2777172851562499,1.0150678020580983,-0.11865234375,0.6640625,0.02490234375,43.40058823529412,282.37855646105845
-0.9710859375,-0.12591845703125,-0.2909008789062499,1.021511956454653,-0.1103515625,0.62744140625,-0.09814453125,44.15352941176471,282.37855646105845
-0.97645703125,-0.12250048828125,-0.2913891601562499,1.026344165552313,-0.12060546875,0.53076171875,-0.1513671875,44.20058823529412,282.32446611699004
-0.97596875,-0.13080126953125,-0.2923657226562499,1.027181429384245,-0.10107421875,0.44580078125,-0.123046875,44.15352941176471,282.32446611699004
-0.97841015625,-0.13080126953125,-0.2855297851562499,1.027580976943185,-0.00048828125,0.38330078125,0.00341796875,44.71823529411765,282.32446611699004
-0.97596875,-0.12787158203125,-0.2899243164062499,1.026119998689904,-0.11572265625,0.34814453125,0.2119140625,44.57705882352941,282.32446611699004
-0.97059765625,-0.12103564453125,-0.2742993164062499,1.0158491780505727,-0.14794921875,0.298828125,0.4013671875,44.15352941176471,282.32446611699004
-0.96815625,-0.11615283203125,-0.2840649414062499,1.0156332486380495,-0.13671875,0.17431640625,0.36181640625,43.30647058823529,282.29276203024494
-0.96669140625,-0.11419970703125,-0.2747875976562499,1.0114554225616268,-0.12451171875,0.11328125,0.26416015625,44.15352941176471,282.29276203024494
-0.962296875,-0.12054736328125,-0.2664868164062499,1.005764468326042,-0.119140625,0.1171875,0.21533203125,43.447647058823534,282.29276203024494
-0.99159375,-0.10638720703125,-0.2777172851562499,1.0352310337956114,-0.10107421875,0.0869140625,0.13134765625,44.29470588235294,282.29276203024494
-0.99159375,-0.10882861328125,-0.2728344726562499,1.0341859028131242,-0.10595703125,0.17138671875,0.25634765625,43.30647058823529,282.42162445473446
-1.0033125,-0.12396533203125,-0.2747875976562499,1.047621878364308,-0.05029296875,0.181640625,0.05126953125,43.30647058823529,282.42162445473446
-0.9671796875,-0.12445361328125,-0.2601391601562499,1.009255979629626,-0.09716796875,0.421875,-0.1787109375,43.87117647058824,282.42162445473446
-0.9535078125,-0.11175830078125,-0.2557446289062499,0.9935151642055812,-0.07958984375,0.65673828125,-0.2666015625,43.40058823529412,282.42162445473446
-0.9564375,-0.09955126953125,-0.2752758789062499,1.0002299516506905,-0.109375,0.73193359375,-0.28662109375,43.40058823529412,282.42162445473446
-0.96815625,-0.12396533203125,-0.2806469726562499,1.0156065435102308,-0.15283203125,0.84423828125,-0.24658203125,44.059411764705885,282.56116941138504
-0.9730390625,-0.13910205078125,-0.2801586914062499,1.0220779275832597,-0.162109375,0.8408203125,-0.083984375,44.34176470588236,282.56116941138504
-0.97059765625,-0.14740283203125,-0.2782055664062499,1.020385095142147,-0.1630859375,0.8193359375,0.19482421875,44.29470588235294,282.56116941138504
-0.95692578125,-0.14154345703125,-0.2796704101562499,1.006954338272717,-0.189453125,0.71728515625,0.4130859375,44.57705882352941,282.56116941138504
-0.94911328125,-0.11615283203125,-0.2826000976562499,0.9970808975350712,-0.21337890625,0.53076171875,0.4541015625,43.96529411764706,282.367193127557
-0.948625,-0.10003955078125,-0.2860180664062499,0.9958431787466762,-0.23193359375,0.20947265625,0.45068359375,44.15352941176471,282.367193127557
-0.96278515625,-0.11029345703125,-0.2811352539062499,1.0090376280140263,-0.2275390625,-0.06689453125,0.43896484375,44.15352941176471,282.367193127557
-0.9788984375,-0.11175830078125,-0.2791821289062499,1.0240482067920824,-0.21533203125,-0.2265625,0.51611328125,44.20058823529412,282.367193127557
-0.99159375,-0.11517626953125,-0.2733227539062499,1.0350019642034958,-0.21337890625,-0.328125,0.63720703125,44.15352941176471,282.367193127557
-0.99940625,-0.11761767578125,-0.2601391601562499,1.0393840256815787,-0.1943359375,-0.33935546875,0.64013671875,44.71823529411765,282.42162445473446
-0.99403515625,-0.10541064453125,-0.2620922851562499,1.033397146202698,-0.1845703125,-0.25537109375,0.47265625,43.82411764705883,282.42162445473446
-0.98622265625,-0.10150439453125,-0.2567211914062499,1.0241308705077714,-0.16357421875,-0.0390625,0.2255859375,44.15352941176471,282.42162445473446
-0.97352734375,-0.10687548828125,-0.2567211914062499,1.01246413721244,-0.16357421875,0.26171875,0.03271484375,44.059411764705885,282.42162445473446
-0.98378125,-0.11175830078125,-0.2572094726562499,1.02297222761382,-0.17041015625,0.50244140625,-0.0654296875,44.71823529411765,282.3465115000945
-0.98231640625,-0.11224658203125,-0.2616040039062499,1.0227323560078632,-0.15234375,0.8251953125,-0.11669921875,43.96529411764706,282.3465115000945
-0.9886640625,-0.10980517578125,-0.2723461914062499,1.0313516631493087,-0.17724609375,0.92919921875,-0.150390625,44.059411764705885,282.3465115000945
-0.98133984375,-0.10834033203125,-0.2703930664062499,1.0236590872143374,-0.177734375,0.98583984375,-0.09228515625,44.20058823529412,282.3465115000945
-0.97255078125,-0.11664111328125,-0.2752758789062499,1.0174659605731695,-0.173828125,0.96728515625,-0.0400390625,44.20058823529412,282.3465115000945
-0.962296875,-0.11419970703125,-0.2757641601562499,1.0075230621417413,-0.1767578125,0.8837890625,-0.02880859375,44.15352941176471,282.35719314039534
-0.95399609375,-0.11224658203125,-0.2713696289062499,0.9981729897971958,-0.154296875,0.69775390625,-0.0615234375,44.059411764705885,282.35719314039534
-0.95399609375,-0.11517626953125,-0.2742993164062499,0.9993068772575968,-0.1337890625,0.5390625,-0.10205078125,43.54176470588236,282.35719314039534
-0.95301953125,-0.12250048828125,-0.2708813476562499,0.9983132279406002,-0.1220703125,0.3505859375,-0.08642578125,44.34176470588236,282.35719314039534
-0.96083203125,-0.12640673828125,-0.2747875976562499,1.0073157794776166,-0.11767578125,0.19091796875,0.01171875,44.34176470588236,282.464010277743
-0.9574140625,-0.12591845703125,-0.2625805664062499,1.0007225883071251,-0.248046875,0.03271484375,0.005859375,43.30647058823529,282.464010277743
-0.9564375,-0.11419970703125,-0.2659985351562499,0.999284486619073,-0.13134765625,-0.10888671875,0.20751953125,44.29470588235294,282.464010277743
-0.96571484375,-0.10736376953125,-0.2601391601562499,1.005884944262437,-0.1416015625,-0.17822265625,0.2705078125,44.29470588235294,282.464010277743
-0.97841015625,-0.10443408203125,-0.2635571289062499,1.0186536563229749,-0.16064453125,-0.20947265625,0.30859375,44.57705882352941,282.464010277743
-0.9925703125,-0.09466845703125,-0.2523266601562499,1.028507017690513,-0.13525390625,-0.18603515625,0.35791015625,44.76529411764706,282.42162445473446
-0.9964765625,-0.09906298828125,-0.2547680664062499,1.033288818733372,-0.12646484375,-0.05908203125,0.4990234375,44.76529411764706,282.42162445473446
-1.00184765625,-0.09955126953125,-0.2425610351562499,1.0355892223149936,-0.1171875,0.02490234375,0.2783203125,43.30647058823529,282.42162445473446
-0.9955,-0.09320361328125,-0.2469555664062499,1.0299000996736103,-0.13037109375,0.18408203125,0.1748046875,44.62411764705882,282.42162445473446
-0.9906171875,-0.09320361328125,-0.2415844726562499,1.023900572872039,-0.1171875,0.3984375,0.0380859375,43.30647058823529,282.6793517538451
-0.97596875,-0.10150439453125,-0.2337719726562499,1.0086959295473104,-0.1103515625,0.65576171875,-0.08642578125,43.447647058823534,282.6793517538451
-0.97596875,-0.10443408203125,-0.2371899414062499,1.0097923285362058,-0.15625,0.939453125,-0.12548828125,44.71823529411765,282.6793517538451
-0.97841015625,-0.11175830078125,-0.2464672851562499,1.0151465284868753,-0.15283203125,1.17431640625,-0.11279296875,44.15352941176471,282.6793517538451
-0.99696484375,-0.10589892578125,-0.2552563476562499,1.0345575311087791,-0.1640625,1.13720703125,-0.2080078125,44.059411764705885,282.6793517538451
-0.99159375,-0.09808642578125,-0.2620922851562499,1.030325908584283,-0.16748046875,1.0087890625,-0.2392578125,44.34176470588236,282.2166278082264
-0.97938671875,-0.11078173828125,-0.2684399414062499,1.021533621836647,-0.1123046875,0.9560546875,-0.2880859375,44.71823529411765,282.2166278082264
-0.946671875,-0.12005908203125,-0.2576977539062499,0.9884381389153944,-0.11083984375,1.04931640625,-0.3681640625,43.447647058823534,282.2166278082264
-0.9281171875,-0.11810595703125,-0.2503735351562499,0.9685233285398012,-0.0908203125,1.05224609375,-0.44189453125,43.40058823529412,282.2166278082264
-0.94325390625,-0.10394580078125,-0.2650219726562499,0.9852762593032216,-0.11669921875,0.9111328125,-0.39306640625,44.71823529411765,282.48605597324257
-0.954484375,-0.11224658203125,-0.2708813476562499,0.9985070965220552,-0.10693359375,0.837890625,-0.1923828125,43.30647058823529,282.48605597324257
-0.96083203125,-0.12152392578125,-0.2718579101562499,1.0059189729435525,-0.091796875,0.71875,0.02880859375,44.57705882352941,282.48605597324257
-0.9593671875,-0.12103564453125,-0.2679516601562499,1.0034107433545076,-0.099609375,0.52978515625,0.2314453125,44.57705882352941,282.48605597324257
-0.94911328125,-0.11419970703125,-0.2596508789062499,0.9905938484807753,-0.1416015625,0.41552734375,0.3896484375,44.76529411764706,282.48605597324257
-0.94471875,-0.10199267578125,-0.2537915039062499,0.9835172342005898,-0.1572265625,0.28515625,0.45703125,44.15352941176471,282.42162445473446
-0.95253125,-0.08685595703125,-0.2620922851562499,0.9917419550653296,-0.13232421875,0.162109375,0.4306640625,44.059411764705885,282.42162445473446
-0.9847578125,-0.09173876953125,-0.2586743164062499,1.022289759844602,-0.13330078125,0.09619140625,0.34375,44.29470588235294,282.42162445473446
-1.009171875,-0.10199267578125,-0.2557446289062499,1.0460572137404485,-0.24853515625,0.134765625,0.26318359375,44.29470588235294,282.42162445473446
-1.0140546875,-0.10980517578125,-0.2518383789062499,1.050612514183608,-0.09521484375,0.29541015625,0.2294921875,44.059411764705885,282.5181010978566
-0.9984296875,-0.11078173828125,-0.2415844726562499,1.0331977022073566,-0.109375,0.5634765625,0.1103515625,44.059411764705885,282.5181010978566
-0.974015625,-0.10589892578125,-0.2391430664062499,1.008518927158012,-0.07958984375,0.833984375,-0.138671875,44.29470588235294,282.5181010978566
-0.9554609375,-0.10101611328125,-0.2425610351562499,0.9909317403367908,-0.06298828125,1.1630859375,-0.33056640625,44.20058823529412,282.5181010978566
-0.95399609375,-0.11273486328125,-0.2537915039062499,0.9935933895433772,-0.08544921875,1.40283203125,-0.42431640625,44.76529411764706,282.5181010978566
-0.9671796875,-0.12103564453125,-0.2611157226562499,1.0090924614612815,-0.091796875,1.43017578125,-0.42578125,44.059411764705885,282.3678747940516
-0.979875,-0.12835986328125,-0.2752758789062499,1.0258694262108554,-0.13525390625,1.3115234375,-0.30078125,44.20058823529412,282.3678747940516
-0.97841015625,-0.12396533203125,-0.2742993164062499,1.0236669147626605,-0.09814453125,1.1064453125,-0.162109375,44.29470588235294,282.3678747940516
-0.96180859375,-0.12640673828125,-0.2742993164062499,1.0081143533722716,-0.1181640625,0.81298828125,-0.0634765625,44.20058823529412,282.3678747940516
-0.93934765625,-0.12689501953125,-0.2713696289062499,0.9859603647089068,-0.1162109375,0.619140625,0.0361328125,43.54176470588236,282.4436712756896
-0.942765625,-0.11175830078125,-0.2625805664062499,0.9850104036655551,-0.12646484375,0.45947265625,0.13916015625,44.71823529411765,282.4436712756896
-0.962296875,-0.10931689453125,-0.2645336914062499,1.0039639101848927,-0.11767578125,0.2548828125,0.12744140625,44.15352941176471,282.4436712756896
-0.966203125,-0.10882861328125,-0.2689282226562499,1.0088183854240242,-0.083984375,0.1982421875,0.06201171875,43.447647058823534,282.4436712756896
-0.9593671875,-0.11029345703125,-0.2562329101562499,0.9991022727242218,-0.0673828125,0.287109375,0.05712890625,44.15352941176471,282.4436712756896
-0.97645703125,-0.11078173828125,-0.2557446289062499,1.0154537126962382,-0.08203125,0.43701171875,-0.0126953125,44.76529411764706,282.3788978912241
-0.98378125,-0.11712939453125,-0.2493969726562499,1.021637750322942,-0.08203125,0.53466796875,-0.13134765625,44.76529411764706,282.3788978912241
-0.98719921875,-0.11859423828125,-0.2581860351562499,1.027271589991578,-0.06298828125,0.5751953125,-0.15966796875,43.30647058823529,282.3788978912241
-0.99012890625,-0.11615283203125,-0.2586743164062499,1.029931615860462,-0.05859375,0.66064453125,-0.1357421875,44.15352941176471,282.3788978912241
-0.98719921875,-0.11517626953125,-0.2576977539062499,1.0267599538996794,-0.04541015625,0.74365234375,-0.130859375,43.447647058823534,282.3685582110035
-0.9808515625,-0.10931689453125,-0.2655102539062499,1.022015492063603,-0.06591796875,0.81884765625,-0.16796875,43.30647058823529,282.3685582110035
-0.9808515625,-0.10785205078125,-0.2650219726562499,1.021733085745501,-0.05078125,0.91943359375,-0.17041015625,44.15352941176471,282.3685582110035
-0.9867109375,-0.11712939453125,-0.2630688476562499,1.027873040726613,-0.05224609375,0.97998046875,-0.21484375,44.15352941176471,282.3685582110035
-0.98524609375,-0.11664111328125,-0.2757641601562499,1.0297382612022363,-0.0712890625,0.93603515625,-0.2412109375,44.29470588235294,282.3685582110035
-0.97743359375,-0.11712939453125,-0.2728344726562499,1.0215353027301168,-0.1064453125,0.9072265625,-0.2001953125,43.96529411764706,282.3258321525416
-0.94716015625,-0.12543017578125,-0.2635571289062499,0.9911142470882686,-0.099609375,0.86865234375,-0.080078125,44.76529411764706,282.3258321525416
-0.931046875,-0.12250048828125,-0.2601391601562499,0.9744367787205128,-0.08837890625,0.85791015625,0.00537109375,43.54176470588236,282.3258321525416
-0.9359296875,-0.11566455078125,-0.2601391601562499,0.9782714607398476,-0.06201171875,0.78466796875,0.07421875,44.15352941176471,282.3258321525416
-0.9535078125,-0.10882861328125,-0.2703930664062499,0.9970622979171512,-0.0595703125,0.6572265625,0.0322265625,44.76529411764706,282.26071721117853
-0.95790234375,-0.11273486328125,-0.2796704101562499,1.004241797515793,-0.1015625,0.54638671875,0.09326171875,44.20058823529412,282.26071721117853
-0.9876875,-0.10638720703125,-0.2796704101562499,1.0320176228113187,-0.08837890625,0.44873046875,0.13818359375,43.30647058823529,282.26071721117853
-1.00770703125,-0.10736376953125,-0.2874829101562499,1.053397770773488,-0.08740234375,0.30224609375,0.1591796875,43.96529411764706,282.26071721117853
-0.99794140625,-0.11517626953125,-0.2742993164062499,1.0413417970831185,-0.078125,0.1171875,-0.1572265625,44.15352941176471,282.26071721117853
-0.96034375,-0.13128955078125,-0.2625805664062499,1.0042139304762865,-0.0029296875,0.3583984375,-0.26025390625,44.059411764705885,282.1532188439397
-0.9437421875,-0.12445361328125,-0.2401196289062499,0.9817308462669996,-0.06005859375,0.61572265625,-0.19677734375,44.62411764705882,282.1532188439397
-0.96083203125,-0.09808642578125,-0.2674633789062499,1.0021755326560762,-0.03564453125,0.7236328125,-0.22314453125,44.62411764705882,282.1532188439397
-0.9671796875,-0.11615283203125,-0.2630688476562499,1.0090258901082096,-0.07080078125,0.78271484375,-0.23583984375,43.447647058823534,282.1532188439397
-0.96473828125,-0.13373095703125,-0.2620922851562499,1.0086110678136162,-0.09814453125,0.79931640625,-0.14306640625,44.15352941176471,282.31480844648746
-0.95399609375,-0.14447314453125,-0.2576977539062499,0.9986937312055848,-0.1123046875,0.8505859375,0.02978515625,43.96529411764706,282.31480844648746
-0.9417890625,-0.13373095703125,-0.2601391601562499,0.9861658023678992,-0.13330078125,0.93017578125,0.18701171875,44.76529411764706,282.31480844648746
-0.95887890625,-0.12054736328125,-0.2689282226562499,1.003146456199845,-0.12646484375,0.8330078125,0.203125,43.447647058823534,282.31480844648746
-0.977921875,-0.11175830078125,-0.2796704101562499,1.0232480880578243,-0.10693359375,0.54248046875,0.099609375,44.20058823529412,282.31480844648746
-0.993546875,-0.10785205078125,-0.2845532226562499,1.0391044192977164,-0.09619140625,0.28857421875,0.04296875,44.29470588235294,282.8530017158714
-1.00380078125,-0.11761767578125,-0.2747875976562499,1.0473576991267055,-0.080078125,0.1767578125,0.06591796875,44.29470588235294,282.8530017158714
-0.99989453125,-0.12054736328125,-0.2694165039062499,1.0425478372692474,-0.07080078125,0.22021484375,0.14990234375,43.87117647058824,282.8530017158714
-0.99012890625,-0.11761767578125,-0.2728344726562499,1.0337445613485077,-0.0556640625,0.35986328125,0.173828125,44.29470588235294,282.8530017158714
-0.97059765625,-0.10736376953125,-0.2650219726562499,1.0118416058438011,-0.03662109375,0.53271484375,0.06005859375,44.15352941176471,282.3788978912241
-0.96034375,-0.10638720703125,-0.2620922851562499,1.0011347171696712,-0.01513671875,0.7021484375,-0.09814453125,44.29470588235294,282.3788978912241
-0.95204296875,-0.10931689453125,-0.2689282226562499,0.9953182338917136,-0.03173828125,0.86328125,-0.2509765625,44.62411764705882,282.3788978912241
-0.962296875,-0.11127001953125,-0.2655102539062499,1.0044361541733808,-0.02783203125,0.95654296875,-0.2763671875,43.447647058823534,282.3788978912241
-0.97157421875,-0.12201220703125,-0.2694165039062499,1.0155927795043522,-0.05517578125,0.9599609375,-0.2412109375,44.01235294117648,282.3788978912241
-0.98426953125,-0.12298876953125,-0.2733227539062499,1.028891673297438,-0.04541015625,0.8955078125,-0.1884765625,44.15352941176471,282.52980856255124
-0.98329296875,-0.12543017578125,-0.2757641601562499,1.0289041079791574,-0.07421875,0.849609375,-0.15087890625,44.01235294117648,282.52980856255124
-0.9652265625,-0.12445361328125,-0.2757641601562499,1.0115319524567712,-0.0712890625,0.8466796875,-0.048828125,44.059411764705885,282.52980856255124
-0.95204296875,-0.12689501953125,-0.2669750976562499,0.996877055156108,-0.0888671875,0.865234375,0.03955078125,43.96529411764706,282.52980856255124
-0.94471875,-0.12738330078125,-0.2674633789062499,0.9900791286434822,-0.25,0.90185546875,0.15087890625,44.059411764705885,282.20628623815975
-0.95008984375,-0.12445361328125,-0.2689282226562499,0.9952295222694651,-0.1064453125,0.7763671875,0.1572265625,43.30647058823529,282.20628623815975
-0.9574140625,-0.12494189453125,-0.2733227539062499,1.003472716063924,-0.0849609375,0.58203125,0.07177734375,43.40058823529412,282.20628623815975
-0.96425,-0.12396533203125,-0.2738110351562499,1.010008885613862,-0.06494140625,0.38623046875,0.04296875,44.059411764705885,282.20628623815975
-0.97157421875,-0.12835986328125,-0.2723461914062499,1.0171554281498694,-0.06640625,0.28369140625,0.03369140625,44.01235294117648,282.20628623815975
-0.9749921875,-0.13031298828125,-0.2684399414062499,1.019632896067509,-0.07861328125,0.2509765625,0.00830078125,44.76529411764706,282.3575346895698
-0.99110546875,-0.12982470703125,-0.2703930664062499,1.0354983897150598,-0.08837890625,0.3291015625,0.021484375,44.76529411764706,282.3575346895698
-0.99794140625,-0.12738330078125,-0.2723461914062499,1.0422504514749051,-0.1005859375,0.4638671875,-0.05517578125,44.76529411764706,282.3575346895698
-1.0042890625,-0.12298876953125,-0.2708813476562499,1.0474251586609928,-0.11865234375,0.6376953125,-0.1279296875,44.76529411764706,282.3575346895698
-0.997453125,-0.12787158203125,-0.2694165039062499,1.041080751258281,-0.119140625,0.802734375,-0.19482421875,44.20058823529412,282.4006028950394
-0.99159375,-0.12884814453125,-0.2611157226562499,1.033460899118348,-0.1240234375,0.9599609375,-0.21826171875,44.15352941176471,282.4006028950394
-0.9769453125,-0.13275439453125,-0.2674633789062499,1.0215588734571444,-0.12353515625,1.06982421875,-0.232421875,43.40058823529412,282.4006028950394
-0.96278515625,-0.12884814453125,-0.2596508789062499,1.0054728640601251,-0.09130859375,1.1337890625,-0.220703125,44.15352941176471,282.4006028950394
-0.9515546875,-0.12787158203125,-0.2616040039062499,0.9951101042870476,-0.09423828125,1.15283203125,-0.25390625,44.059411764705885,282.4006028950394
-0.94227734375,-0.12640673828125,-0.2616040039062499,0.9860537058838332,-0.08740234375,1.1962890625,-0.20361328125,44.76529411764706,282.3792397589967
-0.9515546875,-0.11517626953125,-0.2752758789062499,0.9972455594656544,-0.0869140625,1.228515625,-0.15283203125,44.15352941176471,282.3792397589967
-0.96864453125,-0.11468798828125,-0.2879711914062499,1.0170314496889796,-0.09326171875,1.18017578125,-0.13525390625,43.40058823529412,282.3792397589967
-0.97743359375,-0.11468798828125,-0.2928540039062499,1.026787822508118,-0.0849609375,1.126953125,-0.12548828125,44.059411764705885,282.3792397589967
-0.97255078125,-0.12103564453125,-0.2869946289062499,1.021210343846025,-0.09619140625,0.96923828125,-0.09765625,43.54176470588236,282.32548998722973
-0.97743359375,-0.10736376953125,-0.2996899414062499,1.0279676406283815,-0.1025390625,0.88720703125,0.07958984375,43.40058823529412,282.32548998722973
-0.9906171875,-0.13324267578125,-0.3026196289062499,1.044344130360828,-0.080078125,0.8115234375,0.12353515625,44.15352941176471,282.32548998722973
-0.97352734375,-0.13226611328125,-0.2928540039062499,1.0251893880427076,-0.0947265625,0.650390625,-0.2265625,44.76529411764706,282.32548998722973
-0.9417890625,-0.14837939453125,-0.2762524414062499,0.992622029953498,-0.06982421875,0.77099609375,-0.3564453125,44.059411764705885,282.32548998722973
-0.9300703125,-0.12347705078125,-0.2786938476562499,0.9787479905394076,-0.0146484375,0.8173828125,-0.35888671875,44.059411764705885,282.4223081518512
-0.9408125,-0.12396533203125,-0.2772290039062499,0.9886108861977596,-0.05419921875,0.73046875,-0.3671875,44.059411764705885,282.4223081518512
-0.9554609375,-0.12298876953125,-0.2977368164062499,1.0083050393422217,-0.080078125,0.7548828125,-0.22314453125,44.76529411764706,282.4223081518512
-0.9652265625,-0.13910205078125,-0.2835766601562499,1.0155921522306528,-0.07568359375,0.73291015625,-0.07568359375,44.01235294117648,282.4223081518512
-0.9593671875,-0.15033251953125,-0.2782055664062499,1.0101403882924869,-0.12841796875,0.697265625,0.00048828125,44.76529411764706,282.3468531087758
-0.95399609375,-0.13959033203125,-0.2806469726562499,1.0041696723900655,-0.138671875,0.71240234375,0.330078125,43.30647058823529,282.3468531087758
-0.966203125,-0.13177783203125,-0.2860180664062499,1.0162284241672204,-0.162109375,0.58984375,0.384765625,43.30647058823529,282.3468531087758
-0.98426953125,-0.12982470703125,-0.2806469726562499,1.0316994174486882,-0.15966796875,0.31005859375,0.259765625,43.96529411764706,282.3468531087758
-0.9906171875,-0.11566455078125,-0.2928540039062499,1.0394537835237123,-0.08154296875,0.19140625,0.20361328125,43.30647058823529,282.3468531087758
-0.99794140625,-0.13275439453125,-0.2767407226562499,1.0440767247438714,-0.109375,0.1005859375,0.08154296875,43.30647058823529,282.08912965328665
-0.9886640625,-0.12543017578125,-0.2791821289062499,1.0349550804629857,-0.08740234375,0.20361328125,0.13623046875,44.76529411764706,282.08912965328665
-0.98524609375,-0.12933642578125,-0.2752758789062499,1.0311229731662035,-0.09765625,0.45263671875,0.1875,44.059411764705885,282.08912965328665
-0.97743359375,-0.12543017578125,-0.2821118164062499,1.0250347487493237,-0.119140625,0.66357421875,0.18994140625,44.29470588235294,282.08912965328665
-0.9710859375,-0.12445361328125,-0.2821118164062499,1.0188639147722558,-0.130859375,0.7919921875,0.0,44.059411764705885,282.3578766763659
-0.9574140625,-0.13031298828125,-0.2865063476562499,1.007823917772776,-0.1103515625,0.80517578125,0.017578125,44.059411764705885,282.3578766763659
-0.95692578125,-0.13324267578125,-0.2879711914062499,1.008160685878102,-0.08642578125,0.75390625,-0.08349609375,44.059411764705885,282.3578766763659
-0.96766796875,-0.13519580078125,-0.2977368164062499,1.021423719196575,-0.06298828125,0.6259765625,-0.146484375,44.15352941176471,282.3578766763659
-0.9749921875,-0.14154345703125,-0.2928540039062499,1.0278169990413248,-0.07958984375,0.46533203125,-0.10107421875,44.15352941176471,282.3578766763659
-0.97548046875,-0.13080126953125,-0.3001782226562499,1.0289694273304586,-0.076171875,0.35546875,0.04931640625,44.20058823529412,282.23901273671214
-0.95594921875,-0.13177783203125,-0.2860180664062499,1.0064842970232382,-0.1279296875,0.3408203125,0.32958984375,43.40058823529412,282.23901273671214
-0.9437421875,-0.13128955078125,-0.2796704101562499,0.9930265862143836,-0.14990234375,0.439453125,0.5869140625,44.20058823529412,282.23901273671214
-0.9593671875,-0.12201220703125,-0.2884594726562499,1.0091983187071898,-0.185546875,0.3935546875,0.55859375,44.71823529411765,282.23901273671214
-0.97645703125,-0.11664111328125,-0.2860180664062499,1.0241483376424645,-0.18701171875,0.248046875,0.35986328125,43.447647058823534,282.35856196279383
-0.981828125,-0.12298876953125,-0.2874829101562499,1.0304169680783275,-0.1923828125,0.126953125,0.201171875,43.87117647058824,282.35856196279383
-0.98231640625,-0.13519580078125,-0.2796704101562499,1.0302616002034453,-0.15576171875,0.15625,0.1689453125,43.30647058823529,282.35856196279383
-0.9847578125,-0.13421923828125,-0.2718579101562499,1.0303734645841325,-0.1484375,0.27783203125,0.21240234375,44.20058823529412,282.35856196279383
-0.9828046875,-0.12543017578125,-0.2723461914062499,1.0275262676652006,-0.123046875,0.39111328125,0.19091796875,44.059411764705885,282.35856196279383
-0.98133984375,-0.11810595703125,-0.2777172851562499,1.026695571477787,-0.12255859375,0.4775390625,0.052734375,43.54176470588236,282.0798179278768
-0.9769453125,-0.12152392578125,-0.2708813476562499,1.0210616595784388,-0.11474609375,0.5419921875,-0.11279296875,43.40058823529412,282.0798179278768
-0.97743359375,-0.12396533203125,-0.2733227539062499,1.022472083501332,-0.11572265625,0.5888671875,-0.17919921875,44.48294117647059,282.0798179278768
-0.98231640625,-0.12298876953125,-0.2699047851562499,1.0261190732409993,-0.11083984375,0.60107421875,-0.16650390625,44.57705882352941,282.0798179278768
-0.985734375,-0.13470751953125,-0.2718579101562499,1.0313704946281073,-0.12353515625,0.6005859375,-0.0732421875,44.71823529411765,282.4126556162992
-0.981828125,-0.13177783203125,-0.2733227539062499,1.0276464332924862,-0.12646484375,0.62255859375,-0.03271484375,44.62411764705882,282.4126556162992
-0.97743359375,-0.12494189453125,-0.2733227539062499,1.02259094216749,-0.1416015625,0.60791015625,-0.0107421875,44.01235294117648,282.4126556162992
-0.966203125,-0.12298876953125,-0.2762524414062499,1.012417960910162,-0.11865234375,0.6650390625,0.0361328125,44.62411764705882,282.4126556162992
-0.9593671875,-0.11957080078125,-0.2738110351562499,1.004815933305432,-0.15771484375,0.6953125,0.10595703125,44.20058823529412,282.4126556162992
-0.95790234375,-0.12103564453125,-0.2703930664062499,1.0026659153324269,-0.17626953125,0.693359375,0.2255859375,43.30647058823529,282.3478805605156
-0.96180859375,-0.12591845703125,-0.2757641601562499,1.0084528253017913,-0.17041015625,0.6572265625,0.216796875,44.34176470588236,282.3478805605156
-0.96669140625,-0.12103564453125,-0.2869946289062499,1.015631734038344,-0.16943359375,0.50927734375,0.181640625,44.71823529411765,282.3478805605156
-0.96962109375,-0.11371142578125,-0.2884594726562499,1.0179902853972984,-0.1875,0.3720703125,0.146484375,44.20058823529412,282.3478805605156
-0.97157421875,-0.11664111328125,-0.2835766601562499,1.0188117264895098,-0.17236328125,0.3076171875,0.16552734375,44.059411764705885,282.4336750356801
-0.970109375,-0.11859423828125,-0.2786938476562499,1.0162908311786767,-0.16064453125,0.28173828125,0.18701171875,44.15352941176471,282.4336750356801
-0.97743359375,-0.10541064453125,-0.2855297851562499,1.0237260826915118,-0.1787109375,0.1474609375,0.2197265625,44.76529411764706,282.4336750356801
-0.98378125,-0.11761767578125,-0.2889477539062499,1.0320611755100628,-0.15234375,0.0673828125,0.12841796875,43.54176470588236,282.4336750356801
-0.98036328125,-0.11517626953125,-0.2840649414062499,1.027166309427319,-0.12158203125,0.060546875,-0.064453125,43.58882352941177,282.4336750356801
-0.95887890625,-0.13568408203125,-0.2650219726562499,1.0040396271853365,-0.091796875,0.13623046875,-0.2021484375,44.15352941176471,282.3685582110035
-0.94130078125,-0.12543017578125,-0.2518383789062499,0.9824471786658576,-0.09814453125,0.2646484375,-0.267578125,43.30647058823529,282.3685582110035
-0.95106640625,-0.10248095703125,-0.2689282226562499,0.9936558984841688,-0.11962890625,0.45166015625,-0.08447265625,43.30647058823529,282.3685582110035
-0.9730390625,-0.12201220703125,-0.2782055664062499,1.0193578042056373,-0.1474609375,0.5703125,0.01904296875,44.29470588235294,282.3685582110035
-0.981828125,-0.13031298828125,-0.2801586914062499,1.0292991957279805,-0.1728515625,0.63330078125,0.13671875,44.01235294117648,282.2073094464353
-0.97255078125,-0.13421923828125,-0.2733227539062499,1.01910507497396,-0.16259765625,0.6884765625,0.22509765625,43.82411764705883,282.2073094464353
-0.95887890625,-0.12591845703125,-0.2728344726562499,1.0048596240977847,-0.1943359375,0.6494140625,0.40185546875,44.29470588235294,282.2073094464353
-0.95985546875,-0.10931689453125,-0.2786938476562499,1.0054565953041852,-0.244140625,0.42236328125,0.48583984375,44.71823529411765,282.2073094464353
-0.9652265625,-0.10638720703125,-0.2742993164062499,1.0090692095968503,-0.20703125,0.1123046875,0.48388671875,44.76529411764706,282.2073094464353
-0.97596875,-0.10492236328125,-0.2728344726562499,1.0188043741379889,-0.20556640625,-0.07763671875,0.42626953125,44.059411764705885,282.2073094464353
-0.98915234375,-0.11859423828125,-0.2664868164062499,1.031262418503635,-0.15283203125,-0.21044921875,0.4130859375,43.447647058823534,282.2073094464353
-0.9906171875,-0.12201220703125,-0.2503735351562499,1.0290268693973372,-0.16015625,-0.19775390625,0.45068359375,44.01235294117648,282.2073094464353
-0.98915234375,-0.11322314453125,-0.2552563476562499,1.027812065808955,-0.1455078125,-0.04345703125,0.45361328125,44.71823529411765,282.2073094464353
-0.97548046875,-0.10101611328125,-0.2591625976562499,1.014362682712207,-0.14306640625,0.177734375,0.34326171875,44.76529411764706,282.4226506568397
-0.97352734375,-0.10003955078125,-0.2537915039062499,1.011025978006718,-0.138671875,0.423828125,0.1669921875,44.34176470588236,282.4226506568397
-0.974015625,-0.10150439453125,-0.2547680664062499,1.0118875172239628,-0.14404296875,0.70068359375,0.05029296875,44.059411764705885,282.4226506568397
-0.9847578125,-0.10199267578125,-0.2630688476562499,1.0243806293560962,-0.14990234375,0.84228515625,-0.05029296875,43.96529411764706,282.4226506568397
-0.99305859375,-0.11127001953125,-0.2664868164062499,1.0341961183380797,-0.14306640625,0.88916015625,-0.1708984375,44.62411764705882,282.4226506568397
-0.9886640625,-0.11566455078125,-0.2728344726562499,1.0321209068011588,-0.14208984375,0.84326171875,-0.23046875,43.30647058823529,282.7024288221233
-0.97938671875,-0.11371142578125,-0.2684399414062499,1.0218554865338283,-0.13232421875,0.77783203125,-0.212890625,44.01235294117648,282.7024288221233
-0.966203125,-0.11859423828125,-0.2630688476562499,1.0083740827294516,-0.125,0.689453125,-0.18408203125,44.15352941176471,282.7024288221233
-0.950578125,-0.12054736328125,-0.2581860351562499,0.9923660953863156,-0.1240234375,0.72900390625,-0.07080078125,43.30647058823529,282.7024288221233
-0.95106640625,-0.11761767578125,-0.2645336914062499,0.994152554008936,-0.14990234375,0.73095703125,0.05419921875,43.82411764705883,282.1542442576392
-0.9564375,-0.11908251953125,-0.2723461914062499,1.0015616735067543,-0.169921875,0.603515625,0.087890625,44.76529411764706,282.1542442576392
-0.966203125,-0.11371142578125,-0.2757641601562499,1.011199604004893,-0.15087890625,0.44482421875,0.0693359375,44.76529411764706,282.1542442576392
-0.9720625,-0.12103564453125,-0.2684399414062499,1.0156845638757814,-0.1484375,0.34423828125,0.10595703125,44.34176470588236,282.1542442576392
-0.97450390625,-0.12201220703125,-0.2650219726562499,1.0172420989871367,-0.15478515625,0.2646484375,0.18359375,44.059411764705885,282.1542442576392
-0.96766796875,-0.12250048828125,-0.2640454101562499,1.0104987115273716,-0.162109375,0.2109375,0.24169921875,44.76529411764706,282.20765139108426
-0.9691328125,-0.11273486328125,-0.2655102539062499,1.011149470945104,-0.14990234375,0.1630859375,0.3701171875,44.15352941176471,282.20765139108426
-0.9720625,-0.10980517578125,-0.2581860351562499,1.0117424125163013,-0.15771484375,0.1279296875,0.23193359375,43.30647058823529,282.20765139108426
-0.9788984375,-0.10589892578125,-0.2645336914062499,1.0195267565447124,-0.14501953125,0.1015625,0.17236328125,44.15352941176471,282.20765139108426
-0.98915234375,-0.10638720703125,-0.2542797851562499,1.0268392308950496,-0.14599609375,0.130859375,0.12744140625,44.01235294117648,282.31549333373187
-0.993546875,-0.11175830078125,-0.2469555664062499,1.0298603606289591,-0.001953125,0.1953125,0.12255859375,44.29470588235294,282.31549333373187
-0.99501171875,-0.11273486328125,-0.2479321289062499,1.0316141770995864,-0.1298828125,0.314453125,0.09033203125,44.62411764705882,282.31549333373187
-0.989640625,-0.10931689453125,-0.2445141601562499,1.0252443243428675,-0.140625,0.44677734375,0.01611328125,43.40058823529412,282.31549333373187
-0.98231640625,-0.10492236328125,-0.2479321289062499,1.0185404090405168,-0.14111328125,0.63671875,-0.04248046875,44.29470588235294,282.31549333373187
-0.98133984375,-0.10492236328125,-0.2454907226562499,1.0170065320134798,-0.126953125,0.82470703125,-0.08447265625,43.40058823529412,282.3695866185573
-0.97548046875,-0.11029345703125,-0.2425610351562499,1.0112183974556117,-0.15185546875,0.99609375,-0.12158203125,44.29470588235294,282.3695866185573
-0.9652265625,-0.11371142578125,-0.2469555664062499,1.0027859477913534,-0.16015625,1.158203125,-0.10400390625,44.76529411764706,282.3695866185573
-0.96425,-0.11371142578125,-0.2572094726562499,1.004422751473358,-0.1572265625,1.2666015625,-0.123046875,44.29470588235294,282.3695866185573
-0.9720625,-0.10443408203125,-0.2503735351562499,1.009207059280997,-0.17041015625,1.28369140625,-0.16357421875,44.62411764705882,282.4123121765703
-0.97548046875,-0.10834033203125,-0.2689282226562499,1.0176552271758894,-0.181640625,1.2578125,-0.1875,43.447647058823534,282.4123121765703
-0.97255078125,-0.10345751953125,-0.2699047851562499,1.0145970005414888,-0.15966796875,1.30419921875,-0.1953125,44.059411764705885,282.4123121765703
-0.96815625,-0.11273486328125,-0.2699047851562499,1.011377410694616,-0.16943359375,1.3583984375,-0.1923828125,44.76529411764706,282.4123121765703
-0.95399609375,-0.11029345703125,-0.2557446289062499,0.9938201591679244,-0.224609375,1.4150390625,-0.12109375,43.96529411764706,282.4123121765703
-0.9124921875,-0.17669970703125,-0.0086743164062499,0.9294837397601856,-2.23095703125,0.2666015625,0.1259765625,44.059411764705885,282.1866309989232
-1.02723828125,-0.14203173828125,-0.1883618164062499,1.0539789727620326,-3.43701171875,0.19384765625,-0.34521484375,44.20058823529412,282.1866309989232
-1.07801953125,-0.11175830078125,-0.2127758789062499,1.104486125849623,-3.763671875,1.0556640625,-0.92626953125,43.87117647058824,282.1866309989232
-1.1126875,-0.05169970703125,-0.3055493164062499,1.1550353748347684,-3.0029296875,3.28466796875,-1.85693359375,44.29470588235294,282.1866309989232
-1.06337109375,-0.04095751953125,-0.3236157226562499,1.1122781744597667,-1.52392578125,5.74853515625,-2.60302734375,43.30647058823529,282.1008374579678
-0.99159375,-0.08490283203125,-0.3011547851562499,1.039788853829707,-0.640625,7.794921875,-2.57958984375,43.40058823529412,282.1008374579678
-0.9281171875,-0.14300830078125,-0.2552563476562499,0.9731437154110688,-0.73046875,8.96142578125,-2.21240234375,44.15352941176471,282.1008374579678
-0.94423046875,-0.14935595703125,-0.2767407226562499,0.9952204818997994,-1.37744140625,7.71533203125,-2.517578125,43.30647058823529,282.1008374579678
-0.888078125,-0.14837939453125,-0.3333813476562499,0.9601262020120446,-2.4365234375,6.52001953125,-2.4033203125,44.20058823529412,282.1008374579678
-0.85341015625,-0.17377001953125,-0.3783032226562499,0.9495358038276622,-2.8251953125,5.31103515625,-2.02099609375,44.71823529411765,282.4767439968088
-0.83534375,-0.17230517578125,-0.4198071289062499,0.9506451913019804,-3.0029296875,4.33837890625,-1.38232421875,44.15352941176471,282.4767439968088
-0.82704296875,-0.13666064453125,-0.4686352539062499,0.960362017744499,-2.8515625,3.14404296875,-0.8408203125,44.71823529411765,282.4767439968088
-0.8626875,-0.15082080078125,-0.4891430664062499,1.0031139396987048,-2.75390625,2.05908203125,-0.546875,44.15352941176471,282.4767439968088
-0.89344921875,-0.10834033203125,-0.5745922851562499,1.0677759260213298,-1.71142578125,1.50439453125,-0.41162109375,44.059411764705885,282.26208642532777
-0.91005078125,-0.10541064453125,-0.5863110351562499,1.0876876658214996,-0.427734375,1.03662109375,-0.2138671875,44.20058823529412,282.26208642532777
-0.854875,-0.15326220703125,-0.4442211914062499,0.9755168048903504,0.03662109375,0.07080078125,-0.0341796875,44.059411764705885,282.26208642532777
-0.83973828125,-0.15814501953125,-0.4481274414062499,0.9648774180902752,-0.19189453125,-0.83642578125,0.35693359375,44.20058823529412,282.26208642532777
-0.849015625,-0.16156298828125,-0.4129711914062499,0.9578493282390532,-0.1708984375,-1.27099609375,0.82861328125,44.01235294117648,282.26208642532777
-0.911515625,-0.13910205078125,-0.4212719726562499,1.0137456239591756,-0.18408203125,-1.5166015625,0.826171875,44.76529411764706,282.110834268411
-0.95790234375,-0.12152392578125,-0.4232250976562499,1.0542601424625575,0.04296875,-1.46826171875,0.6259765625,44.388823529411766,282.110834268411
-0.98133984375,-0.12738330078125,-0.3934399414062499,1.0649175469222742,0.193359375,-1.1455078125,0.41748046875,44.62411764705882,282.110834268411
-0.97938671875,-0.13080126953125,-0.3626782226562499,1.052541120414768,0.2109375,-0.6630859375,0.29736328125,44.20058823529412,282.110834268411
-0.96376171875,-0.14789111328125,-0.3162915039062499,1.0250603627878698,-0.12353515625,-0.33740234375,0.181640625,44.29470588235294,282.42333697968184
-0.97059765625,-0.12054736328125,-0.3558422851562499,1.040776253100193,-0.0830078125,0.3994140625,-0.02197265625,44.62411764705882,282.42333697968184
-0.96425,-0.13275439453125,-0.3470532226562499,1.0333671811720395,-0.0517578125,1.1669921875,-0.2197265625,44.29470588235294,282.42333697968184
-0.96180859375,-0.12543017578125,-0.3607250976562499,1.0348580076933158,-0.0205078125,1.79931640625,-0.36083984375,43.54176470588236,282.42333697968184
-0.948625,-0.14056689453125,-0.3636547851562499,1.025618469622207,-0.064453125,2.09765625,-0.51513671875,43.40058823529412,282.42333697968184
-0.91981640625,-0.14349658203125,-0.3822094726562499,1.006348633053916,-0.0712890625,2.27587890625,-0.57958984375,44.29470588235294,282.4553811499034
-0.89930859375,-0.15082080078125,-0.3851391601562499,0.9898661694525992,-0.07861328125,2.19873046875,-0.5517578125,44.20058823529412,282.4553811499034
-0.891984375,-0.14935595703125,-0.4076000976562499,0.9920086525601708,-0.10546875,1.93603515625,-0.43603515625,44.059411764705885,282.4553811499034
-0.89735546875,-0.15375048828125,-0.4251782226562499,1.0048196708680532,-0.13623046875,1.61376953125,-0.275390625,43.447647058823534,282.4553811499034
-0.9046796875,-0.15423876953125,-0.4300610351562499,1.013502554985076,-0.19189453125,0.9775390625,-0.08251953125,44.059411764705885,282.4667501639523
-0.9183515625,-0.14935595703125,-0.4320141601562499,1.0258230982106136,-0.16650390625,0.48681640625,0.08984375,44.57705882352941,282.4667501639523
-0.91981640625,-0.14398486328125,-0.4266430664062499,1.024118239351938,-0.13232421875,0.0546875,0.21435546875,44.71823529411765,282.4667501639523
-0.9222578125,-0.14642626953125,-0.4095532226562499,1.0196734611208842,-0.138671875,-0.224609375,0.19482421875,44.20058823529412,282.4667501639523
-0.92372265625,-0.14300830078125,-0.3924633789062499,1.013776318299262,-0.11328125,-0.3076171875,0.2099609375,43.30647058823529,282.4667501639523
-0.94520703125,-0.14593798828125,-0.3822094726562499,1.0299506344170994,-0.08544921875,-0.14013671875,0.18896484375,44.059411764705885,282.30481192534893
-0.95887890625,-0.13763720703125,-0.3778149414062499,1.0397773259503054,-0.07080078125,0.1435546875,0.09326171875,44.20058823529412,282.30481192534893
-0.96962109375,-0.13177783203125,-0.3778149414062499,1.0489397467965502,-0.0830078125,0.4853515625,-0.08642578125,44.059411764705885,282.30481192534893
-0.95985546875,-0.13763720703125,-0.3680493164062499,1.0371725126302536,-0.06884765625,0.9404296875,-0.21533203125,44.20058823529412,282.30481192534893
-0.9408125,-0.14398486328125,-0.3763500976562499,1.023474082239623,-0.07373046875,1.46142578125,-0.2763671875,43.40058823529412,282.3158364337792
-0.93251171875,-0.14252001953125,-0.3817211914062499,1.0176448936352376,-0.11376953125,1.89453125,-0.333984375,44.20058823529412,282.3158364337792
-0.92128125,-0.14447314453125,-0.3953930664062499,1.0129004433084463,-0.14404296875,2.060546875,-0.39404296875,44.57705882352941,282.3158364337792
-0.91395703125,-0.13763720703125,-0.4212719726562499,1.0157418622250267,-0.13916015625,2.03173828125,-0.4375,44.20058823529412,282.3158364337792
-0.90126171875,-0.14203173828125,-0.4227368164062499,1.0055605980291238,-0.154296875,1.83935546875,-0.41748046875,43.54176470588236,282.3158364337792
-0.88856640625,-0.14349658203125,-0.4246899414062499,0.9952402090462058,-0.2255859375,1.609375,-0.22314453125,44.15352941176471,282.1542442576392
-0.8929609375,-0.14789111328125,-0.4315258789062499,1.002729076797047,-0.236328125,1.30859375,-0.07275390625,43.54176470588236,282.1542442576392
-0.90565625,-0.14154345703125,-0.4427563476562499,1.0179788685342746,-0.1982421875,0.95556640625,-0.033203125,44.059411764705885,282.1542442576392
-0.90565625,-0.14252001953125,-0.4305493164062499,1.0128661871092053,-0.13818359375,0.6767578125,-0.03662109375,43.96529411764706,282.1542442576392
-0.90175,-0.14544970703125,-0.4193188476562499,1.0050557077969569,-0.134765625,0.40576171875,0.11962890625,44.059411764705885,282.2186751805769
-0.9203046875,-0.14154345703125,-0.4276196289062499,1.0246237431802705,-0.138671875,0.3232421875,0.21630859375,44.71823529411765,282.2186751805769
-0.942765625,-0.14447314453125,-0.4295727539062499,1.0460460143181982,-0.1142578125,0.2880859375,0.15087890625,44.15352941176471,282.2186751805769
-0.94716015625,-0.14886767578125,-0.4129711914062499,1.0439440365323869,-0.041015625,0.2626953125,-0.05712890625,43.30647058823529,282.2186751805769
-0.92909375,-0.15765673828125,-0.4007641601562499,1.024052125372673,-0.01513671875,0.55615234375,-0.302734375,44.76529411764706,282.2186751805769
-0.92274609375,-0.14105517578125,-0.4036938476562499,1.017018013007179,0.01318359375,0.75244140625,-0.38427734375,43.30647058823529,282.33719917158294
-0.91786328125,-0.13324267578125,-0.4017407226562499,1.0107532943091158,-0.04345703125,1.19482421875,-0.31982421875,44.20058823529412,282.33719917158294
-0.92274609375,-0.14496142578125,-0.4061352539062499,1.0185381745231303,-0.25,1.38720703125,-0.27734375,43.30647058823529,282.33719917158294
-0.91883984375,-0.15228564453125,-0.4212719726562499,1.0222170273178346,-0.18017578125,1.53662109375,-0.23291015625,44.76529411764706,282.33719917158294
-0.8988203125,-0.16253955078125,-0.4163891601562499,1.0038311573299543,-0.20751953125,1.59033203125,-0.0830078125,44.20058823529412,282.2951615003306
-0.891984375,-0.16205126953125,-0.4188305664062499,0.998656989439823,-0.3251953125,1.56494140625,0.09814453125,44.71823529411765,282.2951615003306
-0.91102734375,-0.14740283203125,-0.4359204101562499,1.0206493129090946,-0.34765625,1.314453125,0.16650390625,44.76529411764706,282.2951615003306
-0.93544140625,-0.12591845703125,-0.4613110351562499,1.0505779140573246,-0.0771484375,1.15673828125,0.064453125,44.01235294117648,282.2951615003306
-0.946671875,-0.14935595703125,-0.4539868164062499,1.0604710605610217,-0.07275390625,0.72705078125,-0.19140625,44.29470588235294,282.2951615003306
-0.9261640625,-0.15863330078125,-0.4408032226562499,1.0379074505404584,-0.001953125,0.4677734375,-0.1796875,43.54176470588236,282.2844802971694
-0.9124921875,-0.16742236328125,-0.4339672851562499,1.0242069344429865,0.1220703125,0.44677734375,-0.0126953125,44.34176470588236,282.2844802971694
-0.90175,-0.15765673828125,-0.4285961914062499,1.0107934531413554,-0.0478515625,0.5458984375,0.1796875,44.059411764705885,282.2844802971694
-0.903703125,-0.14593798828125,-0.4251782226562499,1.0093333223368144,-0.07080078125,0.61279296875,0.21337890625,44.29470588235294,282.2844802971694
-0.911515625,-0.14203173828125,-0.4359204101562499,1.0203236512446074,-0.0947265625,0.66552734375,0.09716796875,44.71823529411765,282.2631179308889
-0.917375,-0.14300830078125,-0.4329907226562499,1.0244555776722202,-0.10302734375,0.70068359375,0.001953125,44.059411764705885,282.2631179308889
-0.9203046875,-0.15326220703125,-0.4354321289062499,1.0295878596906587,-0.07421875,0.73583984375,-0.07763671875,44.059411764705885,282.2631179308889
-0.92176953125,-0.15082080078125,-0.4359204101562499,1.0307437056222732,-0.04150390625,0.8408203125,-0.09326171875,44.15352941176471,282.2631179308889
-0.91883984375,-0.15472705078125,-0.4373852539062499,1.0293264686388972,-0.02490234375,0.919921875,-0.25,44.76529411764706,282.2631179308889
-0.91395703125,-0.14935595703125,-0.4383618164062499,1.0245905225772003,-0.0302734375,0.96923828125,-0.2099609375,44.20058823529412,282.43436211474204
-0.915421875,-0.15033251953125,-0.4398266601562499,1.0266667261781357,-0.001953125,0.9423828125,-0.24609375,44.48294117647059,282.43436211474204
-0.8988203125,-0.15179736328125,-0.4290844726562499,1.0074888973762588,-0.04052734375,0.9892578125,-0.24951171875,44.059411764705885,282.43436211474204
-0.8831953125,-0.15960986328125,-0.4271313476562499,0.9939569692040378,-0.11279296875,1.0595703125,0.00146484375,44.15352941176471,282.43436211474204
-0.89540234375,-0.15472705078125,-0.4378735351562499,1.0086719239805817,-0.1494140625,1.02978515625,0.26611328125,44.01235294117648,282.4129994936499
-0.91102734375,-0.14642626953125,-0.4495922851562499,1.0264232539946851,-0.14990234375,0.830078125,0.20556640625,44.059411764705885,282.4129994936499
-0.9163984375,-0.14447314453125,-0.4627758789062499,1.0367353084759103,-0.1201171875,0.66650390625,0.05810546875,44.71823529411765,282.4129994936499
-0.91298046875,-0.15277392578125,-0.4491040039062499,1.0288671513087633,-0.08984375,0.53515625,-0.02587890625,44.71823529411765,282.4129994936499
-0.91346875,-0.15960986328125,-0.4383618164062499,1.0257005156312484,-0.03466796875,0.4736328125,-0.02880859375,44.059411764705885,282.4129994936499
-0.90907421875,-0.16009814453125,-0.4383618164062499,1.0218651736708022,-0.03564453125,0.470703125,-0.00634765625,44.15352941176471,282.29550603223714
-0.915421875,-0.15619189453125,-0.4339672851562499,1.0250466924641348,-0.02880859375,0.474609375,-0.0126953125,43.54176470588236,282.29550603223714
-0.92567578125,-0.15082080078125,-0.4447094726562499,1.037973545429408,-0.025390625,0.49169921875,-0.07275390625,44.29470588235294,282.29550603223714
-0.93251171875,-0.15033251953125,-0.4359204101562499,1.0402906209446887,-0.044921875,0.51318359375,-0.0625,43.40058823529412,282.29550603223714
-0.9359296875,-0.15423876953125,-0.4359204101562499,1.0439255634197082,-0.08837890625,0.56103515625,-0.04150390625,44.76529411764706,282.1232300255234
-0.9359296875,-0.15619189453125,-0.4364086914062499,1.0444198551329942,-0.08837890625,0.64892578125,-0.046875,44.15352941176471,282.1232300255234
-0.927140625,-0.15619189453125,-0.4359204101562499,1.0363456230589507,-0.08837890625,0.70947265625,-0.00244140625,44.15352941176471,282.1232300255234
-0.91981640625,-0.15326220703125,-0.4422680664062499,1.0320622887565838,-0.09814453125,0.75537109375,0.02978515625,44.15352941176471,282.1232300255234
-0.90712109375,-0.15423876953125,-0.4364086914062499,1.0183863818254966,-0.10400390625,0.7998046875,0.04931640625,44.29470588235294,282.1232300255234
-0.911515625,-0.15423876953125,-0.4359204101562499,1.02209438734221,-0.11572265625,0.72119140625,0.03515625,44.29470588235294,282.0370930732865
-0.91346875,-0.15179736328125,-0.4461743164062499,1.027880886750156,-0.09619140625,0.61083984375,0.0029296875,44.059411764705885,282.0370930732865
-0.91688671875,-0.15277392578125,-0.4486157226562499,1.0321226642377088,-0.103515625,0.4892578125,-0.0263671875,44.059411764705885,282.0370930732865
-0.90809765625,-0.15570361328125,-0.4427563476562499,1.0222123809979424,-0.08984375,0.4052734375,0.08203125,44.76529411764706,282.0370930732865
-0.895890625,-0.15472705078125,-0.4481274414062499,1.0135969001272973,-0.11669921875,0.3642578125,0.26220703125,44.20058823529412,282.0911865613759
-0.91102734375,-0.15472705078125,-0.4461743164062499,1.0261495027159682,-0.1376953125,0.26611328125,0.330078125,44.29470588235294,282.0911865613759
-0.91981640625,-0.14642626953125,-0.4495922851562499,1.034232128918611,-0.1142578125,0.2490234375,0.2060546875,43.447647058823534,282.0911865613759
-0.9320234375,-0.15082080078125,-0.4461743164062499,1.0442634354501734,-0.09130859375,-0.0078125,0.11767578125,44.059411764705885,282.0911865613759
-0.93690625,-0.15960986328125,-0.4300610351562499,1.043178375784979,-0.08740234375,-0.0439453125,0.0810546875,43.447647058823534,282.0911865613759
-0.9320234375,-0.15716845703125,-0.4285961914062499,1.0378170875558193,-0.11328125,0.05712890625,0.07177734375,44.20058823529412,281.9723192467769
-0.92274609375,-0.15716845703125,-0.4237133789062499,1.0274703425795897,-0.11865234375,0.1259765625,0.0673828125,44.71823529411765,281.9723192467769
-0.9085859375,-0.15228564453125,-0.4163891601562499,1.0109892462576835,-0.13720703125,0.53759765625,0.0595703125,44.34176470588236,281.9723192467769
-0.90565625,-0.14691455078125,-0.4227368164062499,1.0101997546726145,-0.12890625,0.75830078125,0.0146484375,44.059411764705885,281.9723192467769
-0.9124921875,-0.14447314453125,-0.4320141601562499,1.0198777947944513,-0.154296875,0.84619140625,-0.0546875,44.76529411764706,282.1342553185766
-0.9203046875,-0.14447314453125,-0.4334790039062499,1.0274907562371425,-0.154296875,0.83447265625,-0.05517578125,44.059411764705885,282.1342553185766
-0.91688671875,-0.15228564453125,-0.4388500976562499,1.027843169342162,-0.1748046875,0.71435546875,0.01806640625,43.30647058823529,282.1342553185766
-0.90614453125,-0.15668017578125,-0.4432446289062499,1.0208390617777932,-0.1953125,0.6064453125,0.15576171875,43.447647058823534,282.1342553185766
-0.89735546875,-0.15716845703125,-0.4432446289062499,1.0131211981966202,-0.21630859375,0.5302734375,0.294921875,44.29470588235294,282.1342553185766
-0.89637890625,-0.14886767578125,-0.4368969726562499,1.0082339476424378,-0.2109375,0.35009765625,0.36376953125,43.40058823529412,282.1342553185766
-0.9144453125,-0.14398486328125,-0.4451977539062499,1.027201494591257,-0.17431640625,0.12744140625,0.306640625,44.059411764705885,282.1342553185766
-0.92469921875,-0.14496142578125,-0.4354321289062499,1.032319523696623,-0.2001953125,-0.09033203125,0.27392578125,44.15352941176471,282.1342553185766
-0.934953125,-0.15375048828125,-0.4329907226562499,1.0417569411817569,-0.17919921875,-0.25634765625,0.29736328125,43.40058823529412,282.1342553185766
-0.94520703125,-0.15521533203125,-0.4281079101562499,1.0491827838657866,-0.15625,-0.2275390625,0.25537109375,44.29470588235294,281.99368172518444
-0.93446484375,-0.14984423828125,-0.4139477539062499,1.032971724160361,-0.16259765625,-0.08642578125,0.19384765625,44.20058823529412,281.99368172518444
-0.9163984375,-0.15228564453125,-0.4027172851562499,1.0125009755779797,-0.115234375,0.171875,0.0029296875,44.76529411764706,281.99368172518444
-0.90419140625,-0.14007861328125,-0.3997875976562499,0.9985060041256169,-0.064453125,0.5166015625,-0.30859375,44.76529411764706,281.99368172518444
-0.9007734375,-0.11615283203125,-0.4066235351562499,0.9951014849940744,-0.0361328125,0.7255859375,-0.41650390625,43.58882352941177,281.99368172518444
-0.91346875,-0.14056689453125,-0.4207836914062499,1.015501415074441,-0.08740234375,0.8974609375,-0.35400390625,44.15352941176471,282.19903115247035
-0.92665234375,-0.16498095703125,-0.4276196289062499,1.033809377683446,-0.1708984375,0.9423828125,-0.13427734375,44.15352941176471,282.19903115247035
-0.923234375,-0.17523486328125,-0.4329907226562499,1.034673829956678,-0.201171875,0.85791015625,0.18701171875,44.059411764705885,282.19903115247035
-0.90565625,-0.16156298828125,-0.4368969726562499,1.0184276150334033,-0.2568359375,0.71435546875,0.451171875,44.29470588235294,282.19903115247035
-0.8968671875,-0.13666064453125,-0.4349438476562499,1.0060929551447422,-0.267578125,0.38720703125,0.5673828125,44.29470588235294,282.00539352298966
-0.9066328125,-0.11957080078125,-0.4422680664062499,1.0158155716781727,-0.232421875,-0.01220703125,0.4423828125,44.15352941176471,282.00539352298966
-0.9203046875,-0.12347705078125,-0.4305493164062499,1.0235135630571768,-0.20361328125,-0.32275390625,0.29052734375,44.20058823529412,282.00539352298966
-0.9300703125,-0.13470751953125,-0.5443188476562499,1.0860294240608483,-0.208984375,-0.43994140625,0.35009765625,44.76529411764706,282.00539352298966
-0.94471875,-0.14984423828125,-0.4076000976562499,1.039752206997915,-0.1884765625,-0.2890625,0.455078125,44.57705882352941,282.00539352298966
-0.9476484375,-0.14593798828125,-0.4066235351562499,1.041478831692097,-0.19775390625,-0.05322265625,0.486328125,44.059411764705885,282.3709639552887
-0.94130078125,-0.13177783203125,-0.4036938476562499,1.0326573877294565,-0.2255859375,0.23291015625,0.35205078125,44.48294117647059,282.3709639552887
-0.93544140625,-0.12787158203125,-0.4080883789062499,1.0285610779222023,-0.1953125,0.55859375,0.09228515625,44.57705882352941,282.3709639552887
-0.927140625,-0.13617236328125,-0.4012524414062499,1.0193802885976693,-0.1875,0.89306640625,-0.09912109375,44.059411764705885,282.3709639552887
-0.9242109375,-0.14105517578125,-0.4134594726562499,1.0222578711550685,-0.189453125,1.13037109375,-0.203125,44.76529411764706,282.01538727273726
-0.92372265625,-0.14496142578125,-0.4276196289062499,1.0281711470664832,-0.1630859375,1.189453125,-0.22509765625,44.20058823529412,282.01538727273726
-0.9222578125,-0.14642626953125,-0.4354321289062499,1.0303403631858516,-0.1591796875,1.03271484375,-0.19482421875,44.20058823529412,282.01538727273726
-0.91591015625,-0.15033251953125,-0.4359204101562499,1.0254354610317056,-0.1630859375,0.78076171875,-0.13427734375,44.29470588235294,282.01538727273726
-0.89930859375,-0.14496142578125,-0.4329907226562499,1.008588482813242,-0.17236328125,0.46240234375,-0.02099609375,44.059411764705885,282.01538727273726
-0.89149609375,-0.14740283203125,-0.4334790039062499,1.002196052122486,-0.15576171875,0.181640625,0.07861328125,44.059411764705885,282.4991384139129
-0.89344921875,-0.14447314453125,-0.4173657226562499,0.99665347158584,-0.18359375,-0.0732421875,0.20166015625,44.15352941176471,282.4991384139129
-0.89735546875,-0.15228564453125,-0.4168774414062499,1.001111660095542,-0.2119140625,-0.220703125,0.45166015625,44.29470588235294,282.4991384139129
-0.91883984375,-0.14740283203125,-0.4154125976562499,1.0190985622818192,-0.21044921875,-0.28271484375,0.52734375,44.059411764705885,282.4991384139129
-0.9398359375,-0.13470751953125,-0.4124829101562499,1.0351714140207575,-0.181640625,-0.42236328125,0.38037109375,44.76529411764706,281.9402756292998
-0.94911328125,-0.13080126953125,-0.4056469726562499,1.0404203281276796,-0.1123046875,-0.39111328125,0.15234375,43.54176470588236,281.9402756292998
-0.94032421875,-0.13617236328125,-0.3929516601562499,1.0281845924292736,-0.07763671875,-0.224609375,0.0322265625,44.20058823529412,281.9402756292998
-0.93690625,-0.14007861328125,-0.3875805664062499,1.0235399526367548,-0.08837890625,0.0986328125,0.03857421875,44.62411764705882,281.9402756292998
-0.94032421875,-0.14056689453125,-0.3822094726562499,1.0247208250026572,-0.12109375,0.4169921875,0.08154296875,44.76529411764706,281.9402756292998
-0.93544140625,-0.13470751953125,-0.3900219726562499,1.0224059269683017,-0.146484375,0.6328125,0.05859375,43.447647058823534,282.2197047745148
-0.94423046875,-0.13031298828125,-0.3939282226562499,1.031373888381777,-0.15380859375,0.7216796875,-0.01123046875,44.01235294117648,282.2197047745148
-0.9456953125,-0.13519580078125,-0.4027172851562499,1.0367250071243466,-0.13427734375,0.70849609375,-0.119140625,43.40058823529412,282.2197047745148
-0.94325390625,-0.13617236328125,-0.4007641601562499,1.0338678620806574,-0.12841796875,0.68896484375,-0.1455078125,44.34176470588236,282.2197047745148
-0.9300703125,-0.14544970703125,-0.3997875976562499,1.0227494936244552,-0.13037109375,0.6904296875,-0.10888671875,43.40058823529412,282.1232300255234
-0.915421875,-0.14105517578125,-0.3992993164062499,1.0086296227682854,-0.12109375,0.703125,-0.03271484375,43.447647058823534,282.1232300255234
-0.91102734375,-0.13812548828125,-0.4080883789062499,1.007762668772487,-0.119140625,0.70947265625,0.009765625,44.059411764705885,282.1232300255234
-0.91591015625,-0.12933642578125,-0.4095532226562499,1.0116091970439416,-0.11376953125,0.615234375,-0.0166015625,44.15352941176471,282.1232300255234
-0.92860546875,-0.13031298828125,-0.4159008789062499,1.0257987778225257,-0.1171875,0.54443359375,-0.01611328125,44.57705882352941,282.1232300255234
-0.9251875,-0.13861376953125,-0.4134594726562499,1.0228071288317735,-0.1318359375,0.4755859375,0.01611328125,43.40058823529412,282.31721321012674
-0.9203046875,-0.14154345703125,-0.4105297851562499,1.0176099314389904,-0.14404296875,0.4443359375,0.0869140625,44.76529411764706,282.31721321012674
-0.91981640625,-0.14056689453125,-0.4100415039062499,1.0168359297204854,-0.1669921875,0.40625,0.150390625,44.29470588235294,282.31721321012674
-0.92079296875,-0.13763720703125,-0.4051586914062499,1.0153606537978646,-0.15869140625,0.38916015625,0.126953125,43.30647058823529,282.31721321012674
-0.92762890625,-0.13519580078125,-0.4115063476562499,1.0237728099636372,-0.1572265625,0.38037109375,0.07666015625,44.059411764705885,281.9619813408765
-0.9242109375,-0.13226611328125,-0.4056469726562499,1.0179438334909927,-0.14599609375,0.37255859375,0.05517578125,44.62411764705882,281.9619813408765
-0.9242109375,-0.13128955078125,-0.4095532226562499,1.0193805203784754,-0.13134765625,0.404296875,0.04541015625,44.71823529411765,281.9619813408765
-0.92469921875,-0.13763720703125,-0.4012524414062499,1.0173574434045782,-0.14306640625,0.42626953125,0.05126953125,44.76529411764706,281.9619813408765
-0.92128125,-0.13470751953125,-0.3973461914062499,1.012318750811659,-0.15087890625,0.50732421875,0.0810546875,44.20058823529412,281.9619813408765
-0.9251875,-0.13617236328125,-0.3968579101562499,1.0158794335606154,-0.1591796875,0.55224609375,0.0654296875,44.15352941176471,282.23141937053515
-0.92762890625,-0.13275439453125,-0.3983227539062499,1.0182240093699368,-0.1484375,0.58740234375,0.07861328125,44.20058823529412,282.23141937053515
-0.92909375,-0.13519580078125,-0.3929516601562499,1.0177937453420998,-0.14013671875,0.60498046875,0.0283203125,44.01235294117648,282.23141937053515
-0.92665234375,-0.13519580078125,-0.3934399414062499,1.015754625005471,-0.15283203125,0.66064453125,0.02685546875,44.76529411764706,282.23141937053515
-0.92469921875,-0.14154345703125,-0.3919750976562499,1.0142719914144551,-0.150390625,0.6923828125,0.01318359375,43.447647058823534,282.3819904554701
-0.92469921875,-0.13226611328125,-0.4027172851562499,1.0172237618356197,-0.142578125,0.7509765625,-0.0107421875,44.059411764705885,282.3819904554701
-1.04774609375,-0.13910205078125,-0.3983227539062499,1.1295053225989653,-0.146484375,0.77197265625,-0.02587890625,44.76529411764706,282.3819904554701
-0.92860546875,-0.14007861328125,-0.4036938476562499,1.0222029432195512,-0.1357421875,0.822265625,-0.05029296875,43.447647058823534,282.3819904554701
-0.92860546875,-0.13959033203125,-0.4071118164062499,1.023490893191824,-0.13623046875,0.81884765625,-0.05224609375,43.73,282.3819904554701
-0.92762890625,-0.14154345703125,-0.4066235351562499,1.0226791467913554,-0.14111328125,0.80615234375,-0.0185546875,44.059411764705885,282.32789433433567
-0.9242109375,-0.14056689453125,-0.4085766601562499,1.0202253653273008,-0.16015625,0.7734375,-0.01513671875,44.71823529411765,282.32789433433567
-0.91981640625,-0.14007861328125,-0.4017407226562499,1.0134494794245192,-0.12353515625,0.71728515625,0.001953125,44.76529411764706,282.32789433433567
-0.9242109375,-0.14007861328125,-0.4124829101562499,1.0217289396236149,-0.14404296875,0.64453125,-0.0390625,44.62411764705882,282.32789433433567
-0.91883984375,-0.13812548828125,-0.4051586914062499,1.0136561913180837,-0.1220703125,0.61181640625,-0.06005859375,43.87117647058824,282.2961964089056
-0.91493359375,-0.13910205078125,-0.4007641601562499,1.0084962932849997,-0.10791015625,0.65576171875,-0.0263671875,44.20058823529412,282.2961964089056
-0.917375,-0.13763720703125,-0.4056469726562499,1.012457583214993,-0.0966796875,0.701171875,0.0244140625,44.62411764705882,282.2961964089056
-0.91981640625,-0.13324267578125,-0.3992993164062499,1.011561058927493,-0.11181640625,0.72900390625,0.00927734375,43.58882352941177,282.2961964089056
-0.9183515625,-0.13519580078125,-0.3988110351562499,1.0102958668912163,-0.10693359375,0.72216796875,-0.04052734375,44.76529411764706,282.2961964089056
-0.9242109375,-0.14252001953125,-0.4080883789062499,1.020300905596064,-0.08837890625,0.677734375,-0.09326171875,44.29470588235294,282.156306900539
-0.91981640625,-0.13714892578125,-0.4007641601562499,1.0126618197183896,-0.09423828125,0.65478515625,-0.0859375,44.76529411764706,282.156306900539
-0.91883984375,-0.14300830078125,-0.4046704101562499,1.0141381431594476,-0.09423828125,0.6533203125,-0.00390625,44.20058823529412,282.156306900539
-0.919328125,-0.13666064453125,-0.4066235351562499,1.0144865856790213,-0.10595703125,0.6484375,0.00732421875,43.58882352941177,282.156306900539
-0.923234375,-0.13275439453125,-0.4168774414062499,1.021651722262739,-0.10595703125,0.62255859375,-0.0068359375,44.29470588235294,282.4894927695144
-0.9183515625,-0.13519580078125,-0.4071118164062499,1.0136012667477636,-0.12060546875,0.58203125,0.06591796875,44.059411764705885,282.4894927695144
-0.92860546875,-0.13812548828125,-0.4144360351562499,1.026228042075139,-0.1513671875,0.580078125,0.13232421875,44.20058823529412,282.4894927695144
-0.93348828125,-0.14300830078125,-0.4115063476562499,1.0301403882407514,-0.0986328125,0.4638671875,0.02685546875,44.15352941176471,282.4894927695144
-0.9359296875,-0.14105517578125,-0.4022290039062499,1.0284206892813568,-0.04052734375,0.4033203125,-0.306640625,44.01235294117648,282.4894927695144
-0.90712109375,-0.14252001953125,-0.3890454101562499,0.997264742110654,-0.009765625,0.61181640625,-0.4755859375,44.76529411764706,282.3620146520784
-0.91883984375,-0.14447314453125,-0.3934399414062499,1.0099178854971451,0.00390625,0.84375,-0.44482421875,43.96529411764706,282.3620146520784
-0.93055859375,-0.14252001953125,-0.4036938476562499,1.0243143926571925,-0.0517578125,0.85302734375,-0.30322265625,44.29470588235294,282.3620146520784
-0.92958203125,-0.13812548828125,-0.4207836914062499,1.0296894280749318,-0.037109375,0.8056640625,-0.1689453125,44.76529411764706,282.3620146520784
-0.9251875,-0.15082080078125,-0.4222485351562499,1.028111204853904,-0.05126953125,0.71337890625,-0.13525390625,44.01235294117648,282.2531267452445
-0.91786328125,-0.16107470703125,-0.4115063476562499,1.0187028705533356,-0.0908203125,0.748046875,-0.0185546875,43.54176470588236,282.2531267452445
-0.8988203125,-0.15082080078125,-0.4007641601562499,0.9956087485436432,-0.14453125,0.61376953125,0.18505859375,44.059411764705885,282.2531267452445
-0.90907421875,-0.13861376953125,-0.3988110351562499,1.002337245672326,-0.171875,0.4716796875,0.28466796875,44.059411764705885,282.2531267452445
-0.933,-0.12445361328125,-0.4183422851562499,1.0300427027111605,-0.1455078125,0.36572265625,0.2607421875,44.059411764705885,282.2531267452445
-0.95594921875,-0.12982470703125,-0.4168774414062499,1.0509425124800629,-0.10888671875,0.26025390625,0.095703125,44.29470588235294,281.9626692802375
-0.9515546875,-0.13324267578125,-0.4041821289062499,1.0423881845453538,-0.08154296875,0.2919921875,0.0263671875,44.76529411764706,281.9626692802375
-0.9437421875,-0.14593798828125,-0.4027172851562499,1.0364016714838336,-0.06689453125,0.49755859375,0.03076171875,44.01235294117648,281.9626692802375
-0.9300703125,-0.14203173828125,-0.3958813476562499,1.0207476878715769,-0.0615234375,0.732421875,-0.025390625,44.76529411764706,281.9626692802375
-0.92079296875,-0.13666064453125,-0.4017407226562499,1.013869533669644,-0.083984375,0.921875,-0.1357421875,44.20058823529412,282.26380778934526
-0.9183515625,-0.13910205078125,-0.3997875976562499,1.0112116969841165,-0.0859375,1.06201171875,-0.2666015625,44.15352941176471,282.26380778934526
-0.91981640625,-0.14789111328125,-0.4105297851562499,1.0180710717305888,-0.08349609375,1.0888671875,-0.265625,44.059411764705885,282.26380778934526
-0.79969921875,-0.15375048828125,-0.4061352539062499,0.9100021415258194,-0.12255859375,1.06103515625,-0.1552734375,44.15352941176471,282.26380778934526
-0.931046875,-0.15716845703125,-0.4212719726562499,1.0339343703923076,-0.15234375,0.9404296875,-0.056640625,44.76529411764706,282.26380778934526
-0.93837109375,-0.15570361328125,-0.5452954101562499,1.0964173517013862,-0.13720703125,0.87158203125,-0.09619140625,44.76529411764706,282.20971224883203
-0.93446484375,-0.15521533203125,-0.4115063476562499,1.0327893384730835,-0.0966796875,0.59033203125,-0.1416015625,44.20058823529412,282.20971224883203
-0.927140625,-0.15423876953125,-0.4046704101562499,1.0232973553214786,-0.0947265625,0.60546875,-0.11181640625,44.76529411764706,282.20971224883203
-0.91005078125,-0.16058642578125,-0.3968579101562499,1.005721942413766,-0.1142578125,0.76611328125,-0.1494140625,43.447647058823534,282.20971224883203
-0.90175,-0.16546923828125,-0.3870922851562499,0.9951751446578962,-0.24951171875,1.02099609375,-0.1171875,44.76529411764706,282.2855153842552
-0.90614453125,-0.15179736328125,-0.3973461914062499,1.00101166168955,-0.15966796875,1.28173828125,-0.134765625,44.29470588235294,282.2855153842552
-0.9066328125,-0.14447314453125,-0.4090649414062499,1.0050819232680024,-0.1669921875,1.4990234375,-0.2216796875,44.29470588235294,282.2855153842552
-0.891984375,-0.14691455078125,-0.4066235351562499,0.9912430124940924,-0.1533203125,1.423828125,-0.29638671875,43.96529411764706,282.2855153842552
-0.8734296875,-0.13519580078125,-0.4305493164062499,0.98312259531206,-0.0546875,1.51953125,-0.228515625,44.20058823529412,282.2855153842552
-0.87587109375,-0.14837939453125,-0.4193188476562499,0.9823415463004948,0.0537109375,1.3896484375,-0.30859375,44.62411764705882,282.394057153889
-0.89833203125,-0.13568408203125,-0.4359204101562499,1.0076890455280376,0.01025390625,1.18212890625,-0.2978515625,44.76529411764706,282.394057153889
-0.9144453125,-0.13812548828125,-0.4398266601562499,1.0240783031830905,0.02587890625,0.9013671875,-0.25341796875,44.20058823529412,282.394057153889
-0.93055859375,-0.14056689453125,-0.4525219726562499,1.0442578627795154,0.001953125,0.64111328125,-0.15673828125,43.30647058823529,282.394057153889
-0.9359296875,-0.14447314453125,-0.4495922851562499,1.0483177439624944,-0.013671875,0.43701171875,-0.02001953125,43.447647058823534,282.2758735771226
-0.93544140625,-0.14691455078125,-0.4408032226562499,1.0444816852689998,-0.07373046875,0.3291015625,0.0615234375,44.059411764705885,282.2758735771226
-0.92469921875,-0.15082080078125,-0.4315258789062499,1.0315183678786188,-0.0830078125,0.36962890625,0.09619140625,44.57705882352941,282.2758735771226
-0.923234375,-0.14642626953125,-0.4251782226562499,1.0269269129843694,-0.07861328125,0.49951171875,0.10302734375,44.71823529411765,282.2758735771226
-0.92762890625,-0.14349658203125,-0.4212719726562499,1.028861862307526,-0.10595703125,0.6650390625,0.0400390625,44.20058823529412,282.2758735771226
-0.93251171875,-0.14837939453125,-0.4212719726562499,1.0339558139849243,-0.0625,0.7880859375,-0.01806640625,44.15352941176471,282.2748343729553
-0.91883984375,-0.15326220703125,-0.5418774414062499,1.0776767252156827,-0.03759765625,0.98388671875,-0.10400390625,43.40058823529412,282.2748343729553
-0.91102734375,-0.15082080078125,-0.4202954101562499,1.0145767426897232,-0.037109375,1.14013671875,-0.11767578125,44.059411764705885,282.2748343729553
-0.9105390625,-0.14789111328125,-0.4198071289062499,1.0135044110443996,-0.04736328125,1.26318359375,-0.11767578125,44.059411764705885,282.2748343729553
-0.91200390625,-0.14593798828125,-0.4300610351562499,1.0188235938564154,-0.0439453125,1.25732421875,-0.11767578125,44.15352941176471,281.8882474120392
-0.90028515625,-0.14593798828125,-0.4403149414062499,1.0127628086641287,-0.05029296875,1.09619140625,-0.083984375,44.15352941176471,281.8882474120392
-0.9095625,-0.15375048828125,-0.4412915039062499,1.0225856176735582,-0.08740234375,0.8955078125,-0.02783203125,44.15352941176471,281.8882474120392
-0.9105390625,-0.15521533203125,-0.4329907226562499,1.020124575501606,-0.08544921875,0.8603515625,0.09716796875,44.01235294117648,281.8882474120392
-0.915421875,-0.15179736328125,-0.4349438476562499,1.0248003704827973,-0.09912109375,0.8134765625,0.1640625,44.34176470588236,281.8882474120392
-0.927140625,-0.15228564453125,-0.4408032226562499,1.037828568290459,-0.0712890625,0.76513671875,0.03955078125,43.54176470588236,282.38268250579324
-0.93446484375,-0.15472705078125,-0.4422680664062499,1.0453545078158408,-0.0380859375,0.6328125,-0.13623046875,44.29470588235294,282.38268250579324
-0.92665234375,-0.16156298828125,-0.4310375976562499,1.0346886372010695,-0.009765625,0.59765625,-0.23779296875,44.059411764705885,282.38268250579324
-0.9085859375,-0.16693408203125,-0.2967602539062499,0.9702896690498524,0.12451171875,0.73486328125,-0.16650390625,43.40058823529412,282.38268250579324
-0.89784375,-0.16449267578125,-0.4246899414062499,1.0067486211221657,-0.03076171875,0.91845703125,-0.0576171875,43.447647058823534,281.8551704784465
-0.90028515625,-0.16058642578125,-0.4266430664062499,1.009121235938384,-0.04833984375,1.060546875,-0.02099609375,44.15352941176471,281.8551704784465
-0.90712109375,-0.15033251953125,-0.4359204101562499,1.0175928208992058,-0.03857421875,1.09033203125,-0.0908203125,44.059411764705885,281.8551704784465
-0.9105390625,-0.15033251953125,-0.4398266601562499,1.0223153827225695,-0.05712890625,1.04052734375,-0.15673828125,44.15352941176471,281.8551704784465
-0.91102734375,-0.15912158203125,-0.4373852539062499,1.0230329218861645,-0.0830078125,1.06103515625,-0.142578125,44.15352941176471,281.8551704784465
-0.9095625,-0.16595751953125,-0.4412915039062499,1.0244920844570031,-0.0966796875,1.09033203125,-0.06640625,43.30647058823529,282.19937621991903
-0.8988203125,-0.16644580078125,-0.4398266601562499,1.0144109866047937,-0.12255859375,1.11572265625,0.0693359375,43.30647058823529,282.19937621991903
-0.8968671875,-0.16107470703125,-0.4471508789062499,1.0150171041741094,-0.13037109375,1.09765625,0.1689453125,44.34176470588236,282.19937621991903
-0.9085859375,-0.15716845703125,-0.4539868164062499,1.027781279834878,-0.119140625,0.98095703125,0.12939453125,44.76529411764706,282.19937621991903
-0.9144453125,-0.15228564453125,-0.4598461914062499,1.0348234954978337,-0.1044921875,0.75634765625,0.0419921875,43.30647058823529,282.3392662477668
-0.92274609375,-0.15960986328125,-0.4666821289062499,1.0462924406818646,-0.05224609375,0.59619140625,0.00244140625,44.15352941176471,282.3392662477668
-0.93544140625,-0.16693408203125,-0.4530102539062499,1.0526803419912425,-0.04345703125,0.49267578125,-0.03857421875,44.15352941176471,282.3392662477668
-0.9085859375,-0.16839892578125,-0.4403149414062499,1.0236033663742137,-0.0166015625,0.46533203125,-0.1005859375,43.30647058823529,282.3392662477668
-0.886125,-0.16644580078125,-0.4320141601562499,0.9997789529682156,0.0126953125,0.6435546875,-0.18896484375,44.34176470588236,282.3392662477668
-0.87587109375,-0.13910205078125,-0.4251782226562499,0.9835019442886214,0.0556640625,0.72412109375,-0.2685546875,44.15352941176471,282.4581425179703
-0.89003125,-0.14105517578125,-0.4354321289062499,1.0008263223332363,0.05078125,0.78125,-0.29541015625,44.34176470588236,282.4581425179703
-0.90712109375,-0.15179736328125,-0.4432446289062499,1.020968618165894,0.0068359375,0.8134765625,-0.291015625,44.29470588235294,282.4581425179703
-0.907609375,-0.17279345703125,-0.4447094726562499,1.0253676762268749,-0.072265625,0.87646484375,-0.11279296875,44.059411764705885,282.4581425179703
-0.90223828125,-0.18158251953125,-0.4412915039062499,1.0206587671558554,-0.14794921875,0.94189453125,0.16650390625,44.15352941176471,282.13529027915183
-0.895890625,-0.17377001953125,-0.4491040039062499,1.0171088624013689,-0.22021484375,1.00927734375,0.4443359375,44.059411764705885,282.13529027915183
-0.90516796875,-0.14642626953125,-0.4647290039062499,1.0279799371250076,-0.23193359375,0.89794921875,0.501953125,44.20058823529412,282.13529027915183
-0.91981640625,-0.13568408203125,-0.4749829101562499,1.0440695169689749,-0.208984375,0.5673828125,0.33740234375,44.20058823529412,282.13529027915183
-0.93055859375,-0.14007861328125,-0.4701000976562499,1.0519293779133614,-0.1572265625,0.2353515625,0.12109375,44.059411764705885,282.13529027915183
-0.92860546875,-0.15863330078125,-0.4583813476562499,1.0476574347506544,-0.10400390625,0.00439453125,0.08935546875,44.20058823529412,282.5336032687321
-0.9251875,-0.16839892578125,-0.4442211914062499,1.040030083822058,-0.103515625,-0.06201171875,0.208984375,44.15352941176471,282.5336032687321
-0.91493359375,-0.16156298828125,-0.4310375976562499,1.0242067617175394,-0.1298828125,-0.00244140625,0.3251953125,44.48294117647059,282.5336032687321
-0.9105390625,-0.14740283203125,-0.4320141601562499,1.0185505455325827,-0.00048828125,0.0009765625,0.3232421875,44.059411764705885,282.5336032687321
-0.907609375,-0.14105517578125,-0.4232250976562499,1.011321325538383,-0.134765625,0.2705078125,0.19677734375,44.34176470588236,282.3079161155415
-0.90907421875,-0.14496142578125,-0.4217602539062499,1.012576644968429,-0.11865234375,0.49462890625,0.0322265625,44.76529411764706,282.3079161155415
-0.91688671875,-0.15130908203125,-0.4276196289062499,1.0229536843626892,-0.00048828125,0.7607421875,-0.021484375,44.059411764705885,282.3079161155415
-0.927140625,-0.15814501953125,-0.4393383789062499,1.0380837138246133,-0.09716796875,0.9658203125,-0.0859375,43.40058823529412,282.3079161155415
-0.9251875,-0.16205126953125,-0.4398266601562499,1.0371499482221176,-0.07470703125,1.16748046875,-0.10302734375,44.76529411764706,282.3079161155415
-0.91883984375,-0.15960986328125,-0.4500805664062499,1.0355261866199978,-0.095703125,1.125,-0.13427734375,43.54176470588236,282.25416499357806
-0.91298046875,-0.16156298828125,-0.4598461914062499,1.0349369329829574,-0.0771484375,1.21826171875,-0.15576171875,44.20058823529412,282.25416499357806
-0.8929609375,-0.16107470703125,-0.4510571289062499,1.0132999707308945,-0.07861328125,1.08544921875,-0.11083984375,43.54176470588236,282.25416499357806
-0.85731640625,-0.16302783203125,-0.4437329101562499,0.9790139886630626,-0.15283203125,0.9189453125,0.18408203125,44.01235294117648,282.25416499357806
-0.86219921875,-0.17084033203125,-0.4554516601562499,0.9899546083537076,-0.19921875,0.73095703125,0.4677734375,44.059411764705885,282.1135828622165
-0.891984375,-0.14984423828125,-0.4691235351562499,1.018904466683568,-0.2109375,0.35595703125,0.45947265625,43.96529411764706,282.1135828622165
-0.91102734375,-0.14837939453125,-0.4686352539062499,1.0351841705635845,-0.1826171875,-0.08935546875,0.30029296875,44.15352941176471,282.1135828622165
-0.91786328125,-0.15472705078125,-0.4666821289062499,1.0412519737080694,-0.13623046875,-0.361328125,0.373046875,43.30647058823529,282.1135828622165
-0.91346875,-0.16742236328125,-0.4427563476562499,1.0288287458771472,-0.12744140625,-0.38427734375,0.333984375,43.54176470588236,282.1135828622165
-0.9203046875,-0.16156298828125,-0.4383618164062499,1.0320970880202245,-0.12158203125,-0.3134765625,0.404296875,44.20058823529412,282.0171089156013
-0.9320234375,-0.14984423828125,-0.4344555664062499,1.0391691984353555,-0.1123046875,-0.2265625,0.2822265625,43.447647058823534,282.0171089156013
-0.93739453125,-0.14300830078125,-0.4285961914062499,1.0406029870213187,-0.09912109375,-0.06005859375,0.12841796875,44.059411764705885,282.0171089156013
-0.946671875,-0.15082080078125,-0.4334790039062499,1.052063971292558,-0.1083984375,0.2001953125,0.04443359375,44.76529411764706,282.0171089156013
-0.9496015625,-0.15716845703125,-0.4251782226562499,1.0522459657366965,-0.1328125,0.48388671875,0.04345703125,44.059411764705885,282.38268250579324
-0.94813671875,-0.15960986328125,-0.4212719726562499,1.0497183531044716,-0.14892578125,0.71435546875,0.06689453125,43.40058823529412,282.38268250579324
-0.93934765625,-0.15765673828125,-0.4359204101562499,1.0475000097463696,-0.154296875,0.8798828125,0.01806640625,44.76529411764706,282.38268250579324
-0.927140625,-0.14642626953125,-0.4373852539062499,1.0355366972101296,-0.15771484375,0.921875,-0.05322265625,44.62411764705882,282.38268250579324
-0.90516796875,-0.14837939453125,-0.4349438476562499,1.0151461210025308,-0.1650390625,0.91015625,-0.03759765625,44.01235294117648,282.38268250579324
-0.90223828125,-0.15033251953125,-0.4456860351562499,1.017482100341262,-0.1494140625,0.82373046875,-0.02978515625,44.34176470588236,282.3833763066032
-0.9007734375,-0.14789111328125,-0.4427563476562499,1.0145431240134823,-0.169921875,0.6923828125,0.01708984375,44.059411764705885,282.3833763066032
