AccX,AccY,AccZ,Magnitude,GyroX,GyroY,GyroZ,Temperature,Altitude
-0.356828125,0.09429638671875,0.94103271484375,1.0108217893107698,-0.22119140625,0.39013671875,-0.2998046875,42.31823529411765,283.6951716489319
-0.35341015625,0.08160107421875,0.97130615234375,1.036818747629075,-0.294921875,0.42822265625,-0.31982421875,42.45941176470589,283.6951716489319
-0.3402265625,0.07818310546875,0.95861083984375,1.0201967722342802,-0.404296875,0.419921875,-0.2353515625,42.45941176470589,283.6951716489319
-0.3324140625,0.10503857421875,0.93517333984375,0.9980387700766818,-0.447265625,0.44384765625,-0.12548828125,42.31823529411765,283.6951716489319
-0.3460859375,0.10406201171875,0.8970874023437501,0.9671453799000772,-0.38037109375,0.447265625,0.0390625,42.45941176470589,283.6951716489319
-0.35096875,0.11431591796875,0.90636474609375,0.9786440852215827,-0.22802734375,0.525390625,0.1923828125,42.45941176470589,283.6951716489319
-0.33876171875,0.10308544921875,0.92540771484375,0.9908408301152194,-0.1982421875,0.4296875,0.3369140625,41.84764705882353,283.92037398738347
-0.3382734375,0.10357373046875,0.92443115234375,0.9898128063350532,-0.20751953125,0.32470703125,0.4130859375,41.84764705882353,283.92037398738347
-0.33534375,0.10601513671875,0.92687255859375,0.9913563333896054,-0.16748046875,0.3037109375,0.41162109375,41.84764705882353,283.92037398738347
-0.3167890625,0.10210888671875,0.93761474609375,0.9949386649231292,-0.17724609375,0.25439453125,0.44287109375,42.31823529411765,283.92037398738347
-0.309953125,0.10064404296875,0.93419677734375,0.9894057721085971,-0.20556640625,0.1044921875,0.513671875,42.31823529411765,283.5235041212378
-0.28895703125,0.10015576171875,0.93712646484375,0.9857653643868914,-0.2763671875,-0.15185546875,0.55419921875,42.45941176470589,283.5235041212378
-0.28700390625,0.09820263671875,0.95763427734375,1.0045289489133502,-0.3603515625,-0.34326171875,0.5244140625,42.27117647058824,283.5235041212378
-0.290421875,0.09966748046875,0.93370849609375,0.9828987881868392,-0.5166015625,-0.37158203125,0.61474609375,42.31823529411765,283.5235041212378
-0.325578125,-0.01410205078125,0.93761474609375,0.992633565525164,-0.39013671875,0.16650390625,0.4736328125,42.31823529411765,283.5235041212378
-0.3304609375,0.10650341796875,0.93614990234375,0.9984608399484768,-0.2958984375,0.61865234375,0.3896484375,42.45941176470589,283.491338021309
-0.32753125,0.10015576171875,0.93859130859375,0.9991303923411368,-0.30615234375,0.8359375,0.39697265625,41.84764705882353,283.491338021309
-0.3314375,0.10845654296875,0.92198974609375,0.9857376578081006,-0.2578125,0.83642578125,0.36376953125,42.506470588235295,283.491338021309
-0.3206953125,0.10259716796875,0.91515380859375,0.9751298148033044,-0.25390625,0.60693359375,0.26611328125,41.89470588235295,283.491338021309
-0.32118359375,0.09869091796875,0.91417724609375,0.9739706543111206,-0.2568359375,0.47509765625,0.2568359375,42.41235294117647,283.716604638294
-0.32411328125,0.10894482421875,0.93956787109375,0.9998530783061768,-0.32470703125,0.52294921875,0.431640625,42.31823529411765,283.716604638294
-0.32753125,0.11236279296875,0.94689208984375,1.0082195925387312,-0.3427734375,0.79736328125,0.6279296875,43.07117647058824,283.716604638294
-0.33876171875,0.11724560546875,0.94982177734375,1.015217928726945,-0.31005859375,0.912109375,0.37841796875,42.45941176470589,283.716604638294
-0.3148359375,0.11919873046875,0.93956787109375,0.9980570070284098,-0.29931640625,0.88232421875,0.201171875,42.41235294117647,283.716604638294
-0.29628125,0.12212841796875,0.94249755859375,0.9954896169886914,-0.259765625,0.6904296875,0.19677734375,41.84764705882353,283.56633685266075
-0.2757734375,0.12212841796875,0.93566162109375,0.9830712123208064,-0.27587890625,0.47216796875,0.25341796875,42.41235294117647,283.56633685266075
-0.278703125,0.12701123046875,0.95909912109375,1.0068159755549946,-0.30419921875,0.41748046875,0.25439453125,42.31823529411765,283.56633685266075
-0.2777265625,0.12798779296875,0.97032958984375,1.0173752658647732,-0.48779296875,0.34130859375,0.35205078125,42.45941176470589,283.56633685266075
-0.32216015625,0.13189404296875,0.95275146484375,1.0143562286532175,-0.41845703125,0.83544921875,0.4365234375,42.41235294117647,283.42697172869225
-0.323625,0.12359326171875,0.94298583984375,1.004604762637079,-0.43798828125,1.31103515625,0.365234375,42.31823529411765,283.42697172869225
-0.313859375,0.10845654296875,0.92394287109375,0.9818049490775064,-0.51708984375,1.48681640625,0.35986328125,42.224117647058826,283.42697172869225
-0.3206953125,0.10455029296875,0.9005053710937501,0.961606037100442,-0.45556640625,1.5078125,0.25732421875,42.506470588235295,283.42697172869225
-0.30946484375,0.09136669921875,0.91466552734375,0.9699120527936343,-0.40576171875,1.41357421875,0.1513671875,42.506470588235295,283.42697172869225
-0.29969921875,0.08306591796875,0.8985522460937501,0.9508499920636664,-0.41259765625,1.20703125,0.130859375,42.41235294117647,283.5128049772788
-0.29628125,0.05621044921875,0.96935302734375,1.0151785484945144,-0.49072265625,0.7998046875,0.0009765625,42.41235294117647,283.5128049772788
-0.286515625,0.07720654296875,0.8902514648437501,0.9384027516491886,-0.97900390625,0.27978515625,0.42822265625,42.31823529411765,283.5128049772788
-0.34755078125,0.10357373046875,0.8536303710937501,0.927471764338059,-0.42138671875,0.91162109375,0.2685546875,42.45941176470589,283.5128049772788
-0.317765625,0.07330029296875,0.8878100585937501,0.945808979403972,-0.39501953125,0.54345703125,-0.1005859375,43.25941176470588,283.2875063557453
-0.27675,0.01421826171875,0.8975756835937501,0.939380023869515,-0.73779296875,-0.53955078125,0.0166015625,42.31823529411765,283.2875063557453
-0.30458203125,0.08013623046875,0.8736499023437501,0.9286851894260836,-0.8916015625,-1.1083984375,0.2724609375,42.45941176470589,283.2875063557453
-0.309953125,0.07427685546875,0.90880615234375,0.963076639470319,-0.8896484375,-0.52099609375,0.05029296875,42.41235294117647,283.2875063557453
-0.29872265625,0.08355419921875,0.8594897460937501,0.9137500496330718,-0.8623046875,0.81689453125,0.07080078125,42.506470588235295,283.2875063557453
-0.2777265625,0.09527294921875,0.7813647460937501,0.8347094373547332,-0.82763671875,1.478515625,-0.14306640625,42.45941176470589,283.4377051793587
-0.192765625,0.10259716796875,0.7061694335937501,0.7391617103171445,-0.68212890625,1.51953125,-0.197265625,42.41235294117647,283.4377051793587
-0.13466015625,0.19390576171875,0.36925537109375,0.4382719831230216,0.8193359375,1.498046875,-0.17236328125,42.45941176470589,283.4377051793587
0.0328203125,0.10503857421875,0.42980224609375,0.4436668183825989,1.7763671875,0.236328125,0.50048828125,42.506470588235295,283.4377051793587
0.10069140625,0.08941357421875,0.42540771484375,0.4462121360919667,1.7587890625,0.21142578125,0.61376953125,42.97705882352941,283.7809051178163
0.0152421874999999,0.05230419921875,0.38732177734375,0.3911345200061244,2.451171875,2.93115234375,0.517578125,41.84764705882353,283.7809051178163
-0.0501875,-0.00335986328125,0.27843505859375,0.2829419652360245,2.681640625,6.34423828125,0.14404296875,41.84764705882353,283.7809051178163
-0.1273359375,-0.01996142578125,-0.1068188476562499,0.1674012118021652,3.5869140625,8.55224609375,-0.0146484375,42.224117647058826,283.7809051178163
-0.23622265625,-0.01996142578125,-0.3275219726562499,0.4043145364906725,4.078125,9.75,-0.0126953125,42.41235294117647,283.7809051178163
-0.36122265625,0.03130810546875,-0.7078930664062499,0.7953455842100284,4.1396484375,11.3349609375,1.3271484375,42.224117647058826,283.9203091674001
-0.3343671875,-0.06244189453125,-1.06140869140625,1.1145801076916992,2.6923828125,11.52587890625,0.3359375,42.41235294117647,283.9203091674001
0.1841875,0.07330029296875,-1.34607666015625,1.360595583971578,0.5146484375,9.1591796875,0.6611328125,41.89470588235295,283.9203091674001
0.56309375,-0.17523486328125,-1.01551025390625,1.174326574844918,-1.4951171875,6.54150390625,-0.8251953125,42.31823529411765,283.9203091674001
1.0279375,-0.19037158203125,-0.7381665039062499,1.2797603801651725,-2.88134765625,0.203125,-1.75244140625,43.25941176470588,283.7272382440452
1.0855546875,-0.16498095703125,-0.5863110351562499,1.244752314993695,-2.63720703125,-8.24658203125,-2.1474609375,42.41235294117647,283.7272382440452
0.9117265625,-0.09564501953125,-0.5145336914062499,1.0512555417791345,-0.853515625,-15.5673828125,-2.48291015625,42.41235294117647,283.7272382440452
0.4898515625,0.01763623046875,-0.4061352539062499,0.6365621999257671,0.92138671875,16.0,-3.490234375,42.41235294117647,283.7272382440452
0.2125078125,-0.12787158203125,0.01671630859375,0.2485762394874283,-0.6455078125,16.0,0.04833984375,43.16529411764706,283.7272382440452
-0.5316328125,0.04009716796875,-0.0145336914062499,0.5333408463559364,0.783203125,16.0,-1.73876953125,42.31823529411765,283.6200036177631
-0.21815625,-0.00726611328125,0.33947021484375,0.4035901046635562,0.5224609375,-13.7275390625,-3.685546875,41.84764705882353,283.6200036177631
-0.03602734375,0.03033154296875,0.5923999023437501,0.5942689763847936,0.259765625,-8.42236328125,-0.5654296875,42.27117647058824,283.6200036177631
-0.32753125,-0.11517626953125,0.48009521484375,0.5924809769988941,-0.099609375,-5.55029296875,-1.41650390625,42.31823529411765,283.6200036177631
-0.13856640625,-0.13324267578125,0.38634521484375,0.4315285443896506,0.84912109375,-4.9541015625,-1.2421875,41.98882352941177,283.2445387920231
-0.1136640625,-0.08197314453125,0.37706787109375,0.402267690648302,0.21826171875,-5.3232421875,-0.00732421875,42.41235294117647,283.2445387920231
-0.00380078125,0.08599560546875,0.30236083984375,0.3143752018990447,0.13330078125,-5.67822265625,2.15625,42.45941176470589,283.2445387920231
0.0933671875,0.09722607421875,0.44493896484375,0.4649096940760408,0.2021484375,-6.04541015625,0.56103515625,42.506470588235295,283.2445387920231
0.32041796875,0.18462841796875,0.5093920898437501,0.6294725002848834,0.6142578125,-7.19140625,0.48779296875,42.74176470588235,283.2445387920231
0.3511796875,0.21441357421875,0.6173022460937501,0.7418641497971483,0.43603515625,-8.5283203125,0.708984375,42.45941176470589,283.2874046101864
0.303328125,0.27544873046875,0.7979663085937501,0.897011808274338,-0.15087890625,-8.142578125,0.8359375,42.45941176470589,283.2874046101864
0.21494921875,0.33941357421875,0.95226318359375,1.03354240930563,-0.6640625,-6.55712890625,0.591796875,42.27117647058824,283.2874046101864
0.2398515625,0.34185498046875,1.1304858398437505,1.2051522035793696,-1.11962890625,-4.5625,0.6728515625,42.506470588235295,283.2874046101864
0.3746171875,0.36333935546875,1.3184741210937505,1.4180012455554454,-1.14111328125,-3.07568359375,0.8076171875,42.506470588235295,282.9656800648255
0.51377734375,0.48150341796875,1.5074389648437505,1.663786324380505,-0.31396484375,-1.1767578125,0.619140625,42.224117647058826,282.9656800648255
0.64854296875,0.57476513671875,1.5870288085937505,1.8082099944444745,0.50439453125,-0.77880859375,-0.7216796875,42.27117647058824,282.9656800648255
0.66221484375,0.48199169921875,1.8091967773437505,1.985960089364745,1.27880859375,-1.181640625,-2.013671875,42.45941176470589,282.9656800648255
0.5588212890625,0.36675732421875,1.7999194335937505,2.09401348232788,1.69677734375,0.65771484375,-2.88671875,42.41235294117647,282.9656800648255
0.4554277343749999,0.25152294921875,1.7906420898437505,2.108772950561512,0.7021484375,2.98681640625,-2.23828125,42.31823529411765,282.933480266584
0.3520341796875,0.13628857421875,1.7813647460937505,1.875900809767372,0.90966796875,4.1591796875,-2.09619140625,43.07117647058824,282.933480266584
0.248640625,0.02105419921875,1.7720874023437505,1.789569557533474,1.49658203125,4.63232421875,-1.5439453125,43.16529411764706,282.933480266584
0.3961015625,-0.02435595703125,1.7173999023437505,1.7626548400149624,1.33251953125,4.6083984375,-1.82763671875,42.506470588235295,282.933480266584
0.31846484375,-0.00873095703125,1.9859545898437505,2.0113457483080457,1.05615234375,5.341796875,-1.87158203125,42.31823529411765,283.31963795834
0.38389453125,-0.01947314453125,2.1265795898437503,2.1610402509952484,0.54150390625,7.26806640625,-1.3525390625,42.506470588235295,283.31963795834
0.41026171875,0.01910107421875,2.1065600585937503,2.146223382914863,-0.01904296875,9.24951171875,-0.60009765625,42.224117647058826,283.31963795834
0.37901171875,0.05279248046875,2.0421069335937503,2.077651957661712,-0.86181640625,10.12744140625,0.46875,42.506470588235295,283.31963795834
0.2886796875,0.04253857421875,1.9234545898437505,1.945462169116288,-1.1826171875,10.7890625,1.23779296875,42.45941176470589,283.31963795834
0.4332109375,-0.04242236328125,1.9249194335937505,1.973521268976567,-1.251953125,10.08349609375,1.880859375,42.41235294117647,283.1159118002152
0.4722734375,0.05230419921875,1.9537280273437505,2.010679271751833,-1.40869140625,9.18701171875,2.556640625,42.41235294117647,283.1159118002152
0.373640625,0.04937451171875,2.2271655273437503,2.258829662733828,-1.86328125,8.79833984375,2.8349609375,42.41235294117647,283.1159118002152
0.3433671875,0.15630810546875,2.2271655273437503,2.2588934316331204,-1.7275390625,10.20849609375,2.81494140625,43.07117647058824,283.1159118002152
0.41709765625,0.14751904296875,2.2266772460937503,2.270203488932062,-1.77001953125,11.099609375,3.033203125,42.45941176470589,283.14811210210814
0.50694140625,0.14556591796875,2.2515795898437503,2.312528848521844,-1.49267578125,12.31591796875,3.37939453125,42.224117647058826,283.14811210210814
0.56455859375,0.13238232421875,2.0972827148437503,2.1759701908631257,-0.7724609375,13.28662109375,3.13623046875,42.506470588235295,283.14811210210814
0.51866015625,-0.01068408203125,1.8272631835937505,1.8994770989425729,0.36328125,13.6357421875,2.458984375,42.45941176470589,283.14811210210814
0.44346484375,0.04400341796875,1.5631030273437505,1.625388705056837,0.9208984375,12.69482421875,1.03515625,41.84764705882353,283.14811210210814
0.692,0.27300732421875,1.6968920898437505,1.8527924232496664,2.14306640625,11.56689453125,-0.09912109375,42.224117647058826,283.05154678248783
0.565046875,1.22027294921875,2.0430834960937503,2.445921955736313,2.33642578125,12.57861328125,-0.1943359375,43.21235294117647,283.05154678248783
-0.1371015625,2.20904248046875,2.3458178710937503,3.2251398424406785,4.13916015625,11.8115234375,-0.99267578125,42.45941176470589,283.05154678248783
-1.2308515625,1.96929638671875,3.7003100585937503,4.368686113396373,6.806640625,0.4384765625,-0.2412109375,41.89470588235295,283.05154678248783
-0.7191328125,1.36187451171875,4.89513427734375,5.131685276876308,6.8525390625,-8.25341796875,6.6064453125,42.224117647058826,282.8906530001418
-0.9124921875,1.02886669921875,5.12120849609375,5.302639450073202,6.75341796875,4.884765625,11.52197265625,42.41235294117647,282.8906530001418
-1.60633984375,-0.49457080078125,3.0172045898437503,3.453759040173239,8.2978515625,15.99951171875,12.146484375,43.16529411764706,282.8906530001418
-3.1722578125,-1.18500048828125,1.1177905273437505,3.566076478318083,10.19482421875,15.99951171875,-2.8359375,43.16529411764706,282.8906530001418
-2.67079296875,-1.41693408203125,-0.2899243164062499,3.037250958348653,12.234375,15.99951171875,16.0,42.31823529411765,282.8906530001418
-1.31630078125,-1.54486376953125,-0.6698071289062499,2.137263063608057,4.8759765625,15.99951171875,-13.966796875,42.41235294117647,282.2686363630629
-0.4535078125,-0.89691455078125,-1.23816650390625,1.5947355074736036,3.38330078125,8.81396484375,-10.37060546875,43.07117647058824,282.2686363630629
1.3570390625,0.39654248046875,-2.1908032226562497,2.607377938920286,0.8466796875,13.30712890625,2.8955078125,42.45941176470589,282.2686363630629
2.2222734375,0.70855419921875,-2.5467602539062497,3.453481732270379,-5.2734375,15.99951171875,4.3955078125,42.31823529411765,282.2686363630629
2.358015625,0.55523388671875,-1.65613525390625,2.934502740829538,-4.44580078125,15.99951171875,-1.40283203125,42.224117647058826,282.50458139495527
0.8355546875,-0.15521533203125,-1.07117431640625,1.367354325414298,-4.197265625,14.2998046875,8.93115234375,43.07117647058824,282.50458139495527
-0.216203125,0.90874951171875,-1.51648681640625,1.7810956545460424,2.3837890625,11.2373046875,10.22265625,42.31823529411765,282.50458139495527
-0.23817578125,-0.37445361328125,-1.05066650390625,1.140545182666611,5.43310546875,13.28955078125,3.80517578125,41.89470588235295,282.50458139495527
-0.17665234375,0.38824169921875,-0.5960766601562499,0.7329700214522146,3.06640625,5.9169921875,0.3251953125,42.31823529411765,282.50458139495527
-1.32753125,0.60259716796875,-0.2054516601562499,1.4723019225795635,4.58984375,4.7802734375,-0.65087890625,42.506470588235295,282.91211976995646
-1.59657421875,0.66070263671875,-0.0257641601562499,1.7280743624314432,7.609375,7.09765625,-4.6279296875,42.31823529411765,282.91211976995646
-1.68348828125,0.43853466796875,0.7437670898437501,1.891992318179749,6.72119140625,6.9638671875,-7.49658203125,43.21235294117647,282.91211976995646
-1.5635338541666668,0.3119070638020833,0.7965014648437501,2.0802462379134794,7.4814453125,9.748046875,-8.9404296875,42.41235294117647,282.91211976995646
-1.4435794270833333,0.1852794596354167,0.8492358398437501,1.8203566760841143,8.31982421875,12.0546875,-10.40869140625,42.31823529411765,282.9979153468319
-1.323625,0.05865185546875,0.90197021484375,1.6028017498244154,6.9892578125,12.880859375,-8.318359375,42.31823529411765,282.9979153468319
-1.41981640625,0.21343701171875,0.5079272460937501,1.5229655520570633,6.318359375,12.29736328125,-6.51025390625,42.41235294117647,282.9979153468319
-1.001359375,0.13970654296875,0.20616943359375,1.0318645024406246,6.15771484375,12.61279296875,-4.0859375,41.84764705882353,282.9979153468319
-0.74794140625,0.03130810546875,-0.0951000976562499,0.7546128631460626,6.0654296875,11.00439453125,-1.462890625,42.45941176470589,282.9979153468319
-0.7054609375,-0.04779345703125,-0.3118969726562499,0.772812441945334,6.0556640625,9.2255859375,-0.05712890625,42.27117647058824,282.5581004228347
-0.71571484375,0.01177685546875,-0.3792797851562499,0.8100861604280065,6.13427734375,8.13623046875,-0.2646484375,43.16529411764706,282.5581004228347
-0.8988203125,0.00201123046875,-0.3714672851562499,0.972558452306056,6.232421875,8.80224609375,-0.5859375,42.31823529411765,282.5581004228347
-1.0531171875,-0.01849658203125,-0.4378735351562499,1.140671366759498,6.53466796875,8.84912109375,-1.1826171875,42.224117647058826,282.5581004228347
-1.02040234375,-0.06732470703125,-0.3641430664062499,1.085520028428349,6.85498046875,8.57421875,-1.0810546875,42.27117647058824,282.57964046087204
-1.06971875,0.05523388671875,-0.3577954101562499,1.1293212748693355,7.08837890625,9.11865234375,-2.0322265625,42.224117647058826,282.57964046087204
-1.52137890625,0.11480419921875,-0.2508618164062499,1.5461906193840873,8.02880859375,11.2607421875,-2.376953125,42.31823529411765,282.57964046087204
-2.239640625,0.40435498046875,-0.0531079101562499,2.276469531863196,7.97021484375,10.9892578125,-3.8525390625,42.45941176470589,282.57964046087204
-3.073625,0.57720654296875,-0.1507641601562499,3.1309851270580245,7.01708984375,9.4599609375,-4.05322265625,42.31823529411765,282.57964046087204
-3.26649609375,0.26080029296875,0.30577880859375,3.291126585697002,5.70458984375,7.912109375,-5.65234375,42.31823529411765,282.7726942978646
-2.73133984375,-0.24408251953125,0.5440600585937501,2.7956743311326573,3.96435546875,7.880859375,-5.462890625,42.31823529411765,282.7726942978646
-2.58387890625,-0.51361376953125,0.43370849609375,2.6698936993819995,0.96875,12.1708984375,-7.63720703125,42.31823529411765,282.7726942978646
-2.25477734375,-0.12787158203125,-0.0902172851562499,2.260201577275895,-0.54150390625,13.40869140625,-9.419921875,42.41235294117647,282.7726942978646
-1.7269453125,0.63628857421875,-0.92957275390625,2.0618702109618594,-1.17919921875,12.91064453125,-4.9326171875,42.31823529411765,281.9683344873271
-0.63221875,0.83697216796875,-1.62927978515625,1.937724329238984,-1.4375,9.34814453125,1.11865234375,42.45941176470589,281.9683344873271
0.60752734375,0.56548779296875,-1.72840087890625,1.917351171696123,-1.78564453125,-2.134765625,1.00830078125,42.506470588235295,281.9683344873271
-0.0749677734375,0.4308442382812499,-1.38001220703125,3.1210485272829533,-1.544921875,-13.88134765625,-2.66259765625,42.31823529411765,281.9683344873271
-0.757462890625,0.2962006835937499,-1.03162353515625,3.448423445017164,4.58349609375,-15.76806640625,-3.92578125,43.21235294117647,281.9683344873271
-1.4399580078125,0.1615571289062499,-0.6832348632812499,1.5673468009670326,7.6083984375,16.0,-1.76708984375,42.41235294117647,282.65462767112257
-1.355576904296875,0.1968659667968749,-0.3082958984374999,2.1488726300548304,6.8603515625,-8.43115234375,-0.43701171875,41.84764705882353,282.65462767112257
-1.27119580078125,0.2321748046874999,0.06664306640625,2.09591904807067,7.1025390625,2.2841796875,-4.1669921875,42.45941176470589,282.65462767112257
-1.186814697265625,0.267483642578125,0.44158203125,1.4572794874733326,6.14208984375,6.54833984375,-3.9541015625,42.31823529411765,282.65462767112257
-1.10243359375,0.30279248046875,0.8165209960937501,1.404902007941795,4.94921875,8.83349609375,-3.3974609375,43.02411764705882,282.57956695955573
-1.16346875,0.23492138671875,0.8145678710937501,1.4395722999497549,3.67333984375,10.859375,-4.568359375,41.84764705882353,282.57956695955573
-0.98329296875,0.11285107421875,0.45128662109375,1.0877775699671917,1.39404296875,11.10205078125,-5.21533203125,42.31823529411765,282.57956695955573
-1.03846875,0.11968701171875,0.12169677734375,1.0524031694728884,1.15625,11.76220703125,-5.04833984375,42.224117647058826,282.57956695955573
-1.0824140625,0.06744091796875,-0.2557446289062499,1.1142593034516772,1.95849609375,12.396484375,-4.70361328125,42.45941176470589,282.57956695955573
-1.20692578125,-0.10101611328125,-0.6673657226562499,1.38284167725914,2.52783203125,12.42578125,-3.90234375,42.45941176470589,282.77265800260346
-0.80262890625,-0.62152392578125,-0.5296704101562499,1.145013491126501,-0.55126953125,9.138671875,-3.85986328125,42.41235294117647,282.77265800260346
-0.5902265625,-0.75287158203125,-1.17615478515625,1.5160880887193686,-5.609375,6.052734375,-1.82177734375,42.41235294117647,282.77265800260346
-0.548234375,-0.83832080078125,-1.41980712890625,1.7375830852788494,-5.43505859375,3.8525390625,-1.8330078125,42.97705882352941,282.77265800260346
-0.48231640625,-0.34466845703125,-1.33924072265625,1.464578838516743,-4.130859375,-1.109375,2.30615234375,43.16529411764706,282.82625301198675
-0.833390625,-0.03509814453125,-1.17224853515625,1.438728063868708,-2.2138671875,-4.13134765625,2.9775390625,42.506470588235295,282.82625301198675
-0.899796875,-0.11224658203125,-0.7049633789062499,1.14856740204325,-1.46240234375,-5.42236328125,3.45068359375,42.45941176470589,282.82625301198675
-1.063859375,-0.07562548828125,-0.5106274414062499,1.182478908129131,-1.09130859375,-3.7646484375,4.203125,42.41235294117647,282.82625301198675
-1.130265625,0.03863232421875,-0.2440258789062499,1.1569535293637123,0.525390625,1.2919921875,3.32861328125,42.27117647058824,282.82625301198675
-1.063859375,-0.01312548828125,-0.0628735351562499,1.0657964766507046,0.61962890625,4.80908203125,1.7900390625,43.07117647058824,282.4079442076463
-0.91395703125,0.16997998046875,-0.0535961914062499,0.931173023913776,1.224609375,6.68359375,0.83544921875,42.41235294117647,282.4079442076463
-0.83192578125,0.24810498046875,0.00011474609375,0.8681339758404159,1.8466796875,6.2060546875,0.9189453125,42.64764705882353,282.4079442076463
-0.845109375,0.17681591796875,0.06310302734375,0.8657111045955045,2.27490234375,4.8994140625,0.51806640625,42.27117647058824,282.4079442076463
-0.76551953125,0.15874951171875,-0.0594555664062499,0.7840641074381924,1.6259765625,4.3212890625,-0.849609375,41.84764705882353,282.5581004228347
-0.76649609375,-0.01019580078125,-0.2533032226562499,0.807330625391866,0.443359375,2.67724609375,-2.0439453125,42.45941176470589,282.5581004228347
-0.9183515625,-0.13861376953125,-0.3304516601562499,0.9857898706873972,0.4599609375,1.20556640625,-3.05810546875,42.506470588235295,282.5581004228347
-1.0970625,-0.19476611328125,-0.3460766601562499,1.1667257700478888,0.41015625,0.03369140625,-3.33447265625,42.41235294117647,282.5581004228347
-1.14149609375,-0.22455126953125,-0.3411938476562499,1.212373641404778,0.61669921875,-0.2431640625,-2.9501953125,42.27117647058824,282.5581004228347
-1.114640625,-0.28558642578125,-0.3958813476562499,1.2168423771849124,0.73828125,0.84228515625,-3.1689453125,42.506470588235295,282.5581004228347
-1.04091015625,-0.25970751953125,-0.3714672851562499,1.1353104830956282,0.4580078125,1.70068359375,-2.5576171875,42.45941176470589,282.5581004228347
-0.977921875,-0.20990283203125,-0.3885571289062499,1.0730177234892828,0.13525390625,1.92333984375,-2.33349609375,42.506470588235295,282.5581004228347
-0.8812421875,-0.21429736328125,-0.3870922851562499,0.9860788965222655,0.14453125,2.3291015625,-2.8798828125,42.41235294117647,282.5581004228347
-0.813859375,-0.14691455078125,-0.3538891601562499,0.8995490565737608,0.16943359375,2.6533203125,-2.08642578125,42.45941176470589,282.56887015693167
-0.899796875,-0.11761767578125,-0.3407055664062499,0.9693031604694956,-0.29931640625,2.2626953125,-0.90869140625,42.506470588235295,282.56887015693167
-0.95253125,-0.06830126953125,-0.3802563476562499,1.0278986990842114,-0.23046875,2.1435546875,-0.23583984375,42.27117647058824,282.56887015693167
-0.911515625,-0.07904345703125,-0.3514477539062499,0.9801143435560667,-0.03369140625,1.46142578125,-0.08203125,42.31823529411765,282.56887015693167
-0.83925,-0.11859423828125,-0.3314282226562499,0.9100823164014292,-0.0380859375,0.04736328125,0.33447265625,42.41235294117647,282.56887015693167
-0.84950390625,-0.10785205078125,-0.3094555664062499,0.9105227614791094,-0.26171875,-1.41748046875,1.0341796875,42.224117647058826,282.31145589481696
-0.917375,-0.04877001953125,-0.3016430664062499,0.9669249944752922,-0.44580078125,-2.5107421875,1.53369140625,42.224117647058826,282.31145589481696
-1.00380078125,0.01177685546875,-0.2826000976562499,1.042889024756788,-0.583984375,-2.9423828125,1.60107421875,42.41235294117647,282.31145589481696
-1.0814375,0.07671826171875,-0.2703930664062499,1.117365279775585,-0.61962890625,-2.451171875,1.328125,42.27117647058824,282.31145589481696
-1.1312421875,0.08990185546875,-0.2899243164062499,1.1712588696100197,-0.4970703125,-1.11474609375,0.755859375,42.45941176470589,282.214893815259
-1.06337109375,0.04888623046875,-0.2845532226562499,1.1018704475012353,-0.923828125,0.72998046875,0.42333984375,42.45941176470589,282.214893815259
-1.0179609375,0.03619091796875,-0.2957836914062499,1.0606800860397103,-1.17724609375,2.15576171875,-0.064453125,42.45941176470589,282.214893815259
-0.966203125,0.07330029296875,-0.2640454101562499,1.004311401077202,-1.517578125,2.994140625,0.14599609375,42.31823529411765,282.214893815259
-0.9808515625,0.05279248046875,-0.2996899414062499,1.0269717107266472,-1.521484375,4.1123046875,-0.150390625,41.84764705882353,282.214893815259
-0.96669140625,0.07720654296875,-0.3617016601562499,1.03502715720631,-1.46142578125,4.140625,-0.68115234375,42.31823529411765,282.5366702330257
-0.92665234375,0.17681591796875,-0.4408032226562499,1.0412760998547097,-1.23388671875,2.818359375,-1.28564453125,41.89470588235295,282.5366702330257
-0.8812421875,0.19048779296875,-0.4837719726562499,1.0231855715497604,-0.58544921875,0.8291015625,-2.11083984375,42.506470588235295,282.5366702330257
-0.80360546875,0.10992138671875,-0.4266430664062499,0.9164544542832492,-0.60595703125,-0.765625,-2.16796875,42.31823529411765,282.5366702330257
-0.825578125,-0.05169970703125,-0.3612133789062499,0.9026224046003416,-0.46875,-1.71044921875,-1.28125,42.27117647058824,282.68679168183235
-0.94471875,-0.09027392578125,-0.3197094726562499,1.0014275037084106,-0.51611328125,-1.4833984375,-0.4716796875,41.84764705882353,282.68679168183235
-1.05751171875,-0.10736376953125,-0.3734204101562499,1.126632511967767,-0.5693359375,-0.6201171875,-0.19287109375,41.98882352941177,282.68679168183235
-1.11122265625,-0.10541064453125,-0.4159008789062499,1.1911761988970355,-0.38623046875,0.2451171875,-0.35595703125,41.84764705882353,282.68679168183235
-1.067765625,-0.10199267578125,-0.4285961914062499,1.1550846856973749,-0.359375,0.185546875,-0.2841796875,42.31823529411765,282.68679168183235
-0.97743359375,-0.08636767578125,-0.4188305664062499,1.0668902703498029,-0.41552734375,0.07080078125,0.1435546875,42.506470588235295,282.5580644471703
-0.88466015625,-0.08002001953125,-0.4090649414062499,0.9779370745961904,-0.57470703125,-0.23681640625,0.4375,43.16529411764706,282.5580644471703
-0.821671875,-0.08197314453125,-0.3895336914062499,0.9130173948676644,-0.8271484375,-0.56005859375,0.626953125,42.45941176470589,282.5580644471703
-0.82118359375,-0.07171923828125,-0.3553540039062499,0.8976428086249066,-1.23193359375,-0.7763671875,1.34912109375,41.84764705882353,282.5580644471703
-0.8636640625,-0.02142626953125,-0.3573071289062499,0.9349027127178834,-1.28857421875,-0.58251953125,1.7841796875,41.89470588235295,282.68679168183235
-0.9378828125,0.04156201171875,-0.3675610351562499,1.0081927818458898,-1.19384765625,-0.7060546875,1.82373046875,42.31823529411765,282.68679168183235
-0.99501171875,0.10943310546875,-0.4256665039062499,1.08775727879437,-0.65087890625,-0.45751953125,1.0400390625,42.45941176470589,282.68679168183235
-1.00575390625,-0.01800830078125,-0.3787915039062499,1.0748712584610869,-0.8603515625,-1.3125,0.3154296875,42.45941176470589,282.68679168183235
-1.03309765625,0.10552685546875,-0.4105297851562499,1.116674253788813,-0.8291015625,-1.41455078125,-0.14697265625,42.27117647058824,282.68679168183235
-1.02626171875,0.07232373046875,-0.3748852539062499,1.0949807262947482,-0.62060546875,-0.4814453125,-0.29931640625,42.45941176470589,282.5366339396585
-1.0179609375,0.01421826171875,-0.3577954101562499,1.0791034170880291,-0.337890625,1.14794921875,-0.08251953125,41.84764705882353,282.5366339396585
-1.005265625,0.00933544921875,-0.3582836914062499,1.0672456750657018,-0.2158203125,2.125,0.24853515625,42.31823529411765,282.5366339396585
-1.028703125,0.01665966796875,-0.4051586914062499,1.1057401273100382,0.0107421875,2.7958984375,0.361328125,42.506470588235295,282.5366339396585
-1.01747265625,-0.00238330078125,-0.4559399414062499,1.114960769044624,0.45703125,3.12255859375,0.38818359375,41.84764705882353,282.4293380234732
-0.9535078125,-0.04828173828125,-0.4061352539062499,1.037523069244963,0.2158203125,2.20703125,0.431640625,42.506470588235295,282.4293380234732
-0.91200390625,-0.03265673828125,-0.4212719726562499,1.005130669373946,0.171875,1.02734375,0.53564453125,42.88294117647059,282.4293380234732
-0.85341015625,-0.00335986328125,-0.3656079101562499,0.9284338034780608,-0.0068359375,-0.61669921875,0.58740234375,42.41235294117647,282.4293380234732
-0.85438671875,0.03277294921875,-0.3778149414062499,0.9347699510182677,0.43359375,-1.5712890625,0.7685546875,42.41235294117647,282.4293380234732
-0.907609375,0.02398388671875,-0.2865063476562499,0.9520587648130512,0.57470703125,-2.0205078125,0.60107421875,42.31823529411765,282.45080435829294
-0.946671875,-0.04584033203125,-0.2220532226562499,0.9734457399612868,0.34228515625,-1.74951171875,0.35986328125,42.506470588235295,282.45080435829294
-1.0023359375,-0.00921923828125,-0.2977368164062499,1.0456622484350382,0.0166015625,-1.34326171875,0.17578125,42.506470588235295,282.45080435829294
-1.0609296875,-0.00287158203125,-0.3104321289062499,1.1054176380262242,0.259765625,-0.30322265625,-0.115234375,42.41235294117647,282.45080435829294
-1.0374921875,-0.02240283203125,-0.3211743164062499,1.0862987008763187,0.35400390625,0.6240234375,-0.20166015625,42.45941176470589,282.1289916406412
-1.02137890625,-0.02337939453125,-0.3216625976562499,1.0710874347839494,0.37109375,0.9833984375,-0.232421875,42.224117647058826,282.1289916406412
-0.99159375,-0.03168017578125,-0.3260571289062499,1.044306013526294,-0.095703125,0.8798828125,-0.34521484375,43.16529411764706,282.1289916406412
-0.96473828125,-0.02875048828125,-0.3260571289062499,1.0187540395974886,-0.23828125,0.99755859375,-0.36767578125,42.45941176470589,282.1289916406412
-0.95253125,-0.02142626953125,-0.3050610351562499,1.00041846365568,-0.30859375,1.16015625,-0.37890625,42.506470588235295,282.1289916406412
-0.95204296875,-0.01312548828125,-0.3040844726562499,0.999512610875703,-0.37158203125,1.36279296875,-0.43505859375,41.84764705882353,282.4722348114188
-0.96180859375,-0.00824267578125,-0.3099438476562499,1.0105488119904689,-0.3994140625,1.61865234375,-0.4580078125,41.84764705882353,282.4722348114188
-0.9691328125,-0.01019580078125,-0.3177563476562499,1.019946792285544,-0.392578125,1.7900390625,-0.44677734375,42.27117647058824,282.4722348114188
-0.95790234375,0.01910107421875,-0.3441235351562499,1.0180190364853146,-0.25390625,1.95703125,-0.267578125,41.84764705882353,282.4722348114188
-0.95594921875,-0.01068408203125,-0.3353344726562499,1.0131151301748638,-0.2705078125,1.86767578125,-0.25048828125,42.41235294117647,282.51513177311824
-0.9398359375,0.00640576171875,-0.3685375976562499,1.0095308732703232,-0.3212890625,1.4794921875,-0.0537109375,42.506470588235295,282.51513177311824
-0.94911328125,0.01177685546875,-0.3826977539062499,1.023431622442243,-0.271484375,1.24267578125,0.0859375,41.84764705882353,282.51513177311824
-0.9564375,0.01128857421875,-0.3763500976562499,1.0278810822853055,-0.1611328125,0.98974609375,0.19384765625,42.31823529411765,282.51513177311824
-0.9710859375,-0.01068408203125,-0.3441235351562499,1.0303121153648245,-0.349609375,0.69384765625,0.14453125,42.27117647058824,282.51513177311824
-0.96962109375,0.00787060546875,-0.3778149414062499,1.0406589940154265,-0.380859375,0.5751953125,0.18896484375,43.07117647058824,282.38647774117555
-0.9730390625,0.00738232421875,-0.3812329101562499,1.0450827946377996,-0.3486328125,0.517578125,0.13916015625,42.41235294117647,282.38647774117555
-0.94618359375,0.0010346679687499,-0.3729321289062499,1.0170264678905945,-0.35791015625,0.3935546875,0.09912109375,42.41235294117647,282.38647774117555
-0.938859375,0.00689404296875,-0.3714672851562499,1.0096991620256008,-0.3125,0.283203125,0.10498046875,42.13,282.38647774117555
-0.9251875,0.00396435546875,-0.3695141601562499,0.9962571660101178,-0.2783203125,0.216796875,0.09912109375,43.21235294117647,282.3972109677209
-0.9222578125,0.02496044921875,-0.3626782226562499,0.9913213353557884,-0.18408203125,0.12890625,0.166015625,42.41235294117647,282.3972109677209
-0.97548046875,0.02105419921875,-0.3534008789062499,1.0377367707801302,0.31787109375,0.68408203125,0.18896484375,42.45941176470589,282.3972109677209
-0.993546875,0.01958935546875,-0.3558422851562499,1.0555296621010557,0.21875,0.6455078125,-0.3505859375,42.41235294117647,282.3972109677209
-1.08094921875,0.09087841796875,-0.3866040039062499,1.151595743394826,0.84228515625,1.1337890625,-1.73193359375,42.31823529411765,282.3972109677209
-1.01942578125,-0.00335986328125,-0.3148266601562499,1.0669376917625415,0.86279296875,2.02880859375,-2.33544921875,42.45941176470589,282.38640551447804
-1.0589765625,0.01177685546875,-0.3314282226562499,1.1096912728421942,-0.01025390625,1.3935546875,-3.2333984375,43.25941176470588,282.38640551447804
-1.0179609375,-0.03705126953125,-0.3455883789062499,1.0756619331764077,-0.07177734375,1.35986328125,-3.62451171875,43.16529411764706,282.38640551447804
-0.90565625,-0.07220751953125,-0.3411938476562499,0.9704846267300656,-0.1484375,1.64013671875,-2.8603515625,42.506470588235295,282.38640551447804
-0.8109296875,-0.08880908203125,-0.3646313476562499,0.8935603117941698,-0.2431640625,1.62548828125,-1.84033203125,43.16529411764706,282.52586492155257
-0.7689375,-0.12250048828125,-0.3909985351562499,0.8712927768722337,-0.2587890625,1.51220703125,-0.33056640625,42.41235294117647,282.52586492155257
-0.83290234375,-0.09515673828125,-0.4056469726562499,0.9313058495949385,-0.3232421875,1.04833984375,0.751953125,42.45941176470589,282.52586492155257
-0.802140625,-0.02582080078125,-0.3880688476562499,0.8914559588390363,-0.53466796875,0.40087890625,0.94482421875,42.506470588235295,282.52586492155257
-0.98426953125,0.01226513671875,-0.3753735351562499,1.053490500489456,-0.4443359375,0.1806640625,0.34912109375,42.41235294117647,282.52586492155257
-0.9847578125,-0.03168017578125,-0.3529125976562499,1.046565279570175,-0.4482421875,0.31103515625,0.1708984375,43.16529411764706,282.77248308253155
-1.0042890625,-0.03168017578125,-0.3441235351562499,1.0620834063495648,-0.3828125,0.6650390625,0.24609375,43.21235294117647,282.77248308253155
-0.9886640625,-0.02240283203125,-0.3534008789062499,1.05016698509034,-0.35107421875,0.9658203125,0.07421875,43.02411764705882,282.77248308253155
-0.96571484375,-0.03558642578125,-0.3704907226562499,1.034956486386419,-0.185546875,1.1669921875,-0.1337890625,42.41235294117647,282.77248308253155
-0.934953125,-0.04242236328125,-0.3851391601562499,1.0120618437326316,-0.150390625,1.24755859375,-0.0791015625,42.45941176470589,282.6437889959515
-0.91688671875,-0.04339892578125,-0.3997875976562499,1.0011967064562606,-0.14013671875,0.865234375,0.005859375,42.41235294117647,282.6437889959515
-0.79872265625,-0.04291064453125,-0.4056469726562499,0.8968548775840623,-0.107421875,0.48193359375,0.14013671875,42.27117647058824,282.6437889959515
-0.9242109375,-0.04388720703125,-0.4041821289062499,1.0096807105530052,-0.1064453125,0.20556640625,0.24560546875,42.31823529411765,282.6437889959515
-0.94130078125,-0.03998095703125,-0.3914868164062499,1.02024877609674,-0.0859375,0.0849609375,0.373046875,42.506470588235295,282.6437889959515
-0.94716015625,-0.03558642578125,-0.3900219726562499,1.0249370197441798,-0.044921875,0.06201171875,0.34814453125,42.41235294117647,282.5257946395792
-0.94813671875,-0.04046923828125,-0.3826977539062499,1.0232587979264922,-0.013671875,-0.02197265625,0.30859375,42.506470588235295,282.5257946395792
-0.93641796875,-0.04877001953125,-0.3485180664062499,1.0003609196757468,-0.07373046875,-0.07568359375,0.384765625,42.31823529411765,282.5257946395792
-0.95790234375,-0.03607470703125,-0.3382641601562499,1.01651410550732,-0.13330078125,0.197265625,0.41015625,42.45941176470589,282.5257946395792
-0.98426953125,-0.02582080078125,-0.3485180664062499,1.0444702324679394,-0.0556640625,0.6162109375,0.2861328125,42.45941176470589,282.5043285948462
-0.98329296875,-0.03265673828125,-0.3568188476562499,1.0465425051048298,-0.0458984375,0.75634765625,0.0517578125,42.45941176470589,282.5043285948462
-0.95106640625,-0.03900439453125,-0.3729321289062499,1.0223145429174856,-0.0966796875,0.99462890625,-0.01611328125,42.41235294117647,282.5043285948462
-0.94471875,-0.03705126953125,-0.3743969726562499,1.0168772818337544,-0.0947265625,1.08935546875,-0.0400390625,42.45941176470589,282.5043285948462
-0.9496015625,-0.03900439453125,-0.3768383789062499,1.022385266967341,-0.146484375,0.91796875,-0.103515625,42.45941176470589,282.5043285948462
-0.94618359375,-0.03558642578125,-0.3797680664062499,1.0201733044162111,-0.15283203125,0.74462890625,-0.1123046875,42.31823529411765,282.6866191492566
-0.94325390625,-0.03412158203125,-0.3553540039062499,1.0085478085387931,-0.19091796875,0.806640625,-0.041015625,42.41235294117647,282.6866191492566
-0.94813671875,-0.02191455078125,-0.3543774414062499,1.01243609969005,-0.166015625,1.08447265625,-0.07373046875,42.31823529411765,282.6866191492566
-0.93837109375,-0.01507861328125,-0.3612133789062499,1.0056056778205495,-0.08349609375,1.30615234375,-0.1240234375,42.41235294117647,282.6866191492566
-0.923234375,-0.02728564453125,-0.3743969726562499,0.9966339903461506,-0.0791015625,1.3310546875,-0.11865234375,42.224117647058826,282.51513177311824
-0.9183515625,-0.02923876953125,-0.3836743164062499,0.9957060203994432,-0.05712890625,1.23828125,-0.12109375,42.41235294117647,282.51513177311824
-0.91981640625,-0.02630908203125,-0.3968579101562499,1.002123041276658,-0.0712890625,0.97412109375,-0.11083984375,42.27117647058824,282.51513177311824
-0.9398359375,-0.03460986328125,-0.3958813476562499,1.0203977035817844,-0.0703125,0.6318359375,-0.080078125,42.27117647058824,282.51513177311824
-0.94423046875,-0.02923876953125,-0.3846508789062499,1.0199913638864286,-0.05126953125,0.50634765625,-0.0595703125,41.84764705882353,282.51513177311824
-0.9417890625,-0.03363330078125,-0.3729321289062499,1.0134970201912874,-0.0595703125,0.5390625,-0.06494140625,41.84764705882353,282.5580289085865
-0.9417890625,-0.03363330078125,-0.3734204101562499,1.013676792615542,-0.046875,0.5009765625,-0.04736328125,42.45941176470589,282.5580289085865
-0.94520703125,-0.03168017578125,-0.3802563476562499,1.019320781400458,-0.0361328125,0.626953125,-0.00830078125,42.506470588235295,282.5580289085865
-0.9515546875,-0.02777392578125,-0.3831860351562499,1.0261867528843334,-0.04931640625,0.54296875,0.05810546875,43.02411764705882,282.5580289085865
-0.9515546875,-0.02337939453125,-0.3826977539062499,1.0258949703730684,-0.02294921875,0.390625,0.052734375,41.84764705882353,282.55799380706856
-0.95497265625,-0.02435595703125,-0.3763500976562499,1.026745042760839,0.005859375,0.2509765625,-0.103515625,42.506470588235295,282.55799380706856
-0.93690625,-0.03851611328125,-0.3656079101562499,1.0064521629169352,0.001953125,0.384765625,-0.2138671875,42.41235294117647,282.55799380706856
-0.938859375,-0.03851611328125,-0.3675610351562499,1.0089804416205592,0.02490234375,0.55712890625,-0.34423828125,43.25941176470588,282.55799380706856
-0.9593671875,-0.02923876953125,-0.3826977539062499,1.0332946709144737,0.05322265625,0.66748046875,-0.44921875,42.224117647058826,282.55799380706856
-0.93641796875,-0.03021533203125,-0.3651196289062499,1.005536633793256,0.12255859375,0.8662109375,-0.30517578125,41.84764705882353,282.5579249152892
-0.91688671875,-0.01556689453125,-0.3451000976562499,0.9798049094732288,-0.03564453125,1.326171875,-0.32568359375,42.31823529411765,282.5579249152892
-0.92860546875,-0.02289111328125,-0.3328930664062499,0.9867370031173546,-0.0439453125,1.98779296875,-0.50634765625,42.41235294117647,282.5579249152892
-0.9251875,-0.03168017578125,-0.3846508789062499,1.0024628882592768,-0.0048828125,2.35400390625,-0.353515625,42.60058823529412,282.5579249152892
-0.91883984375,-0.03998095703125,-0.4002758789062499,1.003038341551224,-0.06982421875,2.13134765625,-0.19384765625,42.506470588235295,282.2791104769796
-0.9105390625,-0.04339892578125,-0.4066235351562499,0.9981520677934356,-0.09521484375,1.70361328125,-0.08544921875,43.25941176470588,282.2791104769796
-0.92372265625,-0.04242236328125,-0.4090649414062499,1.0111366519237748,-0.09375,1.26904296875,-0.06982421875,42.31823529411765,282.2791104769796
-0.94325390625,-0.03705126953125,-0.4095532226562499,1.028996875805695,-0.140625,0.94580078125,-0.037109375,42.41235294117647,282.2791104769796
-0.962296875,-0.04095751953125,-0.4100415039062499,1.0468174764335076,-0.03955078125,0.87109375,0.0068359375,42.41235294117647,282.2791104769796
-0.98524609375,-0.05023486328125,-0.3978344726562499,1.0637225551675569,-0.05810546875,0.9931640625,-0.0751953125,42.45941176470589,282.7832161344326
-0.9808515625,-0.05072314453125,-0.3997875976562499,1.0604115938113772,-0.12255859375,1.19970703125,-0.15478515625,42.31823529411765,282.7832161344326
-0.95399609375,-0.04437548828125,-0.4364086914062499,1.0500144174178627,-0.04345703125,1.31982421875,-0.2080078125,43.07117647058824,282.7832161344326
-0.92665234375,-0.05169970703125,-0.4251782226562499,1.0208496201231665,-0.02392578125,1.19970703125,-0.17919921875,42.41235294117647,282.7832161344326
-0.9085859375,-0.05707080078125,-0.4071118164062499,0.9972590000507208,-0.1337890625,0.787109375,-0.25439453125,42.41235294117647,282.4506982219219
-0.89442578125,-0.04291064453125,-0.4178540039062499,0.98815017591419,-0.14306640625,0.3798828125,-0.185546875,42.31823529411765,282.4506982219219
-0.90809765625,-0.04388720703125,-0.4124829101562499,0.9983534401196382,-0.18017578125,0.02001953125,-0.150390625,42.45941176470589,282.4506982219219
-0.923234375,-0.03949267578125,-0.4124829101562499,1.011960243187929,-0.134765625,-0.0927734375,-0.07080078125,42.45941176470589,282.4506982219219
-0.93446484375,-0.03949267578125,-0.3968579101562499,1.016012015922381,-0.10693359375,-0.05859375,-0.076171875,42.31823529411765,282.4506982219219
-0.934953125,-0.04486376953125,-0.4046704101562499,1.019758914949924,-0.07470703125,-0.0087890625,-0.06689453125,42.224117647058826,282.74028400715804
-0.93153515625,-0.05267626953125,-0.3978344726562499,1.014300154951737,-0.1376953125,-0.14453125,0.05810546875,41.98882352941177,282.74028400715804
-0.9398359375,-0.05121142578125,-0.4071118164062499,1.0255019408097912,-0.1767578125,-0.353515625,0.001953125,42.41235294117647,282.74028400715804
-0.93544140625,-0.05218798828125,-0.3973461914062499,1.0176729368873252,-0.177734375,-0.43310546875,0.123046875,43.07117647058824,282.74028400715804
-0.942765625,-0.05609423828125,-0.3875805664062499,1.0208683963693772,-0.1376953125,-0.306640625,0.04931640625,43.16529411764706,282.5793569454873
-0.94716015625,-0.06097705078125,-0.3758618164062499,1.0208342996499036,-0.138671875,-0.21484375,0.0654296875,42.45941176470589,282.5793569454873
-0.9691328125,-0.05072314453125,-0.3900219726562499,1.045900752848936,-0.1044921875,-0.181640625,0.11767578125,42.506470588235295,282.5793569454873
-0.989640625,-0.05072314453125,-0.3939282226562499,1.0663680643411266,-0.048828125,-0.13232421875,-0.02978515625,42.27117647058824,282.5793569454873
-0.9720625,-0.05218798828125,-0.3880688476562499,1.047963033960809,-0.03759765625,-0.05712890625,-0.107421875,42.31823529411765,282.5793569454873
-0.96034375,-0.06000048828125,-0.3665844726562499,1.0296816752524598,-0.01220703125,0.17578125,-0.06103515625,41.84764705882353,282.440000108912
-0.95301953125,-0.04877001953125,-0.3685375976562499,1.0229587981122643,-0.01220703125,0.416015625,0.0224609375,43.07117647058824,282.440000108912
-0.9515546875,-0.04828173828125,-0.3812329101562499,1.026219265722918,-0.0185546875,0.58349609375,0.005859375,43.21235294117647,282.440000108912
-0.9476484375,-0.04681689453125,-0.3812329101562499,1.0225301533431397,-0.02392578125,0.51708984375,0.00244140625,41.84764705882353,282.440000108912
-0.946671875,-0.05072314453125,-0.3997875976562499,1.0288783210598371,-0.00244140625,0.3486328125,0.0078125,42.224117647058826,282.6544538484476
-0.94227734375,-0.05218798828125,-0.3895336914062499,1.020953806695474,-0.0078125,0.24609375,0.00830078125,42.506470588235295,282.6544538484476
-0.9456953125,-0.05560595703125,-0.3753735351562499,1.0189881929823987,-0.03662109375,-0.0537109375,0.05712890625,42.45941176470589,282.6544538484476
-0.94520703125,-0.05023486328125,-0.3709790039062499,1.0166441337816283,-0.037109375,-0.05126953125,0.1494140625,43.02411764705882,282.6544538484476
-0.954484375,-0.04877001953125,-0.3719555664062499,1.0255583261349954,-0.03076171875,0.0302734375,0.1669921875,41.84764705882353,282.6544538484476
-0.954484375,-0.05316455078125,-0.3621899414062499,1.0222761100773,0.0029296875,0.04345703125,0.123046875,43.21235294117647,282.7296191880827
-0.95790234375,-0.04730517578125,-0.3753735351562499,1.029912603434456,0.01806640625,0.12939453125,0.1484375,42.41235294117647,282.7296191880827
-0.958390625,-0.04584033203125,-0.3568188476562499,1.0236862879668556,-0.00634765625,0.22265625,0.3193359375,42.31823529411765,282.7296191880827
-0.96766796875,-0.04095751953125,-0.3714672851562499,1.0373267373842527,-0.02587890625,0.35107421875,0.322265625,42.45941176470589,282.7296191880827
-0.95399609375,-0.04584033203125,-0.3494946289062499,1.0170331255988232,0.06787109375,0.5751953125,0.0146484375,42.41235294117647,282.5471919654456
-0.9691328125,-0.05365283203125,-0.3441235351562499,1.0298145668505416,-0.00537109375,0.708984375,-0.2880859375,42.41235294117647,282.5471919654456
-0.97157421875,-0.04486376953125,-0.3670727539062499,1.0395728098678536,0.03271484375,0.93896484375,-0.37353515625,41.84764705882353,282.5471919654456
-0.95106640625,-0.04242236328125,-0.3665844726562499,1.020152508988885,0.05419921875,1.0849609375,-0.29443359375,42.27117647058824,282.5471919654456
-0.9183515625,-0.03851611328125,-0.3573071289062499,0.9861650306595308,-0.0185546875,1.0615234375,-0.1865234375,42.31823529411765,282.5471919654456
-0.80262890625,-0.03998095703125,-0.3743969726562499,0.8865577991351556,-0.04296875,0.9111328125,-0.14697265625,43.02411764705882,282.61158986530654
-0.934953125,-0.04730517578125,-0.3787915039062499,1.0098802547998051,-0.1357421875,0.68359375,-0.02490234375,43.16529411764706,282.61158986530654
-0.94911328125,-0.05169970703125,-0.3831860351562499,1.0248514125916135,-0.193359375,0.470703125,0.0927734375,43.02411764705882,282.61158986530654
-0.95790234375,-0.05316455078125,-0.3890454101562499,1.035258277332357,-0.20849609375,0.35107421875,0.173828125,42.31823529411765,282.61158986530654
-0.9574140625,-0.04779345703125,-0.3826977539062499,1.0321741483163782,-0.177734375,0.21923828125,0.1982421875,42.45941176470589,282.4936303359492
-0.958390625,-0.04974658203125,-0.3646313476562499,1.0266174225120552,-0.13916015625,0.13427734375,0.20556640625,41.84764705882353,282.4936303359492
-0.9613203125,-0.05316455078125,-0.3714672851562499,1.0319647070642604,-0.11279296875,0.09375,0.208984375,42.506470588235295,282.4936303359492
-0.97548046875,-0.05365283203125,-0.3695141601562499,1.0445005916004415,-0.1015625,0.142578125,0.16845703125,41.98882352941177,282.4936303359492
-0.97645703125,-0.04584033203125,-0.3704907226562499,1.0453865531432136,-0.06787109375,0.22412109375,0.13623046875,42.31823529411765,282.4936303359492
-0.96473828125,-0.04437548828125,-0.3778149414062499,1.0370309856601256,-0.0634765625,0.23974609375,0.0419921875,42.45941176470589,282.6544877388184
-0.9496015625,-0.03802783203125,-0.3734204101562499,1.0210935541039814,-0.05712890625,0.228515625,0.01123046875,42.41235294117647,282.6544877388184
-0.94325390625,-0.04486376953125,-0.3695141601562499,1.0140421115655975,-0.06884765625,0.2607421875,0.02001953125,41.84764705882353,282.6544877388184
-0.9437421875,-0.04095751953125,-0.3709790039062499,1.0148656345609066,-0.06640625,0.263671875,-0.03173828125,42.31823529411765,282.6544877388184
-0.9378828125,-0.04193408203125,-0.3660961914062499,1.0076750758954374,-0.048828125,0.2607421875,-0.06201171875,42.27117647058824,282.49359559256453
-0.93934765625,-0.04437548828125,-0.3602368164062499,1.0070321579557815,-0.033203125,0.15673828125,-0.10498046875,42.27117647058824,282.49359559256453
-0.9408125,-0.04974658203125,-0.3529125976562499,1.0060567499721496,-0.064453125,0.078125,-0.0625,41.84764705882353,282.49359559256453
-0.93934765625,-0.05072314453125,-0.3470532226562499,1.0026927725128945,-0.07470703125,0.0546875,0.0341796875,42.45941176470589,282.49359559256453
-0.9378828125,-0.04535205078125,-0.3465649414062499,1.0008937191854552,-0.111328125,0.064453125,0.13916015625,42.41235294117647,282.49359559256453
-0.94813671875,-0.04681689453125,-0.3577954101562499,1.0144814510795384,-0.1142578125,0.08837890625,0.26025390625,43.21235294117647,282.6330559390182
-0.966203125,-0.05023486328125,-0.3617016601562499,1.0329085686586392,-0.14208984375,-0.0302734375,0.31982421875,41.84764705882353,282.6330559390182
-0.98719921875,-0.05316455078125,-0.3626782226562499,1.053054727993507,-0.1337890625,-0.212890625,0.26611328125,42.41235294117647,282.6330559390182
-0.993546875,-0.04437548828125,-0.3607250976562499,1.0579353349149352,-0.08349609375,-0.2685546875,0.17041015625,42.31823529411765,282.6330559390182
-0.98817578125,-0.05023486328125,-0.3455883789062499,1.0480678621983328,-0.0595703125,-0.171875,0.0771484375,41.84764705882353,282.64375472818404
-0.9710859375,-0.05121142578125,-0.3421704101562499,1.0308787987573025,-0.0439453125,-0.14111328125,0.087890625,43.16529411764706,282.64375472818404
-0.96083203125,-0.05658251953125,-0.3455883789062499,1.0226588392164588,-0.0869140625,-0.20947265625,0.0927734375,42.45941176470589,282.64375472818404
-0.96425,-0.04535205078125,-0.3407055664062499,1.0236772704276815,-0.091796875,-0.21533203125,0.07177734375,42.64764705882353,282.64375472818404
-0.974015625,-0.04242236328125,-0.3646313476562499,1.0408948622911538,0.2119140625,0.00244140625,0.02099609375,42.31823529411765,282.64375472818404
-0.94325390625,-0.06097705078125,-0.3255688476562499,0.9997205644289217,0.08740234375,-0.40380859375,0.06103515625,42.31823529411765,282.6115557765958
-0.95692578125,-0.07074267578125,-0.3299633789062499,1.0146858175892888,-0.18505859375,-0.919921875,0.3037109375,41.84764705882353,282.6115557765958
-0.98915234375,-0.04730517578125,-0.3250805664062499,1.042275162064616,-0.12890625,-0.8623046875,0.3056640625,42.31823529411765,282.6115557765958
-1.00575390625,-0.03851611328125,-0.3221508789062499,1.0567902344834084,-0.0234375,-0.29150390625,0.30810546875,42.41235294117647,282.6115557765958
-1.04774609375,-0.02923876953125,-0.3226391601562499,1.0966871980097224,0.12158203125,0.66015625,0.2197265625,42.506470588235295,282.826047873571
-1.005265625,-0.03265673828125,-0.2816235351562499,1.0444794181388708,0.2109375,1.4482421875,-0.0810546875,42.31823529411765,282.826047873571
-0.979875,-0.04584033203125,-0.3050610351562499,1.0272870031477757,0.111328125,1.86328125,-0.283203125,42.506470588235295,282.826047873571
-0.94618359375,-0.05511767578125,-0.3280102539062499,1.0029417121312856,0.06298828125,1.8779296875,-0.076171875,42.31823529411765,282.826047873571
-0.95253125,-0.06293017578125,-0.3348461914062499,1.011631336579533,-0.064453125,1.4638671875,0.072265625,42.64764705882353,282.826047873571
-0.95204296875,-0.04437548828125,-0.3490063476562499,1.014968191132544,-0.14501953125,0.95068359375,0.11865234375,42.506470588235295,282.46132884860083
-0.95790234375,-0.03753955078125,-0.3607250976562499,1.0242600812848817,-0.0703125,0.75830078125,0.23779296875,43.07117647058824,282.46132884860083
-0.966203125,-0.04877001953125,-0.3348461914062499,1.0237426265737477,-0.10205078125,0.75634765625,0.2080078125,42.41235294117647,282.46132884860083
-0.9671796875,-0.03656298828125,-0.3289868164062499,1.0222552153908395,-0.1279296875,0.720703125,-0.05078125,42.31823529411765,282.46132884860083
-0.977921875,-0.04730517578125,-0.3553540039062499,1.0415591396322217,-0.03759765625,0.82177734375,-0.30078125,42.506470588235295,282.55795914264104
-0.9691328125,-0.03998095703125,-0.3470532226562499,1.0301761133638188,0.0185546875,0.94091796875,-0.4072265625,42.41235294117647,282.55795914264104
-0.938859375,-0.04584033203125,-0.3314282226562499,0.9966960062321946,-0.04443359375,1.04296875,-0.236328125,41.84764705882353,282.55795914264104
-0.919328125,-0.04486376953125,-0.3280102539062499,0.9771221448213172,-0.115234375,1.0986328125,-0.01220703125,41.84764705882353,282.55795914264104
-0.93153515625,-0.03265673828125,-0.3524243164062499,0.996507455405776,-0.12841796875,1.01025390625,0.03125,42.31823529411765,282.55795914264104
-0.95204296875,-0.04144580078125,-0.3602368164062499,1.0187610773106828,-0.14697265625,0.873046875,0.05517578125,42.45941176470589,282.3648346364156
-0.95301953125,-0.04779345703125,-0.3582836914062499,1.0192632854207282,-0.15576171875,0.470703125,0.259765625,43.07117647058824,282.3648346364156
-0.95985546875,-0.04779345703125,-0.3480297851562499,1.0221210626829806,-0.16845703125,0.3857421875,0.43798828125,42.41235294117647,282.3648346364156
-0.96376171875,-0.04437548828125,-0.3367993164062499,1.0218804303928473,-0.16064453125,0.3857421875,0.490234375,42.41235294117647,282.3648346364156
-0.966203125,-0.04388720703125,-0.3358227539062499,1.0238415344876115,-0.16259765625,0.39599609375,0.537109375,42.31823529411765,282.5042942288532
-0.97450390625,-0.04632861328125,-0.3367993164062499,1.0321036688418417,-0.1494140625,0.359375,0.525390625,42.506470588235295,282.5042942288532
-0.98329296875,-0.04291064453125,-0.3470532226562499,1.0436246093128334,-0.11962890625,0.37353515625,0.50830078125,42.45941176470589,282.5042942288532
-0.98329296875,-0.03998095703125,-0.3470532226562499,1.043508255201851,-0.07666015625,0.6103515625,0.42822265625,42.31823529411765,282.5042942288532
-0.96571484375,-0.02923876953125,-0.3504711914062499,1.0277597584496607,0.00341796875,1.0,0.3759765625,42.31823529411765,282.5042942288532
-0.96669140625,-0.02044970703125,-0.3441235351562499,1.0263193815200518,0.0751953125,1.79296875,0.3076171875,42.31823529411765,282.5686240285626
-0.9613203125,-0.01996142578125,-0.3470532226562499,1.0222431907821186,0.16845703125,2.54638671875,0.298828125,42.27117647058824,282.5686240285626
-0.96766796875,-0.03119189453125,-0.3280102539062499,1.0222254930771597,0.1083984375,3.44873046875,0.29248046875,42.27117647058824,282.5686240285626
-0.979875,-0.01068408203125,-0.3607250976562499,1.044218253677344,0.15234375,3.9248046875,0.2041015625,42.41235294117647,282.5686240285626
-0.99598828125,-0.00921923828125,-0.3997875976562499,1.0732696650802962,0.474609375,3.7529296875,-0.09228515625,42.31823529411765,282.4184649513776
-0.946671875,-0.03705126953125,-0.3846508789062499,1.02250512670267,0.0107421875,2.37109375,-0.646484375,42.31823529411765,282.4184649513776
-0.91005078125,-0.06781298828125,-0.4227368164062499,1.0057322913075128,0.01611328125,1.296875,-0.33349609375,42.27117647058824,282.4184649513776
-0.90419140625,-0.06878955078125,-0.4115063476562499,0.995806997160808,0.01123046875,0.849609375,0.14111328125,42.45941176470589,282.4184649513776
-0.915421875,-0.04046923828125,-0.3909985351562499,0.996250381666132,0.0615234375,0.5224609375,0.240234375,43.25941176470588,282.4184649513776
-0.938859375,-0.04925830078125,-0.3846508789062499,1.015795060464756,0.05712890625,0.23388671875,0.0634765625,42.506470588235295,282.35413615300405
-0.94911328125,-0.02923876953125,-0.3919750976562499,1.0272854537427607,0.27880859375,0.18212890625,0.24951171875,42.41235294117647,282.35413615300405
-0.9496015625,-0.07269580078125,-0.3343579101562499,1.009367633242578,0.01904296875,-0.037109375,0.06494140625,42.41235294117647,282.35413615300405
-0.94130078125,-0.05169970703125,-0.3558422851562499,1.0076426709871904,-0.24609375,0.01123046875,0.14111328125,41.84764705882353,282.35413615300405
-0.96815625,-0.03558642578125,-0.3626782226562499,1.0344701113628385,-0.2646484375,0.21923828125,0.09375,43.02411764705882,282.5578911250131
-0.9652265625,-0.02875048828125,-0.3690258789062499,1.033764483252596,-0.22216796875,0.31494140625,-0.064453125,42.41235294117647,282.5578911250131
-0.96180859375,-0.02679736328125,-0.3411938476562499,1.020885454577866,-0.2490234375,0.3671875,-0.064453125,42.60058823529412,282.5578911250131
-0.97645703125,-0.04535205078125,-0.3704907226562499,1.045365255765648,-0.27294921875,0.72607421875,-0.166015625,42.60058823529412,282.5578911250131
-0.977921875,-0.04632861328125,-0.3577954101562499,1.0423507516862829,-0.21875,1.04248046875,-0.18212890625,42.45941176470589,282.5578911250131
-0.96815625,-0.05316455078125,-0.3787915039062499,1.0409783846484966,-0.24951171875,1.3505859375,-0.16748046875,42.506470588235295,282.2575402266637
-0.946671875,-0.04242236328125,-0.3704907226562499,1.0174726882804923,-0.22412109375,1.46826171875,-0.18896484375,42.31823529411765,282.2575402266637
-0.92860546875,-0.03802783203125,-0.3934399414062499,1.0092319951800763,-0.18212890625,1.36865234375,-0.19677734375,42.41235294117647,282.2575402266637
-0.92176953125,-0.03802783203125,-0.3983227539062499,1.0048712360443504,-0.1796875,1.0888671875,-0.06494140625,42.45941176470589,282.2575402266637
-0.9144453125,-0.03998095703125,-0.4007641601562499,0.9992099972198546,-0.20654296875,0.6943359375,0.0986328125,42.31823529411765,282.225410513315
-0.9203046875,-0.03998095703125,-0.3934399414062499,1.0016756871629464,-0.24462890625,0.32958984375,0.14501953125,42.41235294117647,282.225410513315
-0.9339765625,-0.03753955078125,-0.3812329101562499,1.0094850018491497,-0.27783203125,0.2236328125,0.169921875,42.27117647058824,282.225410513315
-0.95008984375,-0.03168017578125,-0.3787915039062499,1.0233070644562114,-0.28466796875,0.35107421875,0.138671875,42.31823529411765,282.225410513315
-0.97450390625,-0.03509814453125,-0.3773266601562499,1.0455932055587946,-0.28662109375,0.537109375,0.09033203125,42.41235294117647,282.225410513315
-0.974015625,-0.03949267578125,-0.3934399414062499,1.051218862406044,-0.2685546875,0.744140625,0.0595703125,42.31823529411765,282.49349398486464
-0.946671875,-0.03753955078125,-0.3924633789062499,1.0254873770902226,-0.2880859375,0.8701171875,0.11474609375,42.506470588235295,282.49349398486464
-0.9408125,-0.03314501953125,-0.3802563476562499,1.0152938699750176,-0.2861328125,0.884765625,0.0224609375,42.31823529411765,282.49349398486464
-0.93446484375,-0.03021533203125,-0.3905102539062499,1.0132303631950603,-0.228515625,0.880859375,-0.18896484375,42.41235294117647,282.49349398486464
-0.9124921875,-0.03949267578125,-0.3861157226562499,0.9916082971472436,-0.1650390625,0.904296875,-0.18994140625,43.07117647058824,282.49349398486464
-0.91200390625,-0.04779345703125,-0.3870922851562499,0.9919051248873272,-0.14208984375,0.81787109375,-0.341796875,42.41235294117647,282.49349398486464
-0.9203046875,-0.03509814453125,-0.3797680664062499,0.9962009746260796,-0.12744140625,0.64599609375,-0.36474609375,42.224117647058826,282.49349398486464
-0.92274609375,-0.02923876953125,-0.3743969726562499,0.9962370964327468,-0.0986328125,0.71240234375,-0.07568359375,42.41235294117647,282.49349398486464
-0.91688671875,-0.02289111328125,-0.3870922851562499,0.9955127800861644,-0.0927734375,0.7021484375,-0.083984375,42.45941176470589,282.49349398486464
-0.92274609375,-0.03607470703125,-0.3968579101562499,1.0051158833049354,-0.14697265625,0.474609375,-0.02587890625,42.41235294117647,282.5685576398793
-0.94813671875,-0.04486376953125,-0.4022290039062499,1.0309045381809043,-0.13232421875,0.4013671875,0.13232421875,42.224117647058826,282.5685576398793
-0.96278515625,-0.04339892578125,-0.3885571289062499,1.0391416488035554,-0.13623046875,0.43505859375,0.15625,42.27117647058824,282.5685576398793
-0.948625,-0.03509814453125,-0.3743969726562499,1.0204383193063171,-0.099609375,0.5380859375,0.11767578125,42.31823529411765,282.5685576398793
-0.931046875,-0.04046923828125,-0.3675610351562499,1.0017919730460334,-0.0712890625,0.64501953125,0.0810546875,42.506470588235295,282.38626630595684
-0.923234375,-0.04046923828125,-0.3812329101562499,0.9996689463091812,-0.06591796875,0.5927734375,0.10009765625,41.84764705882353,282.38626630595684
-0.93251171875,-0.03705126953125,-0.3939282226562499,1.0129809212344862,-0.0478515625,0.35205078125,0.05810546875,41.84764705882353,282.38626630595684
-0.9554609375,-0.03949267578125,-0.3924633789062499,1.0336792434364022,-0.06005859375,0.13916015625,0.0498046875,42.74176470588235,282.38626630595684
-0.9788984375,-0.03705126953125,-0.3978344726562499,1.0573018562111272,-0.06787109375,0.22216796875,0.0185546875,42.41235294117647,282.38626630595684
-0.98378125,-0.03363330078125,-0.3909985351562499,1.0591678815312224,-0.0654296875,0.4638671875,-0.02783203125,42.31823529411765,282.5899905902916
-0.966203125,-0.03753955078125,-0.3812329101562499,1.0393729977341275,-0.08984375,0.705078125,-0.0673828125,42.506470588235295,282.5899905902916
-0.94716015625,-0.04095751953125,-0.3831860351562499,1.0225563150909802,-0.09912109375,0.8994140625,-0.076171875,42.27117647058824,282.5899905902916
-0.92567578125,-0.03753955078125,-0.3851391601562499,1.003303066152754,-0.06103515625,0.93017578125,-0.146484375,42.41235294117647,282.5899905902916
-0.91395703125,-0.04193408203125,-0.3812329101562499,0.991168226888514,-0.06591796875,0.72216796875,-0.19970703125,42.506470588235295,282.53639212426594
-0.91298046875,-0.03900439453125,-0.3778149414062499,0.9888370993553626,-0.080078125,0.45703125,-0.11669921875,43.16529411764706,282.53639212426594
-0.92567578125,-0.04535205078125,-0.3704907226562499,0.998096105631724,-0.0673828125,0.3857421875,-0.1162109375,41.84764705882353,282.53639212426594
-0.94618359375,-0.04974658203125,-0.3792797851562499,1.020583789276328,-0.08447265625,0.5244140625,-0.14990234375,42.41235294117647,282.53639212426594
-0.96376171875,-0.04779345703125,-0.3836743164062499,1.038425175991393,-0.068359375,0.66455078125,-0.1162109375,43.07117647058824,282.53639212426594
-0.96571484375,-0.04632861328125,-0.3905102539062499,1.042712692093836,-0.07568359375,0.73388671875,-0.0126953125,42.41235294117647,282.4827611750248
-0.94911328125,-0.06927783203125,-0.3724438476562499,1.02192458543333,-0.1640625,0.5615234375,-0.18505859375,43.16529411764706,282.4827611750248
-0.9183515625,-0.04144580078125,-0.3909985351562499,0.9989830835619408,-0.22314453125,0.55224609375,-0.150390625,41.89470588235295,282.4827611750248
-0.931046875,-0.04144580078125,-0.3807446289062499,1.0067435176302963,-0.1513671875,0.65625,-0.248046875,42.31823529411765,282.4827611750248
-0.919328125,-0.04437548828125,-0.3812329101562499,0.9962288477867012,-0.16748046875,0.55322265625,-0.3203125,42.41235294117647,282.60078922757003
-0.933,-0.03851611328125,-0.3934399414062499,1.0132953559925395,-0.07568359375,0.5234375,-0.24609375,41.89470588235295,282.60078922757003
-0.942765625,-0.04437548828125,-0.3831860351562499,1.018630328029068,-0.037109375,0.52587890625,-0.2216796875,42.41235294117647,282.60078922757003
-0.94471875,-0.04486376953125,-0.3905102539062499,1.023232394338666,-0.0244140625,0.494140625,-0.21533203125,42.27117647058824,282.60078922757003
-0.9515546875,-0.05072314453125,-0.3939282226562499,1.0311200731726025,-0.0283203125,0.41552734375,-0.1875,42.45941176470589,282.60078922757003
-0.9564375,-0.05414111328125,-0.3953930664062499,1.0363588319282662,-0.04248046875,0.30712890625,-0.10009765625,42.41235294117647,282.439863203253
-0.9613203125,-0.05267626953125,-0.3841625976562499,1.0365772687237669,-0.041015625,0.3466796875,-0.05908203125,41.89470588235295,282.439863203253
-0.966203125,-0.05267626953125,-0.3787915039062499,1.0391372727234132,-0.0419921875,0.43017578125,-0.0654296875,42.31823529411765,282.439863203253
-0.966203125,-0.05267626953125,-0.3768383789062499,1.0384269025541395,-0.06494140625,0.494140625,-0.09326171875,42.506470588235295,282.439863203253
-0.948625,-0.04925830078125,-0.3763500976562499,1.021741242598499,-0.08154296875,0.375,-0.08740234375,42.506470588235295,282.7401848373214
-0.93837109375,-0.05023486328125,-0.3675610351562499,1.0090416074868227,-0.08544921875,0.50341796875,-0.1201171875,42.41235294117647,282.7401848373214
-0.92909375,-0.04632861328125,-0.3768383789062499,1.0036775879306643,-0.0966796875,0.4541015625,-0.15283203125,42.224117647058826,282.7401848373214
-0.92372265625,-0.04339892578125,-0.3812329101562499,1.0002427426453668,-0.1396484375,0.404296875,-0.0712890625,42.27117647058824,282.7401848373214
-0.931046875,-0.04144580078125,-0.3700024414062499,1.0027301952650325,-0.1484375,0.42333984375,-0.00048828125,42.41235294117647,282.7401848373214
-0.942765625,-0.03851611328125,-0.3675610351562499,1.012616229985017,-0.2470703125,0.5478515625,-0.01416015625,42.13,282.5363593275239
-0.95253125,-0.05023486328125,-0.3743969726562499,1.0247011353802693,-0.11962890625,0.6337890625,0.00048828125,42.27117647058824,282.5363593275239
-0.95692578125,-0.05755908203125,-0.3792797851562499,1.0309573968760175,-0.13671875,0.7001953125,0.05078125,42.506470588235295,282.5363593275239
-0.9671796875,-0.05462939453125,-0.3909985351562499,1.0446534225061352,-0.142578125,0.7451171875,0.0498046875,42.41235294117647,282.5363593275239
-0.95887890625,-0.05658251953125,-0.3792797851562499,1.0327165602409365,-0.3154296875,0.53662109375,-0.0185546875,42.41235294117647,282.2253418255128
-0.9574140625,-0.04291064453125,-0.4159008789062499,1.0447279796970277,-0.1806640625,0.6240234375,-0.0185546875,42.45941176470589,282.2253418255128
-0.9574140625,-0.05755908203125,-0.3880688476562499,1.0346749081321551,0.00390625,0.6396484375,-0.3369140625,42.27117647058824,282.2253418255128
-0.9339765625,-0.06976611328125,-0.3685375976562499,1.0064787582199282,-0.09423828125,0.42626953125,-0.51708984375,43.07117647058824,282.2253418255128
-0.9300703125,-0.05755908203125,-0.3743969726562499,1.0042494347781794,-0.0556640625,0.43798828125,-0.3876953125,43.16529411764706,282.2253418255128
-0.91883984375,-0.04095751953125,-0.3582836914062499,0.9870721252250853,-0.0927734375,0.61279296875,-0.2080078125,42.60058823529412,282.5041937533285
-0.92372265625,-0.03314501953125,-0.3631665039062499,0.9931022341877854,-0.09033203125,0.6845703125,-0.20361328125,42.41235294117647,282.5041937533285
-0.9144453125,-0.04437548828125,-0.3826977539062499,0.9922887605724006,-0.06689453125,0.67919921875,-0.1494140625,42.41235294117647,282.5041937533285
-0.93641796875,-0.05560595703125,-0.3831860351562499,1.0133124751003533,-0.00146484375,0.615234375,-0.04931640625,42.45941176470589,282.5041937533285
-0.958390625,-0.05853564453125,-0.3851391601562499,1.034539116928133,-0.21337890625,0.638671875,0.18701171875,42.45941176470589,282.579290437441
-0.95692578125,-0.08197314453125,-0.3592602539062499,1.025424047544257,-0.314453125,0.5400390625,0.23388671875,43.16529411764706,282.579290437441
-0.954484375,-0.05511767578125,-0.4076000976562499,1.0393345081887988,-0.42822265625,0.294921875,0.2802734375,42.45941176470589,282.579290437441
-0.95790234375,-0.05365283203125,-0.3988110351562499,1.0389926699977805,-0.2353515625,0.2744140625,0.31201171875,43.25941176470588,282.579290437441
-0.9691328125,-0.05023486328125,-0.3875805664062499,1.0449692077802273,-0.06884765625,0.23193359375,0.21044921875,43.16529411764706,282.579290437441
-0.9613203125,-0.05804736328125,-0.3739086914062499,1.0331088757329197,-0.0341796875,0.13720703125,0.12060546875,42.41235294117647,282.3648006092729
-0.96180859375,-0.06048876953125,-0.3817211914062499,1.0365547405802378,-0.02099609375,0.12060546875,0.1455078125,42.31823529411765,282.3648006092729
-0.95301953125,-0.05023486328125,-0.3768383789062499,1.0260491860771326,-0.05224609375,0.10302734375,0.17431640625,42.31823529411765,282.3648006092729
-0.94911328125,-0.05023486328125,-0.3724438476562499,1.020810453409946,-0.06787109375,0.119140625,0.20654296875,42.224117647058826,282.3648006092729
-0.93739453125,-0.04388720703125,-0.3612133789062499,1.005539506563159,-0.208984375,-0.01220703125,0.16064453125,41.84764705882353,282.439863203253
-0.9437421875,-0.04828173828125,-0.3704907226562499,1.0150092700527886,-0.13916015625,0.02490234375,0.1875,42.41235294117647,282.439863203253
-0.9398359375,-0.05023486328125,-0.3631665039062499,1.0088136797570095,-0.15869140625,-0.00244140625,0.24853515625,41.84764705882353,282.439863203253
-0.9476484375,-0.05072314453125,-0.3558422851562499,1.0135255943450818,-0.13818359375,0.08203125,0.09130859375,42.31823529411765,282.439863203253
-0.9515546875,-0.04974658203125,-0.3607250976562499,1.018849175200199,-0.09521484375,0.21435546875,0.05908203125,42.506470588235295,282.439863203253
-0.950578125,-0.05365283203125,-0.3680493164062499,1.0207534949343045,-0.10693359375,0.20703125,0.01708984375,41.98882352941177,282.5899905902916
-0.94618359375,-0.04779345703125,-0.3665844726562499,1.015840431962286,-0.15625,0.1962890625,0.11328125,42.31823529411765,282.5899905902916
-0.946671875,-0.03949267578125,-0.3675610351562499,1.016291505878856,-0.16748046875,0.18212890625,0.27099609375,41.84764705882353,282.5899905902916
-0.94423046875,-0.04828173828125,-0.3587719726562499,1.0112465736559808,-0.14697265625,0.19677734375,0.4970703125,42.45941176470589,282.5899905902916
-0.97352734375,-0.05511767578125,-0.3485180664062499,1.0354990535118846,-0.126953125,0.26904296875,0.3193359375,42.45941176470589,282.39689917820976
-0.96571484375,-0.05267626953125,-0.3367993164062499,1.0241160717138136,-0.12939453125,0.47216796875,0.22119140625,41.89470588235295,282.39689917820976
-0.97255078125,-0.05121142578125,-0.3519360351562499,1.0355368680457664,-0.07666015625,0.8017578125,0.0791015625,42.506470588235295,282.39689917820976
-0.97450390625,-0.04877001953125,-0.3543774414062499,1.0380846541006314,-0.0576171875,0.94580078125,-0.02392578125,42.27117647058824,282.39689917820976
-0.97352734375,-0.05707080078125,-0.3719555664062499,1.043725782335254,-0.06005859375,0.93310546875,-0.05517578125,43.16529411764706,282.39689917820976
-0.9671796875,-0.06097705078125,-0.3822094726562499,1.0417479683794664,-0.08984375,0.740234375,0.05126953125,43.02411764705882,282.30037060853675
-0.95887890625,-0.05804736328125,-0.3778149414062499,1.0322608116096,-0.0947265625,0.45849609375,0.10888671875,42.60058823529412,282.30037060853675
-0.95887890625,-0.05218798828125,-0.3646313476562499,1.0271944132761108,-0.12841796875,0.23681640625,0.14111328125,42.45941176470589,282.30037060853675
-0.9710859375,-0.05072314453125,-0.3568188476562499,1.0358090680449394,-0.1044921875,0.24169921875,0.13525390625,42.31823529411765,282.30037060853675
-0.98378125,-0.05414111328125,-0.3568188476562499,1.0478914533679669,-0.0966796875,0.37060546875,0.04931640625,42.41235294117647,282.55776033472927
-0.97743359375,-0.05755908203125,-0.3460766601562499,1.0384885809772897,-0.09912109375,0.2001953125,-0.0029296875,41.89470588235295,282.55776033472927
-0.966203125,-0.05902392578125,-0.3451000976562499,1.0276800961275594,-0.099609375,0.15283203125,0.001953125,42.08294117647059,282.55776033472927
-0.9730390625,-0.05121142578125,-0.3480297851562499,1.0346750014556905,-0.12841796875,0.16064453125,-0.0576171875,43.21235294117647,282.55776033472927
-0.97157421875,-0.04681689453125,-0.3426586914062499,1.0312920357248312,-0.1396484375,0.34423828125,-0.06689453125,42.506470588235295,282.55776033472927
-0.95790234375,-0.05560595703125,-0.3250805664062499,1.0130875072145116,-0.29833984375,0.40966796875,-0.06494140625,42.64764705882353,282.5576975620784
-0.946671875,-0.04193408203125,-0.3534008789062499,1.011354679310641,-0.349609375,0.41162109375,-0.01806640625,42.41235294117647,282.5576975620784
-0.95008984375,-0.03314501953125,-0.3626782226562499,1.0174992858502274,-0.236328125,0.66015625,-0.03759765625,42.45941176470589,282.5576975620784
-0.946671875,-0.03509814453125,-0.3499829101562499,1.0099047262326233,-0.1533203125,0.9287109375,-0.06103515625,43.16529411764706,282.5576975620784
-0.93934765625,-0.04632861328125,-0.3534008789062499,1.0046952477854376,-0.15869140625,0.93408203125,-0.0009765625,42.41235294117647,282.5470276833154
-0.9476484375,-0.04584033203125,-0.3675610351562499,1.0174674499472014,-0.166015625,0.79541015625,0.0693359375,42.45941176470589,282.5470276833154
-0.9671796875,-0.04437548828125,-0.3719555664062499,1.0371869046866102,-0.23681640625,0.61767578125,0.05029296875,41.84764705882353,282.5470276833154
-0.981828125,-0.04535205078125,-0.3783032226562499,1.053165041113303,-0.11669921875,0.701171875,0.0263671875,42.41235294117647,282.5470276833154
-0.9788984375,-0.04974658203125,-0.3695141601562499,1.0475006386249663,-0.109375,0.658203125,0.05712890625,42.506470588235295,282.5470276833154
-0.96571484375,-0.04877001953125,-0.3763500976562499,1.0376044864253595,-0.14990234375,0.568359375,0.18896484375,41.84764705882353,282.2681725839168
-0.96864453125,-0.04535205078125,-0.3734204101562499,1.0391207048037585,-0.08935546875,0.51220703125,0.05517578125,42.41235294117647,282.2681725839168
-0.95985546875,-0.05804736328125,-0.3602368164062499,1.0268702844895736,-0.06494140625,0.39208984375,-0.23046875,43.21235294117647,282.2681725839168
-0.93934765625,-0.05560595703125,-0.3534008789062499,1.0051657689015476,-0.0791015625,0.3486328125,-0.31298828125,41.84764705882353,282.2681725839168
-0.9242109375,-0.05072314453125,-0.3372875976562499,0.9851404051801406,-0.06396484375,0.42529296875,-0.15283203125,42.03588235294118,282.41829987963143
-0.91591015625,-0.03949267578125,-0.3377758789062499,0.9770074872451858,-0.080078125,0.572265625,0.02490234375,41.84764705882353,282.41829987963143
-0.933,-0.03168017578125,-0.3490063476562499,0.9966433987349168,-0.09765625,0.5947265625,-0.00537109375,42.506470588235295,282.41829987963143
-0.9496015625,-0.04486376953125,-0.3612133789062499,1.0169714796491909,-0.12646484375,0.43603515625,-0.0048828125,42.41235294117647,282.41829987963143
-0.970109375,-0.04779345703125,-0.3612133789062499,1.0362777229578752,-0.20068359375,0.32421875,0.146484375,42.27117647058824,282.41829987963143
-0.98524609375,-0.06293017578125,-0.3573071289062499,1.0499230717727468,-0.3701171875,0.35791015625,0.2236328125,43.02411764705882,282.03218699959444
-0.9828046875,-0.04681689453125,-0.3529125976562499,1.0452962149410114,-0.17578125,0.56298828125,0.25244140625,42.224117647058826,282.03218699959444
-0.96766796875,-0.05023486328125,-0.3534008789062499,1.031405361846324,-0.15234375,0.595703125,0.2685546875,43.07117647058824,282.03218699959444
-0.974015625,-0.04779345703125,-0.3480297851562499,1.0354300476782794,-0.13623046875,0.5673828125,0.31396484375,42.41235294117647,282.03218699959444
-0.97596875,-0.04828173828125,-0.3529125976562499,1.0389386068543722,-0.1201171875,0.5283203125,0.294921875,43.21235294117647,282.17157923291995
-0.974015625,-0.04584033203125,-0.3470532226562499,1.0350138709896426,-0.1240234375,0.52490234375,0.240234375,42.224117647058826,282.17157923291995
-0.962296875,-0.04046923828125,-0.3411938476562499,1.0217956138877806,-0.1357421875,0.54345703125,0.2255859375,42.45941176470589,282.17157923291995
-0.97645703125,-0.04730517578125,-0.3441235351562499,1.0364010425417824,-0.10498046875,0.70263671875,0.2529296875,42.506470588235295,282.17157923291995
-0.942765625,-0.03460986328125,-0.3553540039062499,1.0081077990027607,-0.171875,0.77490234375,0.22265625,42.31823529411765,282.17157923291995
-0.94716015625,-0.03705126953125,-0.3490063476562499,1.010094346517075,-0.18994140625,0.8671875,0.166015625,43.25941176470588,282.6006278241074
-0.9417890625,-0.03753955078125,-0.3519360351562499,1.006098816696943,-0.21630859375,0.92431640625,0.142578125,42.224117647058826,282.6006278241074
-0.94130078125,-0.04291064453125,-0.3524243164062499,1.006027525960577,-0.27197265625,1.0400390625,0.17041015625,42.31823529411765,282.6006278241074
-0.96034375,-0.04291064453125,-0.3612133789062499,1.0269257746687537,-0.373046875,1.1201171875,0.0791015625,42.45941176470589,282.6006278241074
-0.97743359375,-0.04193408203125,-0.3660961914062499,1.044586673660451,-0.2529296875,1.060546875,0.01025390625,42.27117647058824,282.10724902025834
-0.97743359375,-0.04535205078125,-0.3675610351562499,1.04524368128501,-0.2119140625,1.00048828125,-0.00341796875,42.45941176470589,282.10724902025834
-0.954484375,-0.04828173828125,-0.3597485351562499,1.0211711692550214,-0.2421875,0.92626953125,0.09814453125,42.31823529411765,282.10724902025834
-0.94618359375,-0.03949267578125,-0.3587719726562499,1.0126896824228462,-0.25244140625,0.9189453125,0.18017578125,43.21235294117647,282.10724902025834
-0.95253125,-0.03900439453125,-0.3617016601562499,1.0196397481361246,-0.23095703125,0.87890625,0.1494140625,42.45941176470589,282.10724902025834
-0.9593671875,-0.03998095703125,-0.3607250976562499,1.025722415400924,-0.21435546875,0.77197265625,0.119140625,41.89470588235295,282.78298918614104
-0.954484375,-0.04046923828125,-0.3690258789062499,1.02413782308278,-0.1884765625,0.7138671875,0.10302734375,42.45941176470589,282.78298918614104
-0.94716015625,-0.04486376953125,-0.3695141601562499,1.0176766843944378,-0.185546875,0.63818359375,0.1044921875,43.07117647058824,282.78298918614104
-0.95106640625,-0.03851611328125,-0.3709790039062499,1.0215851513304497,-0.20361328125,0.580078125,0.0830078125,41.84764705882353,282.78298918614104
-0.94520703125,-0.04046923828125,-0.3577954101562499,1.011470042413705,-0.208984375,0.6201171875,0.0908203125,42.31823529411765,282.79369110111713
-0.950578125,-0.03753955078125,-0.3573071289062499,1.0162068558952952,-0.1806640625,0.685546875,0.03271484375,42.31823529411765,282.79369110111713
-0.94911328125,-0.03900439453125,-0.3553540039062499,1.0142060103993142,-0.1904296875,0.65771484375,0.02392578125,41.89470588235295,282.79369110111713
-0.958390625,-0.03705126953125,-0.3631665039062499,1.0255609666037686,-0.19384765625,0.5712890625,0.072265625,42.27117647058824,282.79369110111713
-0.958390625,-0.03168017578125,-0.3626782226562499,1.0252081334121956,-0.21240234375,0.54638671875,0.16259765625,41.98882352941177,282.79369110111713
-0.97352734375,-0.04291064453125,-0.3548657226562499,1.0370759343265856,-0.19873046875,0.53076171875,0.09033203125,42.41235294117647,282.2574399358134
-0.96962109375,-0.03802783203125,-0.3543774414062499,1.0330510889745883,-0.21728515625,0.6328125,0.09765625,42.31823529411765,282.2574399358134
-0.97255078125,-0.03265673828125,-0.3446118164062499,1.0323171938275415,-0.25244140625,0.810546875,0.095703125,41.84764705882353,282.2574399358134
-0.9788984375,-0.03656298828125,-0.3573071289062499,1.0427115552343438,-0.244140625,1.0390625,0.0859375,42.506470588235295,282.2574399358134
-0.9593671875,-0.03802783203125,-0.3612133789062499,1.0258199752205683,-0.21044921875,1.1533203125,-0.0244140625,42.60058823529412,282.6542596849642
-0.9456953125,-0.03705126953125,-0.3641430664062499,1.014057490219414,-0.22998046875,1.1484375,-0.03271484375,42.506470588235295,282.6542596849642
-0.94716015625,-0.03460986328125,-0.3680493164062499,1.0167450533594835,-0.23876953125,1.17236328125,-0.03955078125,42.224117647058826,282.6542596849642
-0.93934765625,-0.03070361328125,-0.3680493164062499,1.009344852108535,-0.22900390625,1.18505859375,-0.02197265625,42.224117647058826,282.6542596849642
-0.9437421875,-0.03265673828125,-0.3822094726562499,1.0187246242290524,-0.3271484375,1.09912109375,0.0703125,41.84764705882353,282.6542596849642
-0.938859375,-0.03119189453125,-0.3729321289062499,1.0106969046555885,-0.27294921875,1.14794921875,0.03369140625,42.41235294117647,282.50409721152425
-0.94423046875,-0.02875048828125,-0.3797680664062499,1.018146135362796,-0.28564453125,1.1591796875,-0.01416015625,43.07117647058824,282.50409721152425
-0.95008984375,-0.03802783203125,-0.3973461914062499,1.0305342415616032,-0.248046875,1.1220703125,-0.01953125,42.224117647058826,282.50409721152425
-0.9574140625,-0.04681689453125,-0.4046704101562499,1.040476645361313,-0.18505859375,0.9521484375,0.00439453125,42.45941176470589,282.50409721152425
-0.9613203125,-0.04339892578125,-0.4207836914062499,1.0502757375744405,-0.1513671875,0.7275390625,0.0537109375,42.45941176470589,282.5791626663205
-0.948625,-0.04974658203125,-0.4139477539062499,1.0362030959289887,-0.130859375,0.54638671875,0.0,42.506470588235295,282.5791626663205
-0.94618359375,-0.03460986328125,-0.3983227539062499,1.0271914388260208,-0.09033203125,0.4033203125,0.16748046875,42.41235294117647,282.5791626663205
-0.93837109375,-0.02582080078125,-0.3846508789062499,1.014476871092637,-0.13134765625,0.3232421875,0.2578125,43.21235294117647,282.5791626663205
-0.9574140625,-0.01849658203125,-0.3817211914062499,1.0308709320706446,-0.13720703125,0.126953125,0.1357421875,42.224117647058826,282.5791626663205
-0.9691328125,-0.02972705078125,-0.3846508789062499,1.043100380814647,-0.04443359375,-0.14892578125,-0.2001953125,42.45941176470589,282.60053622704527
-0.948625,-0.03949267578125,-0.3792797851562499,1.0224002237350764,0.01708984375,-0.32177734375,-0.283203125,43.25941176470588,282.60053622704527
-0.95301953125,-0.04535205078125,-0.3617016601562499,1.0203583323586976,-0.0068359375,-0.3466796875,-0.45166015625,42.31823529411765,282.60053622704527
-0.9398359375,-0.02728564453125,-0.3641430664062499,1.008283823447414,0.0712890625,0.01123046875,-0.353515625,42.45941176470589,282.60053622704527
-0.93641796875,-0.02044970703125,-0.3446118164062499,0.998025103252596,0.1748046875,0.40283203125,-0.24365234375,42.31823529411765,282.30030545584714
-0.919328125,-0.02240283203125,-0.3534008789062499,0.9851691578154212,0.2060546875,0.666015625,-0.30126953125,41.84764705882353,282.30030545584714
-0.923234375,-0.03949267578125,-0.3592602539062499,0.9914581749417304,0.08740234375,0.70947265625,-0.17578125,42.45941176470589,282.30030545584714
-0.94423046875,-0.04388720703125,-0.3729321289062499,1.0161572899051583,-0.0234375,0.64013671875,-0.0283203125,41.84764705882353,282.30030545584714
-0.95399609375,-0.04974658203125,-0.3480297851562499,1.016714316152751,-0.1103515625,0.60009765625,0.08984375,42.27117647058824,282.30030545584714
-0.94471875,-0.03802783203125,-0.3646313476562499,1.01335860005438,-0.09375,0.615234375,0.119140625,42.41235294117647,282.34317198339016
-0.94130078125,-0.03363330078125,-0.3641430664062499,1.0098408451409802,-0.0380859375,0.65185546875,0.103515625,42.31823529411765,282.34317198339016
-0.9242109375,-0.04242236328125,-0.3617016601562499,0.993374856164974,-0.0556640625,0.5146484375,0.17138671875,42.506470588235295,282.34317198339016
-0.92958203125,-0.04193408203125,-0.3675610351562499,1.0004910467484522,-0.103515625,0.318359375,0.216796875,42.506470588235295,282.34317198339016
-0.95497265625,-0.03656298828125,-0.3592602539062499,1.020968930151167,-0.09814453125,0.40380859375,0.1083984375,42.31823529411765,282.5469650300373
-0.96083203125,-0.03070361328125,-0.3646313476562499,1.0281521890450551,-0.095703125,0.6845703125,0.00146484375,42.506470588235295,282.5469650300373
-0.9535078125,-0.02875048828125,-0.3734204101562499,1.0244249810484942,-0.08740234375,0.90869140625,-0.0458984375,42.41235294117647,282.5469650300373
-0.94325390625,-0.02337939453125,-0.3743969726562499,1.0151096595337357,-0.1044921875,0.95458984375,-0.09326171875,43.21235294117647,282.5469650300373
-0.93544140625,-0.02923876953125,-0.3763500976562499,1.0087343189247346,-0.11181640625,0.91064453125,-0.13818359375,41.84764705882353,282.5469650300373
-0.9339765625,-0.03070361328125,-0.3753735351562499,1.0070552229463594,-0.10693359375,0.76220703125,-0.12255859375,42.45941176470589,282.23587868069137
-0.94032421875,-0.03656298828125,-0.3783032226562499,1.0142286806987648,-0.1181640625,0.51904296875,-0.1328125,42.31823529411765,282.23587868069137
-0.96669140625,-0.03900439453125,-0.3880688476562499,1.042406373844482,-0.0869140625,0.35986328125,-0.16748046875,42.31823529411765,282.23587868069137
-0.96278515625,-0.05072314453125,-0.3807446289062499,1.0365782975383158,-0.083984375,0.2548828125,-0.13623046875,43.25941176470588,282.23587868069137
-0.9554609375,-0.04486376953125,-0.3778149414062499,1.0284271927826198,-0.05810546875,0.134765625,-0.1240234375,42.31823529411765,282.41826817651315
-0.94032421875,-0.04144580078125,-0.3675610351562499,1.0104595515582655,0.00830078125,0.0703125,-0.21435546875,41.84764705882353,282.41826817651315
-0.954484375,-0.02240283203125,-0.3680493164062499,1.0232314539288112,-0.00048828125,-0.17431640625,-0.3798828125,42.506470588235295,282.41826817651315
-0.97938671875,-0.04291064453125,-0.3094555664062499,1.0280089570902542,-0.2138671875,-0.31591796875,-1.18994140625,42.27117647058824,282.41826817651315
-1.0706953125,0.01519482421875,-0.3978344726562499,1.142318520608936,0.2412109375,0.197265625,-1.89208984375,42.45941176470589,282.41826817651315
-1.01454296875,-0.08343798828125,-0.3026196289062499,1.0619971624857771,0.1533203125,1.05859375,-1.96728515625,42.83588235294118,282.64349632103915
-0.95106640625,-0.09320361328125,-0.3128735351562499,1.005536708244478,0.041015625,1.80810546875,-1.49462890625,43.07117647058824,282.64349632103915
-0.92469921875,-0.06878955078125,-0.3392407226562499,0.9873626058150476,0.03662109375,2.48095703125,-1.103515625,43.07117647058824,282.64349632103915
-0.891984375,-0.07757861328125,-0.3470532226562499,0.9602606447412448,0.01708984375,2.66845703125,-0.98291015625,43.02411764705882,282.64349632103915
-0.9124921875,-0.08441455078125,-0.3704907226562499,0.9884488778922692,-0.10546875,2.52978515625,-0.68017578125,41.84764705882353,282.353842246904
-0.9417890625,-0.07611376953125,-0.4061352539062499,1.0284482430450157,-0.09375,2.3564453125,-0.41015625,42.08294117647059,282.353842246904
-0.931046875,-0.08050830078125,-0.3924633789062499,1.013586391840607,-0.10986328125,1.892578125,-0.2958984375,42.45941176470589,282.353842246904
-0.9281171875,-0.07171923828125,-0.4105297851562499,1.0173887493839264,-0.0927734375,1.48291015625,-0.2197265625,42.60058823529412,282.353842246904
-0.9261640625,-0.07806689453125,-0.4051586914062499,1.013917095185934,-0.0732421875,1.0693359375,-0.16259765625,42.27117647058824,282.353842246904
-0.9300703125,-0.07562548828125,-0.4178540039062499,1.0224245543080963,-0.0703125,0.71875,-0.08154296875,42.224117647058826,282.40753563943
-0.93739453125,-0.07416064453125,-0.3992993164062499,1.0215910397498582,-0.0498046875,0.4755859375,-0.056640625,41.84764705882353,282.40753563943
-0.94618359375,-0.07367236328125,-0.3968579101562499,1.0286822692389983,-0.0771484375,0.34716796875,-0.07421875,43.21235294117647,282.40753563943
-0.94423046875,-0.06927783203125,-0.3968579101562499,1.026580146398897,-0.037109375,0.4208984375,-0.15087890625,42.506470588235295,282.40753563943
-0.9456953125,-0.07318408203125,-0.4002758789062499,1.0295223713846149,0.02392578125,0.55224609375,-0.2412109375,42.506470588235295,282.8150372802399
-0.917375,-0.08929736328125,-0.3695141601562499,0.9930214621396468,0.12109375,0.69775390625,-0.06494140625,42.41235294117647,282.8150372802399
-0.79872265625,-0.07953173828125,-0.3773266601562499,0.8869377585071926,-0.20654296875,0.7236328125,0.06591796875,41.84764705882353,282.8150372802399
-0.94423046875,-0.06195361328125,-0.4032055664062499,1.028583568357687,-0.04296875,1.15185546875,0.12158203125,42.45941176470589,282.8150372802399
-0.9564375,-0.06537158203125,-0.3895336914062499,1.0347862735290307,-0.0576171875,1.3349609375,0.087890625,41.84764705882353,282.8150372802399
-0.95985546875,-0.06732470703125,-0.3875805664062499,1.0373397864354357,-0.130859375,1.451171875,-0.1484375,41.89470588235295,282.4718074273234
-0.9593671875,-0.04974658203125,-0.4090649414062499,1.0441236752239416,-0.046875,1.6494140625,-0.2216796875,42.31823529411765,282.4718074273234
-0.95399609375,-0.05755908203125,-0.3953930664062499,1.034290709509022,-0.044921875,1.60546875,-0.3603515625,42.41235294117647,282.4718074273234
-0.958390625,-0.06097705078125,-0.4046704101562499,1.0421079270718066,0.00927734375,1.65771484375,-0.59619140625,42.224117647058826,282.4718074273234
-0.9496015625,-0.07464892578125,-0.3983227539062499,1.0324614307092517,0.12353515625,1.5654296875,-0.7734375,42.45941176470589,282.5683689638228
-0.94423046875,-0.08197314453125,-0.4056469726562499,1.0309414343042802,0.02392578125,1.59619140625,-0.8359375,42.506470588235295,282.5683689638228
-0.9085859375,-0.08539111328125,-0.3690258789062499,0.9843780510315616,-0.1845703125,1.40771484375,-0.666015625,42.31823529411765,282.5683689638228
-0.9183515625,-0.03851611328125,-0.3924633789062499,0.9994401368321147,-0.45751953125,1.1474609375,-0.2568359375,42.31823529411765,282.5683689638228
-0.981828125,-0.06683642578125,-0.4398266601562499,1.0779151477905995,-0.17138671875,1.76318359375,-0.5029296875,41.84764705882353,282.5683689638228
-0.96766796875,-0.09125048828125,-0.4144360351562499,1.056629157553562,-0.00830078125,2.13330078125,-0.84423828125,43.16529411764706,282.4289385126089
-0.923234375,-0.11810595703125,-0.3890454101562499,1.008794854978728,-0.13916015625,2.06884765625,-1.1142578125,42.41235294117647,282.4289385126089
-0.87684765625,-0.11273486328125,-0.4124829101562499,0.9755578469989,-0.2255859375,2.05712890625,-1.0751953125,42.31823529411765,282.4289385126089
-0.8470625,-0.12835986328125,-0.4051586914062499,0.9477049639153824,-0.29638671875,2.0615234375,-0.6796875,41.84764705882353,282.4289385126089
-0.85096875,-0.12005908203125,-0.4251782226562499,0.95882142116031,-0.3408203125,2.15087890625,-0.0380859375,42.41235294117647,282.39677196907184
-0.89149609375,-0.11029345703125,-0.4451977539062499,1.0025622035158632,-0.26513671875,2.259765625,0.27880859375,42.45941176470589,282.39677196907184
-0.9251875,-0.09222705078125,-0.4534985351562499,1.0344750651615156,-0.19287109375,2.15673828125,0.283203125,42.506470588235295,282.39677196907184
-0.9437421875,-0.09418017578125,-0.4564282226562499,1.0525426093107184,-0.23974609375,1.8935546875,0.15478515625,42.31823529411765,282.39677196907184
-0.9515546875,-0.09759814453125,-0.4666821289062499,1.0643185287119807,-0.27978515625,1.59765625,-0.017578125,42.41235294117647,282.39677196907184
-0.9281171875,-0.09466845703125,-0.4544750976562499,1.03774334248852,-0.36181640625,1.26318359375,-0.04931640625,42.41235294117647,282.589833856099
-0.9105390625,-0.09564501953125,-0.4554516601562499,1.0225779035548326,-0.47314453125,0.86083984375,-0.01416015625,42.45941176470589,282.589833856099
-0.91688671875,-0.08587939453125,-0.4847485351562499,1.040690956894181,-0.23779296875,0.80322265625,-0.02978515625,42.41235294117647,282.589833856099
-0.9144453125,-0.09808642578125,-0.4661938476562499,1.0311003249288122,-0.07568359375,0.73876953125,-0.02197265625,43.21235294117647,282.589833856099
-0.9124921875,-0.10492236328125,-0.4559399414062499,1.0254423068776677,-0.12841796875,0.53076171875,0.0263671875,42.31823529411765,282.27880853009776
-0.91688671875,-0.09076220703125,-0.4603344726562499,1.029964494514754,-0.15185546875,0.41162109375,0.06787109375,43.16529411764706,282.27880853009776
-0.91786328125,-0.09271533203125,-0.4554516601562499,1.0288368921261355,-0.14306640625,0.36767578125,0.05712890625,42.31823529411765,282.27880853009776
-0.90712109375,-0.09125048828125,-0.4515454101562499,1.0173930350513212,-0.18701171875,0.3427734375,0.0458984375,42.31823529411765,282.27880853009776
-0.90614453125,-0.09515673828125,-0.4412915039062499,1.0123689583222355,-0.1904296875,0.36767578125,0.06103515625,42.31823529411765,282.27880853009776
-0.9066328125,-0.09759814453125,-0.4422680664062499,1.0134641074455109,-0.208984375,0.3994140625,0.10009765625,42.506470588235295,282.63273352695745
-0.90907421875,-0.09613330078125,-0.4476391601562499,1.0178596978073229,-0.20458984375,0.54052734375,0.15234375,42.31823529411765,282.63273352695745
-0.9222578125,-0.09613330078125,-0.4417797851562499,1.0271175506284984,-0.1845703125,0.7060546875,0.16162109375,41.84764705882353,282.63273352695745
-0.92860546875,-0.08783251953125,-0.4442211914062499,1.0331288085103438,-0.1806640625,0.8662109375,0.08349609375,42.506470588235295,282.63273352695745
-0.9281171875,-0.08734423828125,-0.4461743164062499,1.0334902274885944,-0.130859375,1.06298828125,-0.0185546875,42.41235294117647,282.69709829285426
-0.93641796875,-0.08783251953125,-0.4530102539062499,1.0439403497467126,-0.16748046875,1.23828125,-0.087890625,43.16529411764706,282.69709829285426
-0.923234375,-0.08832080078125,-0.4471508789062499,1.0296145800924312,-0.2392578125,1.38330078125,-0.037109375,42.31823529411765,282.69709829285426
-0.91493359375,-0.08343798828125,-0.4539868164062499,1.024777736063481,-0.34130859375,1.4404296875,0.0537109375,42.41235294117647,282.69709829285426
-0.91200390625,-0.08685595703125,-0.4539868164062499,1.0224476083192504,-0.37060546875,1.4267578125,0.06884765625,42.27117647058824,282.69709829285426
-0.9085859375,-0.07660205078125,-0.4681469726562499,1.0249672521665554,-0.40087890625,1.32958984375,-0.06396484375,42.60058823529412,282.63270368971433
-0.91346875,-0.07806689453125,-0.4876782226562499,1.0384361540804878,-0.1708984375,1.42822265625,-0.16845703125,43.21235294117647,282.63270368971433
-0.907609375,-0.09564501953125,-0.4564282226562499,1.0204065218265548,-0.1640625,1.30126953125,-0.20361328125,42.224117647058826,282.63270368971433
-0.90565625,-0.09369189453125,-0.4725415039062499,1.0258103563421934,-0.26171875,1.09619140625,-0.14013671875,42.27117647058824,282.63270368971433
-0.9095625,-0.09173876953125,-0.4808422851562499,1.0329226720503537,-0.19677734375,1.0048828125,-0.1015625,42.64764705882353,282.278746238603
-0.9095625,-0.08587939453125,-0.4818188476562499,1.0328739583163575,-0.138671875,0.95263671875,-0.0927734375,43.16529411764706,282.278746238603
-0.9183515625,-0.09271533203125,-0.4793774414062499,1.040080985533847,-0.0927734375,0.92578125,-0.0703125,42.506470588235295,282.278746238603
-0.9203046875,-0.09613330078125,-0.4823071289062499,1.0434665763441402,-0.09716796875,0.84912109375,-0.02099609375,42.45941176470589,282.278746238603
-0.91346875,-0.09857470703125,-0.4744946289062499,1.034063481104395,-0.13427734375,0.69873046875,-0.02783203125,42.506470588235295,282.278746238603
-0.91591015625,-0.09271533203125,-0.4827954101562499,1.0395089971633271,-0.13037109375,0.580078125,-0.03857421875,42.45941176470589,282.5468743282395
-0.9105390625,-0.08929736328125,-0.4867016601562499,1.0363078256127436,-0.09033203125,0.5,-0.044921875,42.506470588235295,282.5468743282395
-0.90907421875,-0.09564501953125,-0.4730297851562499,1.0292332498525414,-0.068359375,0.4287109375,-0.0732421875,41.89470588235295,282.5468743282395
-0.90223828125,-0.09466845703125,-0.4730297851562499,1.023109578957503,-0.0712890625,0.35107421875,-0.06640625,42.31823529411765,282.5468743282395
-0.903703125,-0.09369189453125,-0.4725415039062499,1.0240864134191026,-0.08544921875,0.33251953125,-0.0224609375,41.84764705882353,282.4289080610436
-0.90516796875,-0.09125048828125,-0.4696118164062499,1.0238119755946131,-0.0947265625,0.326171875,0.06689453125,42.224117647058826,282.4289080610436
-0.907609375,-0.08929736328125,-0.4666821289062499,1.0244613248519163,-0.08935546875,0.373046875,0.07666015625,42.45941176470589,282.4289080610436
-0.91591015625,-0.08832080078125,-0.4676586914062499,1.0321805219148183,-0.080078125,0.44873046875,0.06201171875,42.31823529411765,282.4289080610436
-0.919328125,-0.08783251953125,-0.4632641601562499,1.0331952550164458,-0.08203125,0.53564453125,0.0478515625,42.31823529411765,282.4289080610436
-0.915421875,-0.08685595703125,-0.4627758789062499,1.029418612906228,-0.080078125,0.62109375,0.00146484375,42.41235294117647,282.07486342267015
-0.91395703125,-0.09173876953125,-0.4647290039062499,1.029420469914076,-0.06884765625,0.63720703125,-0.046875,42.41235294117647,282.07486342267015
-0.90565625,-0.09515673828125,-0.4681469726562499,1.0239285307147177,-0.06591796875,0.62353515625,-0.10791015625,42.41235294117647,282.07486342267015
-0.90321484375,-0.10345751953125,-0.4632641601562499,1.0203500352345618,-0.0654296875,0.56640625,-0.103515625,42.45941176470589,282.07486342267015
-0.907609375,-0.09710986328125,-0.4784008789062499,1.0305593161350133,-0.08740234375,0.57275390625,-0.0166015625,41.84764705882353,282.3859488799836
-0.91786328125,-0.10296923828125,-0.4720532226562499,1.0372607734409842,-0.06640625,0.5341796875,0.0048828125,43.25941176470588,282.3859488799836
-0.92762890625,-0.09076220703125,-0.4720532226562499,1.0447810349331126,-0.11962890625,0.52978515625,0.0556640625,42.41235294117647,282.3859488799836
-0.9261640625,-0.08880908203125,-0.4715649414062499,1.0430917589940096,-0.17578125,0.45654296875,0.037109375,42.224117647058826,282.3859488799836
-0.91200390625,-0.10150439453125,-0.4754711914062499,1.033502356543851,-0.17041015625,0.3564453125,0.037109375,42.45941176470589,282.3859488799836
-0.90028515625,-0.09906298828125,-0.4696118164062499,1.0202264926572313,-0.19140625,0.2724609375,0.0791015625,42.31823529411765,282.46107506205607
-0.89735546875,-0.09857470703125,-0.4676586914062499,1.0166948715369992,-0.1474609375,0.22705078125,0.078125,42.27117647058824,282.46107506205607
-0.895890625,-0.09710986328125,-0.4583813476562499,1.0110211656481547,-0.15576171875,0.07177734375,0.16162109375,43.21235294117647,282.46107506205607
-0.9066328125,-0.09369189453125,-0.4671704101562499,1.0242116089598252,-0.15576171875,0.02734375,0.22412109375,42.506470588235295,282.46107506205607
-0.94227734375,-0.08929736328125,-0.4671704101562499,1.0555135260900723,-0.1064453125,0.11865234375,0.0927734375,41.84764705882353,282.31091273891064
-0.96034375,-0.10345751953125,-0.4500805664062499,1.0656153587332498,-0.140625,0.0009765625,-0.1689453125,43.07117647058824,282.31091273891064
-0.92860546875,-0.08197314453125,-0.4578930664062499,1.0386018357771505,-0.099609375,0.03466796875,-0.52197265625,42.64764705882353,282.31091273891064
-0.89735546875,-0.08929736328125,-0.4451977539062499,1.0056947332405026,-0.01611328125,0.205078125,-0.70947265625,41.84764705882353,282.31091273891064
-0.87587109375,-0.10541064453125,-0.4417797851562499,0.9866260463924604,-0.04931640625,0.4814453125,-0.3427734375,42.31823529411765,282.31091273891064
-0.8753828125,-0.10931689453125,-0.4442211914062499,0.9877133788426452,-0.07666015625,0.8388671875,0.224609375,42.64764705882353,282.52540966242583
-0.89833203125,-0.10443408203125,-0.4574047851562499,1.0134722755671692,-0.12890625,1.05712890625,0.482421875,41.84764705882353,282.52540966242583
-0.923234375,-0.08441455078125,-0.4749829101562499,1.0416795536563732,-0.18359375,1.0087890625,0.35888671875,41.89470588235295,282.52540966242583
-0.94716015625,-0.08539111328125,-0.4725415039062499,1.0619319548487631,-0.1923828125,0.82958984375,0.18408203125,42.41235294117647,282.52540966242583
-0.93153515625,-0.07464892578125,-0.4647290039062499,1.0436969179420343,-0.23046875,0.576171875,0.12646484375,42.506470588235295,282.73993961627843
-0.9339765625,-0.07953173828125,-0.4735180664062499,1.0501699271577278,-0.19580078125,0.2939453125,0.03369140625,42.27117647058824,282.73993961627843
-0.91346875,-0.08392626953125,-0.4613110351562499,1.0267797461485717,-0.21630859375,0.0380859375,0.08447265625,43.16529411764706,282.73993961627843
-0.91005078125,-0.08832080078125,-0.4608227539062499,1.0238899349159152,-0.18701171875,-0.11767578125,0.1708984375,42.45941176470589,282.73993961627843
-0.90809765625,-0.09027392578125,-0.4583813476562499,1.0212268087167815,-0.1884765625,-0.1875,0.265625,42.41235294117647,282.73993961627843
-0.915421875,-0.08929736328125,-0.4505688476562499,1.0241989625047372,-0.1787109375,-0.18310546875,0.2626953125,41.89470588235295,282.20368143419614
-0.91591015625,-0.08197314453125,-0.4427563476562499,1.020609716853677,-0.16845703125,-0.1103515625,0.16748046875,42.224117647058826,282.20368143419614
-0.9203046875,-0.08392626953125,-0.4515454101562499,1.0285414887038251,-0.166015625,0.029296875,0.04638671875,42.45941176470589,282.20368143419614
-0.92079296875,-0.08099658203125,-0.4525219726562499,1.0291726159089578,-0.17041015625,0.26513671875,-0.00537109375,42.41235294117647,282.20368143419614
-0.9163984375,-0.09076220703125,-0.4466625976562499,1.0234897901897475,-0.1640625,0.45361328125,0.00390625,41.89470588235295,282.20365048770606
-0.91298046875,-0.09271533203125,-0.4476391601562499,1.0210339302971414,-0.18603515625,0.6396484375,0.06298828125,42.41235294117647,282.20365048770606
-0.917375,-0.08929736328125,-0.4530102539062499,1.0270195713121482,-0.16259765625,0.68310546875,0.0380859375,42.31823529411765,282.20365048770606
-0.91688671875,-0.09271533203125,-0.4544750976562499,1.0275334555154223,-0.13525390625,0.69775390625,-0.02392578125,42.224117647058826,282.20365048770606
-0.923234375,-0.08880908203125,-0.4549633789062499,1.033073298647616,-0.10400390625,0.58740234375,-0.08544921875,42.60058823529412,282.20365048770606
-0.92762890625,-0.09418017578125,-0.4588696289062499,1.0391951835691493,-0.10205078125,0.4189453125,-0.11865234375,42.45941176470589,282.707771574759
-0.92079296875,-0.10052783203125,-0.4500805664062499,1.0298242823748682,-0.09423828125,0.2373046875,-0.12548828125,42.45941176470589,282.707771574759
-0.90419140625,-0.10296923828125,-0.4417797851562499,1.0115997932686995,-0.1611328125,0.00537109375,-0.00634765625,42.45941176470589,282.707771574759
-0.89930859375,-0.10248095703125,-0.4437329101562499,1.0080462235941257,-0.15234375,-0.099609375,0.11572265625,41.84764705882353,282.707771574759
-0.90809765625,-0.10101611328125,-0.4378735351562499,1.013202270634756,-0.140625,-0.2451171875,0.1669921875,41.84764705882353,282.7185039494859
-0.923234375,-0.09222705078125,-0.4408032226562499,1.0272171246535873,-0.11962890625,-0.24462890625,0.103515625,43.21235294117647,282.7185039494859
-0.93837109375,-0.08880908203125,-0.4368969726562499,1.038896687526243,-0.0859375,-0.2158203125,-0.01416015625,42.45941176470589,282.7185039494859
-0.93348828125,-0.08978564453125,-0.4276196289062499,1.0306892743309644,-0.0986328125,-0.099609375,-0.0830078125,42.31823529411765,282.7185039494859
-0.9300703125,-0.09418017578125,-0.4271313476562499,1.0277849385229767,-0.12646484375,0.0185546875,-0.0546875,43.25941176470588,282.7185039494859
-0.92079296875,-0.09759814453125,-0.4305493164062499,1.0211551316882614,-0.13232421875,0.15234375,-0.01708984375,41.84764705882353,282.67560373270595
-0.92128125,-0.09466845703125,-0.4242016601562499,1.018660054599943,-0.14990234375,0.2841796875,0.0302734375,42.27117647058824,282.67560373270595
-0.92909375,-0.08587939453125,-0.4242016601562499,1.0249573235864191,-0.13623046875,0.36474609375,0.04150390625,42.506470588235295,282.67560373270595
-0.94520703125,-0.08734423828125,-0.4261547851562499,1.0405062463997703,-0.1416015625,0.4423828125,0.04345703125,42.224117647058826,282.67560373270595
-0.9554609375,-0.08539111328125,-0.4300610351562499,1.0512610233788064,-0.15625,0.47607421875,0.00732421875,42.41235294117647,282.33237746613486
-0.942765625,-0.08880908203125,-0.4256665039062499,1.0382129113436431,-0.154296875,0.439453125,-0.1103515625,41.84764705882353,282.33237746613486
-0.9281171875,-0.09125048828125,-0.4285961914062499,1.0263639026351326,-0.1533203125,0.4365234375,-0.1376953125,42.506470588235295,282.33237746613486
-0.91591015625,-0.08929736328125,-0.4276196289062499,1.0147531623191928,-0.1435546875,0.4541015625,-0.1337890625,42.03588235294118,282.33237746613486
-0.91395703125,-0.09564501953125,-0.4305493164062499,1.0148094099831435,-0.13720703125,0.515625,-0.00244140625,42.41235294117647,282.33237746613486
-0.91883984375,-0.09857470703125,-0.4329907226562499,1.020521727958402,-0.17333984375,0.5458984375,0.1083984375,42.69470588235294,282.52540966242583
-0.92665234375,-0.08734423828125,-0.4364086914062499,1.0279913073918552,-0.16162109375,0.5419921875,0.107421875,42.45941176470589,282.52540966242583
-0.92860546875,-0.08343798828125,-0.4466625976562499,1.0338169521853753,-0.1533203125,0.51806640625,0.05224609375,41.89470588235295,282.52540966242583
-0.93348828125,-0.07953173828125,-0.4422680664062499,1.0360148218958258,-0.15576171875,0.44482421875,-0.07958984375,41.89470588235295,282.52540966242583
-0.9251875,-0.08734423828125,-0.4408032226562499,1.0285467452776842,-0.138671875,0.357421875,-0.11865234375,42.506470588235295,282.3859786557276
-0.9183515625,-0.09466845703125,-0.4378735351562499,1.0217949607886607,-0.14013671875,0.26171875,-0.10498046875,42.97705882352941,282.3859786557276
-0.907609375,-0.09222705078125,-0.4320141601562499,1.0094042010310875,-0.14892578125,0.1484375,-0.025390625,42.224117647058826,282.3859786557276
-0.90565625,-0.09613330078125,-0.4310375976562499,1.0075952884350106,-0.134765625,-0.0087890625,0.00537109375,42.45941176470589,282.3859786557276
-0.90565625,-0.08246142578125,-0.4368969726562499,1.0089063854600857,-0.12158203125,-0.0849609375,-0.0009765625,43.25941176470588,282.3859786557276
-0.91591015625,-0.09613330078125,-0.4168774414062499,1.010900503014228,-0.09765625,-0.2265625,-0.04150390625,42.41235294117647,282.10709041754905
-0.92079296875,-0.10003955078125,-0.4163891601562499,1.0155035872489964,-0.15283203125,-0.22998046875,0.03125,42.31823529411765,282.10709041754905
-0.93544140625,-0.09418017578125,-0.4105297851562499,1.0258924088507535,-0.14111328125,-0.0849609375,0.16748046875,43.16529411764706,282.10709041754905
-0.95106640625,-0.09320361328125,-0.4076000976562499,1.0389186985685432,-0.11181640625,0.08935546875,0.15576171875,43.21235294117647,282.10709041754905
-0.9535078125,-0.08441455078125,-0.4110180664062499,1.041747961742411,-0.16943359375,0.220703125,0.03564453125,42.31823529411765,282.3108825067981
-0.95106640625,-0.08099658203125,-0.4124829101562499,1.0398220552426285,-0.107421875,0.41064453125,-0.08447265625,42.27117647058824,282.3108825067981
-0.93690625,-0.10003955078125,-0.3939282226562499,1.0212642545466324,-0.13330078125,0.51025390625,-0.1884765625,42.31823529411765,282.3108825067981
-0.91981640625,-0.09222705078125,-0.4090649414062499,1.0108917728373157,-0.142578125,0.6650390625,-0.0859375,42.27117647058824,282.3108825067981
-0.9144453125,-0.09955126953125,-0.4085766601562499,1.0065066179826847,-0.00146484375,0.81494140625,-0.0166015625,42.224117647058826,282.3108825067981
-0.90907421875,-0.09613330078125,-0.4119946289062499,1.002694929159722,-0.17138671875,0.96533203125,0.22705078125,42.224117647058826,282.557548279433
-0.92860546875,-0.10101611328125,-0.4129711914062499,1.0213019028016912,-0.19677734375,1.009765625,0.19921875,42.31823529411765,282.557548279433
-0.9408125,-0.08392626953125,-0.4212719726562499,1.0342349122996042,-0.109375,0.9658203125,-0.01318359375,42.27117647058824,282.557548279433
-0.94520703125,-0.08343798828125,-0.4232250976562499,1.0389887935386997,-0.07666015625,0.77587890625,-0.35986328125,42.41235294117647,282.557548279433
-0.931046875,-0.08441455078125,-0.4339672851562499,1.0306802144296512,0.00341796875,0.73193359375,-0.71630859375,42.27117647058824,282.2679534517202
-0.89051953125,-0.09808642578125,-0.4017407226562499,0.9818561965484692,-0.0234375,0.6708984375,-0.6904296875,42.41235294117647,282.2679534517202
-0.8773359375,-0.11175830078125,-0.4173657226562499,0.9779582871835024,-0.0087890625,0.7470703125,-0.19091796875,42.31823529411765,282.2679534517202
-0.88368359375,-0.10785205078125,-0.4134594726562499,0.9815688942961776,-0.087890625,0.88427734375,0.34912109375,42.45941176470589,282.2679534517202
-0.9203046875,-0.09466845703125,-0.4251782226562499,1.0181843426473804,-0.1123046875,0.90087890625,0.47265625,42.41235294117647,282.2679534517202
-0.95106640625,-0.07855517578125,-0.4285961914062499,1.0461323625752412,-0.13720703125,0.78759765625,0.31396484375,42.506470588235295,282.5682805264344
-0.958390625,-0.08246142578125,-0.4300610351562499,1.0536911173533885,-0.1328125,0.5654296875,0.12451171875,43.16529411764706,282.5682805264344
-0.917375,-0.08197314453125,-0.4202954101562499,1.0123955347826024,-0.125,0.37255859375,-0.16748046875,42.41235294117647,282.5682805264344
-0.89442578125,-0.09125048828125,-0.4056469726562499,0.9863435487706196,-0.00048828125,0.07861328125,-0.009765625,42.31823529411765,282.5682805264344
-0.89833203125,-0.10785205078125,-0.3992993164062499,0.9889754533404612,-0.10107421875,0.06396484375,0.3125,42.506470588235295,282.52535161872896
-0.93055859375,-0.09515673828125,-0.4163891601562499,1.0239013790096834,-0.11474609375,0.23974609375,0.5146484375,41.84764705882353,282.52535161872896
-0.9691328125,-0.07855517578125,-0.4134594726562499,1.05656900363174,-0.11474609375,0.48876953125,0.35791015625,43.16529411764706,282.52535161872896
-0.99794140625,-0.07464892578125,-0.4129711914062499,1.0825916669548217,-0.09521484375,0.80908203125,-0.02783203125,41.84764705882353,282.52535161872896
-0.98036328125,-0.07611376953125,-0.4188305664062499,1.0687958235751591,-0.09716796875,1.1025390625,-0.349609375,43.07117647058824,282.52535161872896
-0.933,-0.09125048828125,-0.4217602539062499,1.027957860705696,-0.1025390625,1.30908203125,-0.40771484375,42.224117647058826,282.3323172002546
-0.89149609375,-0.10394580078125,-0.4251782226562499,0.9931498052623742,-0.10107421875,1.42041015625,-0.3740234375,43.07117647058824,282.3323172002546
-0.8734296875,-0.10736376953125,-0.4305493164062499,0.9796831691277524,-0.0966796875,1.34228515625,-0.0146484375,42.31823529411765,282.3323172002546
-0.8812421875,-0.09808642578125,-0.4300610351562499,0.9854751310469438,-0.08984375,1.142578125,0.15576171875,41.84764705882353,282.3323172002546
-0.9095625,-0.09418017578125,-0.4378735351562499,1.0138575243626045,-0.06005859375,0.84814453125,0.14599609375,42.27117647058824,282.54681604580674
-0.938859375,-0.09027392578125,-0.4368969726562499,1.0394639351211494,-0.0654296875,0.56982421875,0.06005859375,42.31823529411765,282.54681604580674
-0.9515546875,-0.08978564453125,-0.4403149414062499,1.0523283864330109,-0.06591796875,0.36962890625,-0.078125,42.41235294117647,282.54681604580674
-0.94813671875,-0.09564501953125,-0.4300610351562499,1.0454968680789123,-0.07861328125,0.33056640625,-0.1337890625,43.25941176470588,282.54681604580674
-0.9281171875,-0.10003955078125,-0.4295727539062499,1.0275904711274937,-0.0546875,0.26806640625,-0.17578125,41.84764705882353,282.54681604580674
-0.90516796875,-0.10052783203125,-0.4222485351562499,1.0038569231247565,-0.0517578125,0.322265625,-0.103515625,42.41235294117647,282.8149252371244
-0.90419140625,-0.10492236328125,-0.4178540039062499,1.0015851287001816,-0.0625,0.4443359375,0.11962890625,42.45941176470589,282.8149252371244
-0.91883984375,-0.09857470703125,-0.4149243164062499,1.0129885585109115,-0.0498046875,0.51904296875,0.1943359375,42.31823529411765,282.8149252371244
-0.927140625,-0.09076220703125,-0.4110180664062499,1.018215776573368,-0.03515625,0.544921875,0.02685546875,42.27117647058824,282.8149252371244
-0.93153515625,-0.09320361328125,-0.4061352539062499,1.020485426316264,-0.01708984375,0.61962890625,-0.12744140625,42.31823529411765,282.46090307959787
-0.92958203125,-0.10199267578125,-0.4036938476562499,1.018574484940303,-0.03955078125,0.7333984375,-0.1103515625,42.31823529411765,282.46090307959787
-0.92909375,-0.10150439453125,-0.4212719726562499,1.025177259474627,-0.048828125,0.87841796875,-0.0830078125,42.506470588235295,282.46090307959787
-0.93055859375,-0.09808642578125,-0.4090649414062499,1.02122199820226,-0.064453125,0.9833984375,-0.052734375,42.41235294117647,282.46090307959787
-0.93739453125,-0.09271533203125,-0.4232250976562499,1.032678131509143,-0.0703125,1.06494140625,-0.01416015625,42.27117647058824,282.46090307959787
-0.9437421875,-0.10052783203125,-0.4198071289062499,1.037782822637134,-0.080078125,1.10791015625,-0.009765625,42.31823529411765,282.0212326463319
-0.9456953125,-0.09808642578125,-0.4237133789062499,1.0409099857678208,-0.11572265625,1.1142578125,-0.0302734375,42.506470588235295,282.0212326463319
-0.9359296875,-0.09759814453125,-0.4339672851562499,1.0362516018543355,-0.09033203125,1.16796875,-0.03857421875,41.84764705882353,282.0212326463319
-0.92372265625,-0.09759814453125,-0.4285961914062499,1.022977829072283,-0.08447265625,1.08203125,-0.12255859375,42.31823529411765,282.0212326463319
-0.92372265625,-0.08783251953125,-0.4427563476562499,1.0281105390699314,-0.02490234375,1.08154296875,-0.0419921875,42.41235294117647,282.6325610598604
-0.9242109375,-0.09125048828125,-0.4310375976562499,1.0238583491867743,-0.064453125,0.98388671875,-0.07275390625,42.41235294117647,282.6325610598604
-0.917375,-0.09076220703125,-0.4417797851562499,1.0222446123227482,-0.0517578125,0.88037109375,-0.07177734375,42.41235294117647,282.6325610598604
-0.91493359375,-0.09515673828125,-0.4329907226562499,1.0166805062156932,-0.04931640625,0.76953125,-0.0830078125,42.41235294117647,282.6325610598604
-0.91102734375,-0.10199267578125,-0.4417797851562499,1.0176161877377454,-0.08154296875,0.70849609375,-0.04248046875,41.84764705882353,282.6325610598604
-0.9124921875,-0.10394580078125,-0.4378735351562499,1.0174379364554982,-0.0986328125,0.68359375,0.021484375,42.41235294117647,282.3858341478285
-0.915421875,-0.10101611328125,-0.4339672851562499,1.01810071650935,-0.10791015625,0.68115234375,0.00048828125,41.84764705882353,282.3858341478285
-0.92176953125,-0.08783251953125,-0.4398266601562499,1.0250956595421978,-0.0966796875,0.7177734375,0.1533203125,42.41235294117647,282.3858341478285
-0.7992109375,-0.09222705078125,-0.4329907226562499,0.9136328132361587,-0.091796875,0.70361328125,0.06103515625,41.84764705882353,282.3858341478285
-0.917375,-0.08392626953125,-0.4359204101562499,1.0191403796009777,-0.10546875,0.7001953125,-0.03076171875,42.31823529411765,282.38589063973745
-0.91005078125,-0.10150439453125,-0.4295727539062499,1.0114486232436577,-0.099609375,0.69384765625,-0.05712890625,42.41235294117647,282.38589063973745
-0.90907421875,-0.10101611328125,-0.4368969726562499,1.013656329854734,-0.09033203125,0.73779296875,-0.0146484375,42.27117647058824,282.38589063973745
-0.917375,-0.10345751953125,-0.4339672851562499,1.0201019329255507,-0.0771484375,0.82568359375,0.0068359375,42.224117647058826,282.38589063973745
-0.92958203125,-0.09759814453125,-0.4456860351562499,1.035511560810461,-0.07080078125,0.9404296875,-0.00732421875,42.506470588235295,282.38589063973745
-0.94032421875,-0.09173876953125,-0.4339672851562499,1.039689012536341,-0.076171875,1.08056640625,-0.01171875,42.41235294117647,282.55749162596953
-0.94130078125,-0.09320361328125,-0.4398266601562499,1.0431594150918366,-0.10400390625,1.1748046875,-0.05029296875,43.16529411764706,282.55749162596953
-0.92958203125,-0.09662158203125,-0.4408032226562499,1.0333276169933876,-0.12353515625,1.22509765625,-0.0830078125,42.41235294117647,282.55749162596953
-0.90907421875,-0.10052783203125,-0.4442211914062499,1.0167862347136758,-0.103515625,1.24853515625,-0.05517578125,41.84764705882353,282.55749162596953
-0.89784375,-0.10443408203125,-0.4471508789062499,1.0084511814710737,-0.15283203125,1.14990234375,0.01708984375,42.31823529411765,282.5575197341536
-0.8939375,-0.10003955078125,-0.4383618164062499,1.0006464149287455,-0.19775390625,1.0703125,0.21728515625,42.13,282.5575197341536
-0.9183515625,-0.10101611328125,-0.4564282226562499,1.0304855990870443,-0.0908203125,1.03515625,0.21630859375,42.31823529411765,282.5575197341536
-0.938859375,-0.09125048828125,-0.4564282226562499,1.0479075818382555,0.00927734375,0.88330078125,-0.0634765625,42.27117647058824,282.5575197341536
-0.9408125,-0.09662158203125,-0.4447094726562499,1.045098275446224,-0.0205078125,0.64208984375,-0.46142578125,42.45941176470589,282.5575197341536
-0.9183515625,-0.09857470703125,-0.4466625976562499,1.0259600583636368,0.0537109375,0.56884765625,-0.7041015625,41.84764705882353,282.48242292519814
-0.888078125,-0.11078173828125,-0.4315258789062499,0.9935642575122872,0.01025390625,0.59326171875,-0.50927734375,43.07117647058824,282.48242292519814
