AccX,AccY,AccZ,Magnitude,GyroX,GyroY,GyroZ,Temperature,Altitude
-0.11219921875,0.13628857421875,0.8970874023437501,0.914291555027469,0.623046875,0.30517578125,-0.44775390625,43.82411764705883,174.62318669516014
-0.06337109375,0.15923779296875,0.8638842773437501,0.8807205089438778,0.720703125,0.42333984375,-0.32568359375,43.30647058823529,174.62318669516014
-0.01649609375,0.17388623046875,0.8277514648437501,0.8459793317845384,0.8837890625,1.0810546875,-0.0908203125,44.01235294117648,174.62318669516014
0.0020585937499999,0.19195263671875,0.7872241210937501,0.8102912250440178,0.98046875,2.0654296875,0.244140625,44.01235294117648,174.62318669516014
-0.0179609375,0.20757763671875,0.7598803710937501,0.7879271850337414,0.98486328125,2.95751953125,0.5693359375,43.87117647058824,174.62318669516014
-0.07020703125,0.22857373046875,0.7442553710937501,0.7817231190768473,0.9208984375,3.42138671875,0.65087890625,43.82411764705883,174.569832126205
-0.1097578125,0.25884716796875,0.7574389648437501,0.8079371381696716,0.71337890625,2.9990234375,0.49853515625,43.82411764705883,174.569832126205
-0.14540234375,0.26421826171875,0.7921069335937501,0.8475768553004291,0.22265625,1.10009765625,-0.298828125,43.96529411764706,174.569832126205
-0.188859375,0.25640576171875,0.8301928710937501,0.8891748879623439,-0.15771484375,-1.845703125,-1.27197265625,44.15352941176471,174.569832126205
-0.17958203125,0.21246044921875,0.93419677734375,0.9747372811324893,-0.49951171875,-5.3642578125,-1.9111328125,43.40058823529412,174.46312350617717
-0.2064375,0.18414013671875,1.0445483398437505,1.080557849273876,-0.712890625,-8.50341796875,-2.1376953125,43.447647058823534,174.46312350617717
-0.181046875,0.17828076171875,1.1622241210937505,1.1896751273345272,-0.5615234375,-10.8583984375,-1.8046875,43.54176470588236,174.46312350617717
-0.099015625,0.16997998046875,1.2750170898437505,1.2901030451665183,-0.072265625,-11.8720703125,-1.07763671875,44.29470588235294,174.46312350617717
0.0010820312499999,0.15923779296875,1.4039233398437505,1.4129255428575191,0.2158203125,-11.69580078125,-0.51806640625,44.57705882352941,174.46312350617717
0.0049882812499999,0.15728466796875,1.4849780273437505,1.493292701188084,0.0595703125,-10.09033203125,-0.16796875,44.059411764705885,174.64440850142927
-0.07899609375,0.18706982421875,1.4615405273437505,1.4755799588735408,0.22021484375,-5.71630859375,-0.009765625,43.40058823529412,174.64440850142927
-0.13954296875,0.18609326171875,1.4571459960937505,1.475593913011549,0.4599609375,0.25830078125,-0.0576171875,44.76529411764706,174.64440850142927
-0.17567578125,0.17828076171875,1.3843920898437505,1.4068359778377726,0.50244140625,6.923828125,-0.134765625,44.62411764705882,174.64440850142927
-0.1976484375,0.15874951171875,1.2730639648437505,1.2980593865077292,0.52880859375,12.74462890625,-0.19189453125,44.15352941176471,174.8257718408151
-0.20692578125,0.15240185546875,1.1339038085937505,1.1626617958975227,0.478515625,15.99951171875,-0.099609375,44.059411764705885,174.8257718408151
-0.18934765625,0.15826123046875,0.97130615234375,1.002165053061456,0.38330078125,15.99951171875,-0.01611328125,44.71823529411765,174.8257718408151
-0.1878828125,0.18267529296875,0.8096850585937501,0.8510347278484547,0.28466796875,15.99951171875,-0.23388671875,44.76529411764706,174.8257718408151
-0.1839765625,0.20367138671875,0.6675952148437501,0.7218121502160572,0.328125,15.99951171875,-0.7421875,43.82411764705883,174.8257718408151
-0.07606640625,0.20464794921875,0.5552905273437501,0.5966694654806212,0.28759765625,12.8466796875,-0.837890625,43.30647058823529,174.484419773507
0.0157304687499999,0.19585888671875,0.5777514648437501,0.6102498720056415,0.43701171875,7.5576171875,-0.48974609375,43.447647058823534,174.484419773507
0.049421875,0.19146435546875,0.43712646484375,0.479771474152407,0.568359375,1.40380859375,0.01806640625,44.01235294117648,174.484419773507
-0.00477734375,0.21148388671875,0.48253662109375,0.5268679607373635,0.60888671875,-4.53125,0.38525390625,44.76529411764706,174.484419773507
-0.08583203125,0.23492138671875,0.5914233398437501,0.6421345360890484,0.53955078125,-9.66162109375,0.4560546875,44.15352941176471,174.68707760162783
-0.15126171875,0.23980419921875,0.7217944335937501,0.7754826664014306,0.40087890625,-13.35693359375,0.2529296875,44.76529411764706,174.68707760162783
-0.15565625,0.23199169921875,0.8546069335937501,0.8991117992869284,0.27978515625,-15.060546875,-0.06396484375,44.29470588235294,174.68707760162783
-0.165421875,0.21099560546875,0.99181396484375,1.027413491791265,0.14208984375,-14.63134765625,-0.36865234375,43.40058823529412,174.68707760162783
-0.13221875,0.20367138671875,1.0836108398437505,1.110484706714315,0.10888671875,-12.23046875,-0.42138671875,44.01235294117648,174.68707760162783
-0.0570234375,0.20367138671875,1.1417163085937505,1.16114160872014,0.16015625,-8.2431640625,-0.0625,44.15352941176471,174.36702559835226
-0.00575390625,0.20708935546875,1.1807788085937505,1.1988151247834973,0.294921875,-3.19921875,0.6513671875,44.71823529411765,174.36702559835226
-0.01942578125,0.22320263671875,1.2066577148437505,1.2272813934902282,0.35693359375,2.08984375,1.2724609375,43.30647058823529,174.36702559835226
-0.07606640625,0.23394482421875,1.2061694335937505,1.2309999924753858,0.359375,6.54296875,1.45166015625,43.30647058823529,174.36702559835226
-0.09950390625,0.22320263671875,1.1754077148437505,1.2005431023130395,0.26171875,9.8212890625,1.36279296875,43.87117647058824,174.6655578905022
-0.10145703125,0.18951123046875,1.1290209960937505,1.1493025908281802,0.06396484375,11.11328125,1.3974609375,44.059411764705885,174.6655578905022
-0.1253828125,0.15337841796875,1.0748217773437505,1.092926183153,-0.18115234375,10.71435546875,1.60595703125,43.87117647058824,174.6655578905022
-0.1527265625,0.12896435546875,1.0235522460937505,1.042888492772884,-0.4970703125,8.837890625,1.76904296875,43.40058823529412,174.6655578905022
-0.16591015625,0.12603466796875,0.98741943359375,1.009162056022468,-0.798828125,5.9326171875,1.81884765625,43.447647058823534,174.6655578905022
-0.1605390625,0.10992138671875,0.98058349609375,0.9996997022396242,-1.05419921875,2.38134765625,1.88623046875,43.30647058823529,174.37756078825336
-0.18348828125,0.09283154296875,1.0040209960937505,1.024862822685614,-1.19873046875,-0.9345703125,1.9404296875,44.059411764705885,174.37756078825336
-0.220109375,0.09380810546875,1.0562670898437505,1.0830273600890754,-1.2939453125,-3.27490234375,1.78466796875,44.20058823529412,174.37756078825336
-0.22157421875,0.10113232421875,1.1021655273437505,1.128756719174458,-1.33056640625,-4.4501953125,1.4228515625,44.20058823529412,174.37756078825336
-0.16591015625,0.09917919921875,1.1363452148437505,1.1526678362836629,-1.3271484375,-4.04150390625,1.2421875,44.01235294117648,174.4309901137031
-0.1058515625,0.09331982421875,1.1378100585937505,1.1465273098853874,-1.33447265625,-2.18701171875,1.23583984375,43.447647058823534,174.4309901137031
-0.10829296875,0.08990185546875,1.1002124023437505,1.1091785433231292,-1.3486328125,0.56396484375,1.14501953125,43.87117647058824,174.4309901137031
-0.12587109375,0.07232373046875,1.0513842773437505,1.0613591064650916,-1.2509765625,3.8349609375,0.96728515625,44.01235294117648,174.4309901137031
-0.13221875,0.05962841796875,0.96642333984375,0.9772468561605951,-1.4033203125,6.60205078125,0.82080078125,44.059411764705885,174.4309901137031
-0.15419140625,0.05230419921875,0.8843920898437501,0.8992552961175502,-1.41455078125,8.59521484375,0.82666015625,43.87117647058824,174.55907081528426
-0.15028515625,0.04107373046875,0.7906420898437501,0.8058458871001322,-1.423828125,9.4248046875,0.8935546875,44.57705882352941,174.55907081528426
-0.13661328125,0.02642529296875,0.6998217773437501,0.7135208509685903,-1.41455078125,9.0654296875,0.9609375,43.40058823529412,174.55907081528426
-0.09364453125,0.00933544921875,0.6309741210937501,0.6379535957537809,-1.3701171875,7.72119140625,1.06591796875,44.01235294117648,174.55907081528426
-0.17176953125,-0.01752001953125,0.5963061523437501,0.6208000888154155,-1.26171875,4.9482421875,1.3017578125,43.82411764705883,174.50571629007504
-0.0277265625,-0.03558642578125,0.5933764648437501,0.5950888883170454,-1.22802734375,1.2490234375,1.73095703125,44.71823529411765,174.50571629007504
-0.00770703125,-0.05267626953125,0.6256030273437501,0.627864105937011,-1.14599609375,-3.29150390625,2.3271484375,44.15352941176471,174.50571629007504
-0.0199140625,-0.06000048828125,0.5836108398437501,0.5870249065093999,-1.10400390625,-7.78564453125,2.6201171875,44.01235294117648,174.50571629007504
-0.02235546875,-0.06000048828125,0.8062670898437501,0.8088055673288422,-0.96826171875,-11.70166015625,2.4267578125,43.96529411764706,174.50571629007504
-0.0570234375,-0.06146533203125,0.95079833984375,0.954487895426474,-0.92333984375,-14.58349609375,2.185546875,44.57705882352941,174.87912753797565
-0.10048046875,-0.03851611328125,1.1002124023437505,1.1054624126823671,-0.8818359375,-15.71875,2.1748046875,44.15352941176471,174.87912753797565
-0.06434765625,0.00787060546875,1.2066577148437505,1.2083978682897676,-0.76904296875,-15.0849609375,2.29638671875,43.87117647058824,174.87912753797565
0.07139453125,0.01958935546875,1.2720874023437505,1.2742398836725206,-0.58056640625,-12.7060546875,2.39794921875,44.76529411764706,174.87912753797565
0.158796875,0.01958935546875,1.2891772460937505,1.2990681899743803,-0.43017578125,-8.99169921875,2.224609375,43.82411764705883,174.91111157186748
0.15830859375,0.03277294921875,1.3199389648437505,1.3298024469703718,-0.45556640625,-4.171875,1.8935546875,44.15352941176471,174.91111157186748
0.08897265625,0.05816357421875,1.2828295898437505,1.2872260452246782,-0.48828125,1.138671875,1.35693359375,43.30647058823529,174.91111157186748
0.06944140625,0.08111279296875,1.2252124023437505,1.2298564245236567,-0.48046875,6.1015625,0.439453125,43.96529411764706,174.91111157186748
0.0953203125,0.10503857421875,1.1319506835937505,1.140802969025486,-0.521484375,9.857421875,-0.5244140625,43.40058823529412,174.91111157186748
0.12217578125,0.23003857421875,1.0259936523437505,1.0585403354630902,-0.56640625,11.7978515625,-1.34814453125,44.059411764705885,174.7189869362249
0.13291796875,0.09429638671875,0.91759521484375,0.9319549201914146,-0.5625,11.96533203125,-2.025390625,44.62411764705882,174.7189869362249
0.113875,0.08697216796875,0.8253100585937501,0.8376564728110227,-0.60205078125,10.50146484375,-2.62548828125,44.62411764705882,174.7189869362249
0.13584765625,0.07525341796875,0.7442553710937501,0.7602852885769218,-0.56787109375,7.6494140625,-3.3857421875,44.57705882352941,174.7189869362249
0.18369921875,0.04205029296875,0.7032397460937501,0.7280520383833289,-0.59033203125,3.85400390625,-3.6015625,44.01235294117648,174.76173041352914
0.1949296875,-0.00580126953125,0.6802905273437501,0.7076909208055868,-0.60205078125,-0.73095703125,-3.48291015625,43.30647058823529,174.76173041352914
0.190046875,-0.04681689453125,0.6910327148437501,0.7182171324154969,-0.60400390625,-5.05126953125,-3.12158203125,43.40058823529412,174.76173041352914
0.15733203125,-0.08197314453125,0.7247241210937501,0.7461219847831189,-0.60498046875,-8.76318359375,-2.8076171875,44.62411764705882,174.76173041352914
0.1343828125,-0.10931689453125,0.7755053710937501,0.7946178353904609,-0.50146484375,-11.4013671875,-2.7138671875,44.01235294117648,174.76173041352914
0.12510546875,-0.13519580078125,0.8135913085937501,0.8341822943933366,-0.662109375,-12.490234375,-2.798828125,43.40058823529412,174.62303667278388
0.1148515625,-0.15668017578125,0.8414233398437501,0.8635582179131559,-0.5986328125,-11.95361328125,-2.6826171875,43.96529411764706,174.62303667278388
0.1246171875,-0.18060595703125,0.8604663085937501,0.8880035041375336,-0.447265625,-9.91748046875,-2.25048828125,44.059411764705885,174.62303667278388
0.11338671875,-0.18109423828125,0.8511889648437501,0.8775957640048934,-0.32177734375,-6.82177734375,-1.736328125,44.059411764705885,174.62303667278388
0.1246171875,-0.17669970703125,0.8165209960937501,0.8446648844052117,-0.24365234375,-3.205078125,-1.43359375,44.20058823529412,174.62296231268363
0.1675859375,-0.15179736328125,0.7696459960937501,0.8021735755122045,-0.0009765625,0.72412109375,-1.33642578125,44.059411764705885,174.62296231268363
0.18565234375,-0.12933642578125,0.7125170898437501,0.7475796326098936,0.09716796875,3.8681640625,-1.2216796875,43.96529411764706,174.62296231268363
0.1597734375,-0.11273486328125,0.6739428710937501,0.7017376249195247,0.08154296875,6.35498046875,-1.09130859375,44.01235294117648,174.62296231268363
0.11436328125,-0.09125048828125,0.6163256835937501,0.6334532026654665,0.04345703125,8.134765625,-1.1640625,43.96529411764706,174.62296231268363
0.0933671875,-0.07269580078125,0.5357592773437501,0.5486712261571447,-0.01123046875,9.53564453125,-1.52392578125,44.71823529411765,174.61227647800186
0.080671875,-0.07318408203125,0.45812255859375,0.4708929177331681,-0.08056640625,10.11083984375,-2.0380859375,44.01235294117648,174.61227647800186
0.096296875,-0.08050830078125,0.37902099609375,0.3992638101673483,-0.09619140625,10.08740234375,-2.4384765625,43.87117647058824,174.61227647800186
0.1128984375,-0.09710986328125,0.30040771484375,0.335292674948452,-0.03369140625,9.52392578125,-2.3408203125,43.96529411764706,174.61227647800186
0.12608203125,-0.11371142578125,0.22863037109375,0.2847785342047335,0.02001953125,8.31640625,-1.60888671875,43.87117647058824,174.72967278548697
0.11533984375,-0.12689501953125,0.14855224609375,0.2268774897551733,0.240234375,6.73486328125,-0.81005859375,43.40058823529412,174.72967278548697
0.09483203125,-0.10492236328125,0.10021240234375,0.1733330379674608,0.53173828125,4.3388671875,-0.34619140625,43.96529411764706,174.72967278548697
0.0894609375,-0.05902392578125,0.07433349609375,0.1304321731572734,0.8515625,1.11962890625,-0.33251953125,44.76529411764706,174.72967278548697
0.11924609375,-0.01263720703125,0.08556396484375,0.1473109702499001,1.07275390625,-2.30859375,-0.5908203125,44.15352941176471,174.72967278548697
0.150984375,-0.00043017578125,0.11290771484375,0.1885328051469584,1.1611328125,-5.62451171875,-0.72998046875,44.71823529411765,174.4309901137031
0.1949296875,0.02056591796875,0.15831787109375,0.2519624741075589,1.27783203125,-8.2099609375,-0.37890625,43.30647058823529,174.4309901137031
0.217390625,0.01519482421875,0.21398193359375,0.3054142014141605,1.45751953125,-10.11669921875,0.05859375,43.82411764705883,174.4309901137031
0.238875,0.00787060546875,0.28038818359375,0.3684301094569324,1.60791015625,-11.4326171875,0.3701171875,44.76529411764706,174.4309901137031
0.27061328125,0.0015229492187499,0.34679443359375,0.4398866291839574,1.73974609375,-12.45263671875,0.3291015625,43.447647058823534,174.4949554168645
0.30283984375,-0.02582080078125,0.42003662109375,0.5184683671887457,1.7392578125,-13.1357421875,0.076171875,44.76529411764706,174.4949554168645
0.32432421875,-0.07367236328125,0.5064624023437501,0.6059026167355979,1.6337890625,-13.61572265625,-0.2744140625,44.62411764705882,174.4949554168645
0.3433671875,-0.11761767578125,0.6036303710937501,0.7043469088557298,1.53369140625,-13.998046875,-0.58251953125,44.76529411764706,174.4949554168645
0.363875,-0.15082080078125,0.6920092773437501,0.7962592351132367,1.48681640625,-14.0419921875,-0.392578125,43.40058823529412,174.4949554168645
0.36143359375,-0.15033251953125,0.7686694335937501,0.8626046645254072,1.49169921875,-13.4375,0.33740234375,43.447647058823534,174.48426956393274
0.32090625,-0.13959033203125,0.8267749023437501,0.8977878486764981,1.52685546875,-11.68310546875,1.27490234375,43.30647058823529,174.48426956393274
0.30674609375,-0.07367236328125,0.8702319335937501,0.9256480980311282,1.62451171875,-9.3369140625,1.609375,43.96529411764706,174.48426956393274
0.317,-0.00287158203125,0.8760913085937501,0.9316830077751078,1.42626953125,-6.05712890625,1.353515625,44.62411764705882,174.48426956393274
0.3394609375,0.02203076171875,0.9000170898437501,0.9621589497380878,1.279296875,-3.04345703125,0.89453125,43.447647058823534,174.4736585525672
0.36778125,0.03423779296875,0.92638427734375,0.997307928189,1.03955078125,-0.7021484375,0.8466796875,43.30647058823529,174.4736585525672
0.37608203125,-0.01117236328125,0.93517333984375,1.0080236562129523,0.91748046875,0.6513671875,0.81005859375,43.40058823529412,174.4736585525672
0.440046875,0.0015229492187499,0.93907958984375,1.0370699338196503,0.7880859375,0.857421875,0.830078125,44.059411764705885,174.4736585525672
0.46153125,-0.04437548828125,0.94884521484375,1.0560717401856012,0.70947265625,-0.224609375,0.3798828125,43.40058823529412,174.4736585525672
0.479109375,-0.08685595703125,0.99279052734375,1.1057679601381956,0.67041015625,-2.0283203125,0.36328125,43.30647058823529,174.3988576331201
0.48545703125,-0.12933642578125,1.0084155273437505,1.126631402017495,0.6240234375,-4.33740234375,0.849609375,44.20058823529412,174.3988576331201
0.52842578125,-0.12054736328125,1.0421069335937505,1.174628594121522,0.873046875,-6.26220703125,1.80322265625,44.15352941176471,174.3988576331201
0.57530078125,-0.08783251953125,1.0884936523437505,1.2343030306965566,1.17822265625,-7.92822265625,2.9189453125,44.20058823529412,174.3988576331201
0.5523515625,0.0010346679687499,1.1085131835937505,1.2385050655266407,1.45361328125,-8.31005859375,4.06005859375,43.30647058823529,174.11086771080795
0.47080859375,0.11333935546875,1.1075366210937505,1.208777857387653,1.87353515625,-6.740234375,4.7890625,44.01235294117648,174.11086771080795
0.43076953125,0.21343701171875,1.0967944335937505,1.197529029538328,2.33935546875,-3.4970703125,4.556640625,43.30647058823529,174.11086771080795
0.46104296875,0.26177685546875,1.0762866210937505,1.1997835770831011,2.583984375,0.29443359375,3.6240234375,44.76529411764706,174.11086771080795
0.53135546875,0.24859326171875,1.0391772460937505,1.193325853546084,2.77783203125,3.39208984375,2.1376953125,44.20058823529412,174.11086771080795
0.600203125,0.18267529296875,1.0152514648437505,1.1934611810982227,2.97607421875,5.12890625,1.369140625,43.96529411764706,173.9509626404414
0.67002734375,0.15826123046875,0.99083740234375,1.2065413446399065,3.22802734375,5.42431640625,1.66259765625,44.059411764705885,173.9509626404414
0.73350390625,0.19048779296875,0.98058349609375,1.2392972091332874,3.5703125,4.01123046875,2.35888671875,43.40058823529412,173.9509626404414
0.75059375,0.25640576171875,0.99181396484375,1.2699723749124288,3.8603515625,1.4248046875,2.99658203125,44.76529411764706,173.9509626404414
0.705671875,0.31451123046875,1.0425952148437505,1.2976497567803371,4.005859375,-1.64111328125,3.091796875,44.71823529411765,173.92966819536375
0.64951953125,0.36968701171875,1.0958178710937505,1.326409029944081,4.00341796875,-4.64208984375,2.6162109375,44.29470588235294,173.92966819536375
0.67198046875,0.38775341796875,1.1519702148437505,1.3888649464275042,3.9765625,-7.1328125,1.3076171875,44.76529411764706,173.92966819536375
0.76182421875,0.38580029296875,1.1773608398437505,1.454440288745606,3.9951171875,-8.7294921875,0.16845703125,43.447647058823534,173.92966819536375
0.89268359375,0.35699169921875,1.2139819335937505,1.548573281105394,3.7646484375,-9.3828125,-0.62646484375,43.30647058823529,173.92966819536375
0.99912890625,0.32769482421875,1.2442553710937505,1.6290530677727244,3.328125,-9.3369140625,-1.44482421875,43.87117647058824,173.56673598324792
1.0230546875,0.26958935546875,1.2720874023437505,1.6545469692334058,2.4765625,-7.9287109375,-1.97314453125,44.76529411764706,173.56673598324792
1.0464921875,0.17486279296875,1.3111499023437505,1.6866644483356472,1.99267578125,-6.35595703125,-2.7158203125,43.82411764705883,173.56673598324792
1.080671875,0.05132763671875,1.2999194335937505,1.6912352768145076,1.677734375,-4.57958984375,-3.11328125,44.62411764705882,173.56673598324792
1.1685625,-0.06732470703125,1.3311694335937505,1.7725921678483745,1.451171875,-2.8798828125,-2.7939453125,43.40058823529412,174.0148474709855
1.2554765625,-0.13324267578125,1.3541186523437505,1.8513811963670308,1.091796875,-2.1171875,-1.94775390625,43.96529411764706,174.0148474709855
1.373640625,-0.10248095703125,1.3511889648437505,1.929534278503483,0.90380859375,-1.7705078125,-0.80322265625,44.62411764705882,174.0148474709855
1.400984375,-0.04193408203125,1.3384936523437505,1.938061129994216,1.181640625,-1.5830078125,-0.072265625,44.76529411764706,174.0148474709855
1.34483203125,0.02740185546875,1.3619311523437505,1.914204930952668,1.8671875,-0.8232421875,0.42431640625,44.059411764705885,174.0148474709855
1.22325,0.12603466796875,1.4009936523437505,1.864137471845216,2.60498046875,0.99658203125,0.82568359375,43.30647058823529,174.0040855109248
1.1109453125,0.20220654296875,1.4337084960937505,1.8249950753786977,3.19482421875,3.900390625,0.73974609375,44.01235294117648,174.0040855109248
1.0503984375,0.27691357421875,1.4361499023437505,1.8007066799151403,3.56640625,7.3125,0.10205078125,43.82411764705883,174.0040855109248
1.0074296875,0.28472607421875,1.4424975585937505,1.7823531409755191,3.80712890625,10.7119140625,-0.376953125,43.30647058823529,174.0040855109248
0.98252734375,0.23003857421875,1.4420092773437505,1.7600194552306718,3.98681640625,13.19287109375,-0.4404296875,43.82411764705883,173.78014274991716
0.959578125,0.19439404296875,1.4356616210937505,1.737729412826343,3.966796875,14.5185546875,0.43505859375,43.40058823529412,173.78014274991716
0.90830859375,0.18365185546875,1.4127124023437505,1.6895291762005968,3.7646484375,14.7763671875,1.5537109375,43.96529411764706,173.78014274991716
0.9468828125,0.19781201171875,1.3633959960937505,1.671695335506024,3.4013671875,14.41357421875,2.26708984375,43.96529411764706,173.78014274991716
0.74424609375,0.24322216796875,1.2891772460937505,1.5083226587502483,2.95068359375,14.0869140625,2.66943359375,44.15352941176471,173.78014274991716
0.67100390625,0.28765576171875,1.2271655273437505,1.4279101200543465,2.5361328125,13.537109375,2.74560546875,44.62411764705882,173.77998911951192
0.57627734375,0.30132763671875,1.1563647460937505,1.3266775597629312,2.05224609375,13.14404296875,2.00244140625,44.62411764705882,173.77998911951192
0.4761796875,0.31939404296875,1.0801928710937505,1.2229375651411156,1.84912109375,13.03271484375,1.23779296875,43.87117647058824,173.77998911951192
0.41319140625,0.31304638671875,1.0142749023437505,1.1390692498531163,1.6845703125,13.34375,0.8134765625,43.40058823529412,173.77998911951192
0.37559375,0.31402294921875,0.92638427734375,1.047792396892059,1.68212890625,13.82177734375,1.1875,44.01235294117648,173.97210416372613
0.2984453125,0.32134716796875,0.8565600585937501,0.9623038713903668,1.693359375,14.23095703125,1.625,44.76529411764706,173.97210416372613
0.192,0.33843701171875,0.8077319335937501,0.8965681722257464,1.74658203125,14.39501953125,2.03515625,43.30647058823529,173.97210416372613
0.12217578125,0.34429638671875,0.7842944335937501,0.8652078836891028,1.8369140625,13.4150390625,1.7119140625,43.96529411764706,173.97210416372613
0.104109375,0.32330029296875,0.7613452148437501,0.8336716245393303,1.74560546875,11.4326171875,1.2607421875,43.30647058823529,173.97210416372613
0.09873828125,0.29790966796875,0.7237475585937501,0.7888662415288593,1.87939453125,8.77294921875,1.36669921875,44.059411764705885,173.70549660947057
0.1031328125,0.29156201171875,0.7730639648437501,0.8326299762989461,2.15771484375,5.19482421875,2.17626953125,44.20058823529412,173.70549660947057
0.0738359375,0.29302685546875,0.8238452148437501,0.8775177614802747,2.4990234375,0.88037109375,2.9853515625,43.40058823529412,173.70549660947057
-0.00087109375,0.28228466796875,0.90880615234375,0.9516375439800598,2.892578125,-2.642578125,3.025390625,43.447647058823534,173.70549660947057
-0.048234375,0.23833935546875,0.99962646484375,1.0287785342399562,2.98974609375,-4.92138671875,3.04931640625,43.87117647058824,174.03599163124073
-0.044328125,0.20269482421875,1.0386889648437505,1.05920958271688,3.07666015625,-4.591796875,3.55322265625,44.01235294117648,174.03599163124073
-0.0003828125,0.18609326171875,1.0250170898437505,1.041772951786657,3.2763671875,-1.59912109375,4.40625,43.87117647058824,174.03599163124073
0.0582109375,0.19585888671875,0.96154052734375,0.9830103776033262,3.3505859375,4.2392578125,5.60986328125,43.30647058823529,174.03599163124073
0.07090625,0.20318310546875,0.8599780273437501,0.8864949397210542,3.2607421875,11.38427734375,6.7294921875,44.01235294117648,174.03599163124073
0.04600390625,0.20122998046875,0.7296069335937501,0.7582454365031068,2.919921875,15.99951171875,7.7001953125,44.01235294117648,173.58795270826872
0.0074296874999999,0.22222607421875,0.6182788085937501,0.6570451380804305,2.09814453125,15.99951171875,8.2578125,43.40058823529412,173.58795270826872
0.0303789062499999,0.27691357421875,0.48986083984375,0.5635314081255575,0.89892578125,15.99951171875,8.50537109375,43.96529411764706,173.58795270826872
0.50791796875,0.46246044921875,-0.0614086914062499,0.6896530703556405,0.39501953125,15.99951171875,6.35888671875,43.96529411764706,173.53475639133717
0.57823046875,0.45318310546875,-0.0994946289062499,0.7413666995855271,0.5234375,15.99951171875,6.08984375,44.71823529411765,173.53475639133717
0.64366015625,0.46197216796875,-0.1522290039062499,0.8067777577200616,0.66259765625,15.99951171875,5.92041015625,43.96529411764706,173.53475639133717
0.69444140625,0.45953076171875,-0.1781079101562499,0.8515514167333167,0.82763671875,15.99951171875,5.8916015625,44.059411764705885,173.53475639133717
0.72471484375,0.44878857421875,-0.2533032226562499,0.8892611043495194,1.2509765625,7.69580078125,6.31494140625,43.30647058823529,173.53475639133717
0.61729296875,0.43609326171875,-0.2327954101562499,0.7908360419040746,2.19091796875,-3.9228515625,7.09326171875,43.40058823529412,173.53475639133717
0.4351640625,0.46636669921875,-0.1517407226562499,0.6556606640206021,2.91552734375,-14.9609375,7.41015625,43.40058823529412,173.7800657176992
0.19834765625,0.47173779296875,0.10265380859375,0.5219349983222984,3.56982421875,16.0,6.32080078125,44.76529411764706,173.7800657176992
0.0284257812499999,0.45513623046875,0.5137866210937501,0.686974311994203,3.841796875,16.0,4.08544921875,44.01235294117648,173.7800657176992
-0.03309765625,0.37749951171875,0.6998217773437501,0.7958340632579779,3.861328125,16.0,1.64306640625,43.87117647058824,173.7800657176992
0.09287890625,0.29205029296875,0.7764819335937501,0.8347718598795829,4.16943359375,16.0,0.2041015625,44.01235294117648,173.86555252681916
0.28037890625,0.20269482421875,0.8067553710937501,0.8778107721050309,4.94091796875,16.0,0.39501953125,44.059411764705885,173.86555252681916
0.45908984375,0.15923779296875,0.8619311523437501,0.9894672661208064,5.78857421875,-14.70556640625,2.056640625,43.30647058823529,173.86555252681916
0.46299609375,0.17242138671875,0.93224365234375,1.0550700188902111,5.9599609375,-7.279296875,4.28173828125,44.71823529411765,173.86555252681916
0.3394609375,0.24956982421875,0.93712646484375,1.0274847134432223,5.95556640625,0.3017578125,5.43212890625,43.96529411764706,173.86555252681916
0.2203203125,0.39361279296875,0.91320068359375,1.0185320610588802,6.26220703125,7.328125,4.90673828125,43.87117647058824,173.90821893922757
0.1636796875,0.52154248046875,0.92052490234375,1.0705903487649069,6.4541015625,12.857421875,3.05078125,43.30647058823529,173.90821893922757
0.2086015625,0.65826123046875,0.8384936523437501,1.0862292872301114,6.908203125,15.99951171875,0.9267578125,44.20058823529412,173.90821893922757
0.3628984375,0.75835888671875,0.8482592773437501,1.1942978182199715,7.619140625,15.99951171875,-0.49658203125,44.01235294117648,173.90821893922757
0.4468828125,0.80474560546875,0.7979663085937501,1.218224103882332,8.34765625,13.64404296875,-1.12890625,44.01235294117648,173.90821893922757
0.4800859375,0.86187451171875,0.8355639648437501,1.2928562645093598,9.10693359375,9.1630859375,-1.7197265625,44.01235294117648,173.90821893922757
0.38682421875,0.87505810546875,0.8692553710937501,1.2926579456041103,9.37451171875,3.650390625,-3.14892578125,44.62411764705882,173.90821893922757
0.217390625,0.86626904296875,0.7950366210937501,1.1957273801013557,9.11865234375,0.25927734375,-6.35693359375,44.62411764705882,173.90821893922757
0.03330859375,0.72955029296875,0.7452319335937501,1.0434192480667928,9.55029296875,-0.31103515625,-10.60791015625,44.76529411764706,173.90821893922757
0.06260546875,0.53277294921875,0.7335131835937501,0.9087398146017872,9.86865234375,1.60595703125,-13.31640625,44.01235294117648,173.8120463938923
0.2671953125,0.48980419921875,0.6607592773437501,0.8648146108791921,10.15966796875,5.7734375,-12.287109375,43.87117647058824,173.8120463938923
0.29405078125,0.39507763671875,0.6285327148437501,0.7985020817868059,10.3798828125,10.658203125,-10.88330078125,44.76529411764706,173.8120463938923
0.26866015625,0.56451123046875,0.5831225585937501,0.8549170294376748,9.8359375,15.99951171875,-8.7998046875,44.71823529411765,173.8120463938923
0.0904375,1.10357373046875,0.47716552734375,1.2057117650882414,9.1650390625,15.99951171875,-4.546875,43.447647058823534,173.76953430605397
0.0162187499999999,1.93658154296875,0.38243896484375,1.97404931099746,7.76220703125,15.99951171875,-0.73291015625,43.447647058823534,173.76953430605397
-0.02137890625,3.13140576171875,0.17247802734375,3.13622508313326,5.8173828125,15.99951171875,0.6142578125,44.01235294117648,173.76953430605397
-0.2601484375,5.46685498046875,-0.4886547851562499,5.494812470509414,5.7236328125,15.99951171875,-0.28662109375,44.01235294117648,173.76953430605397
-1.44130078125,5.89019482421875,-0.3045727539062499,6.071614906407294,6.96044921875,15.99951171875,16.0,44.57705882352941,173.76953430605397
-0.220109375,3.76324169921875,0.47325927734375,3.799264477144707,-1.099609375,15.99951171875,16.0,43.447647058823534,174.21757448796254
0.39366015625,2.49761669921875,0.44103271484375,2.566625673992525,-9.0283203125,0.21240234375,16.0,43.40058823529412,174.21757448796254
0.71885546875,1.26470654296875,0.12169677734375,1.4598102378033946,-14.61181640625,16.0,16.0,43.87117647058824,174.21757448796254
0.77354296875,-0.29486376953125,-0.4408032226562499,0.9378810415979614,-13.51123046875,16.0,16.0,44.53,174.21757448796254
1.4019609375,-1.63177783203125,-0.1239086914062499,2.1548890289735327,4.59716796875,16.0,-15.15283203125,44.62411764705882,173.70557452673583
1.479109375,-2.23334033203125,1.1339038085937505,2.9088333450085715,15.99951171875,16.0,6.8544921875,44.76529411764706,173.70557452673583
1.395125,-2.11078173828125,2.8043139648437503,3.777029272550624,15.99951171875,16.0,12.4091796875,43.30647058823529,173.70557452673583
0.287703125,-1.83587939453125,3.0362475585937503,3.559778852185301,3.6845703125,16.0,14.20751953125,43.54176470588236,173.70557452673583
-0.7152265625,-0.70599658203125,1.6773608398437505,1.9553822124041904,-10.798828125,16.0,12.5927734375,44.059411764705885,173.70557452673583
-1.07216015625,0.37652294921875,0.7979663085937501,1.3885413791418482,-7.27490234375,5.13916015625,8.1845703125,43.87117647058824,173.7267136309878
-1.54774609375,0.65874951171875,0.6216967773437501,1.793314186880726,-0.14501953125,15.99951171875,6.24169921875,44.01235294117648,173.7267136309878
-1.08094921875,0.77666943359375,0.8546069335937501,2.0214951866290973,-1.83154296875,15.99951171875,4.79296875,44.76529411764706,173.7267136309878
-0.61415234375,0.8945893554687501,1.0875170898437505,2.0328807072872785,-3.08740234375,15.99951171875,-3.1123046875,43.96529411764706,173.7267136309878
-0.14735546875,1.01250927734375,1.3204272460937505,1.96805824988175,2.109375,15.99951171875,-12.298828125,44.059411764705885,173.9081420601425
0.31944140625,1.13042919921875,1.5533374023437505,1.9475035486471783,6.99609375,15.99951171875,16.0,44.71823529411765,173.9081420601425
1.772078125,0.51421826171875,1.5342944335937505,2.399737633731099,5.9072265625,15.99951171875,16.0,44.15352941176471,173.9081420601425
2.93809375,-0.33343798828125,0.7969897460937501,3.062477498888227,-5.720703125,15.99951171875,-9.24169921875,43.96529411764706,173.9081420601425
3.131453125,-0.23627001953125,-1.05115478515625,3.3116081559505868,-12.95556640625,15.99951171875,0.318359375,44.059411764705885,173.9081420601425
2.49815234375,0.23003857421875,-3.0804516601562497,3.972765448497005,-4.7421875,6.18896484375,8.94189453125,44.059411764705885,173.97225733473263
0.8550859375,0.04546826171875,-2.7157055664062497,2.847506988006152,3.38818359375,-12.51171875,9.28662109375,44.71823529411765,173.97225733473263
-0.21278515625,-0.09613330078125,-1.54871337890625,1.5662159060112526,2.17041015625,16.0,6.53466796875,44.62411764705882,173.97225733473263
-0.8519453125,0.34722607421875,-1.24109619140625,1.54489369162774,-0.38671875,16.0,2.71240234375,44.62411764705882,173.97225733473263
-1.6234296875,0.67779248046875,-0.95398681640625,2.001253967569649,-2.287109375,16.0,-1.54833984375,43.82411764705883,173.87623843813626
-2.83192578125,1.05718701171875,-0.5438305664062499,3.0713514441061585,-3.62109375,16.0,-2.8212890625,44.76529411764706,173.87623843813626
-3.4251875,1.55572216796875,0.47081787109375,3.791286106561583,-0.92236328125,16.0,-1.59912109375,43.87117647058824,173.87623843813626
-2.87684765625,1.19439404296875,1.8013842773437505,3.5983072244892624,2.09423828125,16.0,-8.0595703125,44.76529411764706,173.87623843813626
-2.22596875,0.56646435546875,2.1661303710937503,3.1572043846681725,-2.30615234375,16.0,16.0,44.71823529411765,173.87623843813626
-1.71864453125,0.48980419921875,1.2247241210937505,2.1664709439908747,-6.7021484375,16.0,-13.86376953125,43.30647058823529,173.63085119228555
-1.849015625,0.27154248046875,0.17003662109375,1.8765677586237703,-4.18505859375,15.99951171875,-3.89501953125,43.40058823529412,173.63085119228555
-1.3879560546875,0.47051708984375,0.22509033203125,2.071827482253518,-2.76123046875,15.99951171875,2.26025390625,43.447647058823534,173.63085119228555
-0.926896484375,0.6694916992187501,0.28014404296875,2.4218537405762866,-5.5625,15.99951171875,1.17626953125,44.76529411764706,173.63085119228555
-0.4658369140625,0.8684663085937501,0.33519775390625,1.9489527969130704,-3.02685546875,15.99951171875,-9.10205078125,43.96529411764706,173.8122003817618
-0.00477734375,1.06744091796875,0.39025146484375,1.1365514252245543,9.21923828125,15.99951171875,16.0,43.30647058823529,173.8122003817618
2.0699296875,-0.40082080078125,-0.0692211914062499,2.109516010575049,11.7119140625,15.99951171875,-13.58154296875,44.76529411764706,173.8122003817618
3.983015625,-1.52972705078125,-0.4574047851562499,4.291118438865313,-1.8154296875,15.99951171875,-8.03271484375,43.30647058823529,173.8122003817618
4.7378984375,-1.18304736328125,-1.83484619140625,5.2166984975125485,-7.9150390625,-2.7216796875,0.67724609375,44.059411764705885,173.8122003817618
3.71201953125,-0.44867236328125,-2.6463696289062497,4.58079339227947,0.27197265625,16.0,11.8837890625,44.57705882352941,173.7376324139332
2.13340625,0.07476513671875,-1.71912353515625,2.7408753678954025,6.23486328125,16.0,15.89306640625,43.82411764705883,173.7376324139332
0.67881640625,0.23345654296875,-0.3997875976562499,0.8216591714870835,7.60107421875,16.0,10.77001953125,44.01235294117648,173.7376324139332
-0.83485546875,0.32574169921875,0.6558764648437501,1.1105247612942433,3.1279296875,16.0,4.443359375,43.82411764705883,173.7376324139332
-0.9023603515625,0.21380322265625,0.7674487304687501,2.308694482560376,0.1494140625,16.0,-0.9970703125,44.20058823529412,173.89768798848638
-0.969865234375,0.10186474609375,0.8790209960937502,2.2363974515494647,-1.47607421875,16.0,-7.70751953125,44.76529411764706,173.89768798848638
-1.0373701171875,-0.0100737304687499,0.9905932617187504,1.728817402955275,-2.6708984375,16.0,-13.2333984375,43.96529411764706,173.89768798848638
-1.104875,-0.12201220703125,1.1021655273437505,1.5653768217124475,-2.38427734375,16.0,-9.79638671875,43.30647058823529,173.89768798848638
-1.01161328125,-0.59564501953125,1.3174975585937505,1.7646399737607292,-0.99169921875,7.27587890625,-1.3037109375,44.20058823529412,173.89768798848638
-1.17079296875,-0.37152392578125,1.0377124023437505,1.6079904331433033,-0.1884765625,15.99951171875,3.72265625,43.87117647058824,173.53475639133717
-1.72450390625,-0.25824267578125,0.8570483398437501,1.942970627440131,0.5693359375,15.99951171875,3.77197265625,43.30647058823529,173.53475639133717
-1.3195559895833333,-0.0894601236979166,0.5788907877604168,2.01408502961466,0.9423828125,15.99951171875,1.07421875,43.54176470588236,173.53475639133717
-0.9146080729166668,0.0793224283854167,0.3007332356770834,1.5160464862093013,0.4833984375,15.99951171875,-2.45361328125,44.62411764705882,173.53475639133717
-0.50966015625,0.24810498046875,0.02257568359375,0.5672911225216718,2.47509765625,15.99951171875,-5.94482421875,43.87117647058824,173.42813289796706
0.608015625,0.05376904296875,-0.6429516601562499,0.8865443855349792,2.78662109375,15.99951171875,-6.75146484375,43.87117647058824,173.42813289796706
1.80869921875,-0.28558642578125,-1.36414306640625,2.283383186441035,-1.11865234375,15.99951171875,-4.22509765625,44.01235294117648,173.42813289796706
2.52744921875,-0.23089892578125,-2.0638500976562497,3.271206366599734,-3.05419921875,15.99951171875,-0.685546875,44.71823529411765,173.42813289796706
2.46934375,-0.05951220703125,-2.5335766601562497,3.538391011651806,-0.8349609375,-9.64111328125,3.615234375,44.01235294117648,173.42813289796706
1.73545703125,-0.08929736328125,-1.95545166015625,2.6160229971488937,-0.05078125,16.0,4.1728515625,44.01235294117648,173.28929562344092
0.8941484375,-0.01556689453125,-1.30115478515625,1.578843732427008,-0.59619140625,16.0,3.91357421875,43.73,173.28929562344092
-0.16786328125,-0.00238330078125,-0.6414868164062499,0.66309056465739,-0.73828125,16.0,5.439453125,44.76529411764706,173.28929562344092
-0.7054609375,0.08013623046875,-0.0907055664062499,0.7157684329091345,-0.40087890625,16.0,6.962890625,44.62411764705882,173.28929562344092
-1.67274609375,0.16412060546875,0.22570068359375,1.6958643418239558,0.87255859375,16.0,5.18505859375,44.62411764705882,173.84425813397792
-1.66883984375,0.27544873046875,0.6451342773437501,1.8102753003364471,0.33251953125,16.0,0.83349609375,43.777058823529416,173.84425813397792
-1.48426953125,0.35357373046875,0.6827319335937501,1.6715840742910133,-0.5048828125,16.0,-3.708984375,43.30647058823529,173.84425813397792
-1.32508984375,0.22027294921875,0.5557788085937501,1.4537102016044374,-0.3779296875,-7.01708984375,-4.87890625,43.87117647058824,173.84425813397792
-1.10536328125,-0.01117236328125,0.5645678710937501,1.2412452160263838,0.134765625,14.1640625,-2.3642578125,43.447647058823534,173.84425813397792
-0.89442578125,-0.10980517578125,0.5279467773437501,1.044405311409644,-0.12939453125,15.99951171875,1.69873046875,44.059411764705885,173.68420266880676
-0.938859375,-0.04193408203125,0.29845458984375,0.9860479377089104,-0.64990234375,15.99951171875,4.0595703125,43.87117647058824,173.68420266880676
-1.17665234375,0.09234326171875,-0.0076977539062499,1.1802954170259354,-0.77587890625,15.99951171875,3.9287109375,43.58882352941177,173.68420266880676
-1.2220625,0.34087841796875,-0.4071118164062499,1.3324319422772497,-0.19384765625,15.99951171875,0.18212890625,43.40058823529412,173.68420266880676
-0.9144453125,0.39996044921875,-0.7733227539062499,1.262618973483938,1.021484375,15.99951171875,-3.8984375,44.71823529411765,173.71618249892208
-0.21376171875,0.25933544921875,-1.02674072265625,1.0803450648682222,0.70068359375,15.99951171875,-6.24267578125,43.54176470588236,173.71618249892208
0.42198046875,0.05425732421875,-1.27771728515625,1.346689583395114,-0.29052734375,15.99951171875,-4.73779296875,43.30647058823529,173.71618249892208
0.71153125,-0.08587939453125,-1.40467041015625,1.5769435472774995,-1.52001953125,5.724609375,-0.94140625,44.76529411764706,173.71618249892208
0.55381640625,-0.05853564453125,-1.51404541015625,1.6132180688076738,-1.91796875,-7.56005859375,2.49951171875,44.059411764705885,173.71618249892208
0.12608203125,0.03863232421875,-1.34363525390625,1.3500906749616417,-2.58056640625,16.0,3.32080078125,43.87117647058824,173.76937992674365
-0.33290234375,0.16509716796875,-1.18689697265625,1.2437063435739626,-2.6640625,16.0,2.498046875,43.40058823529412,173.76937992674365
-0.62782421875,0.20074169921875,-0.91394775390625,1.126836712361005,-2.55224609375,16.0,1.28759765625,43.40058823529412,173.76937992674365
-0.83583203125,0.20611279296875,-0.6395336914062499,1.0724276247526376,-2.10205078125,16.0,0.97314453125,43.54176470588236,173.76937992674365
-0.92567578125,0.18462841796875,-0.3524243164062499,1.0075545660205476,-1.59326171875,16.0,0.8603515625,44.15352941176471,173.66283086437832
-1.114640625,0.18169873046875,-0.1156079101562499,1.1352547469379028,-1.3515625,16.0,0.77392578125,43.40058823529412,173.66283086437832
-1.15516796875,0.17925732421875,0.01525146484375,1.1690931663011068,-1.3408203125,-13.33154296875,0.5859375,43.30647058823529,173.66283086437832
-1.1820234375,0.18169873046875,0.03185302734375,1.1963312462709623,-1.048828125,-2.61474609375,0.201171875,44.76529411764706,173.66283086437832
-1.16346875,0.17046826171875,0.00011474609375,1.1758907150099625,-0.744140625,8.26171875,-0.16357421875,43.30647058823529,173.66283086437832
-1.12098828125,0.16607373046875,-0.1136547851562499,1.138908521717416,-0.5927734375,15.99951171875,-0.421875,43.96529411764706,173.64153710727234
-1.0453046875,0.17290966796875,-0.2738110351562499,1.0943181100392487,-0.58154296875,15.99951171875,-0.8427734375,44.01235294117648,173.64153710727234
-0.9261640625,0.19244091796875,-0.4881665039062499,1.0644810534298907,-0.5439453125,15.99951171875,-1.63916015625,43.30647058823529,173.64153710727234
-0.78065625,0.18218701171875,-0.7137524414062499,1.0733400372279294,-0.41552734375,15.99951171875,-2.2646484375,43.30647058823529,173.64153710727234
-0.60829296875,0.15484326171875,-0.8929516601562499,1.0914941314117053,-0.3046875,15.99951171875,-2.302734375,43.40058823529412,173.73739942802828
-0.41786328125,0.12115185546875,-1.01062744140625,1.1002978320545218,-0.29638671875,14.1015625,-1.8876953125,43.30647058823529,173.73739942802828
-0.2581953125,0.08550732421875,-1.06873291015625,1.1027993267784806,-0.265625,7.138671875,-1.07568359375,44.059411764705885,173.73739942802828
-0.20301953125,0.05669873046875,-1.08142822265625,1.1017797769351156,-0.306640625,0.13232421875,-0.0751953125,43.96529411764706,173.73739942802828
-0.25966015625,0.06597607421875,-1.02722900390625,1.0615911009326138,-0.4716796875,-6.07861328125,0.96826171875,43.54176470588236,173.73739942802828
-0.4183515625,0.08648388671875,-0.95740478515625,1.048389915607861,-0.6416015625,-10.85009765625,1.74462890625,44.01235294117648,173.70549660947057
-0.61317578125,0.12115185546875,-0.8519360351562499,1.0566254392133572,-0.71728515625,-13.76318359375,1.984375,43.447647058823534,173.70549660947057
-0.8109296875,0.15679638671875,-0.7347485351562499,1.105462561496842,-0.5791015625,-14.77490234375,1.7431640625,43.96529411764706,173.70549660947057
-0.95008984375,0.16949169921875,-0.6073071289062499,1.1402719395483305,-0.2763671875,-13.41748046875,0.8798828125,44.01235294117648,173.70549660947057
-0.98524609375,0.16216748046875,-0.4896313476562499,1.1120912793376685,-0.03759765625,-10.14794921875,0.20263671875,44.15352941176471,173.50262125568122
-0.98231640625,0.14703076171875,-0.4061352539062499,1.0730840653672036,0.08544921875,-5.56298828125,-0.16650390625,44.15352941176471,173.50262125568122
-0.9945234375,0.14458935546875,-0.3900219726562499,1.0780074622220188,0.0888671875,-0.08740234375,-0.3095703125,44.76529411764706,173.50262125568122
-1.02528515625,0.16314404296875,-0.4207836914062499,1.1202162939969436,0.064453125,5.1884765625,-0.40087890625,43.87117647058824,173.50262125568122
-0.99989453125,0.17535107421875,-0.5072094726562499,1.1348121086794756,0.07177734375,9.19677734375,-0.78369140625,43.447647058823534,173.50262125568122
-0.8929609375,0.15533154296875,-0.6141430664062499,1.09484192016784,0.0849609375,11.44091796875,-1.1953125,44.059411764705885,173.65214498222682
-0.74403515625,0.11138623046875,-0.7103344726562499,1.0346836565433088,0.0927734375,11.640625,-1.255859375,44.76529411764706,173.65214498222682
-0.610734375,0.08013623046875,-0.7830883789062499,0.996316065020734,-0.12451171875,10.1953125,-0.83056640625,43.447647058823534,173.65214498222682
-0.520890625,0.06499951171875,-0.8494946289062499,0.9985955659210258,-0.12890625,7.53271484375,-0.1728515625,44.01235294117648,173.65214498222682
-0.4925703125,0.07574169921875,-0.90320556640625,1.0315728830015485,-0.26611328125,4.3271484375,0.45849609375,43.96529411764706,173.64145911345045
-0.52235546875,0.09283154296875,-0.93201416015625,1.0724380289017874,-0.33056640625,0.8984375,0.80029296875,43.30647058823529,173.64145911345045
-0.57508984375,0.10455029296875,-0.92566650390625,1.094768271643945,-0.32568359375,-2.25927734375,0.82470703125,44.71823529411765,173.64145911345045
-0.62782421875,0.10943310546875,-0.8822094726562499,1.0883163179269164,-0.27685546875,-4.89453125,0.78759765625,43.447647058823534,173.64145911345045
-0.5492109375,0.11089794921875,-0.8128735351562499,0.987266120743527,-0.22802734375,-6.77880859375,0.771484375,43.447647058823534,173.64145911345045
-0.73915234375,0.10650341796875,-0.7215649414062499,1.0384339795946345,-0.1865234375,-7.46484375,0.80810546875,44.53,173.5348346574287
-0.8128828125,0.11529248046875,-0.6444165039062499,1.04371617474163,-0.1455078125,-6.79638671875,0.85595703125,43.96529411764706,173.5348346574287
-0.8792890625,0.12408154296875,-0.5858227539062499,1.0638297719710317,-0.13671875,-4.9658203125,0.74365234375,44.76529411764706,173.5348346574287
-0.9222578125,0.13872998046875,-0.5531079101562499,1.0843126119692417,-0.10888671875,-2.1328125,0.380859375,43.96529411764706,173.5348346574287
-0.9339765625,0.14751904296875,-0.5428540039062499,1.0903047999962117,-0.05322265625,0.98828125,-0.099609375,43.447647058823534,173.5454422455381
-0.89784375,0.13970654296875,-0.5755688476562499,1.0756025362347772,-0.02685546875,3.67041015625,-0.4365234375,44.71823529411765,173.5454422455381
-0.8314375,0.12017529296875,-0.6322094726562499,1.0513891928123802,0.017578125,5.69482421875,-0.5087890625,43.30647058823529,173.5454422455381
-0.7796796875,0.11968701171875,-0.6873852539062499,1.046290534776083,0.0927734375,6.3984375,-0.494140625,43.30647058823529,173.5454422455381
-0.71669140625,0.11675732421875,-0.7479321289062499,1.042440076935629,0.10693359375,5.9951171875,-0.3515625,43.87117647058824,173.5454422455381
-0.67762890625,0.11480419921875,-0.8055493164062499,1.0589006751846022,0.0888671875,4.47119140625,-0.228515625,43.96529411764706,173.43897729506543
-0.64442578125,0.11773388671875,-0.8280102539062499,1.0558157207559795,0.0048828125,2.6142578125,-0.18359375,44.71823529411765,173.43897729506543
-0.636125,0.11480419921875,-0.8416821289062499,1.0612557777950684,-0.052734375,0.439453125,-0.08447265625,43.30647058823529,173.43897729506543
-0.636125,0.09966748046875,-0.8167797851562499,1.0400566521723125,-0.0703125,-1.54833984375,0.1162109375,43.87117647058824,173.43897729506543
-0.6488203125,0.09576123046875,-0.7801586914062499,1.0192083177399012,-0.07958984375,-3.09033203125,0.39208984375,43.30647058823529,173.49216959787802
-0.68934765625,0.10259716796875,-0.7352368164062499,1.013064433415651,-0.0009765625,-3.9384765625,0.59814453125,44.01235294117648,173.49216959787802
-0.743546875,0.10699169921875,-0.6932446289062499,1.022202178891899,-0.130859375,-3.923828125,0.673828125,43.30647058823529,173.49216959787802
-0.79628125,0.12115185546875,-0.6536938476562499,1.0373317924602117,-0.0830078125,-3.236328125,0.57421875,44.059411764705885,173.49216959787802
-0.84950390625,0.12310498046875,-0.6283032226562499,1.0637559224514097,-0.02392578125,-1.8662109375,0.28955078125,44.76529411764706,173.49216959787802
-0.868546875,0.11919873046875,-0.6126782226562499,1.069559075476829,0.06591796875,-0.072265625,0.12353515625,43.30647058823529,173.51354145096172
-0.849015625,0.11675732421875,-0.6126782226562499,1.05348678623421,0.1015625,1.4912109375,-0.15234375,44.71823529411765,173.51354145096172
-0.80751171875,0.11236279296875,-0.6390454101562499,1.0358955591197827,0.10400390625,2.68994140625,-0.15771484375,44.71823529411765,173.51354145096172
-0.76258984375,0.11382763671875,-0.5501782226562499,0.9472043482569192,0.1083984375,3.34765625,-0.05419921875,43.54176470588236,173.51354145096172
-0.7347578125,0.11773388671875,-0.7083813476562499,1.0273920599357256,0.04931640625,3.40576171875,0.0498046875,44.059411764705885,173.58810766609483
-0.71766796875,0.12164013671875,-0.7464672851562499,1.0426202779724023,0.021484375,2.998046875,0.07666015625,44.059411764705885,173.58810766609483
-0.70985546875,0.12554638671875,-0.7640454101562499,1.0504389894292998,0.00146484375,1.98095703125,-0.0458984375,44.71823529411765,173.58810766609483
-0.69325390625,0.12066357421875,-0.7723461914062499,1.0448345878912448,-0.009765625,0.73779296875,-0.0908203125,43.96529411764706,173.58810766609483
-0.69032421875,0.10796826171875,-0.7640454101562499,1.0353598704374236,-0.01708984375,-0.57373046875,0.0654296875,44.62411764705882,173.58810766609483
-0.698625,0.10747998046875,-0.7435375976562499,1.0259030148873676,-0.06982421875,-1.26611328125,0.42236328125,43.87117647058824,173.43881879715357
-0.72841015625,0.12505810546875,-0.7201000976562499,1.031874525374148,-0.1357421875,-1.779296875,0.71484375,44.71823529411765,173.43881879715357
-0.7738203125,0.14263623046875,-0.6859204101562499,1.0438533322976222,-0.14208984375,-1.7822265625,0.53857421875,44.62411764705882,173.43881879715357
-0.798234375,0.15533154296875,-0.6732250976562499,1.0557168359872644,-0.24951171875,-1.3828125,0.1630859375,43.96529411764706,173.43881879715357
-0.79872265625,0.13580029296875,-0.6556469726562499,1.0422439992299113,-0.06884765625,-0.732421875,-0.1826171875,43.447647058823534,173.3855473370877
-0.77821484375,0.09966748046875,-0.6473461914062499,1.01715733356448,-0.06201171875,0.30859375,-0.20458984375,44.76529411764706,173.3855473370877
-0.763078125,0.08892529296875,-0.6536938476562499,1.0087177895956465,-0.0419921875,1.1904296875,-0.0390625,44.15352941176471,173.3855473370877
-0.78016796875,0.11333935546875,-0.6810375976562499,1.041786964010862,-0.01953125,1.79296875,0.01220703125,44.29470588235294,173.3855473370877
-0.7992109375,0.13677685546875,-0.7064282226562499,1.075400792531239,-0.04052734375,1.919921875,-0.10400390625,44.76529411764706,173.3855473370877
-0.77528515625,0.14898388671875,-0.7191235351562499,1.0678960299668852,-0.04638671875,1.57373046875,-0.2705078125,44.71823529411765,173.53491335753617
-0.7093671875,0.12945263671875,-0.7181469726562499,1.017690948269873,-0.1103515625,0.9189453125,-0.2109375,44.01235294117648,173.53491335753617
-0.669328125,0.11089794921875,-0.7103344726562499,0.9822797753699162,-0.14794921875,0.22607421875,0.1220703125,43.30647058823529,173.53491335753617
-0.6839765625,0.10552685546875,-0.7020336914062499,0.9858048281196052,-0.224609375,-0.30712890625,0.5322265625,44.15352941176471,173.53491335753617
-0.7386640625,0.12408154296875,-0.7059399414062499,1.0292579984664532,-0.23193359375,-0.564453125,0.7021484375,43.447647058823534,173.42797625529516
-0.7992109375,0.14654248046875,-0.7039868164062499,1.075086163465687,-0.140625,-0.5146484375,0.4423828125,43.447647058823534,173.42797625529516
-0.8226484375,0.15240185546875,-0.6932446289062499,1.0865380309859722,-0.05712890625,-0.1953125,0.02978515625,43.87117647058824,173.42797625529516
-0.80067578125,0.13921826171875,-0.6825024414062499,1.0612601064780396,-0.013671875,0.279296875,-0.19482421875,44.43588235294118,173.42797625529516
-0.76503125,0.12603466796875,-0.6751782226562499,1.0281163277352463,-0.02001953125,0.90625,-0.1640625,44.71823529411765,173.42797625529516
-0.74940625,0.11333935546875,-0.6751782226562499,1.015047372976447,-0.09326171875,1.44287109375,-0.10107421875,44.71823529411765,173.60947940244236
-0.75380078125,0.10992138671875,-0.7049633789062499,1.0379169979676603,-0.14599609375,1.8271484375,-0.08056640625,43.87117647058824,173.60947940244236
-0.761125,0.10650341796875,-0.7166821289062499,1.0508508540975836,-0.24951171875,1.8740234375,-0.17431640625,44.059411764705885,173.60947940244236
-0.75966015625,0.10503857421875,-0.7240063476562499,1.0546572175423752,-0.041015625,1.30419921875,-0.26318359375,44.059411764705885,173.60947940244236
-0.7503828125,0.08892529296875,-0.7318188476562499,1.0519224775666265,0.0029296875,0.677734375,-0.17041015625,44.15352941176471,173.08690040281778
-0.7269453125,0.08453076171875,-0.7210766601562499,1.0273979204108634,-0.03173828125,0.06396484375,0.0322265625,44.62411764705882,173.08690040281778
-0.72157421875,0.10015576171875,-0.7059399414062499,1.0144218701520564,-0.0595703125,-0.32763671875,0.14306640625,44.29470588235294,173.08690040281778
-0.747453125,0.10015576171875,-0.7020336914062499,1.0303245384572837,-0.0830078125,-0.3349609375,0.1376953125,44.71823529411765,173.08690040281778
-0.7660078125,0.09869091796875,-0.7000805664062499,1.0424109868762157,-0.1298828125,-0.08349609375,0.11328125,43.30647058823529,173.08690040281778
-0.78309765625,0.10601513671875,-0.6844555664062499,1.04544754570578,-0.076171875,0.19873046875,0.03662109375,43.87117647058824,173.58818579605398
-0.79628125,0.10796826171875,-0.6864086914062499,1.056824425473868,-0.03271484375,0.49169921875,-0.00048828125,43.96529411764706,173.58818579605398
-0.78602734375,0.10308544921875,-0.6776196289062499,1.0428969059510895,-0.02099609375,0.7919921875,-0.19580078125,43.54176470588236,173.58818579605398
-0.7738203125,0.09576123046875,-0.6854321289062499,1.0381643861332563,-0.05126953125,1.05029296875,-0.37451171875,44.01235294117648,173.58818579605398
-0.76161328125,0.08794873046875,-0.7015454101562499,1.0392091858133077,-0.06005859375,1.13232421875,-0.259765625,43.447647058823534,173.51354145096172
-0.74403515625,0.09039013671875,-0.7030102539062499,1.027609900521266,-0.10205078125,1.07275390625,-0.1171875,43.30647058823529,173.51354145096172
-0.73426953125,0.09429638671875,-0.7132641601562499,1.0280025852271517,-0.1357421875,0.8154296875,0.0546875,44.71823529411765,173.51354145096172
-0.7269453125,0.10503857421875,-0.7054516601562499,1.0184029822505627,-0.16650390625,0.4189453125,0.11328125,44.059411764705885,173.51354145096172
-0.73426953125,0.11919873046875,-0.7069165039062499,1.0262022341441728,-0.1611328125,0.05419921875,0.01025390625,44.059411764705885,173.51354145096172
-0.76063671875,0.11382763671875,-0.6947094726562499,1.0364102470499157,-0.12060546875,-0.05224609375,-0.0498046875,43.96529411764706,173.5349924916744
-0.778703125,0.10699169921875,-0.6878735351562499,1.0445074346096526,-0.1171875,0.06005859375,-0.06396484375,44.059411764705885,173.5349924916744
-0.7874921875,0.10552685546875,-0.6834790039062499,1.0480569695294897,-0.09130859375,0.23388671875,-0.0673828125,43.447647058823534,173.5349924916744
-0.78309765625,0.10552685546875,-0.6825024414062499,1.0441204140207474,-0.0908203125,0.484375,0.01416015625,44.01235294117648,173.5349924916744
-0.7660078125,0.11529248046875,-0.6766430664062499,1.028545654883304,-0.103515625,0.63134765625,0.03173828125,43.30647058823529,173.5988717171159
-0.74794140625,0.12017529296875,-0.6868969726562499,1.022587844279245,-0.14111328125,1.0263671875,-0.03955078125,43.82411764705883,173.5988717171159
-0.75575390625,0.12261669921875,-0.6991040039062499,1.0367956548988742,-0.14892578125,1.32080078125,-0.06982421875,44.62411764705882,173.5988717171159
-0.76454296875,0.11529248046875,-0.7098461914062499,1.049618941602932,-0.13232421875,1.40869140625,-0.12060546875,44.76529411764706,173.5988717171159
-0.76356640625,0.10992138671875,-0.7196118164062499,1.0549680252610576,-0.0986328125,1.14013671875,-0.0693359375,44.62411764705882,173.5988717171159
-0.7455,0.10601513671875,-0.7201000976562499,1.0418990401464223,-0.06982421875,0.54150390625,0.02197265625,44.15352941176471,173.42829127672255
-0.7210859375,0.11675732421875,-0.7137524414062499,1.0212931751619407,-0.072265625,0.12255859375,0.19482421875,44.29470588235294,173.42829127672255
-0.7191328125,0.12310498046875,-0.7034985351562499,1.0135171568342398,-0.13720703125,-0.24755859375,0.31005859375,43.96529411764706,173.42829127672255
-0.74208203125,0.12749951171875,-0.6893383789062499,1.0208473280690615,-0.17822265625,-0.2080078125,0.35693359375,43.54176470588236,173.42829127672255
-0.782609375,0.13189404296875,-0.6844555664062499,1.0480233274088098,-0.18115234375,-0.03857421875,0.18359375,43.54176470588236,173.84433595769582
-0.79872265625,0.13189404296875,-0.6790844726562499,1.0566501981169147,-0.142578125,0.16015625,0.0048828125,44.15352941176471,173.84433595769582
-0.77723828125,0.12115185546875,-0.6717602539062499,1.0344268735160376,-0.09326171875,0.31689453125,-0.15869140625,43.30647058823529,173.84433595769582
-0.75966015625,0.09771435546875,-0.6727368164062499,1.0194147695648048,-0.0849609375,0.47412109375,-0.15087890625,44.76529411764706,173.84433595769582
-0.7406171875,0.08892529296875,-0.6815258789062499,1.0103954917599962,-0.07421875,0.6904296875,0.01611328125,43.30647058823529,173.84433595769582
-0.74989453125,0.11138623046875,-0.6898266601562499,1.024992449435127,-0.0869140625,0.92578125,0.04736328125,44.01235294117648,173.65230152305278
-0.78846875,0.12798779296875,-0.7078930664062499,1.0673220874420324,-0.09033203125,1.10498046875,-0.02734375,43.447647058823534,173.65230152305278
-0.79188671875,0.13287060546875,-0.7083813476562499,1.0707676250417542,-0.1044921875,1.02197265625,-0.16357421875,43.30647058823529,173.65230152305278
-0.75184765625,0.13189404296875,-0.7039868164062499,1.03839702159293,-0.09765625,0.51953125,-0.19677734375,44.20058823529412,173.65230152305278
-0.71425,0.10943310546875,-0.6922680664062499,1.0006816391032578,-0.08837890625,-0.06103515625,-0.06494140625,44.059411764705885,173.42837111712672
-0.7064375,0.09722607421875,-0.6766430664062499,0.9830323953104968,-0.1162109375,-0.4287109375,0.24658203125,44.57705882352941,173.42837111712672
-0.7347578125,0.09820263671875,-0.6727368164062499,1.0010432683139707,-0.13427734375,-0.3759765625,0.46875,43.87117647058824,173.42837111712672
-0.78993359375,0.11724560546875,-0.6610180664062499,1.0366708728675564,-0.06787109375,-0.013671875,0.4970703125,44.059411764705885,173.42837111712672
-0.82704296875,0.13189404296875,-0.6590649414062499,1.0657216839870904,0.0166015625,0.45849609375,0.0244140625,44.62411764705882,173.42837111712672
-0.8226484375,0.12701123046875,-0.6619946289062499,1.0635408751369648,0.07275390625,0.96435546875,-0.291015625,44.76529411764706,173.78029811645027
-0.7777265625,0.12212841796875,-0.6688305664062499,1.0330093334781256,0.07470703125,1.43310546875,-0.29052734375,44.059411764705885,173.78029811645027
-0.73817578125,0.11040966796875,-0.6742016601562499,1.0058039855570573,-0.0107421875,1.8388671875,-0.169921875,44.059411764705885,173.78029811645027
-0.72596875,0.11236279296875,-0.6986157226562499,1.0137652347377153,-0.01806640625,2.046875,-0.0908203125,43.54176470588236,173.78029811645027
-0.743546875,0.10650341796875,-0.7225415039062499,1.0422433296636624,-0.05126953125,1.95947265625,-0.1123046875,44.059411764705885,173.47095578563912
-0.75721875,0.10308544921875,-0.7323071289062499,1.0584330759377794,-0.02001953125,1.521484375,-0.1533203125,43.30647058823529,173.47095578563912
-0.747453125,0.09917919921875,-0.7323071289062499,1.051092963860406,-0.017578125,0.8916015625,-0.1142578125,43.54176470588236,173.47095578563912
-0.7249921875,0.10015576171875,-0.7332836914062499,1.036025974878948,-0.0625,0.25048828125,0.0029296875,43.30647058823529,173.47095578563912
-0.716203125,0.10015576171875,-0.7249829101562499,1.0240011293371964,-0.08056640625,-0.12255859375,0.12060546875,44.059411764705885,173.47095578563912
-0.7288984375,0.10796826171875,-0.7074047851562499,1.0214556318266936,-0.0966796875,-0.26220703125,0.1728515625,43.96529411764706,173.74831840307604
-0.76649609375,0.11089794921875,-0.6976391601562499,1.0423603094220593,-0.1044921875,-0.19580078125,0.13623046875,43.30647058823529,173.74831840307604
-0.78895703125,0.10015576171875,-0.6947094726562499,1.0559856178767784,-0.1201171875,-0.0361328125,0.10205078125,44.76529411764706,173.74831840307604
-0.77919140625,0.10747998046875,-0.6815258789062499,1.0407539177895762,-0.09375,0.20751953125,0.080078125,44.71823529411765,173.74831840307604
-0.7738203125,0.10455029296875,-0.6751782226562499,1.0322762576687996,-0.10107421875,0.51708984375,0.05810546875,43.96529411764706,173.68428090094636
-0.78016796875,0.10845654296875,-0.6825024414062499,1.0422257258874994,-0.1064453125,0.92626953125,-0.0712890625,44.62411764705882,173.68428090094636
-0.78065625,0.10552685546875,-0.6942211914062499,1.0500015049925873,-0.1044921875,1.2099609375,-0.19482421875,44.29470588235294,173.68428090094636
-0.76503125,0.10406201171875,-0.7049633789062499,1.0455023105466734,-0.0830078125,1.2373046875,-0.26806640625,43.447647058823534,173.68428090094636
-0.73915234375,0.09966748046875,-0.7054516601562499,1.026616695145426,-0.1201171875,0.9697265625,-0.17529296875,43.96529411764706,173.68428090094636
-0.7288984375,0.10015576171875,-0.7039868164062499,1.0182934481126802,-0.12890625,0.51611328125,0.005859375,43.30647058823529,173.66290897735658
-0.727921875,0.10357373046875,-0.7000805664062499,1.015239170445282,-0.16015625,0.04345703125,0.15283203125,44.059411764705885,173.66290897735658
-0.7503828125,0.11333935546875,-0.6961743164062499,1.029844091897988,-0.1376953125,-0.2646484375,0.15283203125,44.71823529411765,173.66290897735658
-0.77333203125,0.11382763671875,-0.6888500976562499,1.0418798483890797,-0.13623046875,-0.33203125,0.0400390625,44.57705882352941,173.66290897735658
-0.78114453125,0.10699169921875,-0.6742016601562499,1.0373918647073253,-0.1181640625,-0.08984375,-0.01708984375,44.76529411764706,173.87631600655558
-0.7816328125,0.11089794921875,-0.6639477539062499,1.031540027645432,-0.11962890625,0.3515625,-0.06640625,43.30647058823529,173.87631600655558
-0.7874921875,0.10992138671875,-0.6654125976562499,1.0368223482117591,-0.1279296875,0.9443359375,-0.10791015625,44.20058823529412,173.87631600655558
-0.78798046875,0.11382763671875,-0.6766430664062499,1.0448520418356362,-0.11962890625,1.43994140625,-0.0654296875,44.01235294117648,173.87631600655558
-0.77821484375,0.11529248046875,-0.6883618164062499,1.0453481187487668,-0.1123046875,1.63037109375,-0.11669921875,43.54176470588236,173.87631600655558
-0.7533125,0.10845654296875,-0.7025219726562499,1.0357507742858856,-0.10546875,1.55419921875,-0.07666015625,43.87117647058824,173.72694643815564
-0.72596875,0.10357373046875,-0.7044750976562499,1.0168791997270663,-0.0966796875,1.19677734375,0.02294921875,43.82411764705883,173.72694643815564
-0.72059765625,0.10992138671875,-0.7132641601562499,1.0198477609989478,-0.08984375,0.79833984375,0.017578125,43.40058823529412,173.72694643815564
-0.73133984375,0.11040966796875,-0.7122875976562499,1.0268407294279651,-0.08642578125,0.41455078125,0.02294921875,43.96529411764706,173.72694643815564
-0.74989453125,0.11480419921875,-0.7054516601562499,1.0359458755041815,-0.0732421875,0.14013671875,0.02880859375,43.96529411764706,173.83357220320067
-0.76258984375,0.10894482421875,-0.6986157226562499,1.0399404658235096,-0.06591796875,0.06689453125,0.13671875,44.01235294117648,173.83357220320067
-0.761125,0.10699169921875,-0.6732250976562499,1.021758543610467,-0.12744140625,0.1171875,0.23486328125,44.29470588235294,173.83357220320067
-0.77675,0.11822216796875,-0.6737133789062499,1.034991188569501,-0.1435546875,0.306640625,0.2109375,44.01235294117648,173.83357220320067
-0.78993359375,0.12749951171875,-0.6815258789062499,1.051060764961877,-0.17919921875,0.58984375,0.06787109375,44.71823529411765,173.83357220320067
-0.7816328125,0.11822216796875,-0.6800610351562499,1.0427892146132325,-0.171875,0.919921875,-0.14111328125,44.62411764705882,173.62032234208232
-0.76551953125,0.09380810546875,-0.6868969726562499,1.0327863111124087,-0.25,1.099609375,-0.2578125,44.29470588235294,173.62032234208232
-0.73719921875,0.08111279296875,-0.6917797851562499,1.0141998049988123,-0.10107421875,0.95849609375,-0.25439453125,43.30647058823529,173.62032234208232
-0.73915234375,0.08111279296875,-0.6854321289062499,1.0113074091448473,-0.16845703125,0.6943359375,-0.0947265625,44.059411764705885,173.62032234208232
-0.77723828125,0.09136669921875,-0.7083813476562499,1.0555810500733085,-0.26123046875,0.34716796875,0.15478515625,44.01235294117648,173.55636457090586
-0.79091015625,0.11333935546875,-0.7088696289062499,1.068120234591198,-0.359375,-0.14111328125,0.22509765625,44.01235294117648,173.55636457090586
-0.76503125,0.10308544921875,-0.6893383789062499,1.0349332461324694,-0.47314453125,-0.669921875,0.42626953125,44.059411764705885,173.55636457090586
-0.74696484375,0.09624951171875,-0.6854321289062499,1.018350455217414,-0.57470703125,-0.95556640625,0.7861328125,43.87117647058824,173.55636457090586
-0.78016796875,0.10552685546875,-0.6727368164062499,1.0355543447048252,-0.64794921875,-1.00927734375,1.015625,44.29470588235294,173.55636457090586
-0.83094921875,0.12261669921875,-0.6795727539062499,1.0804307413806131,-0.60302734375,-0.947265625,0.896484375,44.76529411764706,173.71626047575816
-0.83778515625,0.13287060546875,-0.6756665039062499,1.084464748311979,-0.53857421875,-0.73681640625,0.52294921875,43.40058823529412,173.71626047575816
-0.80751171875,0.12798779296875,-0.6693188476562499,1.056619028266802,-0.42041015625,-0.392578125,0.22314453125,44.76529411764706,173.71626047575816
-0.76258984375,0.10601513671875,-0.6492993164062499,1.007160404945393,-0.36962890625,0.0615234375,0.30078125,43.30647058823529,173.71626047575816
-0.74403515625,0.10259716796875,-0.6458813476562499,0.9905943710022904,-0.4091796875,0.560546875,0.541015625,44.01235294117648,173.68420266880676
-0.75868359375,0.10992138671875,-0.6639477539062499,1.0141548829447808,-0.3955078125,1.005859375,0.7041015625,44.059411764705885,173.68420266880676
-0.81434765625,0.11871044921875,-0.6932446289062499,1.0760308506269465,-0.34130859375,1.36572265625,0.6396484375,43.447647058823534,173.68420266880676
-0.8421796875,0.12603466796875,-0.7259594726562499,1.119003359917624,-0.23876953125,1.61181640625,0.27587890625,44.76529411764706,173.68420266880676
-0.82020703125,0.12945263671875,-0.7528149414062499,1.1208157276153252,-0.11474609375,1.66748046875,-0.15771484375,44.01235294117648,173.68420266880676
-0.76356640625,0.11675732421875,-0.7469555664062499,1.0745271274833148,-0.04052734375,1.54296875,-0.34912109375,43.87117647058824,173.66283086437832
-0.7210859375,0.09917919921875,-0.7386547851562499,1.037020893932303,-0.01708984375,1.23681640625,-0.15478515625,44.76529411764706,173.66283086437832
-0.7074140625,0.11187451171875,-0.7406079101562499,1.030267265703939,0.1240234375,0.76025390625,0.19091796875,43.87117647058824,173.66283086437832
-0.73426953125,0.13384716796875,-0.7415844726562499,1.0521474891763978,0.1083984375,0.20166015625,0.3125,44.059411764705885,173.66283086437832
-0.7777265625,0.15826123046875,-0.7396313476562499,1.0848777597145909,0.2421875,-0.25732421875,0.11669921875,44.57705882352941,173.57765733118688
-0.809953125,0.17583935546875,-0.7157055664062499,1.0950698614306862,0.40234375,-0.32666015625,-0.1025390625,44.01235294117648,173.57765733118688
-0.81971875,0.17730419921875,-0.6937329101562499,1.0884121272734997,0.54443359375,-0.12548828125,-0.28955078125,43.40058823529412,173.57765733118688
-0.81532421875,0.17437451171875,-0.6727368164062499,1.071323889477812,0.6923828125,0.2138671875,-0.58984375,43.87117647058824,173.57765733118688
-0.80555859375,0.15289013671875,-0.6434399414062499,1.042264361890607,0.7890625,0.6435546875,-1.0439453125,44.29470588235294,173.57765733118688
-0.7796796875,0.12847607421875,-0.6248852539062499,1.0074165460703124,0.8056640625,1.04296875,-1.29248046875,43.54176470588236,173.64161553512002
-0.747453125,0.10406201171875,-0.6190258789062499,0.976067679574974,0.7822265625,1.4931640625,-1.17138671875,43.30647058823529,173.64161553512002
-0.7308515625,0.10552685546875,-0.6273266601562499,0.9689265514870614,0.6943359375,1.77099609375,-0.89990234375,43.30647058823529,173.64161553512002
-0.708390625,0.11626904296875,-0.6283032226562499,0.9539919850507071,0.57470703125,1.80810546875,-0.748046875,43.40058823529412,173.64161553512002
-0.68690625,0.13580029296875,-0.6322094726562499,0.9433826016923116,0.4140625,1.5673828125,-0.55126953125,44.059411764705885,173.35356894614637
-0.69911328125,0.13482373046875,-0.6522290039062499,0.9655772842471962,0.1376953125,1.23828125,-0.3232421875,43.87117647058824,173.35356894614637
-0.716203125,0.12749951171875,-0.5531079101562499,0.913855241285894,-0.0634765625,0.98486328125,-0.24755859375,44.20058823529412,173.35356894614637
-0.73622265625,0.10406201171875,-0.6859204101562499,1.011602447074777,-0.18603515625,0.85400390625,-0.26611328125,44.01235294117648,173.35356894614637
-0.75184765625,0.08599560546875,-0.6834790039062499,1.0197125531978286,-0.21337890625,0.7578125,-0.36083984375,44.01235294117648,173.35356894614637
-0.76161328125,0.07720654296875,-0.6727368164062499,1.019112586813642,-0.2294921875,0.72998046875,-0.41552734375,44.57705882352941,173.5668924388694
-0.7581953125,0.07769482421875,-0.6644360351562499,1.011124058867908,-0.25390625,0.87353515625,-0.3486328125,44.62411764705882,173.5668924388694
-0.76747265625,0.09283154296875,-0.6742016601562499,1.0257581839882308,-0.28564453125,1.18115234375,-0.2099609375,43.30647058823529,173.5668924388694
-0.77528515625,0.11187451171875,-0.6800610351562499,1.037336006996617,-0.2705078125,1.62451171875,-0.16259765625,44.01235294117648,173.5668924388694
-0.78407421875,0.12212841796875,-0.7030102539062499,1.060146757803514,-0.26318359375,2.12109375,-0.26220703125,43.96529411764706,173.67359493246389
-0.78016796875,0.11089794921875,-0.7259594726562499,1.071437151933685,-0.23046875,2.384765625,-0.42919921875,44.01235294117648,173.67359493246389
-0.75868359375,0.08794873046875,-0.7498852539062499,1.0703567950186148,-0.197265625,2.31005859375,-0.5380859375,44.57705882352941,173.67359493246389
-0.72841015625,0.06792919921875,-0.7620922851562499,1.0563997268692022,-0.15380859375,1.91455078125,-0.466796875,43.54176470588236,173.67359493246389
-0.7074140625,0.04790966796875,-0.7713696289062499,1.04773140475343,-0.15478515625,1.26904296875,-0.22998046875,44.71823529411765,173.67359493246389
-0.6996015625,0.04107373046875,-0.7747875976562499,1.0447129840626104,-0.158203125,0.5166015625,0.06201171875,44.76529411764706,173.35364880351665
-0.69813671875,0.05376904296875,-0.7562329101562499,1.0306183592640792,-0.15625,-0.1591796875,0.30615234375,43.87117647058824,173.35364880351665
-0.7230390625,0.07427685546875,-0.7401196289062499,1.0373425674537462,-0.1376953125,-0.67138671875,0.3798828125,43.30647058823529,173.35364880351665
-0.74794140625,0.09966748046875,-0.7103344726562499,1.036303535114133,-0.11669921875,-0.939453125,0.35107421875,44.01235294117648,173.35364880351665
-0.7660078125,0.10113232421875,-0.6951977539062499,1.039372711229815,-0.09228515625,-0.89013671875,0.13671875,44.15352941176471,173.801670095951
-0.7660078125,0.08501904296875,-0.6751782226562499,1.024627658629031,-0.02197265625,-0.6025390625,-0.09228515625,44.76529411764706,173.801670095951
-0.77675,0.06792919921875,-0.6707836914062499,1.028545428876671,0.01513671875,-0.05029296875,-0.07861328125,43.40058823529412,173.801670095951
-0.8011640625,0.06011669921875,-0.6737133789062499,1.0485073149405004,-0.01513671875,0.62109375,0.07275390625,43.82411764705883,173.801670095951
-0.80458203125,0.08453076171875,-0.6834790039062499,1.0590756552143987,-0.05126953125,1.1884765625,0.1044921875,44.57705882352941,173.801670095951
-0.80360546875,0.09722607421875,-0.6995922851562499,1.0698897253282886,-0.083984375,1.49462890625,-0.0439453125,44.01235294117648,173.5777367036379
-0.75868359375,0.09576123046875,-0.6966625976562499,1.0344611078525177,-0.12353515625,1.4189453125,-0.13671875,43.40058823529412,173.5777367036379
-0.7152265625,0.07574169921875,-0.6976391601562499,1.0019911369316736,-0.146484375,1.0029296875,0.05322265625,44.01235294117648,173.5777367036379
-0.708390625,0.06548779296875,-0.6991040039062499,0.9974228475895058,-0.18603515625,0.40576171875,0.25146484375,44.059411764705885,173.5777367036379
-0.71864453125,0.07867138671875,-0.6883618164062499,0.9982390193084496,-0.2275390625,-0.1083984375,0.69384765625,43.30647058823529,173.48164179790194
-0.75770703125,0.09673779296875,-0.6854321289062499,1.026301782679494,-0.2724609375,-0.240234375,0.69580078125,44.76529411764706,173.48164179790194
-0.79872265625,0.11968701171875,-0.6951977539062499,1.0656372644655003,-0.255859375,0.02294921875,0.4443359375,43.82411764705883,173.48164179790194
-0.817765625,0.11822216796875,-0.6849438476562499,1.0732498184826402,-0.22314453125,0.4853515625,0.24560546875,44.62411764705882,173.48164179790194
-0.80946484375,0.11138623046875,-0.6834790039062499,1.0652623030906183,-0.169921875,0.92041015625,-0.06884765625,43.96529411764706,173.48164179790194
-0.78505078125,0.09039013671875,-0.6951977539062499,1.052508918248945,-0.17041015625,1.19189453125,-0.0654296875,44.15352941176471,173.66298752436066
-0.76063671875,0.08306591796875,-0.7010571289062499,1.0377616598376682,-0.18310546875,1.3173828125,0.11865234375,43.30647058823529,173.66298752436066
-0.735734375,0.09234326171875,-0.7044750976562499,1.0227988618292851,-0.2216796875,1.2822265625,0.29248046875,44.76529411764706,173.66298752436066
-0.72548046875,0.10455029296875,-0.7088696289062499,1.0196807466473297,-0.24609375,1.08349609375,0.30908203125,43.82411764705883,173.66298752436066
-0.7376875,0.11382763671875,-0.7249829101562499,1.0405478357845213,-0.2666015625,0.8603515625,0.19580078125,43.87117647058824,173.9404321128252
-0.751359375,0.10601513671875,-0.7313305664062499,1.053861716248376,-0.26123046875,0.5546875,0.130859375,43.96529411764706,173.9404321128252
-0.74989453125,0.10357373046875,-0.7249829101562499,1.0481743870465905,-0.2001953125,0.26953125,0.173828125,43.82411764705883,173.9404321128252
-0.7406171875,0.10308544921875,-0.7196118164062499,1.037777237451537,-0.1650390625,0.01025390625,0.21044921875,44.15352941176471,173.9404321128252
-0.7386640625,0.11382763671875,-0.7152172851562499,1.0344646408148788,-0.1171875,-0.03515625,0.232421875,43.30647058823529,173.9404321128252
-0.74501171875,0.11578076171875,-0.6981274414062499,1.027535678360338,-0.1494140625,0.03076171875,0.27587890625,44.059411764705885,173.41752592494237
-0.75087109375,0.12115185546875,-0.6873852539062499,1.0251749405836068,-0.16552734375,0.19873046875,0.26171875,44.01235294117648,173.41752592494237
-0.7689375,0.11675732421875,-0.6912915039062499,1.0405676792203076,-0.1298828125,0.42919921875,0.13916015625,43.87117647058824,173.41752592494237
-0.78993359375,0.10406201171875,-0.7025219726562499,1.0622434310846889,-0.095703125,0.71533203125,-0.0458984375,44.01235294117648,173.41752592494237
-0.78798046875,0.09771435546875,-0.7039868164062499,1.0611591549197277,-0.03955078125,0.91015625,-0.17919921875,43.447647058823534,173.65222303562933
-0.77040234375,0.09624951171875,-0.7132641601562499,1.0542909948989376,-0.0185546875,1.0361328125,-0.1513671875,44.01235294117648,173.65222303562933
-0.7328046875,0.09869091796875,-0.7161938476562499,1.0294057677768038,-0.06396484375,0.9609375,-0.0380859375,43.96529411764706,173.65222303562933
-0.71571484375,0.10747998046875,-0.7171704101562499,1.0188881592055792,-0.095703125,0.693359375,0.09521484375,44.01235294117648,173.65222303562933
-0.727921875,0.11529248046875,-0.7142407226562499,1.0263052285049876,-0.119140625,0.328125,0.11328125,43.82411764705883,173.65222303562933
-0.7455,0.11919873046875,-0.7108227539062499,1.036941451971242,-0.13330078125,-0.05224609375,0.10205078125,44.01235294117648,173.26832099746514
-0.7621015625,0.11138623046875,-0.6961743164062499,1.0382024671164525,-0.1328125,-0.2626953125,-0.02880859375,43.447647058823534,173.26832099746514
-0.76649609375,0.09624951171875,-0.6883618164062499,1.0347087612107178,-0.15185546875,-0.19775390625,-0.068359375,43.96529411764706,173.26832099746514
-0.76454296875,0.09722607421875,-0.6771313476562499,1.0259072680080898,-0.1533203125,0.1669921875,-0.03271484375,44.15352941176471,173.26832099746514
-0.77333203125,0.09429638671875,-0.6702954101562499,1.0277305950403532,-0.1376953125,0.6669921875,0.04638671875,43.40058823529412,173.38562693917416
-0.78114453125,0.09966748046875,-0.6829907226562499,1.0423994976012207,-0.11865234375,1.08544921875,-0.00244140625,43.87117647058824,173.38562693917416
-0.78212109375,0.10943310546875,-0.6991040039062499,1.0547205403039142,-0.0966796875,1.37548828125,-0.08837890625,44.15352941176471,173.38562693917416
-0.75770703125,0.11040966796875,-0.7078930664062499,1.0427956815468222,-0.09130859375,1.4111328125,-0.16015625,44.76529411764706,173.38562693917416
-0.7308515625,0.09966748046875,-0.7157055664062499,1.0277704368469505,-0.103515625,1.3017578125,-0.1435546875,43.96529411764706,173.38562693917416
-0.7191328125,0.09771435546875,-0.7205883789062499,1.0227158496344773,-0.15087890625,1.10595703125,-0.07177734375,44.76529411764706,173.36425493044877
-0.73378125,0.09917919921875,-0.7274243164062499,1.03798726991632,-0.1572265625,0.7939453125,0.005859375,43.30647058823529,173.36425493044877
-0.74598828125,-0.01752001953125,-0.7240063476562499,1.0397070059844973,-0.15771484375,0.62451171875,0.02587890625,44.71823529411765,173.36425493044877
-0.74940625,0.09869091796875,-0.7240063476562499,1.0466779907283423,-0.1279296875,0.2578125,0.02685546875,44.15352941176471,173.36425493044877
-0.74403515625,0.09722607421875,-0.7142407226562499,1.0359445125799325,-0.12255859375,0.09228515625,0.04443359375,44.62411764705882,173.57765733118688
-0.74403515625,0.09478466796875,-0.7054516601562499,1.0296768871034825,-0.14794921875,0.07275390625,0.14208984375,44.29470588235294,173.57765733118688
-0.75282421875,0.09283154296875,-0.6995922851562499,1.031887283164518,-0.1669921875,0.15478515625,0.28076171875,43.447647058823534,173.57765733118688
-0.774796875,0.10992138671875,-0.7010571289062499,1.0506540852051225,-0.162109375,0.32568359375,0.24267578125,43.87117647058824,173.57765733118688
-0.76551953125,0.11675732421875,-0.6981274414062499,1.0426093947056008,-0.26416015625,0.5439453125,0.21630859375,43.58882352941177,173.57765733118688
-0.74110546875,0.10601513671875,-0.7020336914062499,1.026317606247763,-0.25537109375,0.69287109375,0.0244140625,43.96529411764706,173.4494260522075
-0.73378125,0.09771435546875,-0.7127758789062499,1.0276344056457103,-0.17041015625,0.80322265625,-0.11669921875,43.30647058823529,173.4494260522075
-0.74208203125,0.09039013671875,-0.7083813476562499,1.0298836107189224,-0.08251953125,0.69873046875,-0.0947265625,44.01235294117648,173.4494260522075
-0.7523359375,0.09234326171875,-0.7030102539062499,1.0338085209245431,-0.09619140625,0.619140625,0.0712890625,43.40058823529412,173.4494260522075
-0.7699140625,0.11285107421875,-0.7122875976562499,1.0549202104246993,-0.1572265625,0.34228515625,0.087890625,44.57705882352941,173.72702490860803
-0.778703125,0.12505810546875,-0.7181469726562499,1.066655127472575,-0.2080078125,0.2548828125,0.025390625,44.059411764705885,173.72702490860803
-0.75721875,0.12945263671875,-0.6971508789062499,1.0373801465541723,-0.2236328125,0.11669921875,0.0498046875,44.76529411764706,173.72702490860803
-0.73817578125,0.11871044921875,-0.6917797851562499,1.0186044010942583,-0.2265625,-0.04931640625,0.21875,44.059411764705885,173.72702490860803
-0.7464765625,0.10601513671875,-0.6742016601562499,1.011441716626695,-0.2529296875,-0.185546875,0.39013671875,44.059411764705885,173.72702490860803
-0.76161328125,0.10894482421875,-0.6712719726562499,1.0210434986690131,-0.2548828125,-0.19384765625,0.48681640625,44.01235294117648,173.58842279006174
-0.78846875,0.12652294921875,-0.6659008789062499,1.0397668041121957,-0.24658203125,0.041015625,0.36572265625,44.01235294117648,173.58842279006174
-0.80751171875,0.13091748046875,-0.6551586914062499,1.048068448879182,-0.20751953125,0.4462890625,0.11767578125,44.20058823529412,173.58842279006174
-0.79969921875,0.12115185546875,-0.6580883789062499,1.042725719930384,-0.1884765625,0.87890625,-0.09326171875,44.01235294117648,173.58842279006174
-0.77284375,0.10894482421875,-0.6571118164062499,1.0202707365688963,-0.16357421875,1.46875,-0.1591796875,43.87117647058824,173.54567852459763
-0.75868359375,0.10308544921875,-0.6644360351562499,1.013756701620366,-0.16162109375,1.79541015625,-0.0693359375,44.01235294117648,173.54567852459763
-0.7523359375,0.11040966796875,-0.6800610351562499,1.020138553909597,-0.13134765625,1.96142578125,0.0263671875,43.447647058823534,173.54567852459763
-0.7523359375,0.11187451171875,-0.7020336914062499,1.035073221127761,-0.1376953125,1.962890625,0.0234375,44.01235294117648,173.54567852459763
-0.75380078125,0.12017529296875,-0.7201000976562499,1.0493816605495716,-0.14794921875,1.88623046875,-0.09716796875,43.30647058823529,173.54567852459763
-0.74794140625,0.10943310546875,-0.7308422851562499,1.0514382518855645,-0.14404296875,1.720703125,-0.22607421875,44.059411764705885,173.55620649834734
-0.7376875,0.09771435546875,-0.7357250976562499,1.0464331618609102,-0.1552734375,1.42236328125,-0.16015625,43.96529411764706,173.55620649834734
-0.72450390625,0.08843701171875,-0.7308422851562499,1.0328879227610614,-0.17138671875,1.0859375,-0.0341796875,44.62411764705882,173.55620649834734
-0.72596875,0.08599560546875,-0.7259594726562499,1.0302635711679995,-0.1669921875,0.7021484375,0.07958984375,44.29470588235294,173.55620649834734
-0.73231640625,0.09039013671875,-0.7279125976562499,1.0364914112068748,-0.14794921875,0.44189453125,0.12109375,44.20058823529412,174.06827690595995
-0.743546875,0.09380810546875,-0.7186352539062499,1.0383152431370744,-0.126953125,0.36669921875,0.1728515625,44.01235294117648,174.06827690595995
-0.74794140625,0.09576123046875,-0.7074047851562499,1.0339284745600523,-0.1337890625,0.26953125,0.33642578125,44.76529411764706,174.06827690595995
-0.7640546875,0.10699169921875,-0.7064282226562499,1.0460724750024286,-0.12548828125,0.125,0.36328125,43.87117647058824,174.06827690595995
-0.76649609375,0.12310498046875,-0.6947094726562499,1.0417736555262591,-0.1025390625,0.33349609375,0.22607421875,43.30647058823529,174.06827690595995
-0.76356640625,0.11968701171875,-0.7005688476562499,1.0431468486431383,-0.08447265625,0.5966796875,-0.0068359375,44.57705882352941,173.79106249340882
-0.75673046875,0.10747998046875,-0.6956860351562499,1.0335240723116133,-0.07666015625,0.89794921875,-0.119140625,44.20058823529412,173.79106249340882
-0.75575390625,0.10162060546875,-0.7010571289062499,1.0358435269181556,-0.04541015625,1.099609375,-0.11279296875,44.71823529411765,173.79106249340882
-0.74940625,0.08892529296875,-0.7039868164062499,1.032044026649274,-0.0498046875,1.09619140625,0.021484375,44.71823529411765,173.79106249340882
-0.73719921875,0.09624951171875,-0.7122875976562499,1.0296020000012724,-0.037109375,0.88671875,0.1865234375,43.87117647058824,173.79098409951305
-0.72450390625,0.09917919921875,-0.7152172851562499,1.022877406493788,-0.08154296875,0.6005859375,0.32568359375,44.01235294117648,173.79098409951305
-0.7220625,0.11480419921875,-0.7171704101562499,1.0241521641182976,-0.1015625,0.29541015625,0.39453125,43.447647058823534,173.79098409951305
-0.74159375,0.12505810546875,-0.7078930664062499,1.032818189832334,-0.16650390625,0.1533203125,0.38623046875,44.20058823529412,173.79098409951305
-0.770890625,0.12652294921875,-0.7034985351562499,1.051280457993437,-0.17919921875,0.18798828125,0.328125,43.96529411764706,173.79098409951305
-0.78895703125,0.12408154296875,-0.7083813476562499,1.0675455775617284,-0.1875,0.35546875,0.21923828125,44.059411764705885,173.49232782353502
-0.79091015625,0.12066357421875,-0.6995922851562499,1.0627925191930865,-0.1484375,0.6103515625,0.04052734375,43.82411764705883,173.49232782353502
-0.7874921875,0.10992138671875,-0.7064282226562499,1.0636105915216227,-0.12255859375,0.740234375,-0.04443359375,44.76529411764706,173.49232782353502
-0.778703125,0.10308544921875,-0.7132641601562499,1.0610141040008836,-0.11572265625,0.87451171875,0.01025390625,43.447647058823534,173.49232782353502
-0.761125,0.10406201171875,-0.7225415039062499,1.054611963129121,-0.126953125,0.66796875,0.1298828125,43.30647058823529,173.67367353904373
-0.75184765625,0.10894482421875,-0.7279125976562499,1.052140970953675,-0.16455078125,0.44189453125,0.14599609375,44.57705882352941,173.67367353904373
-0.7445234375,0.11187451171875,-0.7205883789062499,1.0421509809878138,-0.189453125,0.19775390625,0.15185546875,44.76529411764706,173.67367353904373
-0.74159375,0.11675732421875,-0.7171704101562499,1.0382326136283089,-0.1904296875,-0.10302734375,0.24853515625,44.15352941176471,173.67367353904373
-0.743546875,0.11138623046875,-0.7054516601562499,1.0309853987702795,-0.150390625,-0.35107421875,0.13623046875,44.20058823529412,173.67367353904373
-0.7464765625,0.10894482421875,-0.6995922851562499,1.0288467322862112,-0.1298828125,-0.49609375,0.22705078125,43.87117647058824,173.55628531761616
-0.75282421875,0.10699169921875,-0.6849438476562499,1.0233961122070043,-0.140625,-0.45703125,0.2578125,43.87117647058824,173.55628531761616
-0.7660078125,0.11724560546875,-0.6776196289062499,1.0294089868909309,-0.18310546875,-0.37109375,0.46142578125,44.57705882352941,173.55628531761616
-0.774796875,0.12945263671875,-0.6785961914062499,1.0380563441616597,-0.16845703125,0.05810546875,0.33935546875,44.059411764705885,173.55628531761616
-0.8050703125,0.14214794921875,-0.6815258789062499,1.064341003229172,-0.1455078125,0.35791015625,0.04150390625,44.76529411764706,173.4176052717499
-0.77919140625,0.13335888671875,-0.6859204101562499,1.0466186742599404,-0.19384765625,0.533203125,-0.134765625,43.87117647058824,173.4176052717499
-0.73524609375,0.10845654296875,-0.7000805664062499,1.0210104992344895,-0.1513671875,0.6220703125,-0.19091796875,44.76529411764706,173.4176052717499
-0.7269453125,0.09283154296875,-0.6966625976562499,1.011140918818359,-0.09326171875,0.66748046875,-0.044921875,44.53,173.4176052717499
-0.71278515625,0.09624951171875,-0.7025219726562499,1.005417211679442,-0.10009765625,0.54443359375,0.22021484375,44.20058823529412,173.4176052717499
-0.743546875,0.10943310546875,-0.7108227539062499,1.0344595436099302,-0.0849609375,0.46142578125,0.3125,44.76529411764706,173.49232782353502
-0.790421875,0.13628857421875,-0.7196118164062499,1.0775817752043682,-0.09423828125,0.38818359375,0.1591796875,44.62411764705882,173.49232782353502
-0.81190625,0.14165966796875,-0.7254711914062499,1.0979834561041812,-0.07373046875,0.255859375,-0.14697265625,44.76529411764706,173.49232782353502
-0.77040234375,0.12945263671875,-0.7166821289062499,1.0601467022551758,-0.05810546875,-0.03271484375,-0.23974609375,44.059411764705885,173.49232782353502
-0.72255078125,0.10162060546875,-0.6873852539062499,1.0024494332526606,-0.080078125,-0.3515625,0.0341796875,43.96529411764706,173.748240247498
-0.69813671875,0.09673779296875,-0.6727368164062499,0.9743345948922773,-0.13623046875,-0.609375,0.4677734375,43.30647058823529,173.748240247498
-0.72255078125,0.11480419921875,-0.6639477539062499,0.9879707766732768,-0.19384765625,-0.62158203125,0.728515625,43.96529411764706,173.748240247498
-0.77235546875,0.14165966796875,-0.6585766601562499,1.0248529889401743,-0.20166015625,-0.3193359375,0.57080078125,44.059411764705885,173.748240247498
-0.82020703125,0.14849560546875,-0.6580883789062499,1.0620126333556137,-0.169921875,0.29443359375,0.21630859375,43.40058823529412,173.748240247498
-0.8265546875,0.14410107421875,-0.6624829101562499,1.0690375939452803,-0.09716796875,0.8994140625,-0.0703125,44.059411764705885,173.42837111712672
-0.7933515625,0.12603466796875,-0.6751782226562499,1.0493603154305184,-0.0625,1.3193359375,-0.11181640625,44.57705882352941,173.42837111712672
-0.75673046875,0.11236279296875,-0.6805493164062499,1.0239207838692148,-0.09765625,1.48681640625,0.05810546875,44.76529411764706,173.42837111712672
-0.731828125,0.12066357421875,-0.7005688476562499,1.0202591891233646,-0.12939453125,1.4453125,0.19287109375,43.82411764705883,173.42837111712672
-0.72450390625,0.12505810546875,-0.7093579101562499,1.0216330479267908,-0.1591796875,1.2783203125,0.162109375,44.71823529411765,173.6630665053955
-0.73622265625,0.12945263671875,-0.7274243164062499,1.0430378328844752,-0.18896484375,1.05126953125,0.08203125,44.01235294117648,173.6630665053955
-0.75184765625,0.11968701171875,-0.7298657226562499,1.0546581683613476,-0.20703125,0.66015625,0.03271484375,43.96529411764706,173.6630665053955
-0.7464765625,0.11138623046875,-0.7210766601562499,1.0438322185686482,-0.1796875,0.19384765625,0.052734375,44.62411764705882,173.6630665053955
-0.74794140625,0.10796826171875,-0.7220532226562499,1.045195842447755,-0.1728515625,-0.18603515625,0.13818359375,43.96529411764706,173.6630665053955
-0.75721875,0.23101513671875,-0.7049633789062499,1.0600573542708254,-0.14990234375,-0.34326171875,0.2275390625,44.059411764705885,173.16178412462762
-0.763078125,0.11871044921875,-0.6908032226562499,1.0361416351249928,-0.1416015625,-0.197265625,0.24267578125,44.29470588235294,173.16178412462762
-0.78407421875,0.12505810546875,-0.6751782226562499,1.042246392462506,-0.1142578125,0.13818359375,0.1318359375,44.01235294117648,173.16178412462762
-0.78993359375,0.12505810546875,-0.6771313476562499,1.047922456223261,-0.08203125,0.42626953125,0.095703125,43.30647058823529,173.16178412462762
-0.78602734375,0.12603466796875,-0.6790844726562499,1.046364871187623,-0.02880859375,0.57275390625,0.03173828125,44.71823529411765,173.57765733118688
-0.77528515625,0.11968701171875,-0.6737133789062499,1.0340608160031146,-0.0029296875,0.57666015625,-0.04150390625,43.96529411764706,173.57765733118688
-0.76356640625,0.11529248046875,-0.6839672851562499,1.0315702884293383,0.0009765625,0.5556640625,-0.068359375,44.01235294117648,173.57765733118688
-0.75380078125,0.11236279296875,-0.6820141601562499,1.022733753090453,-0.03369140625,0.51708984375,0.04541015625,43.447647058823534,173.57765733118688
-0.7542890625,0.11773388671875,-0.6893383789062499,1.0285915897586024,-0.0947265625,0.52490234375,0.05078125,43.96529411764706,173.57765733118688
-0.75721875,0.12310498046875,-0.6864086914062499,1.0294134073373118,-0.12939453125,0.453125,0.0380859375,43.96529411764706,173.70557452673583
-0.76454296875,0.12652294921875,-0.6839672851562499,1.0336078825686676,-0.13525390625,0.28466796875,0.0849609375,43.40058823529412,173.70557452673583
-0.76356640625,0.13335888671875,-0.6761547851562499,1.0285929918632049,-0.1533203125,0.06884765625,0.2099609375,44.059411764705885,173.70557452673583
-0.76747265625,0.13091748046875,-0.6727368164062499,1.0289453284466248,-0.1533203125,-0.037109375,0.22802734375,43.96529411764706,173.70557452673583
-0.78798046875,0.13189404296875,-0.6751782226562499,1.0460281497413753,-0.150390625,0.09912109375,0.18896484375,43.30647058823529,173.63100836284542
-0.79969921875,0.13287060546875,-0.6717602539062499,1.052822528727032,-0.15673828125,0.40625,0.09912109375,44.01235294117648,173.63100836284542
-0.80653515625,0.13677685546875,-0.6829907226562499,1.0656843780846363,-0.14892578125,0.62744140625,-0.09326171875,44.01235294117648,173.63100836284542
-0.8001875,0.12456982421875,-0.6776196289062499,1.055928992755282,-0.12060546875,0.97509765625,-0.17724609375,43.40058823529412,173.63100836284542
-0.774796875,0.11919873046875,-0.6888500976562499,1.043567435241323,-0.11767578125,0.97900390625,-0.12646484375,43.87117647058824,173.63100836284542
-0.75673046875,0.11382763671875,-0.6849438476562499,1.027008182858208,-0.11669921875,0.9921875,-0.01123046875,43.87117647058824,173.5777367036379
-0.74598828125,0.11089794921875,-0.6864086914062499,1.019781232687332,-0.0986328125,0.6103515625,0.05908203125,43.87117647058824,173.5777367036379
-0.74891796875,0.11431591796875,-0.6898266601562499,1.0246009340616424,-0.07861328125,0.3564453125,0.1591796875,43.30647058823529,173.5777367036379
-0.76258984375,0.11822216796875,-0.6937329101562499,1.0376825629371154,-0.078125,0.185546875,0.19775390625,44.76529411764706,173.5777367036379
-0.77284375,0.12749951171875,-0.6937329101562499,1.0463311799026358,-0.083984375,0.138671875,0.2158203125,43.96529411764706,173.5030936859862
-0.77723828125,0.13189404296875,-0.6815258789062499,1.0421002389549832,-0.10888671875,0.17236328125,0.19140625,43.30647058823529,173.5030936859862
-0.78016796875,0.13482373046875,-0.6761547851562499,1.041165112386458,-0.10546875,0.20947265625,0.1591796875,43.87117647058824,173.5030936859862
-0.782609375,0.12945263671875,-0.6771313476562499,1.0429488390952342,-0.08447265625,0.25830078125,0.12548828125,43.447647058823534,173.5030936859862
-0.77723828125,0.12603466796875,-0.6668774414062499,1.0318476657079734,-0.0859375,0.31396484375,0.10986328125,43.87117647058824,173.5030936859862
-0.7874921875,0.12652294921875,-0.6659008789062499,1.0390264590378158,-0.11669921875,0.5263671875,0.2119140625,43.40058823529412,173.72702490860803
-0.7855390625,0.12603466796875,-0.6688305664062499,1.0393703299607302,-0.18115234375,0.6728515625,0.29833984375,44.01235294117648,173.72702490860803
-0.79872265625,0.12652294921875,-0.6737133789062499,1.0525472223151522,-0.21923828125,0.6484375,0.3154296875,44.01235294117648,173.72702490860803
-0.782609375,0.12456982421875,-0.6707836914062499,1.0382417038437517,-0.22607421875,0.3984375,0.31591796875,44.059411764705885,173.72702490860803
-0.75282421875,0.11773388671875,-0.6732250976562499,1.016778050772497,-0.18115234375,0.11865234375,0.171875,43.87117647058824,173.58842279006174
-0.74159375,0.09722607421875,-0.6688305664062499,1.003368589356054,-0.11083984375,-0.00146484375,0.14599609375,44.059411764705885,173.58842279006174
-0.74501171875,0.08892529296875,-0.6678540039062499,1.0044795365451784,-0.033203125,0.064453125,0.21923828125,43.30647058823529,173.58842279006174
-0.76649609375,0.10699169921875,-0.6659008789062499,1.0209737831912435,0.0478515625,0.27685546875,0.3134765625,44.62411764705882,173.58842279006174
-0.80067578125,0.14068310546875,-0.6688305664062499,1.0527144766763372,0.0,0.46533203125,0.2626953125,44.01235294117648,173.58842279006174
-0.81727734375,0.17144482421875,-0.6698071289062499,1.0705032341343428,0.1298828125,0.5693359375,0.08154296875,43.30647058823529,173.68443866729314
-0.79188671875,0.17828076171875,-0.6649243164062499,1.0492821126274754,0.10888671875,0.57470703125,-0.005859375,44.71823529411765,173.68443866729314
-0.75673046875,0.16265576171875,-0.6536938476562499,1.0131206964713209,0.06689453125,0.57080078125,-0.2060546875,44.20058823529412,173.68443866729314
-0.7376875,0.14214794921875,-0.6556469726562499,0.997126792277016,-0.02490234375,0.703125,-0.14013671875,43.30647058823529,173.68443866729314
-0.75184765625,0.12164013671875,-0.6644360351562499,1.01071581855818,-0.1376953125,0.99169921875,0.056640625,44.01235294117648,173.5030936859862
-0.7757734375,0.11919873046875,-0.6771313476562499,1.0366000316682888,-0.1552734375,1.26513671875,0.11865234375,43.58882352941177,173.5030936859862
-0.80653515625,0.12115185546875,-0.6908032226562499,1.0688245051377674,-0.1181640625,1.3076171875,0.04345703125,43.96529411764706,173.5030936859862
-0.80262890625,0.12554638671875,-0.7059399414062499,1.0762556653689983,-0.07958984375,1.12841796875,-0.0615234375,43.96529411764706,173.5030936859862
-0.76551953125,0.13042919921875,-0.6995922851562499,1.045208732351681,-0.03466796875,0.88916015625,-0.171875,44.76529411764706,173.5030936859862
-0.73329296875,0.12652294921875,-0.7020336914062499,1.0230239188634276,-0.0322265625,0.7421875,-0.1640625,43.96529411764706,173.30021878471862
-0.724015625,0.12261669921875,-0.6932446289062499,1.0098621666736538,-0.0693359375,0.7138671875,-0.0283203125,43.54176470588236,173.30021878471862
-0.731828125,0.11626904296875,-0.7030102539062499,1.0214275852899288,-0.1162109375,0.67919921875,0.19775390625,44.059411764705885,173.30021878471862
-0.7464765625,0.12310498046875,-0.6995922851562499,1.0304423613323417,-0.109375,0.58642578125,0.1982421875,43.40058823529412,173.30021878471862
-0.76356640625,0.12749951171875,-0.7034985351562499,1.046040138431145,-0.0625,0.36865234375,0.08447265625,44.76529411764706,173.76945689938591
-0.7601484375,0.12212841796875,-0.6956860351562499,1.0376512212784526,-0.04248046875,0.1787109375,-0.01416015625,43.447647058823534,173.76945689938591
-0.7503828125,0.12261669921875,-0.6800610351562499,1.0200942269028397,-0.03076171875,0.103515625,-0.046875,43.40058823529412,173.76945689938591
-0.7542890625,0.11382763671875,-0.6820141601562499,1.023255606064164,-0.07177734375,0.27001953125,-0.009765625,44.01235294117648,173.76945689938591
-0.7718671875,0.11968701171875,-0.6727368164062499,1.0308631141241502,-0.091796875,0.595703125,-0.00927734375,44.20058823529412,173.76945689938591
-0.78212109375,0.12701123046875,-0.6722485351562499,1.0391166204876168,-0.0986328125,0.95556640625,-0.06591796875,44.01235294117648,173.32151107348014
-0.7777265625,0.13580029296875,-0.6766430664062499,1.0397817871573427,-0.13134765625,1.162109375,-0.1005859375,43.96529411764706,173.32151107348014
-0.76356640625,0.13628857421875,-0.6829907226562499,1.0334817654175743,-0.0888671875,1.19384765625,-0.1875,44.76529411764706,173.32151107348014
-0.75770703125,0.12945263671875,-0.6917797851562499,1.0341359685795444,-0.05810546875,1.02880859375,-0.2294921875,43.30647058823529,173.32151107348014
-0.76161328125,0.12115185546875,-0.6800610351562499,1.0282098880081356,-0.06201171875,0.8046875,-0.19140625,44.059411764705885,173.48164179790194
-0.77430859375,0.11431591796875,-0.6839672851562499,1.039438874884017,-0.07568359375,0.60400390625,-0.10107421875,44.76529411764706,173.48164179790194
-0.77430859375,0.11724560546875,-0.6815258789062499,1.0381608035250478,-0.1025390625,0.47802734375,-0.03271484375,44.059411764705885,173.48164179790194
-0.76649609375,0.12115185546875,-0.6702954101562499,1.0254218501153878,-0.10693359375,0.40625,-0.072265625,43.40058823529412,173.48164179790194
-0.7640546875,0.11578076171875,-0.6707836914062499,1.0232963944681384,-0.11328125,0.39599609375,-0.0517578125,44.53,173.48164179790194
-0.76942578125,0.11675732421875,-0.6615063476562499,1.0213906958654004,-0.13623046875,0.48046875,0.07861328125,44.71823529411765,173.35364880351665
-0.7777265625,0.11675732421875,-0.6580883789062499,1.0254614537993345,-0.16064453125,0.5009765625,0.13330078125,44.01235294117648,173.35364880351665
-0.78993359375,0.12261669921875,-0.6659008789062499,1.0404104564979186,-0.1181640625,0.79052734375,0.1240234375,44.76529411764706,173.35364880351665
-0.7874921875,0.12310498046875,-0.6742016601562499,1.0439572118373388,-0.07177734375,0.9150390625,0.0791015625,44.43588235294118,173.35364880351665
-0.77430859375,0.12408154296875,-0.6688305664062499,1.0306717975281527,-0.037109375,1.078125,-0.00732421875,44.29470588235294,173.52430647211648
-0.76942578125,0.12896435546875,-0.6825024414062499,1.0365603795048,-0.03125,1.26025390625,-0.07763671875,44.62411764705882,173.52430647211648
-0.7640546875,0.13042919921875,-0.6815258789062499,1.032118629382545,-0.02880859375,1.46435546875,-0.1220703125,44.01235294117648,173.52430647211648
-0.7689375,0.13287060546875,-0.6854321289062499,1.03862249159203,-0.05322265625,1.6220703125,-0.1513671875,43.96529411764706,173.52430647211648
-0.76942578125,0.12798779296875,-0.7010571289062499,1.0487506881959403,-0.03857421875,1.5654296875,-0.18115234375,44.76529411764706,173.52430647211648
-0.76258984375,0.12408154296875,-0.7157055664062499,1.0531732796083684,-0.02294921875,1.314453125,-0.19091796875,44.01235294117648,173.68428090094636
-0.74159375,0.12164013671875,-0.7171704101562499,1.038793054512641,0.0185546875,0.89404296875,-0.2001953125,43.54176470588236,173.68428090094636
-0.73426953125,0.12554638671875,-0.7137524414062499,1.0316763966252265,0.025390625,0.50830078125,-0.20947265625,43.96529411764706,173.68428090094636
-0.73378125,0.12212841796875,-0.7074047851562499,1.0265338783445348,0.12353515625,0.2900390625,-0.13525390625,44.01235294117648,173.68428090094636
-0.75184765625,0.13238232421875,-0.7093579101562499,1.0421077788191675,-0.06689453125,0.32666015625,-0.0107421875,44.76529411764706,173.70565287802688
-0.774796875,0.13628857421875,-0.7020336914062499,1.0543889589908608,-0.1279296875,0.4931640625,0.00830078125,43.82411764705883,173.70565287802688
-0.78602734375,0.13580029296875,-0.7015454101562499,1.062283703727201,-0.154296875,0.658203125,-0.1103515625,44.76529411764706,173.70565287802688
-0.7757734375,0.13384716796875,-0.6971508789062499,1.0515506828791363,-0.1416015625,0.7431640625,-0.2900390625,43.30647058823529,173.70565287802688
-0.7562421875,0.11187451171875,-0.6873852539062499,1.0280645115044356,-0.11181640625,0.73388671875,-0.30859375,43.30647058823529,173.70565287802688
-0.74305859375,0.10113232421875,-0.6951977539062499,1.0225770082413883,-0.1171875,0.69873046875,-0.16015625,44.71823529411765,173.59895034067662
-0.7445234375,0.10894482421875,-0.6932446289062499,1.023118878341239,-0.1494140625,0.607421875,0.10986328125,43.30647058823529,173.59895034067662
-0.75868359375,0.12505810546875,-0.6976391601562499,1.0382392416742712,-0.1279296875,0.51171875,0.1787109375,43.87117647058824,173.59895034067662
-0.7679609375,0.13872998046875,-0.6844555664062499,1.0380218838691404,-0.1826171875,0.37060546875,0.0947265625,44.059411764705885,173.59895034067662
-0.7542890625,0.13384716796875,-0.6878735351562499,1.0295810092211006,-0.1904296875,0.35888671875,-0.16357421875,44.76529411764706,173.6309295605575
-0.74501171875,0.11382763671875,-0.6927563476562499,1.0236750212708288,-0.1337890625,0.466796875,-0.3408203125,43.30647058823529,173.6309295605575
-0.7406171875,0.08941357421875,-0.6849438476562499,1.0127470958324838,-0.09765625,0.4912109375,-0.31640625,43.40058823529412,173.6309295605575
-0.7562421875,0.09283154296875,-0.6859204101562499,1.025186202888852,-0.07958984375,0.4853515625,-0.10205078125,43.30647058823529,173.6309295605575
-0.79091015625,0.10406201171875,-0.6927563476562499,1.0565411183481597,-0.09130859375,0.51611328125,-0.0498046875,43.40058823529412,173.6309295605575
-0.809953125,0.12017529296875,-0.6922680664062499,1.072241223560836,-0.15576171875,0.56640625,-0.12841796875,44.20058823529412,173.4388978290966
-0.78846875,0.12798779296875,-0.6991040039062499,1.0615131902870183,-0.185546875,0.6025390625,-0.28173828125,43.82411764705883,173.4388978290966
-0.74598828125,0.11333935546875,-0.6927563476562499,1.0243318224474078,-0.22607421875,0.58935546875,-0.2294921875,44.01235294117648,173.4388978290966
-0.731828125,0.09624951171875,-0.6810375976562499,1.004314981700716,-0.22607421875,0.44287109375,-0.11767578125,43.447647058823534,173.4388978290966
-0.74403515625,0.09673779296875,-0.6800610351562499,1.012634942050795,-0.2099609375,0.2236328125,0.201171875,43.30647058823529,173.62040151882522
-0.77040234375,0.10601513671875,-0.6761547851562499,1.0305068044213406,-0.193359375,0.11181640625,0.26806640625,43.30647058823529,173.62040151882522
-0.792375,0.11724560546875,-0.6717602539062499,1.0454025594740637,-0.1376953125,0.25390625,0.1826171875,44.71823529411765,173.62040151882522
-0.792375,0.12603466796875,-0.6683422851562499,1.044233828355925,-0.00048828125,0.58935546875,0.07763671875,44.76529411764706,173.62040151882522
-0.786515625,0.12749951171875,-0.6732250976562499,1.0431179156605104,-0.09814453125,0.888671875,-0.02294921875,44.62411764705882,173.62040151882522
-0.77626171875,0.12359326171875,-0.6785961914062499,1.0384364888283018,-0.1064453125,1.39111328125,-0.0361328125,44.20058823529412,173.2148909178518
-0.77430859375,0.11773388671875,-0.6942211914062499,1.0465935835053255,-0.1025390625,1.54541015625,-0.02099609375,43.30647058823529,173.2148909178518
-0.76844921875,0.12359326171875,-0.7034985351562499,1.04914235693101,-0.11767578125,1.39111328125,-0.0693359375,44.059411764705885,173.2148909178518
-0.755265625,0.11480419921875,-0.7166821289062499,1.0474919772287012,-0.1015625,1.09619140625,-0.1025390625,44.15352941176471,173.2148909178518
-0.74403515625,0.10503857421875,-0.7225415039062499,1.0424431114823365,-0.11181640625,0.65087890625,-0.06396484375,44.01235294117648,173.76969042149705
-0.7230390625,0.09771435546875,-0.7117993164062499,1.019309495689095,-0.11083984375,0.29296875,0.1455078125,43.96529411764706,173.76969042149705
-0.72596875,0.10503857421875,-0.6917797851562499,1.0082772432229627,-0.13330078125,0.06884765625,0.23974609375,43.68294117647059,173.76969042149705
-0.7406171875,0.11480419921875,-0.6873852539062499,1.016952461950129,-0.1494140625,0.0673828125,0.234375,44.01235294117648,173.76969042149705
-0.76356640625,0.12310498046875,-0.6810375976562499,1.030534183028951,-0.10595703125,0.26220703125,0.17724609375,44.059411764705885,173.76969042149705
-0.77626171875,0.12505810546875,-0.6825024414062499,1.0411682708696173,-0.0859375,0.5771484375,0.04931640625,43.87117647058824,173.41736853338506
-0.78065625,0.12408154296875,-0.6751782226562499,1.039560504405021,-0.078125,0.95166015625,-0.0498046875,44.15352941176471,173.41736853338506
-0.76942578125,0.11919873046875,-0.6785961914062499,1.0328200042546631,-0.09326171875,1.2314453125,0.06591796875,44.71823529411765,173.41736853338506
-0.7640546875,0.12505810546875,-0.6917797851562499,1.0382573700123603,-0.0927734375,1.40087890625,0.1201171875,43.447647058823534,173.41736853338506
-0.7679609375,0.12896435546875,-0.7064282226562499,1.051397470166548,-0.0771484375,1.35791015625,0.01025390625,44.57705882352941,173.50285551773476
-0.7689375,0.12505810546875,-0.7215649414062499,1.0618664573835488,-0.05908203125,1.25537109375,-0.1474609375,43.40058823529412,173.50285551773476
-0.75477734375,0.12017529296875,-0.7240063476562499,1.0527659431825165,-0.08154296875,1.0380859375,-0.1875,44.76529411764706,173.50285551773476
-0.743546875,0.10845654296875,-0.7269360351562499,1.0454954692602387,-0.14892578125,0.744140625,-0.08251953125,43.30647058823529,173.50285551773476
-0.72938671875,0.10894482421875,-0.7176586914062499,1.0290325347450766,-0.205078125,0.3525390625,0.10595703125,43.87117647058824,173.50285551773476
-0.75087109375,0.12261669921875,-0.7098461914062499,1.0405401817376303,-0.23193359375,0.00634765625,0.23095703125,44.20058823529412,173.60963633469436
-0.77626171875,0.12896435546875,-0.7034985351562499,1.0555208429705043,-0.2587890625,-0.22216796875,0.17333984375,44.059411764705885,173.60963633469436
-0.79383984375,0.13287060546875,-0.6883618164062499,1.059093143027925,-0.2197265625,-0.34130859375,-0.04931640625,43.96529411764706,173.60963633469436
-0.78114453125,0.12896435546875,-0.6668774414062499,1.0351541457868962,-0.1787109375,-0.22509765625,-0.23388671875,44.059411764705885,173.60963633469436
-0.77528515625,0.11529248046875,-0.6619946289062499,1.0259611680053722,-0.14599609375,0.1591796875,-0.10986328125,43.40058823529412,173.4710354303401
-0.7689375,0.10747998046875,-0.6492993164062499,1.0121296494982432,-0.1611328125,0.73974609375,0.0830078125,43.96529411764706,173.4710354303401
-0.78065625,0.11724560546875,-0.6649243164062499,1.0321313187836687,-0.20263671875,1.32275390625,0.142578125,44.62411764705882,173.4710354303401
-0.7855390625,0.12505810546875,-0.6898266601562499,1.05288744389851,-0.17822265625,1.73681640625,-0.0361328125,44.059411764705885,173.4710354303401
-0.77528515625,0.11138623046875,-0.6947094726562499,1.0469456610722208,-0.14453125,1.84033203125,-0.24169921875,43.40058823529412,173.4710354303401
-0.73719921875,0.10015576171875,-0.7201000976562499,1.0353926865569478,-0.1337890625,1.59228515625,-0.26220703125,43.82411764705883,173.44958380123398
-0.7074140625,0.08794873046875,-0.7254711914062499,1.0170929576858854,-0.14599609375,1.2470703125,-0.068359375,44.01235294117648,173.44958380123398
-0.698625,0.08990185546875,-0.7298657226562499,1.0143289443520056,-0.15625,0.54248046875,0.1904296875,44.76529411764706,173.44958380123398
-0.71376171875,0.10747998046875,-0.7254711914062499,1.0233846720148396,-0.1376953125,0.123046875,0.3232421875,44.059411764705885,173.44958380123398
-0.74012890625,0.12164013671875,-0.7142407226562499,1.03572531620517,-0.12158203125,-0.3115234375,0.27587890625,43.82411764705883,173.502934473131
-0.763078125,0.12994091796875,-0.6951977539062499,1.040419523102278,-0.1064453125,-0.29345703125,0.2255859375,44.059411764705885,173.502934473131
-0.77626171875,0.13042919921875,-0.6898266601562499,1.0466397914602117,-0.09130859375,-0.0126953125,0.17529296875,44.20058823529412,173.502934473131
-0.78505078125,0.12945263671875,-0.6805493164062499,1.047000518794373,-0.1005859375,0.388671875,0.13330078125,44.15352941176471,173.502934473131
-0.78212109375,0.12896435546875,-0.6825024414062499,1.0460185432370013,-0.08544921875,0.83544921875,0.08154296875,43.777058823529416,173.502934473131
-0.78212109375,0.13287060546875,-0.6844555664062499,1.0477821459973582,-0.10693359375,1.2021484375,0.0380859375,44.01235294117648,173.72694643815564
-0.770890625,0.13189404296875,-0.6917797851562499,1.0441396771669778,-0.087890625,1.25048828125,-0.03369140625,44.01235294117648,173.72694643815564
-0.759171875,0.13091748046875,-0.7049633789062499,1.0442483842851844,-0.1171875,1.27001953125,-0.06494140625,43.40058823529412,173.72694643815564
-0.74989453125,0.13189404296875,-0.7132641601562499,1.0433041784315351,-0.1005859375,0.93994140625,-0.06689453125,44.29470588235294,173.72694643815564
-0.73378125,0.13287060546875,-0.7093579101562499,1.0292124005036265,-0.18896484375,0.41748046875,0.017578125,44.20058823529412,173.4177652674178
-0.71864453125,0.12701123046875,-0.7127758789062499,1.0201133606179733,-0.19384765625,-0.0302734375,-0.021484375,44.71823529411765,173.4177652674178
-0.73524609375,0.12212841796875,-0.7078930664062499,1.0279176826556815,-0.138671875,-0.1787109375,-0.13037109375,43.447647058823534,173.4177652674178
-0.73036328125,0.10845654296875,-0.6917797851562499,1.0118066097144387,-0.13330078125,-0.109375,-0.1005859375,44.71823529411765,173.4177652674178
-0.7533125,0.10113232421875,-0.6976391601562499,1.0317014429774023,-0.150390625,0.2041015625,-0.02490234375,44.01235294117648,173.4177652674178
-0.8011640625,0.11382763671875,-0.6991040039062499,1.069376918677521,-0.107421875,0.65673828125,-0.0869140625,44.76529411764706,173.34288297521417
-0.82753125,0.12456982421875,-0.7117993164062499,1.098628179899304,-0.111328125,0.9287109375,-0.19189453125,43.96529411764706,173.34288297521417
-0.790421875,0.12456982421875,-0.7074047851562499,1.0680383474605986,-0.11767578125,0.8916015625,-0.2373046875,43.82411764705883,173.34288297521417
-0.72841015625,0.11382763671875,-0.7069165039062499,1.0214054190693136,-0.15869140625,0.74853515625,-0.0732421875,44.059411764705885,173.34288297521417
-0.69813671875,0.09820263671875,-0.7010571289062499,0.9942432971440168,-0.1884765625,0.2080078125,0.17236328125,43.30647058823529,173.5350720598286
-0.7152265625,0.10552685546875,-0.6981274414062499,1.005020834299034,-0.18310546875,-0.16064453125,0.37353515625,44.20058823529412,173.5350720598286
-0.7621015625,0.11382763671875,-0.6922680664062499,1.035852594827935,-0.16650390625,-0.3271484375,0.33203125,43.40058823529412,173.5350720598286
-0.80848828125,0.12359326171875,-0.6859204101562499,1.0674340280924983,-0.1103515625,-0.154296875,0.146484375,44.15352941176471,173.5350720598286
-0.81141796875,0.11529248046875,-0.6678540039062499,1.0572229881139656,-0.0703125,0.21240234375,0.00244140625,44.76529411764706,173.5350720598286
-0.79774609375,0.10357373046875,-0.6712719726562499,1.0477272588848732,-0.05419921875,0.6123046875,0.017578125,43.82411764705883,173.79098409951305
-0.7718671875,0.08599560546875,-0.6751782226562499,1.0290966094824867,-0.0615234375,0.83984375,0.2109375,43.40058823529412,173.79098409951305
-0.74891796875,0.10162060546875,-0.6873852539062499,1.0216180101487156,-0.05126953125,0.8974609375,0.31787109375,44.059411764705885,173.79098409951305
-0.747453125,0.11138623046875,-0.6878735351562499,1.0218919056234177,-0.0419921875,0.8232421875,0.2529296875,43.40058823529412,173.79098409951305
-0.75477734375,0.11431591796875,-0.6976391601562499,1.0341457177413933,-0.03125,0.73046875,0.1806640625,43.30647058823529,173.5350720598286
-0.76161328125,0.11773388671875,-0.6966625976562499,1.0388719041496162,-0.048828125,0.5546875,0.19775390625,43.54176470588236,173.5350720598286
-0.75868359375,0.11675732421875,-0.6922680664062499,1.0336673275043502,-0.03076171875,0.345703125,0.2783203125,43.40058823529412,173.5350720598286
-0.755265625,0.11773388671875,-0.6893383789062499,1.0293079388704047,-0.0263671875,0.1201171875,0.39013671875,43.40058823529412,173.5350720598286
-0.7542890625,0.12310498046875,-0.6834790039062499,1.025305015497349,-0.04345703125,0.03369140625,0.42529296875,44.01235294117648,173.5350720598286
-0.76454296875,0.13433544921875,-0.6844555664062499,1.034916125280869,-0.02392578125,0.15869140625,0.255859375,44.76529411764706,173.55636457090586
-0.7796796875,0.13531201171875,-0.6878735351562499,1.048513116743815,-0.0234375,0.5322265625,0.02294921875,44.01235294117648,173.55636457090586
-0.7845625,0.13091748046875,-0.6771313476562499,1.0445978006282155,-0.02392578125,0.9658203125,-0.0390625,44.76529411764706,173.55636457090586
-0.76551953125,0.12456982421875,-0.6805493164062499,1.0318358231289144,-0.07080078125,1.1767578125,0.140625,43.447647058823534,173.55636457090586
-0.75575390625,0.12554638671875,-0.6937329101562499,1.0335333631112869,-0.09326171875,1.11181640625,0.25439453125,44.71823529411765,173.7590830547786
-0.75380078125,0.13726513671875,-0.7044750976562499,1.040837402666387,-0.1064453125,0.8271484375,0.18603515625,44.71823529411765,173.7590830547786
-0.747453125,0.13970654296875,-0.7166821289062499,1.0449102191643738,-0.07470703125,0.60400390625,0.005859375,44.15352941176471,173.7590830547786
-0.7455,0.13384716796875,-0.7171704101562499,1.0430813542466084,-0.09619140625,0.5263671875,0.0029296875,44.059411764705885,173.7590830547786
-0.75184765625,0.13189404296875,-0.7054516601562499,1.039390678040009,-0.142578125,0.501953125,0.04736328125,44.76529411764706,173.7590830547786
-0.76063671875,0.13140576171875,-0.6991040039062499,1.0414327152540397,-0.16943359375,0.35400390625,0.078125,44.059411764705885,173.31098481480436
-0.75721875,0.13042919921875,-0.6981274414062499,1.038158916450099,-0.13525390625,0.13671875,0.1259765625,43.447647058823534,173.31098481480436
-0.75721875,0.12945263671875,-0.6898266601562499,1.032472295786829,-0.1220703125,-0.03662109375,0.17919921875,44.71823529411765,173.31098481480436
-0.759171875,0.13189404296875,-0.6717602539062499,1.0222523235922956,-0.17431640625,-0.05029296875,0.22802734375,43.447647058823534,173.31098481480436
-0.76747265625,0.14117138671875,-0.7952954101562499,1.1141985585770264,-0.17529296875,0.193359375,0.12060546875,43.96529411764706,173.7697691302524
-0.7845625,0.14312451171875,-0.6717602539062499,1.0427294860073586,-0.14892578125,0.61279296875,-0.0830078125,44.01235294117648,173.7697691302524
-0.79091015625,0.13628857421875,-0.6702954101562499,1.0456621766127503,-0.14501953125,1.08935546875,-0.19873046875,43.30647058823529,173.7697691302524
-0.79188671875,0.12310498046875,-0.6868969726562499,1.0554936582439394,-0.09765625,1.3359375,-0.25830078125,43.96529411764706,173.7697691302524
-0.7699140625,0.11333935546875,-0.6849438476562499,1.0367070693187512,-0.0634765625,1.25732421875,-0.2587890625,44.29470588235294,173.7697691302524
-0.73622265625,0.11236279296875,-0.6927563476562499,1.0171334986311142,-0.08203125,1.00537109375,-0.24853515625,43.96529411764706,173.44966332677856
-0.7064375,0.11089794921875,-0.7015454101562499,1.0017575849767624,-0.0859375,0.69775390625,-0.06494140625,44.62411764705882,173.44966332677856
-0.71571484375,0.11382763671875,-0.6986157226562499,1.006612336695501,-0.08837890625,0.546875,0.01416015625,43.54176470588236,173.44966332677856
-0.74208203125,0.11529248046875,-0.6971508789062499,1.024693829939714,-0.10888671875,0.61083984375,0.09814453125,43.40058823529412,173.44966332677856
-0.7640546875,0.12701123046875,-0.6995922851562499,1.0437148957479012,-0.07421875,0.59814453125,0.02197265625,44.76529411764706,173.35356894614637
-0.77528515625,0.13335888671875,-0.6981274414062499,1.0517763976306411,-0.056640625,0.50732421875,-0.06591796875,44.15352941176471,173.35356894614637
-0.770890625,0.13140576171875,-0.6951977539062499,1.046345902157633,-0.07177734375,0.42626953125,-0.00439453125,44.71823529411765,173.35356894614637
-0.76551953125,0.12456982421875,-0.6932446289062499,1.0402528103006856,-0.10400390625,0.4150390625,0.0888671875,43.87117647058824,173.35356894614637
-0.76454296875,0.12603466796875,-0.6883618164062499,1.0364616147649504,-0.1416015625,0.47900390625,0.06396484375,44.76529411764706,173.35356894614637
-0.76844921875,0.12798779296875,-0.6903149414062499,1.0408793375195855,-0.140625,0.62255859375,-0.0185546875,44.059411764705885,173.54552057120046
-0.7777265625,0.12408154296875,-0.6864086914062499,1.0447065267153322,-0.142578125,0.73291015625,-0.09619140625,43.54176470588236,173.54552057120046
-0.774796875,0.12310498046875,-0.6917797851562499,1.045956167760774,-0.16357421875,0.75,-0.0634765625,44.15352941176471,173.54552057120046
