AccX,AccY,AccZ,Magnitude,GyroX,GyroY,GyroZ,Temperature,Altitude
0.197859375,-0.00189501953125,0.8541186523437501,0.8767386130745687,0.77197265625,5.14599609375,-0.40185546875,40.34176470588236,199.63428920035904
0.23350390625,0.03472607421875,0.8174975585937501,0.8509008360387224,0.64013671875,3.01318359375,0.00634765625,41.04764705882353,199.63428920035904
0.3248125,-0.00726611328125,0.8165209960937501,0.8787846685169216,0.390625,0.49462890625,1.55712890625,40.43588235294118,199.97442087472808
0.13340625,-0.08783251953125,0.8365405273437501,0.8516524132031972,0.9931640625,-1.69775390625,0.10302734375,41.04764705882353,199.97442087472808
0.17246875,0.08013623046875,0.94445068359375,0.9634076909081664,0.958984375,-1.55078125,-0.49462890625,41.09470588235294,199.97442087472808
0.07823046875,0.01812451171875,0.95714599609375,0.9605086995983872,0.75146484375,0.67529296875,-0.4404296875,40.43588235294118,199.97442087472808
0.09873828125,0.03912060546875,0.95665771484375,0.9625350140781952,1.45703125,2.7548828125,-0.06396484375,41.7064705882353,199.97442087472808
0.05674609375,0.02837841796875,0.94640380859375,0.9485281348927128,1.81787109375,4.49560546875,-0.0849609375,41.09470588235294,199.56956853310805
0.05772265625,0.04400341796875,0.8619311523437501,0.8649818016687479,1.70263671875,5.01806640625,-0.71875,40.48294117647059,199.56956853310805
0.14073046875,0.07281201171875,0.8272631835937501,0.8423010321819585,1.49462890625,4.345703125,-0.81884765625,40.95352941176471,199.56956853310805
0.1734453125,0.08648388671875,0.8116381835937501,0.8344574765424336,1.02587890625,2.34375,-0.599609375,41.09470588235294,199.56956853310805
0.14951953125,0.12310498046875,0.8013842773437501,0.8244559942260081,0.66748046875,-0.42236328125,-0.90625,41.09470588235294,199.92120721014408
0.127546875,0.20611279296875,0.7930834960937501,0.829296159718547,0.3544921875,-2.86328125,-1.19921875,41.235882352941175,199.92120721014408
0.186140625,0.47369091796875,0.7877124023437501,0.9378284741079412,0.80712890625,-4.60302734375,-1.1767578125,41.65941176470589,199.92120721014408
0.1636796875,0.26324169921875,0.93419677734375,0.9842818961593882,4.8349609375,-9.603515625,-3.5556640625,41.61235294117647,199.92120721014408
0.23155078125,0.00494091796875,1.2022631835937505,1.224367975566512,3.8515625,-9.95458984375,-4.08984375,40.29470588235294,199.92120721014408
0.17246875,-0.16156298828125,1.2340014648437505,1.2564265534226229,-1.40966796875,-4.951171875,-1.65234375,41.65941176470589,199.72992787004125
0.16075,0.06402294921875,1.0782397460937505,1.092035004284653,-2.33447265625,-0.919921875,0.35791015625,40.43588235294118,199.72992787004125
0.4234453125,-0.25628955078125,1.3228686523437505,1.4124346844621338,-4.22021484375,-0.56640625,0.8837890625,40.43588235294118,199.72992787004125
0.3453203125,0.05474560546875,0.97521240234375,1.035993450379058,-4.109375,0.185546875,1.50048828125,40.906470588235294,199.72992787004125
0.3003984375,0.17290966796875,1.0132983398437505,1.0709390739251254,-2.0498046875,-0.96875,0.9560546875,40.95352941176471,199.97226164473352
0.147078125,0.08453076171875,1.1348803710937505,1.1474889460139284,-1.58642578125,-2.3154296875,-0.84033203125,40.95352941176471,199.97226164473352
0.20127734375,0.04449169921875,1.2203295898437505,1.2376172220257131,-2.4912109375,-3.1494140625,-0.95751953125,40.48294117647059,199.97226164473352
0.2945390625,-0.03021533203125,1.2916186523437505,1.325120737408642,-3.83837890625,-2.63818359375,0.49609375,41.7064705882353,199.97226164473352
0.34873828125,-0.01410205078125,1.2369311523437505,1.2852299141725103,-5.43408203125,-0.73193359375,1.8388671875,40.85941176470588,199.97226164473352
0.4234453125,0.01763623046875,1.2623217773437505,1.331567962538771,-6.796875,1.17626953125,1.97314453125,41.65941176470589,199.8140598128925
0.291609375,0.09185498046875,1.1041186523437505,1.1456663403793377,-6.669921875,2.9833984375,1.3603515625,41.7064705882353,199.8140598128925
0.20713671875,0.17535107421875,0.93322021484375,0.9718814685326608,-3.78515625,4.45751953125,-0.42236328125,41.65941176470589,199.8140598128925
0.13780078125,0.09771435546875,1.0113452148437505,1.0253566668067922,-1.2392578125,5.3603515625,-2.142578125,40.95352941176471,199.8140598128925
0.2779375,-0.04925830078125,1.1583178710937505,1.1922147141338526,-1.607421875,4.07568359375,-2.56689453125,41.7064705882353,199.8140598128925
0.369734375,-0.08734423828125,1.0479663085937505,1.1147044038511662,-1.8349609375,0.4892578125,-2.07958984375,40.906470588235294,200.02763470997195
0.41905078125,0.10357373046875,1.0548022460937505,1.139709986476327,-2.2275390625,-2.322265625,-1.44189453125,40.95352941176471,200.02763470997195
0.7086015625,0.18902294921875,1.1944506835937505,1.401627013597545,2.2197265625,-12.01904296875,-2.76171875,41.09470588235294,200.02763470997195
0.78184375,-0.07171923828125,1.5826342773437505,1.7666789618878354,2.81591796875,16.0,-1.39208984375,41.235882352941175,200.02763470997195
0.84092578125,-0.09759814453125,1.4864428710937505,1.7106121642301906,0.11572265625,16.0,1.02783203125,41.235882352941175,200.0075022125968
0.83506640625,-0.08734423828125,1.3673022460937505,1.6045187287723497,-0.5888671875,16.0,3.244140625,41.518235294117645,200.0075022125968
1.0152421875,-0.08880908203125,1.3858569335937505,1.7202334704105984,-0.6298828125,16.0,4.7421875,40.76529411764706,200.0075022125968
0.97080859375,-0.13812548828125,1.2525561523437505,1.590737216194418,-2.3671875,16.0,5.59326171875,40.76529411764706,200.0075022125968
1.1539140625,-0.08978564453125,0.8770678710937501,1.4521801458855126,-3.81298828125,16.0,6.62353515625,41.7064705882353,200.0075022125968
1.0191484375,-0.19427783203125,0.6104663085937501,1.203775945766293,-2.619140625,16.0,5.83642578125,40.43588235294118,199.88884680600017
0.7935625,-0.21527392578125,0.5977709960937501,1.0165699524865148,-1.57861328125,16.0,2.9404296875,40.34176470588236,199.88884680600017
0.7007890625,-0.06097705078125,0.5416186523437501,0.8877917973310341,-1.2333984375,16.0,1.28759765625,41.04764705882353,199.88884680600017
0.31065234375,-0.08050830078125,0.38536865234375,0.501493233634603,-0.62060546875,16.0,-0.56689453125,40.43588235294118,199.88884680600017
-0.17860546875,-0.05316455078125,0.27794677734375,0.3346353148771891,0.21044921875,-11.89599609375,-3.7890625,41.61235294117647,199.81478039292105
-0.5921796875,-0.00238330078125,0.41027099609375,0.7204198447058282,0.251953125,-2.767578125,-6.89013671875,41.04764705882353,199.81478039292105
-0.948625,0.07232373046875,0.49864990234375,1.0741377182286025,-0.08544921875,9.0244140625,-10.265625,41.18882352941176,199.81478039292105
-1.1058515625,0.11822216796875,0.6260913085937501,1.2762736720545311,1.41259765625,15.99951171875,-11.6650390625,41.65941176470589,199.81478039292105
-1.0179609375,-0.04779345703125,0.7891772460937501,1.2889256807756575,1.41943359375,15.99951171875,-12.3076171875,40.95352941176471,199.81478039292105
0.0001054687499999,-0.18890673828125,0.8370288085937501,0.8580809946080793,0.31591796875,15.99951171875,-7.67822265625,41.09470588235294,200.0132523044305
0.11436328125,-0.25531298828125,0.5064624023437501,0.5785912607974397,0.7470703125,15.99951171875,-3.546875,40.34176470588236,200.0132523044305
0.07530078125,-0.24359423828125,0.5391772460937501,0.5964230573057375,0.7021484375,15.99951171875,-2.43505859375,41.7064705882353,200.0132523044305
0.0074296874999999,-0.13812548828125,0.47130615234375,0.4911856471909084,0.29736328125,15.99951171875,-4.37353515625,41.7064705882353,200.0132523044305
-0.4339765625,-0.20794970703125,-0.0570141601562499,0.4845919437134935,1.64404296875,15.99951171875,-7.76708984375,41.04764705882353,199.80183333406248
-0.8626875,-0.58197314453125,0.31114990234375,1.0861568603753171,4.13525390625,15.99951171875,-9.86669921875,41.09470588235294,199.80183333406248
0.54502734375,0.27251904296875,0.99425537109375,1.1661325727225678,11.13134765625,15.99951171875,-13.87890625,41.04764705882353,199.80183333406248
0.1983476562499999,0.2787039388020833,0.4612150065104167,2.2226445535330983,4.228515625,15.99951171875,-6.58056640625,41.04764705882353,199.80183333406248
-0.14833203125,0.2848888346354167,-0.0718253580729166,0.5457251356688727,-8.978515625,15.99951171875,4.13037109375,40.29470588235294,199.80183333406248
-0.49501171875,0.29107373046875,-0.6048657226562499,0.8340402032955553,-2.05029296875,5.90380859375,3.2939453125,41.7064705882353,199.86439582640128
-0.0218671875,0.29595654296875,-0.1576000976562499,0.3360152377444113,3.1591796875,-6.66845703125,1.37841796875,40.95352941176471,199.86439582640128
0.33311328125,0.32867138671875,0.05919677734375,0.4716922694306673,1.17529296875,16.0,-0.328125,40.29470588235294,199.86439582640128
0.3511796875,0.25835888671875,-0.0511547851562499,0.4389684490980321,-0.40966796875,16.0,-1.552734375,41.04764705882353,199.86439582640128
0.35752734375,0.11333935546875,-0.0184399414062499,0.3755151694220465,-1.25,16.0,-3.23681640625,40.95352941176471,199.811181831792
0.34678515625,0.04937451171875,0.04015380859375,0.3525763964694537,-1.22607421875,16.0,-3.67529296875,40.43588235294118,199.811181831792
0.30528125,0.0005463867187499,0.10607177734375,0.3231844087960788,-0.943359375,16.0,-3.00146484375,40.95352941176471,199.811181831792
0.279890625,-0.00482470703125,0.17980224609375,0.3327024007445475,-0.53857421875,16.0,-1.75146484375,41.09470588235294,199.811181831792
0.10850390625,0.00396435546875,0.12657958984375,0.1667669222322082,0.0791015625,16.0,-0.84033203125,41.04764705882353,199.811181831792
0.08311328125,-0.00140673828125,0.14904052734375,0.1706542563888655,0.36279296875,16.0,-0.72900390625,40.53,199.7486197859195
0.09971484375,-0.01654345703125,0.13243896484375,0.1666037677950765,0.2470703125,16.0,-1.07568359375,41.235882352941175,199.7486197859195
0.18467578125,-0.03460986328125,0.12560302734375,0.2260068744409326,0.70703125,-14.68896484375,-1.40673828125,40.71823529411765,199.7486197859195
0.2964921875,-0.05414111328125,0.09923583984375,0.3173115650356329,1.59716796875,-11.39892578125,-1.20751953125,40.29470588235294,199.7486197859195
0.40049609375,-0.10199267578125,0.18273193359375,0.451874525257774,1.9072265625,-9.4326171875,-0.74365234375,40.29470588235294,199.7263273670215
0.42979296875,-0.06927783203125,0.08654052734375,0.4438588479131884,2.12109375,-7.50341796875,0.27978515625,41.61235294117647,199.7263273670215
0.5074296875,-0.04046923828125,0.10948974609375,0.5206828703760918,2.29833984375,-5.755859375,1.2392578125,40.48294117647059,199.7263273670215
0.60215625,-0.03460986328125,0.18370849609375,0.6305067831414953,1.87939453125,-6.326171875,1.95849609375,40.29470588235294,199.7263273670215
0.63340625,0.00494091796875,0.22960693359375,0.6737560642871878,1.62841796875,-8.02294921875,1.5439453125,41.04764705882353,199.7263273670215
0.69590625,0.05230419921875,0.28624755859375,0.7542936449724732,1.38427734375,-11.53759765625,0.5078125,41.04764705882353,199.34377012095263
0.7300859375,0.09185498046875,0.34777099609375,0.8138841928039932,1.3984375,-15.24951171875,-0.61962890625,40.43588235294118,199.34377012095263
0.77744921875,0.12115185546875,0.43175537109375,0.8975064123931416,1.3154296875,16.0,-1.12109375,40.34176470588236,199.34377012095263
0.7183671875,0.10308544921875,0.48204833984375,0.8712339684972155,0.9072265625,16.0,-1.11328125,41.7064705882353,199.34377012095263
0.62803515625,0.03374951171875,0.5377124023437501,0.8274671079030893,0.044921875,16.0,-0.7822265625,40.48294117647059,199.451635945178
0.64756640625,-0.01996142578125,0.5367358398437501,0.8413239987041473,-0.87255859375,16.0,-0.36669921875,40.29470588235294,199.451635945178
0.717390625,-0.08685595703125,0.5733569335937501,0.9224594513634368,-1.3251953125,-14.54150390625,0.546875,40.85941176470588,199.451635945178
0.86045703125,-0.15326220703125,0.6451342773437501,1.0863120373702464,-2.1455078125,-12.34912109375,1.59521484375,40.906470588235294,199.451635945178
0.885359375,-0.16302783203125,0.5650561523437501,1.0628865189749672,-2.9052734375,-9.83447265625,2.4091796875,40.34176470588236,199.451635945178
0.88584765625,-0.16253955078125,0.5904467773437501,1.0769273756978268,-2.99267578125,-8.5029296875,2.30810546875,40.29470588235294,199.35599828976896
0.942,-0.10882861328125,0.6744311523437501,1.1636430063900347,-2.94189453125,-8.9658203125,1.89013671875,41.09470588235294,199.35599828976896
1.00694140625,-0.00824267578125,0.6988452148437501,1.225717574172276,-3.21875,-10.26025390625,2.05419921875,41.09470588235294,199.35599828976896
0.9029375,0.07427685546875,0.6148608398437501,1.0949278663628654,-2.2841796875,-10.8359375,1.8701171875,41.235882352941175,199.35599828976896
0.9976640625,0.15289013671875,0.6695483398437501,1.2111993869290902,-1.6884765625,-10.5732421875,1.68359375,41.7064705882353,199.33514637404537
1.03721484375,0.24322216796875,0.6246264648437501,1.234961487524998,-0.57080078125,-8.4384765625,1.79541015625,41.04764705882353,199.33514637404537
0.99717578125,0.28814404296875,0.6319506835937501,1.215215287389248,0.39013671875,-5.86328125,1.33056640625,41.61235294117647,199.33514637404537
0.97862109375,0.34527294921875,0.7442553710937501,1.277039040905389,0.09130859375,-3.814453125,0.6279296875,41.61235294117647,199.33514637404537
0.8043046875,0.37017529296875,0.5792163085937501,1.0580299192366645,0.5576171875,0.1259765625,-1.330078125,41.7064705882353,199.33514637404537
0.84287890625,0.36138623046875,0.6041186523437501,1.098182227266148,0.92529296875,5.25634765625,-2.54248046875,40.95352941176471,199.3135730378085
0.8687578125,0.29058544921875,0.5860522460937501,1.087491275932353,0.62158203125,9.86962890625,-2.67529296875,40.48294117647059,199.3135730378085
0.9625078125,0.16802685546875,0.6187670898437501,1.1565150343838833,0.181640625,12.9619140625,-1.966796875,41.61235294117647,199.3135730378085
0.975203125,0.01665966796875,0.5738452148437501,1.1316346628420606,-0.3076171875,14.7998046875,-0.90625,41.65941176470589,199.3135730378085
1.100203125,-0.14300830078125,0.5235522460937501,1.2267865522338908,-0.44287109375,15.298828125,0.01416015625,41.18882352941176,199.44947511097223
1.30186328125,-0.23138720703125,0.5499194335937501,1.432061250816043,-0.2822265625,12.67333984375,1.06640625,40.29470588235294,199.44947511097223
1.41416796875,-0.25043017578125,0.5382006835937501,1.533703456539467,0.22021484375,7.75927734375,1.6787109375,41.7064705882353,199.44947511097223
1.37705859375,-0.15228564453125,0.44542724609375,1.4552960934853387,0.95703125,2.73779296875,1.677734375,41.04764705882353,199.44947511097223
1.46787890625,-0.03900439453125,0.5621264648437501,1.5723154863716688,1.126953125,-2.5048828125,1.1005859375,41.65941176470589,199.44947511097223
1.4058671875,0.07378857421875,0.5767749023437501,1.5213732581283392,1.99560546875,-6.6865234375,0.2451171875,41.7064705882353,199.4408493022653
1.33213671875,0.13677685546875,0.5811694335937501,1.45981302096454,3.02294921875,-8.92041015625,-0.22705078125,41.61235294117647,199.4408493022653
1.233015625,0.15484326171875,0.7549975585937501,1.4540719654392504,3.42236328125,-9.2509765625,0.10009765625,41.65941176470589,199.4408493022653
1.2554765625,0.13677685546875,0.8878100585937501,1.543740913274949,3.23681640625,-9.18310546875,0.49365234375,41.61235294117647,199.4408493022653
1.44590625,0.17388623046875,0.91271240234375,1.7186987037662516,2.43017578125,-10.037109375,0.54541015625,41.7064705882353,198.93103041636616
1.7086015625,0.17779248046875,0.8760913085937501,1.92833229669634,0.94384765625,-10.8544921875,1.19677734375,40.906470588235294,198.93103041636616
2.020125,0.13433544921875,0.7423022460937501,2.1563774375321287,-1.04541015625,-11.05615234375,2.23095703125,40.95352941176471,198.93103041636616
2.35948046875,0.19585888671875,0.49181396484375,2.41813766397506,-2.73486328125,-9.15185546875,3.46728515625,40.43588235294118,198.93103041636616
3.04112109375,0.29888623046875,0.33019287109375,3.073561097121082,-3.4833984375,-8.55419921875,6.28076171875,40.95352941176471,198.93103041636616
3.95713671875,0.28863232421875,0.6837084960937501,4.026126790985875,-4.66650390625,16.0,9.98779296875,41.04764705882353,199.1632820190389
4.29991015625,0.15093701171875,1.0718920898437505,4.43406833343805,-6.01806640625,16.0,8.8837890625,41.7064705882353,199.1632820190389
3.834578125,0.06744091796875,1.1627124023437505,4.00754760479635,-5.8896484375,16.0,2.11328125,40.43588235294118,199.1632820190389
2.7554765625,0.28228466796875,1.0504077148437505,2.962379463819636,-1.875,16.0,-6.02001953125,41.7064705882353,199.1632820190389
2.01670703125,0.35259716796875,1.3677905273437505,2.4621703717338623,3.57080078125,16.0,-9.51708984375,40.29470588235294,199.45019495514617
0.9566484375,0.19781201171875,1.6998217773437505,1.9605356155100768,5.91064453125,16.0,-8.21044921875,40.95352941176471,199.45019495514617
0.108015625,-0.32269580078125,1.0826342773437505,1.1348554681392768,8.53076171875,16.0,-5.712890625,40.95352941176471,199.45019495514617
-0.67567578125,-0.81000048828125,0.6548999023437501,1.2415846465197269,11.69091796875,14.3427734375,-5.07666015625,41.04764705882353,199.45019495514617
-0.911515625,-1.10296923828125,0.36486083984375,1.476660186930408,15.06103515625,15.99951171875,-1.185546875,41.235882352941175,199.45019495514617
-0.39540234375,-1.63031298828125,0.29698974609375,1.70366263165169,15.92578125,15.99951171875,10.0947265625,40.85941176470588,199.3013444744769
0.5035234375,-2.54046923828125,0.6719897460937501,2.6756475892053264,8.36083984375,15.99951171875,15.99951171875,41.09470588235294,199.3013444744769
2.5347734375,-2.74750048828125,1.1661303710937505,3.915826267207027,-8.3408203125,15.99951171875,15.99951171875,40.34176470588236,199.3013444744769
4.4195390625,-1.16742236328125,1.2115405273437505,4.728956644826524,16.0,15.99951171875,15.99951171875,41.47117647058823,199.3013444744769
5.1441484375,0.69732373046875,0.22081787109375,5.1958910750999125,-9.640625,15.99951171875,5.54296875,40.53,198.97201006266303
4.60996875,1.64800732421875,-0.6644360351562499,4.940568313612247,11.0966796875,16.0,16.0,40.34176470588236,198.97201006266303
3.21494921875,1.85699169921875,-1.16052978515625,3.889877380116678,15.99951171875,16.0,16.0,40.95352941176471,198.97201006266303
1.81162890625,1.04693310546875,-0.4696118164062499,2.144435468694591,13.05908203125,16.0,16.0,40.95352941176471,198.97201006266303
1.10655078125,0.03130810546875,0.6846850585937501,1.3016253141417289,-8.90625,16.0,16.0,40.95352941176471,198.97201006266303
1.1050859375,-0.02923876953125,0.5098803710937501,1.2173938671320206,16.0,16.0,-7.21435546875,41.04764705882353,199.3214771245669
1.1695390625,-0.52972705078125,0.7735522460937501,1.4989381056199302,-15.095703125,16.0,1.232421875,40.34176470588236,199.3214771245669
1.27256640625,-0.74750048828125,1.1114428710937505,1.8475625818904933,-4.83056640625,16.0,1.8876953125,40.29470588235294,199.3214771245669
1.52256640625,-0.53705126953125,0.7833178710937501,1.7944969809729443,3.6591796875,16.0,1.57861328125,41.18882352941176,199.3214771245669
1.94248828125,-0.49164111328125,1.0582202148437505,2.2660100904819376,4.3740234375,16.0,1.56640625,40.76529411764706,198.9080127200124
2.42393359375,-0.45209033203125,1.6529467773437505,2.9685135647251144,0.8251953125,16.0,0.79052734375,40.95352941176471,198.9080127200124
1.89073046875,-0.49017626953125,1.6090014648437505,2.530616564108538,1.03955078125,16.0,-4.4306640625,41.09470588235294,198.9080127200124
0.9273515625,-0.52679736328125,1.0445483398437505,1.492842127186128,7.2861328125,4.61474609375,-9.14892578125,41.65941176470589,198.9080127200124
0.44541796875,-0.39740283203125,0.96837646484375,1.13757599985896,10.38525390625,15.99951171875,-9.36474609375,41.09470588235294,198.9080127200124
0.2515703125,-0.25628955078125,1.0172045898437505,1.0787386771457648,9.47119140625,15.99951171875,-5.1767578125,41.61235294117647,199.0460726836733
0.0098710937499999,-0.12933642578125,0.8970874023437501,0.9064166574868024,7.2509765625,15.99951171875,0.24658203125,41.235882352941175,199.0460726836733
0.16465625,-0.05609423828125,0.7965014648437501,0.8152746946463234,5.27734375,15.99951171875,4.51220703125,40.95352941176471,199.0460726836733
1.2281328125,0.08550732421875,0.94396240234375,1.5513499684702978,1.72998046875,15.99951171875,7.62548828125,41.65941176470589,199.0460726836733
2.8921953125,0.28130810546875,0.7379077148437501,2.9980720090543715,1.24462890625,15.99951171875,7.20703125,41.09470588235294,198.82316458627224
4.31553515625,0.42583935546875,0.21154052734375,4.341650865305112,4.1923828125,15.99951171875,2.52685546875,41.7064705882353,198.82316458627224
3.986921875,0.40044873046875,-0.6341625976562499,4.056854375418678,8.16943359375,15.99951171875,-4.01416015625,40.34176470588236,198.82316458627224
3.020125,0.31402294921875,-1.04041259765625,3.209707743957831,8.8857421875,14.6015625,-7.2734375,41.518235294117645,198.82316458627224
2.0347734375,0.17779248046875,-0.8231274414062499,2.2021471097233256,3.966796875,-4.21337890625,-7.32275390625,41.09470588235294,198.82316458627224
1.18809375,0.16851513671875,-0.91590087890625,1.509582236936313,-0.16015625,16.0,-4.9326171875,40.53,199.0122719662684
0.707625,0.17095654296875,-0.7752758789062499,1.0634904647540024,-0.70703125,16.0,-1.26171875,41.09470588235294,199.0122719662684
0.576765625,0.00249951171875,-0.4530102539062499,0.7334051567071762,-0.39599609375,16.0,0.3916015625,41.04764705882353,199.0122719662684
0.53916796875,-0.22894580078125,-0.2674633789062499,0.6439370600278547,-0.8544921875,16.0,-0.9794921875,41.04764705882353,199.0122719662684
0.6998125,-0.33392626953125,-0.3123852539062499,0.8359598288777872,-3.046875,16.0,-3.86572265625,41.65941176470589,199.03456521387469
0.8726640625,-0.36664111328125,-0.4652172851562499,1.0547015664799544,-2.55126953125,16.0,-4.81982421875,41.04764705882353,199.03456521387469
1.03526171875,-0.44916064453125,-0.3402172851562499,1.178668703251266,-1.3515625,16.0,-3.57568359375,41.7064705882353,199.03456521387469
1.08604296875,-0.54730517578125,-0.0604321289062499,1.2176552581138884,-2.130859375,-8.18701171875,-1.38818359375,41.04764705882353,199.03456521387469
0.86826953125,-0.41156298828125,-0.0643383789062499,0.9630241425947592,-2.44482421875,6.513671875,0.4345703125,41.61235294117647,199.03456521387469
0.8404375,-0.30658251953125,0.03087646484375,0.8951432224899134,-1.91064453125,15.99951171875,1.5478515625,41.7064705882353,199.46960945115185
0.9097734375,-0.31000048828125,-0.0238110351562499,0.9614338124438894,-1.0302734375,15.99951171875,1.6005859375,41.04764705882353,199.46960945115185
1.049421875,-0.31341845703125,-0.0921704101562499,1.0990963494820354,0.0732421875,15.99951171875,-0.44482421875,40.29470588235294,199.46960945115185
1.2964921875,-0.43744189453125,-0.0540844726562499,1.3693693926483566,1.533203125,15.99951171875,-3.2724609375,40.29470588235294,199.46960945115185
1.47666796875,-0.73138720703125,0.04454833984375,1.648472047419688,2.57568359375,15.99951171875,-6.07763671875,40.95352941176471,199.3214771245669
1.5406328125,-0.76263720703125,0.05187255859375,1.719841776104752,1.7060546875,15.99951171875,-6.6943359375,41.65941176470589,199.3214771245669
1.46934375,-0.58197314453125,0.02794677734375,1.5806469621593415,-0.044921875,15.99951171875,-4.2138671875,40.48294117647059,199.3214771245669
1.11533984375,-0.40375048828125,-0.0496899414062499,1.1872095493722157,-1.63232421875,10.52880859375,-1.73486328125,41.04764705882353,199.3214771245669
0.86436328125,-0.21966845703125,-0.0955883789062499,0.8969477416046497,-2.9404296875,1.51806640625,-0.611328125,41.04764705882353,199.3214771245669
0.82237109375,-0.12005908203125,-0.1268383789062499,0.8407118254059016,-3.63525390625,-7.85595703125,-0.013671875,40.29470588235294,198.9712885763808
1.00694140625,-0.16351611328125,-0.0609204101562499,1.0219490257820787,-4.58056640625,-15.39208984375,0.193359375,41.04764705882353,198.9712885763808
1.23643359375,-0.17328173828125,-0.0101391601562499,1.2485581264578696,-5.0703125,16.0,0.6474609375,41.61235294117647,198.9712885763808
1.39366015625,-0.19085986328125,0.04943115234375,1.4075366984034707,-4.4375,16.0,1.25634765625,41.18882352941176,198.9712885763808
1.42295703125,-0.23089892578125,0.12657958984375,1.4471155514594405,-3.5087890625,16.0,2.47509765625,41.09470588235294,199.13092250023743
1.447859375,-0.21136767578125,0.25011474609375,1.484429334914296,-2.10302734375,16.0,2.392578125,40.906470588235294,199.13092250023743
1.178328125,-0.06927783203125,0.21202880859375,1.1992551037417565,0.619140625,16.0,1.6064453125,41.09470588235294,199.13092250023743
0.803328125,-0.09662158203125,0.6094897460937501,1.01299040327323,2.0283203125,-14.81201171875,0.85888671875,41.09470588235294,199.13092250023743
0.54405078125,-0.02533251953125,0.6929858398437501,0.8813979596915823,2.11865234375,-9.9658203125,-0.92138671875,40.34176470588236,199.13092250023743
0.4117265625,0.01275341796875,0.7506030273437501,0.8562045997280991,2.3115234375,-4.3564453125,-1.8134765625,40.43588235294118,198.9605021188312
0.37315234375,0.02203076171875,0.7408374023437501,0.8298000258010733,2.8720703125,1.916015625,-0.87158203125,41.65941176470589,198.9605021188312
0.42979296875,-0.00287158203125,0.6827319335937501,0.8067546932735882,3.70458984375,7.009765625,1.1025390625,40.95352941176471,198.9605021188312
0.6207109375,0.01714794921875,0.5313647460937501,0.8172665498390431,4.42236328125,10.5419921875,3.17333984375,41.518235294117645,198.9605021188312
0.79795703125,0.03130810546875,0.38732177734375,0.8875436780204551,4.53857421875,13.494140625,4.8291015625,41.09470588235294,199.29055795981608
0.9586015625,0.07330029296875,0.31749755859375,1.0124695493148117,3.5927734375,15.99951171875,5.25634765625,40.95352941176471,199.29055795981608
1.1695390625,0.08648388671875,0.05822021484375,1.1741765943808506,2.29150390625,15.99951171875,3.830078125,41.7064705882353,199.29055795981608
1.41709765625,0.07720654296875,-0.0584790039062499,1.4204036086705412,1.57861328125,15.99951171875,0.59375,41.7064705882353,199.29055795981608
1.6304765625,0.02544873046875,-0.1073071289062499,1.6342020311633412,1.13232421875,15.99951171875,-2.35595703125,41.65941176470589,199.29055795981608
1.654890625,-0.10785205078125,-0.1102368164062499,1.6620611304227042,0.513671875,12.8955078125,-2.6005859375,41.04764705882353,199.2243998132468
1.4351640625,-0.25482470703125,-0.1307446289062499,1.4634635887485892,-0.162109375,9.44287109375,-1.015625,40.43588235294118,199.2243998132468
1.18467578125,-0.32464892578125,-0.1268383789062499,1.2348852602791818,-0.28125,5.28515625,0.8564453125,41.65941176470589,199.2243998132468
0.97178515625,-0.28509814453125,-0.0916821289062499,1.0168839435667083,-0.05517578125,0.09619140625,2.27294921875,40.95352941176471,199.2243998132468
0.84190234375,-0.18793017578125,-0.0194165039062499,0.8628408358468299,0.1826171875,-5.6796875,2.40673828125,41.65941176470589,199.0848976267283
0.83213671875,-0.09125048828125,0.03868896484375,0.8380184999773358,0.3564453125,-11.56494140625,1.39892578125,41.18882352941176,199.0848976267283
0.8765703125,-0.04095751953125,0.11095458984375,0.8845133985248019,0.34619140625,16.0,0.18505859375,40.85941176470588,199.0848976267283
0.951765625,-0.03265673828125,0.17638427734375,0.9685224214136128,0.24462890625,16.0,-0.6728515625,40.43588235294118,199.0848976267283
1.02647265625,-0.02240283203125,0.25011474609375,1.0567428197652882,-0.11376953125,16.0,-0.7109375,40.29470588235294,199.0848976267283
1.01621875,-0.00726611328125,0.30773193359375,1.0618155617653786,-0.380859375,-15.81982421875,-0.2900390625,40.29470588235294,199.09712259648825
1.00303515625,0.0015229492187499,0.35021240234375,1.062417324220179,-0.40185546875,-11.55712890625,0.13916015625,41.65941176470589,199.09712259648825
0.94248828125,-0.01654345703125,0.39708740234375,1.0228569065926236,-0.3271484375,-5.31103515625,0.59814453125,41.65941176470589,199.09712259648825
0.92686328125,0.01665966796875,0.40978271484375,1.0135457365363734,-0.0498046875,1.0185546875,0.25146484375,41.235882352941175,199.09712259648825
0.88975390625,0.03033154296875,0.38536865234375,0.9700984560317768,0.443359375,6.89453125,-0.37353515625,40.95352941176471,199.2150527335488
0.873640625,0.01324169921875,0.32579833984375,0.932506215793511,0.6796875,12.21826171875,-0.77294921875,40.906470588235294,199.2150527335488
0.8795,-0.01605517578125,0.26378662109375,0.9183471022099566,0.99853515625,15.99951171875,-0.65087890625,40.906470588235294,199.2150527335488
0.91075,-0.05316455078125,0.19347412109375,0.932590085457041,0.56689453125,15.99951171875,-0.2236328125,40.906470588235294,199.2150527335488
1.00010546875,-0.07757861328125,0.10802490234375,1.008909693376308,0.283203125,15.99951171875,0.02001953125,41.7064705882353,199.2150527335488
1.1060625,-0.06439501953125,0.03282958984375,1.1084217403208894,0.23388671875,15.27685546875,0.04541015625,40.34176470588236,199.25747842932907
1.197859375,-0.06732470703125,-0.0096508789062499,1.199788663855388,0.21240234375,10.8427734375,-0.18115234375,41.28294117647059,199.25747842932907
1.22276171875,-0.07562548828125,-0.0179516601562499,1.225229650890231,0.07421875,5.1689453125,-0.49609375,41.61235294117647,199.25747842932907
1.16026171875,-0.08246142578125,0.00255615234375,1.1631911608387442,-0.18408203125,-0.64501953125,-0.751953125,41.18882352941176,199.25747842932907
1.0582109375,-0.08636767578125,0.04454833984375,1.062663784198614,-0.57177734375,-5.53759765625,-0.63720703125,41.09470588235294,199.1934799327213
0.9996171875,-0.06341845703125,0.08507568359375,1.00523345257536,-0.8720703125,-9.013671875,-0.294921875,41.65941176470589,199.1934799327213
0.9293046875,-0.06878955078125,0.15782958984375,0.945118714202827,-1.0869140625,-10.517578125,0.17822265625,41.42411764705882,199.1934799327213
0.91465625,-0.03558642578125,0.19542724609375,0.935977701593224,-1.38818359375,-10.7431640625,-0.07373046875,41.7064705882353,199.1934799327213
0.90147265625,-0.04242236328125,0.23693115234375,0.9330535771453504,-1.1826171875,-9.0859375,-0.55029296875,41.61235294117647,199.1934799327213
0.897078125,-0.07904345703125,0.29308349609375,0.9470453875794452,-1.2421875,-5.5009765625,-0.6044921875,40.95352941176471,199.09856310240755
0.8941484375,-0.09613330078125,0.30626708984375,0.950022405064296,-1.15185546875,-1.44384765625,-0.53955078125,41.28294117647059,199.09856310240755
0.897078125,-0.11908251953125,0.32042724609375,0.9600017858580528,-0.9248046875,2.5732421875,-0.5810546875,40.906470588235294,199.09856310240755
0.92881640625,-0.12298876953125,0.31017333984375,0.9869314336365024,-0.65087890625,5.5869140625,-0.6630859375,41.65941176470589,199.09856310240755
0.95713671875,-0.14252001953125,0.28673583984375,1.0092770165804854,-0.36767578125,7.427734375,-0.61962890625,41.18882352941176,199.2042663264106
0.97715625,-0.14496142578125,0.25695068359375,1.020721218393098,-0.40234375,8.2314453125,-0.19775390625,41.518235294117645,199.2042663264106
1.00010546875,-0.11419970703125,0.20079833984375,1.0264367954207831,-0.37109375,7.83544921875,-0.0576171875,41.04764705882353,199.2042663264106
1.00010546875,-0.08734423828125,0.17638427734375,1.0192896437611176,-0.31884765625,6.458984375,-0.1357421875,40.85941176470588,199.2042663264106
0.988875,-0.08343798828125,0.14464599609375,1.002874931234885,-0.35546875,4.4033203125,-0.1259765625,41.09470588235294,199.2042663264106
0.98496875,-0.08539111328125,0.13292724609375,0.9975593884366194,-0.4794921875,2.15283203125,-0.17431640625,40.85941176470588,199.29990429463285
0.98838671875,-0.09222705078125,0.15197021484375,1.0042455281936058,-0.517578125,-2.28662109375,0.09423828125,41.18882352941176,199.29990429463285
0.98838671875,-0.08832080078125,0.15587646484375,1.0044930771011902,-0.50634765625,-2.53125,-0.068359375,41.65941176470589,199.29990429463285
0.98741015625,-0.10736376953125,0.16320068359375,1.0065486867504605,-0.4755859375,-2.67822265625,-0.1806640625,40.906470588235294,199.29990429463285
0.990828125,-0.11029345703125,0.17638427734375,1.012430952336502,-0.451171875,-2.69189453125,-0.28515625,40.34176470588236,199.29990429463285
0.990828125,-0.11615283203125,0.19103271484375,1.0157388206721591,-0.40478515625,-2.341796875,-0.3173828125,40.43588235294118,199.09856310240755
0.9761796875,-0.10443408203125,0.22032958984375,1.006170158540802,-0.3173828125,-1.2861328125,-0.0263671875,40.48294117647059,199.09856310240755
0.94639453125,-0.08148486328125,0.22765380859375,0.9767950902267636,-0.36962890625,-0.0986328125,0.06982421875,40.34176470588236,199.09856310240755
0.943953125,-0.06439501953125,0.22130615234375,0.9716844311827224,-0.39453125,0.86083984375,-0.09814453125,41.04764705882353,199.09856310240755
0.96787890625,-0.07269580078125,0.22081787109375,0.9954068458722288,-0.37158203125,1.384765625,-0.33544921875,40.43588235294118,199.09856310240755
0.99424609375,-0.07855517578125,0.21300537109375,1.019836996139061,-0.4189453125,1.5556640625,-0.35986328125,40.95352941176471,199.058302686356
0.99033984375,-0.06878955078125,0.20665771484375,1.0140080963778846,-0.40380859375,1.5390625,-0.25537109375,41.65941176470589,199.058302686356
0.97373828125,-0.05072314453125,0.20275146484375,0.9959152746389266,-0.38134765625,1.39501953125,-0.0830078125,40.48294117647059,199.058302686356
0.9410234375,-0.03998095703125,0.19933349609375,0.962734350438587,-0.37744140625,1.0625,-0.109375,40.95352941176471,199.058302686356
0.94932421875,-0.04242236328125,0.18859130859375,0.9688048363260616,-0.4404296875,0.54638671875,-0.18017578125,40.48294117647059,199.10072711537825
0.97178515625,-0.05755908203125,0.19689208984375,0.9931998453861924,-0.4541015625,-0.03076171875,-0.23828125,41.7064705882353,199.10072711537825
0.97764453125,-0.07171923828125,0.19884521484375,1.0002359212150562,-0.4658203125,-0.35791015625,-0.17626953125,41.235882352941175,199.10072711537825
0.96690234375,-0.07025439453125,0.19689208984375,0.9892433054326094,-0.39453125,-0.28515625,-0.109375,40.43588235294118,199.10072711537825
0.951765625,-0.06439501953125,0.19640380859375,0.9739501935428736,-0.28564453125,0.099609375,-0.05859375,41.28294117647059,199.10072711537825
0.94248828125,-0.05755908203125,0.20177490234375,0.9655621779221104,-0.23583984375,0.447265625,-0.07373046875,41.04764705882353,199.3538364702736
0.9527421875,-0.07220751953125,0.21154052734375,0.978611770023237,-0.2353515625,0.55810546875,-0.14453125,41.09470588235294,199.3538364702736
0.9683671875,-0.07953173828125,0.20275146484375,0.9925565292299394,-0.24755859375,0.5341796875,-0.1982421875,41.18882352941176,199.3538364702736
0.97569140625,-0.09027392578125,0.20909912109375,1.0019209271934786,-0.2060546875,0.62939453125,-0.080078125,41.18882352941176,199.3538364702736
0.96885546875,-0.08587939453125,0.21251708984375,0.9956001723621248,-0.17822265625,0.69970703125,0.04150390625,41.235882352941175,198.9080127200124
0.95908984375,-0.08685595703125,0.21984130859375,0.987789191386718,-0.162109375,0.68505859375,0.1083984375,40.29470588235294,198.9080127200124
0.95323046875,-0.07660205078125,0.22667724609375,0.9828014929953476,-0.134765625,0.4951171875,0.15673828125,41.04764705882353,198.9080127200124
0.82725390625,-0.07171923828125,0.22960693359375,0.8615172769595809,-0.08984375,0.23974609375,0.20166015625,41.18882352941176,198.9080127200124
0.9390703125,-0.07123095703125,0.24279052734375,0.9725606105669156,-0.03369140625,0.197265625,0.21240234375,41.04764705882353,198.9080127200124
0.9253984375,-0.08148486328125,0.24718505859375,0.9613025040347086,0.0224609375,0.42236328125,0.13525390625,41.09470588235294,199.0460726836733
0.916609375,-0.08587939453125,0.26427490234375,0.9578043854314634,0.03125,0.7587890625,0.07861328125,41.04764705882353,199.0460726836733
0.92100390625,-0.09076220703125,0.26720458984375,0.9632674947212267,-0.00244140625,0.9833984375,0.13671875,40.85941176470588,199.0460726836733
0.9332109375,-0.09466845703125,0.27306396484375,0.9769384317972628,0.0244140625,1.09912109375,0.21484375,40.48294117647059,199.0460726836733
0.942,-0.09906298828125,0.28429443359375,0.9889392299932296,0.029296875,1.08203125,0.2529296875,41.7064705882353,199.35239742670728
0.942,-0.08343798828125,0.29161865234375,0.9896298986405004,0.0537109375,1.05419921875,0.0986328125,41.09470588235294,199.35239742670728
0.92881640625,-0.07123095703125,0.30138427734375,0.9790843928838652,0.125,0.98876953125,-0.00439453125,40.43588235294118,199.35239742670728
0.900984375,-0.08197314453125,0.30626708984375,0.9551397650290984,0.20166015625,1.14990234375,-0.3125,40.906470588235294,199.35239742670728
0.89951953125,-0.11908251953125,0.32335693359375,0.9632630689802671,0.2265625,1.57177734375,-0.21826171875,41.61235294117647,199.35239742670728
0.91416796875,-0.15228564453125,0.31505615234375,0.9788536007741132,0.21044921875,2.1044921875,0.09765625,41.7064705882353,199.1819739048021
0.93272265625,-0.14642626953125,0.28624755859375,0.9865849536110796,0.2607421875,2.701171875,0.52783203125,41.518235294117645,199.1819739048021
0.96201953125,-0.13128955078125,0.30089599609375,1.0164924619081357,0.2041015625,2.9609375,0.69384765625,40.95352941176471,199.1819739048021
0.959578125,-0.09466845703125,0.27159912109375,1.0017576440008285,0.3583984375,2.91943359375,0.396484375,41.7064705882353,199.1819739048021
0.957625,-0.05414111328125,0.25060302734375,0.99135199504827,0.74365234375,2.52197265625,-0.19580078125,41.04764705882353,199.1388287579169
0.9566484375,-0.06146533203125,0.26866943359375,0.9955588805090784,0.77490234375,2.50732421875,-0.58447265625,41.7064705882353,199.1388287579169
0.97862109375,-0.04486376953125,0.25157958984375,1.0114367468976737,0.81640625,2.38720703125,-0.466796875,41.09470588235294,199.1388287579169
0.9810625,-0.04681689453125,0.25743896484375,1.0153572135655615,0.82373046875,2.17431640625,-0.11572265625,41.235882352941175,199.1388287579169
0.95616015625,-0.04339892578125,0.26573974609375,0.9933495476482392,0.97265625,1.94140625,-0.0791015625,41.47117647058823,199.1388287579169
0.955671875,-0.03119189453125,0.28868896484375,0.9988107855710312,1.01220703125,1.4609375,-0.330078125,41.235882352941175,199.07554997151024
0.8296953125,-0.03802783203125,0.28722412109375,0.8788276983183602,0.8896484375,0.94189453125,-0.6083984375,40.95352941176471,199.07554997151024
0.96494921875,-0.07367236328125,0.31212646484375,1.016846862577417,0.7392578125,0.28515625,-0.818359375,40.48294117647059,199.07554997151024
0.98496875,-0.12201220703125,0.36779052734375,1.0584518360062458,0.49658203125,-0.5986328125,-0.73828125,41.7064705882353,199.07554997151024
1.00596484375,-0.12738330078125,0.31945068359375,1.06312770231398,0.39404296875,-0.865234375,-0.216796875,40.29470588235294,199.19204095141163
0.986921875,-0.12494189453125,0.34288818359375,1.0522345607376689,0.34423828125,-0.70263671875,0.33740234375,41.7064705882353,199.19204095141163
0.9429765625,-0.08587939453125,0.35948974609375,1.0128242420953004,0.2265625,0.01904296875,0.4287109375,41.18882352941176,199.19204095141163
0.9039140625,-0.04388720703125,0.36925537109375,0.977413038795698,0.31103515625,0.7998046875,-0.08203125,41.09470588235294,199.19204095141163
0.895125,-0.03509814453125,0.37853271484375,0.972505867119328,0.376953125,1.96630859375,-0.61279296875,41.09470588235294,199.19204095141163
0.88096484375,-0.04291064453125,0.36632568359375,0.9550575300985682,0.42626953125,3.43798828125,-0.74609375,41.7064705882353,199.0848976267283
0.850203125,-0.03265673828125,0.35363037109375,0.9213936485969711,0.56640625,4.76025390625,-0.66357421875,40.95352941176471,199.0848976267283
0.83994921875,-0.03021533203125,0.32628662109375,0.9016044673099564,0.4794921875,6.1162109375,-0.58935546875,41.7064705882353,199.0848976267283
0.8511796875,-0.01410205078125,0.27989990234375,0.8961303942958722,0.421875,6.85693359375,-0.7236328125,40.906470588235294,199.0848976267283
0.94737109375,-0.01849658203125,0.26525146484375,0.9839778719166732,0.3203125,6.57275390625,-0.669921875,40.95352941176471,199.27617486239225
0.971296875,-0.04584033203125,0.24962646484375,1.0039085254025333,0.21875,5.431640625,-0.67138671875,40.43588235294118,199.27617486239225
1.0113359375,-0.02142626953125,0.21788818359375,1.0347631246110451,0.17578125,4.046875,-0.66455078125,40.43588235294118,199.27617486239225
1.01377734375,-0.02435595703125,0.23448974609375,1.0408281108650097,-0.02392578125,2.421875,-0.65869140625,40.906470588235294,199.27617486239225
1.014265625,0.00835888671875,0.24913818359375,1.0444493590252284,-0.16015625,1.1337890625,-0.60595703125,40.95352941176471,199.27617486239225
0.94932421875,0.01714794921875,0.28673583984375,0.9918306137232342,-0.27197265625,0.474609375,-0.5771484375,40.29470588235294,199.1582453243111
0.91807421875,-0.00628955078125,0.28380615234375,0.9609608533601234,-0.421875,0.2119140625,-0.6767578125,40.95352941176471,199.1582453243111
0.9341875,-0.02386767578125,0.32579833984375,0.9896567634025408,-0.1787109375,0.72265625,-0.55517578125,41.7064705882353,199.1582453243111
0.912703125,-0.03607470703125,0.33702880859375,0.9736101872383416,-0.171875,1.73583984375,-0.35009765625,41.61235294117647,199.1582453243111
0.8804765625,-0.04974658203125,0.34923583984375,0.9485142968700988,-0.1845703125,3.1796875,-0.45703125,40.95352941176471,199.2330301904552
0.9000078125,-0.01459033203125,0.31945068359375,0.9551312368456658,-0.01025390625,4.5029296875,-0.61669921875,41.09470588235294,199.2330301904552
0.91221484375,-0.04193408203125,0.31017333984375,0.9644179017124614,0.091796875,5.8037109375,-0.56103515625,41.65941176470589,199.2330301904552
0.93467578125,-0.07464892578125,0.27745849609375,0.9778417536749991,0.0625,6.57958984375,-0.47119140625,40.95352941176471,199.2330301904552
0.97764453125,-0.09906298828125,0.24864990234375,1.0136217633149949,0.060546875,6.68505859375,-0.36279296875,41.7064705882353,199.2330301904552
1.0093828125,-0.11078173828125,0.23497802734375,1.0422768005867662,0.06103515625,5.88037109375,-0.48046875,41.18882352941176,198.99932714468025
0.9820390625,-0.08343798828125,0.23741943359375,1.0137704896140338,-0.2021484375,4.5263671875,-0.81787109375,41.18882352941176,198.99932714468025
0.96494921875,-0.05804736328125,0.21398193359375,0.9900933082566818,-0.8193359375,3.146484375,-1.4296875,40.95352941176471,198.99932714468025
0.97666796875,-0.02289111328125,0.20372802734375,0.99795262080666,-1.5185546875,2.15478515625,-2.10498046875,41.61235294117647,198.99932714468025
0.940046875,-0.00433642578125,0.18370849609375,0.9578391009573838,-1.83349609375,1.484375,-2.5283203125,41.7064705882353,199.23159506857715
0.91709765625,-0.02728564453125,0.20226318359375,0.939533401712897,-1.658203125,0.97998046875,-2.1064453125,40.43588235294118,199.23159506857715
0.8980546875,-0.06830126953125,0.25450927734375,0.9359178689470252,-1.64453125,0.60498046875,-1.9501953125,40.906470588235294,199.23159506857715
0.9185625,-0.07123095703125,0.30236083984375,0.969666433943578,-1.75341796875,-0.0068359375,-2.04443359375,41.7064705882353,199.23159506857715
0.92783984375,-0.09955126953125,0.35607177734375,0.9987914404599416,-2.056640625,-0.06298828125,-1.8115234375,40.43588235294118,199.23159506857715
1.00010546875,-0.05121142578125,0.38048583984375,1.0712623549232978,-1.818359375,-0.173828125,-1.27685546875,40.34176470588236,199.22152633811555
1.0445390625,-0.03851611328125,0.46349365234375,1.1434035638538222,-1.66748046875,-0.10888671875,-1.318359375,41.7064705882353,199.22152633811555
1.0367265625,-0.07806689453125,0.5059741210937501,1.1562466071869844,-1.673828125,0.40185546875,-2.11328125,41.09470588235294,199.22152633811555
0.96494921875,-0.07269580078125,0.5782397460937501,1.127285624045666,-1.62451171875,1.39599609375,-2.46044921875,40.48294117647059,199.22152633811555
0.7632890625,-0.09466845703125,0.6553881835937501,1.010497887619327,-1.46875,3.8388671875,-2.66259765625,40.29470588235294,199.1381097838312
0.66514453125,-0.07953173828125,0.6509936523437501,0.9340959695008187,-1.18798828125,6.7587890625,-2.31982421875,41.61235294117647,199.1381097838312
0.6812578125,-0.17572314453125,0.6612475585937501,0.9655253307720262,-1.05615234375,9.341796875,-1.95068359375,40.53,199.1381097838312
0.82530078125,-0.17523486328125,0.6182788085937501,1.0459910716622611,-1.35546875,11.06689453125,-1.42431640625,41.7064705882353,199.1381097838312
1.014265625,-0.12543017578125,0.5562670898437501,1.163572327917947,-1.5078125,11.36962890625,-0.98486328125,41.7064705882353,199.1381097838312
1.03916796875,0.05083935546875,0.45226318359375,1.1344587672431437,-1.31591796875,9.74560546875,-1.22021484375,41.04764705882353,199.3610282913388
1.0230546875,0.14654248046875,0.44396240234375,1.1248191885332015,-0.9287109375,7.34521484375,-1.6611328125,41.04764705882353,199.3610282913388
0.9644609375,0.17535107421875,0.43663818359375,1.0731196590152925,-0.35107421875,5.12353515625,-1.896484375,40.43588235294118,199.3610282913388
0.895125,0.07622998046875,0.48839599609375,1.0225411603195602,-0.79541015625,4.26318359375,-1.73486328125,40.43588235294118,199.3610282913388
0.869734375,0.05425732421875,0.47814208984375,0.9939826952055896,-1.3564453125,3.95849609375,-1.27880859375,41.518235294117645,199.25460249954065
0.8062578125,0.05328076171875,0.5098803710937501,0.955441517107832,-1.42236328125,3.32958984375,-1.22607421875,41.18882352941176,199.25460249954065
0.83213671875,0.02251904296875,0.5489428710937501,0.9971443735552512,-1.19482421875,1.95849609375,-1.3388671875,40.906470588235294,199.25460249954065
0.8550859375,-0.00043017578125,0.5865405273437501,1.0369194451731247,-0.69140625,0.470703125,-1.53515625,41.09470588235294,199.25460249954065
0.89268359375,-0.01361376953125,0.5567553710937501,1.0521624762901425,-0.376953125,0.5771484375,-1.14306640625,40.29470588235294,199.25460249954065
0.82823046875,-0.04632861328125,0.5792163085937501,1.0117329597850306,-0.1533203125,1.76953125,-1.22021484375,41.04764705882353,199.0086763526012
0.75596484375,-0.03851611328125,0.5933764648437501,0.9618014166129732,-0.0625,4.310546875,-1.36767578125,40.48294117647059,199.0086763526012
0.6812578125,-0.01117236328125,0.5797045898437501,0.8945917729777554,-0.03759765625,6.84619140625,-1.1552734375,40.95352941176471,199.0086763526012
0.65147265625,-0.04535205078125,0.5762866210937501,0.8709648098535021,-0.203125,9.119140625,-0.82470703125,40.95352941176471,199.0086763526012
0.71006640625,-0.05414111328125,0.5323413085937501,0.889107884492894,-0.17138671875,10.17529296875,-0.3271484375,40.43588235294118,198.9770363724112
0.7750078125,-0.08197314453125,0.49034912109375,0.9207599939277278,-0.19091796875,9.4521484375,-0.31689453125,41.65941176470589,198.9770363724112
0.869734375,-0.08441455078125,0.47228271484375,0.9932847840274328,-0.2900390625,6.861328125,-0.6044921875,41.09470588235294,198.9770363724112
0.88487109375,-0.08587939453125,0.47081787109375,1.006002778674406,-0.458984375,3.3427734375,-0.39892578125,41.7064705882353,198.9770363724112
0.82725390625,-0.07660205078125,0.49718505859375,0.9681992987389774,-0.732421875,-0.28515625,-0.09912109375,41.18882352941176,198.9770363724112
0.77354296875,-0.03949267578125,0.5382006835937501,0.9431799254456736,-0.8935546875,-3.71142578125,0.23681640625,41.09470588235294,199.04175296371457
0.7652421875,-0.02044970703125,0.5797045898437501,0.9602453892278576,-0.82275390625,-5.9853515625,0.61376953125,40.43588235294118,199.04175296371457
0.8043046875,-0.01605517578125,0.6324389648437501,1.0232999771603992,-0.75927734375,-6.69970703125,0.79248046875,40.43588235294118,199.04175296371457
0.82139453125,0.01080029296875,0.6812670898437501,1.0672068543631972,-0.5390625,-6.24658203125,0.66796875,41.09470588235294,199.04175296371457
0.81162890625,0.02789013671875,0.7286303710937501,1.0910644155442784,-0.2275390625,-4.38330078125,0.3330078125,40.48294117647059,199.03096683156136
0.76963671875,0.04253857421875,0.7623217773437501,1.0841054844236166,0.017578125,-1.86181640625,0.02685546875,41.7064705882353,199.03096683156136
0.77354296875,0.02886669921875,0.7862475585937501,1.1033527243003398,0.166015625,1.005859375,0.05322265625,41.18882352941176,199.03096683156136
0.75596484375,0.01665966796875,0.7642749023437501,1.075116977763508,0.208984375,4.0927734375,0.18359375,41.7064705882353,199.03096683156136
0.7535234375,0.02496044921875,0.7300952148437501,1.049504462889396,0.30419921875,6.5966796875,0.27880859375,41.04764705882353,199.03096683156136
0.7515703125,0.02154248046875,0.6837084960937501,1.0162575070949642,0.31884765625,8.18896484375,0.267578125,40.48294117647059,199.33873844378007
0.74912890625,0.01958935546875,0.6407397460937501,0.9859641389276212,0.32470703125,8.6416015625,0.26171875,40.95352941176471,199.33873844378007
0.7574296875,0.00347607421875,0.5831225585937501,0.9558994366246082,0.3291015625,7.70263671875,0.3232421875,41.09470588235294,199.33873844378007
0.760359375,-0.01752001953125,0.5665209960937501,0.9483666850168352,0.2099609375,5.6259765625,0.333984375,41.04764705882353,199.33873844378007
0.77158984375,-0.01898486328125,0.5377124023437501,0.9406625003933368,0.0234375,2.9814453125,0.2509765625,41.09470588235294,199.0194623979512
0.74912890625,-0.00482470703125,0.5425952148437501,0.9250010611607934,-0.03466796875,-0.19970703125,0.44921875,41.09470588235294,199.0194623979512
0.7378984375,0.00835888671875,0.5797045898437501,0.9384142936560744,-0.1162109375,-2.81591796875,0.49462890625,40.43588235294118,199.0194623979512
0.725203125,0.01275341796875,0.6143725585937501,0.9505450346683644,-0.1494140625,-4.509765625,0.57373046875,40.34176470588236,199.0194623979512
0.733015625,0.00298779296875,0.6651538085937501,0.9898234299549268,-0.17822265625,-5.17626953125,0.71826171875,40.29470588235294,199.0194623979512
0.73496875,0.01519482421875,0.7037280273437501,1.0176655062586757,-0.171875,-4.47607421875,0.77978515625,40.95352941176471,198.95546428283765
0.71787890625,0.02691357421875,0.7383959960937501,1.030195666639695,-0.24951171875,-2.86083984375,0.6611328125,40.43588235294118,198.95546428283765
0.6949296875,0.03277294921875,0.7608569335937501,1.030972652482609,-0.08642578125,-0.4775390625,0.4189453125,41.09470588235294,198.95546428283765
0.690046875,0.02789013671875,0.7632983398437501,1.0293526631003007,-0.0595703125,2.01220703125,0.265625,41.235882352941175,198.95546428283765
0.70030078125,0.02740185546875,0.7481616210937501,1.0251428472072166,-0.025390625,4.31982421875,0.25341796875,41.65941176470589,199.4969458590253
0.71104296875,0.03619091796875,0.7330249023437501,1.021869557922291,-0.03857421875,5.82568359375,0.197265625,41.09470588235294,199.4969458590253
0.72080859375,0.05230419921875,0.6910327148437501,0.999913481789345,-0.029296875,6.46923828125,-0.0244140625,40.906470588235294,199.4969458590253
0.709578125,0.05376904296875,0.6514819335937501,0.9647906173151468,0.0771484375,6.1630859375,-0.267578125,40.34176470588236,199.4969458590253
0.72471484375,0.04742138671875,0.6397631835937501,0.9678622442021004,0.01513671875,5.09375,-0.27978515625,41.7064705882353,199.4969458590253
0.748640625,0.03374951171875,0.6260913085937501,0.9765204256124288,-0.08740234375,3.4638671875,-0.04638671875,40.34176470588236,199.04103452895868
0.7632890625,0.03716748046875,0.6309741210937501,0.991019654712536,-0.1787109375,1.6376953125,0.16015625,41.18882352941176,199.04103452895868
0.75498828125,0.05669873046875,0.6280444335937501,0.9836980539930388,-0.27880859375,0.0126953125,0.02685546875,41.7064705882353,199.04103452895868
0.7418046875,0.06939404296875,0.6456225585937501,0.9858591257181024,-0.25537109375,-1.0654296875,-0.2783203125,40.95352941176471,199.04103452895868
0.71885546875,0.06890576171875,0.6754077148437501,0.988775389165952,-0.23974609375,-1.3134765625,-0.41259765625,40.906470588235294,199.2409475903672
0.69346484375,0.05865185546875,0.7203295898437501,1.0016028392889091,-0.2470703125,-0.83056640625,-0.35302734375,41.09470588235294,199.2409475903672
0.66709765625,0.04790966796875,0.7296069335937501,0.989768102540789,-0.35791015625,0.19873046875,-0.2294921875,41.09470588235294,199.2409475903672
0.65733203125,0.05621044921875,0.7432788085937501,0.993835198216067,-0.39697265625,1.3154296875,-0.2646484375,41.09470588235294,199.2409475903672
0.67002734375,0.06158154296875,0.7520678710937501,1.0091258645672392,-0.37939453125,2.1572265625,-0.357421875,41.61235294117647,199.2409475903672
0.70908984375,0.07037060546875,0.7286303710937501,1.0191480001960724,-0.33837890625,2.69775390625,-0.41015625,41.04764705882353,199.0395989611013
0.72471484375,0.06988232421875,0.7242358398437501,1.0269433751205483,-0.31884765625,2.923828125,-0.43359375,40.29470588235294,199.0395989611013
0.7144609375,0.07427685546875,0.6988452148437501,1.0021756915739433,-0.205078125,3.0087890625,-0.41162109375,41.65941176470589,199.0395989611013
0.68369921875,0.06304638671875,0.6885913085937501,0.9724080721942324,-0.1298828125,3.00146484375,-0.38427734375,41.18882352941176,199.0395989611013
0.64951953125,0.06206982421875,0.6895678710937501,0.949332467262409,-0.1298828125,3.0400390625,-0.47705078125,41.09470588235294,199.3912347741484
0.63780078125,0.06304638671875,0.6812670898437501,0.9353552967432068,-0.19189453125,2.8232421875,-0.40380859375,41.65941176470589,199.3912347741484
0.650984375,0.04009716796875,0.7027514648437501,0.9587742490874956,-0.310546875,2.1572265625,-0.42529296875,41.09470588235294,199.3912347741484
0.6617265625,0.04497998046875,0.6915209960937501,0.958178756913097,-0.53173828125,1.158203125,-0.70751953125,40.29470588235294,199.3912347741484
0.68955859375,0.05474560546875,0.6885913085937501,0.9760359244430866,-0.53173828125,0.1201171875,-0.583984375,40.29470588235294,199.3912347741484
0.67979296875,0.03521435546875,0.7173999023437501,0.98894951897245,-0.5390625,-0.84912109375,-0.41845703125,41.04764705882353,199.0820255321988
0.66221484375,0.05035107421875,0.7276538085937501,0.9851618116425386,-0.61328125,-1.1162109375,-0.3017578125,40.95352941176471,199.0820255321988
0.6558671875,0.05425732421875,0.7349780273437501,0.9865588302522302,-0.65380859375,-0.9248046875,-0.2958984375,41.235882352941175,199.0820255321988
0.662703125,0.06597607421875,0.7403491210937501,0.9958137854831955,-0.58251953125,-0.46630859375,-0.22900390625,41.7064705882353,199.0820255321988
0.6636796875,0.04449169921875,0.7510913085937501,1.003288788308003,-0.5126953125,0.15380859375,-0.28955078125,40.53,199.1891681953853
0.66026171875,0.02691357421875,0.7598803710937501,1.0070193921159154,-0.44677734375,0.78759765625,-0.40087890625,41.04764705882353,199.1891681953853
0.6597734375,0.02007763671875,0.7672045898437501,1.0120805219961964,-0.4052734375,1.30078125,-0.61376953125,41.18882352941176,199.1891681953853
0.66709765625,0.00982373046875,0.7574389648437501,1.0093708803597108,-0.38525390625,1.56494140625,-0.63916015625,41.7064705882353,199.1891681953853
0.6675859375,0.01080029296875,0.7462084960937501,1.0013065214600676,-0.37255859375,1.578125,-0.56201171875,41.7064705882353,199.1891681953853
0.66319140625,0.01470654296875,0.7217944335937501,0.980319503068702,-0.3876953125,1.576171875,-0.505859375,41.65941176470589,199.2517335119368
0.66905078125,0.01177685546875,0.7076342773437501,0.9739167894064558,-0.38330078125,1.533203125,-0.4365234375,41.04764705882353,199.2517335119368
0.670515625,0.00591748046875,0.6915209960937501,0.9632380328780268,-0.35107421875,1.39697265625,-0.41552734375,41.04764705882353,199.2517335119368
0.6617265625,-0.00482470703125,0.7017749023437501,0.9645689891737051,-0.3779296875,1.052734375,-0.5341796875,40.29470588235294,199.2517335119368
0.6578203125,-0.00287158203125,0.7037280273437501,0.963311448073823,-0.3671875,0.56005859375,-0.5498046875,40.95352941176471,199.15609324910653
0.6539140625,-0.00970751953125,0.7115405273437501,0.9664304212530384,-0.41796875,0.052734375,-0.46435546875,41.7064705882353,199.15609324910653
0.67100390625,-0.00726611328125,0.7115405273437501,0.9780536593958414,-0.478515625,-0.36279296875,-0.2578125,41.235882352941175,199.15609324910653
0.662703125,-0.00384814453125,0.7217944335937501,0.9798864446802096,-0.52587890625,-0.7294921875,-0.19482421875,41.65941176470589,199.15609324910653
0.66465625,0.01177685546875,0.7281420898437501,0.9859500636395426,-0.50341796875,-1.0009765625,-0.18994140625,41.7064705882353,199.15609324910653
0.6695390625,0.01275341796875,0.7325366210937501,0.9924994242450283,-0.466796875,-0.8466796875,-0.17138671875,41.09470588235294,198.96553230563137
0.6714921875,0.02056591796875,0.7418139648437501,1.0008060118187925,-0.408203125,-0.48876953125,-0.11328125,40.43588235294118,198.96553230563137
0.6636796875,0.02300732421875,0.7510913085937501,1.002565817496725,-0.365234375,0.19140625,-0.1142578125,41.235882352941175,198.96553230563137
0.6617265625,0.01714794921875,0.7452319335937501,0.9967681428137412,-0.31982421875,0.65185546875,-0.146484375,40.29470588235294,198.96553230563137
0.67295703125,0.00542919921875,0.7432788085937501,1.0026784277212284,-0.322265625,0.96826171875,-0.0546875,40.95352941176471,199.21865980515412
0.676375,0.00591748046875,0.7286303710937501,0.9941933287245062,-0.29541015625,1.14453125,0.05712890625,40.53,199.21865980515412
0.67588671875,0.00933544921875,0.7178881835937501,0.9860392747443132,-0.28125,1.140625,0.123046875,41.18882352941176,199.21865980515412
0.67783984375,0.01421826171875,0.7154467773437501,0.985663788496303,-0.22802734375,0.88818359375,0.2001953125,41.04764705882353,199.21865980515412
0.6695390625,0.01861279296875,0.7066577148437501,0.9736498950976512,-0.14697265625,0.62255859375,0.2255859375,41.04764705882353,199.21865980515412
0.66905078125,0.02203076171875,0.7115405273437501,0.976936141416503,-0.13818359375,0.33837890625,0.30810546875,41.7064705882353,199.32580260979063
0.66709765625,0.01080029296875,0.7257006835937501,0.9857877111583864,-0.1640625,0.2451171875,0.35986328125,40.906470588235294,199.32580260979063
0.6656328125,0.00494091796875,0.7169116210937501,0.9782912277058926,-0.1845703125,-0.11572265625,0.396484375,41.09470588235294,199.32580260979063
0.67588671875,0.00640576171875,0.7227709960937501,0.9895765777140194,-0.17822265625,-0.2138671875,0.39306640625,41.65941176470589,199.32580260979063
0.67491015625,0.01421826171875,0.7296069335937501,0.9939980661569604,-0.12548828125,-0.22216796875,0.41796875,40.906470588235294,199.038881827985
0.67686328125,0.01421826171875,0.7325366210937501,0.9974747925207272,-0.048828125,-0.05126953125,0.4287109375,41.235882352941175,199.038881827985
0.67783984375,0.02447216796875,0.7374194335937501,1.0019247286207893,0.02490234375,0.162109375,0.44091796875,40.95352941176471,199.038881827985
0.6753984375,0.02496044921875,0.7359545898437501,0.9992073016720432,0.0927734375,0.54248046875,0.498046875,41.235882352941175,199.038881827985
0.68076953125,0.02105419921875,0.7379077148437501,1.0041903353493364,0.154296875,0.92529296875,0.5185546875,41.7064705882353,199.038881827985
0.68467578125,0.01324169921875,0.7418139648437501,1.0095762608469463,0.2041015625,1.16015625,0.5419921875,40.43588235294118,199.2409475903672
0.6832109375,0.01372998046875,0.7217944335937501,0.993958199246942,0.22119140625,1.3076171875,0.50927734375,41.61235294117647,199.2409475903672
0.67783984375,0.01763623046875,0.7183764648437501,0.9878474758997844,0.23583984375,1.3095703125,0.5048828125,40.48294117647059,199.2409475903672
0.67491015625,0.00445263671875,0.7261889648437501,0.991399998811774,0.2685546875,1.11083984375,0.42578125,40.95352941176471,199.2409475903672
0.67393359375,0.01812451171875,0.7183764648437501,0.9851800505243884,0.203125,0.91748046875,0.52294921875,40.95352941176471,199.21937578756487
0.670515625,0.01861279296875,0.7086108398437501,0.97573918737299,0.197265625,0.72314453125,0.5927734375,41.235882352941175,199.21937578756487
0.676375,0.02789013671875,0.7071459960937501,0.9789363922863488,0.2626953125,0.65185546875,0.7158203125,41.18882352941176,199.21937578756487
0.6871171875,0.02251904296875,0.7012866210937501,0.9820590927124636,0.1982421875,0.73046875,0.72216796875,41.18882352941176,199.21937578756487
0.69932421875,0.03374951171875,0.6881030273437501,0.9816716195913916,0.125,0.66796875,0.662109375,41.09470588235294,199.21937578756487
0.6773515625,0.02496044921875,0.7086108398437501,0.9805903760441758,0.28857421875,0.43359375,0.48095703125,41.09470588235294,199.4523712792016
0.658796875,0.02691357421875,0.7125170898437501,0.9707822960408788,0.10693359375,0.3017578125,0.236328125,41.18882352941176,199.4523712792016
0.66612109375,0.03863232421875,0.7081225585937501,0.9729580289008348,0.171875,0.142578125,0.3740234375,40.34176470588236,199.4523712792016
0.6695390625,0.02593701171875,0.7178881835937501,0.9819973161540776,0.26953125,0.10400390625,0.6484375,41.18882352941176,199.4523712792016
0.693953125,0.03130810546875,0.7242358398437501,1.0035281206221829,0.20458984375,0.07421875,0.81787109375,40.29470588235294,199.1877344206833
0.71494921875,0.04693310546875,0.7203295898437501,1.0159871159540563,0.23583984375,-0.14990234375,0.66259765625,41.04764705882353,199.1877344206833
0.70811328125,0.03326123046875,0.7310717773437501,1.0183303354822966,0.17724609375,-0.19189453125,0.41943359375,40.48294117647059,199.1877344206833
0.70225390625,0.03081982421875,0.7296069335937501,1.0131321177202572,0.16748046875,0.03857421875,0.25146484375,41.7064705882353,199.1877344206833
0.69151171875,0.02056591796875,0.7271655273437501,1.0036837740581397,0.25341796875,0.58056640625,0.513671875,41.7064705882353,199.1877344206833
0.6714921875,0.02349560546875,0.7374194335937501,0.997617773694718,0.2294921875,1.24658203125,0.466796875,40.48294117647059,199.4092280902976
0.67686328125,0.02935498046875,0.7266772460937501,0.9935116689668188,0.2451171875,1.60986328125,0.322265625,40.29470588235294,199.4092280902976
0.6793046875,0.02496044921875,0.7149584960937501,0.9865310606470084,0.283203125,1.75732421875,0.224609375,40.71823529411765,199.4092280902976
0.67783984375,0.01861279296875,0.6968920898437501,0.972353780639491,0.22265625,1.66796875,0.2451171875,41.09470588235294,199.4092280902976
0.6871171875,0.02007763671875,0.6978686523437501,0.9795681685202936,0.1904296875,1.22314453125,0.2890625,41.09470588235294,199.31430106003785
0.69346484375,0.01763623046875,0.6944506835937501,0.9815631808937136,0.11181640625,0.701171875,0.37255859375,40.29470588235294,199.31430106003785
0.693953125,0.02447216796875,0.6944506835937501,0.982054773750519,0.05859375,0.228515625,0.4033203125,41.65941176470589,199.31430106003785
0.6949296875,0.02496044921875,0.7081225585937501,0.992465542265024,0.0546875,-0.15087890625,0.2724609375,41.65941176470589,199.31430106003785
0.68809375,0.02886669921875,0.7193530273437501,0.9958790453973144,0.04052734375,-0.1435546875,0.11279296875,41.09470588235294,199.31430106003785
0.68858203125,0.02984326171875,0.7305834960937501,1.004384427793938,0.08935546875,0.09375,0.0810546875,41.09470588235294,199.494799746058
0.68565234375,0.02642529296875,0.7388842773437501,1.0083488522848372,0.0673828125,0.5166015625,0.07177734375,40.43588235294118,199.494799746058
0.68076953125,0.02886669921875,0.7418139648437501,1.0072578614433023,0.04345703125,0.96728515625,-0.08984375,41.18882352941176,199.494799746058
0.674421875,0.03326123046875,0.7364428710937501,0.9991492767928208,-0.1240234375,1.435546875,-0.20263671875,41.7064705882353,199.494799746058
0.66905078125,-0.02484423828125,0.7730639648437501,1.0226798510809478,-0.4580078125,2.08349609375,-0.53662109375,41.04764705882353,199.0798760170588
0.826765625,0.03423779296875,0.7027514648437501,1.0856211339546813,0.0927734375,1.923828125,-0.35107421875,41.18882352941176,199.0798760170588
0.68028125,0.00689404296875,0.7164233398437501,0.9879739413582176,-0.07763671875,2.001953125,-0.12548828125,41.18882352941176,199.0798760170588
0.6714921875,0.01763623046875,0.6983569335937501,0.9689763677186082,-0.1064453125,1.8330078125,-0.1630859375,40.906470588235294,199.0798760170588
0.67198046875,0.01519482421875,0.6915209960937501,0.9643598504204748,-0.12353515625,1.34326171875,-0.3505859375,41.235882352941175,199.0798760170588
0.6812578125,0.00494091796875,0.6959155273437501,0.9738762965391388,-0.20947265625,0.8662109375,-0.388671875,41.7064705882353,198.9756006558924
0.67198046875,0.00347607421875,0.7003100585937501,0.970568911330373,-0.25048828125,0.14990234375,-0.326171875,40.34176470588236,198.9756006558924
0.67783984375,0.01421826171875,0.7169116210937501,0.9867275638192112,-0.29638671875,-0.26806640625,-0.2919921875,41.7064705882353,198.9756006558924
0.68028125,0.01177685546875,0.7242358398437501,0.9936995648285636,-0.31640625,-0.45166015625,-0.33056640625,40.34176470588236,198.9756006558924
0.6851640625,0.00738232421875,0.7413256835937501,1.00948900955291,-0.3037109375,-0.2724609375,-0.31494140625,41.235882352941175,199.3459432081481
0.682234375,0.00884716796875,0.7530444335937501,1.0161682605647746,-0.30712890625,0.1630859375,-0.302734375,41.65941176470589,199.3459432081481
0.6734453125,0.01519482421875,0.7589038085937501,1.0147386177284083,-0.2587890625,0.63525390625,-0.3076171875,40.95352941176471,199.3459432081481
0.66075,0.00933544921875,0.7525561523437501,1.0015081005875814,-0.19970703125,1.4228515625,-0.32861328125,40.48294117647059,199.3459432081481
0.6636796875,0.01470654296875,0.7398608398437501,0.9940226719449052,-0.17138671875,1.9375,-0.357421875,41.65941176470589,199.3459432081481
0.66709765625,0.00640576171875,0.7296069335937501,0.988628643275884,-0.1728515625,2.12548828125,-0.35986328125,40.48294117647059,199.15394507886023
0.67783984375,0.00542919921875,0.7203295898437501,0.989126406473736,-0.185546875,1.94775390625,-0.32861328125,41.04764705882353,199.15394507886023
0.682234375,0.00347607421875,0.7081225585937501,0.9833073698050746,-0.201171875,1.5078125,-0.37353515625,41.04764705882353,199.15394507886023
0.6841875,0.01080029296875,0.7095874023437501,0.9857704920768384,-0.22900390625,1.12060546875,-0.20458984375,41.7064705882353,199.15394507886023
0.6714921875,0.01812451171875,0.7090991210937501,0.9767557623758903,-0.2841796875,0.48974609375,-0.201171875,41.7064705882353,199.20715849523907
0.65928515625,0.02398388671875,0.7100756835937501,0.9692469347410164,-0.33642578125,0.13232421875,-0.205078125,40.95352941176471,199.20715849523907
0.6656328125,0.02056591796875,0.7066577148437501,0.9710072728907586,-0.4111328125,0.087890625,-0.166015625,41.28294117647059,199.20715849523907
0.662703125,0.01910107421875,0.7047045898437501,0.9675478499112712,-0.5107421875,0.24755859375,-0.25830078125,40.29470588235294,199.20715849523907
0.6539140625,0.02349560546875,0.7159350585937501,0.9699065175238454,-0.5771484375,0.40283203125,-0.396484375,41.18882352941176,199.20715849523907
0.6500078125,0.03277294921875,0.7139819335937501,0.9661026984797216,-0.56396484375,0.37060546875,-0.36181640625,41.09470588235294,199.3984423266718
0.6734453125,0.03912060546875,0.7164233398437501,0.9840332375348596,-0.56103515625,0.03369140625,-0.1533203125,40.29470588235294,199.3984423266718
0.70030078125,0.04546826171875,0.7042163085937501,0.9941876866731416,-0.51806640625,-0.52880859375,-0.04345703125,41.09470588235294,199.3984423266718
0.71299609375,0.03374951171875,0.7159350585937501,1.0109725354170849,-0.42138671875,-1.10986328125,-0.15673828125,41.04764705882353,199.3984423266718
0.6929765625,0.01617138671875,0.7398608398437501,1.013840269597249,-0.4716796875,-1.36767578125,-0.33251953125,41.65941176470589,199.39772792889903
0.6558671875,0.0010346679687499,0.7730639648437501,1.013800143971633,-0.51953125,-1.2587890625,-0.5986328125,40.29470588235294,199.39772792889903
0.63682421875,0.00396435546875,0.7720874023437501,1.0008395268766868,-0.39599609375,-0.5517578125,-0.482421875,41.09470588235294,199.39772792889903
0.63340625,-0.00384814453125,0.7696459960937501,0.9967814429746056,-0.26904296875,0.59912109375,-0.20556640625,41.65941176470589,199.39772792889903
0.64463671875,0.00640576171875,0.7618334960937501,0.9979918881004944,-0.2373046875,1.57275390625,-0.0927734375,41.09470588235294,199.39772792889903
0.65635546875,0.02154248046875,0.7501147460937501,0.9969647496928212,-0.27978515625,1.94580078125,-0.2294921875,40.29470588235294,199.1445908979466
0.666609375,0.02398388671875,0.7261889648437501,0.9860495415144545,-0.35205078125,1.72900390625,-0.34228515625,40.48294117647059,199.1445908979466
0.67295703125,0.01714794921875,0.7022631835937501,0.9727994639710958,-0.36669921875,1.29931640625,-0.1923828125,41.18882352941176,199.1445908979466
0.65733203125,0.01568310546875,0.7066577148437501,0.9652442618594456,-0.3466796875,0.7978515625,-0.029296875,41.28294117647059,199.1445908979466
0.66026171875,0.01617138671875,0.7007983398437501,0.962977343514824,-0.36181640625,0.19677734375,0.0078125,40.95352941176471,199.55737160911804
0.6597734375,0.02007763671875,0.7017749023437501,0.963427274829998,-0.3447265625,-0.451171875,-0.06005859375,41.235882352941175,199.55737160911804
0.65928515625,0.01763623046875,0.7252124023437501,0.9802555699356812,-0.330078125,-0.92236328125,-0.16015625,41.18882352941176,199.55737160911804
0.6500078125,0.02154248046875,0.7364428710937501,0.9825081868160628,-0.27978515625,-1.05322265625,-0.09033203125,41.04764705882353,199.55737160911804
0.65440234375,0.02007763671875,0.7471850585937501,0.993444035055548,-0.23583984375,-0.79052734375,0.064453125,40.34176470588236,199.55737160911804
0.658796875,0.02007763671875,0.7530444335937501,1.0007458983041138,-0.20703125,-0.22802734375,0.15771484375,40.48294117647059,199.1949431916096
0.66075,0.02496044921875,0.7535327148437501,1.0025094208360308,-0.1650390625,0.375,0.11669921875,41.09470588235294,199.1949431916096
0.654890625,0.01861279296875,0.7515795898437501,0.9970456592577333,-0.17626953125,1.2470703125,-0.00390625,41.235882352941175,199.1949431916096
0.6519609375,0.01275341796875,0.7364428710937501,0.983648217647229,-0.15185546875,1.8583984375,-0.1015625,41.04764705882353,199.1949431916096
0.662703125,0.00494091796875,0.7193530273437501,0.9780943832288158,-0.16943359375,2.17041015625,-0.0908203125,40.906470588235294,198.90873602551665
0.68467578125,0.00347607421875,0.7012866210937501,0.9800999609465154,-0.1494140625,2.0751953125,0.03076171875,41.09470588235294,198.90873602551665
0.68174609375,0.00201123046875,0.6885913085937501,0.9689890462034312,-0.1767578125,1.482421875,0.16357421875,41.7064705882353,198.90873602551665
0.6890703125,0.00689404296875,0.6890795898437501,0.974523526928177,-0.1728515625,0.59033203125,0.1640625,41.09470588235294,198.90873602551665
0.69932421875,0.01665966796875,0.6915209960937501,0.9836326527243892,-0.23876953125,-0.28271484375,0.15673828125,40.62411764705882,198.90873602551665
0.7066484375,0.01128857421875,0.7007983398437501,0.995287777106119,-0.25830078125,-0.99853515625,0.18701171875,41.7064705882353,199.0683746732655
0.6988359375,0.01177685546875,0.7110522460937501,0.9970484735163094,-0.21630859375,-1.22509765625,0.1318359375,41.7064705882353,199.0683746732655
0.68565234375,0.01324169921875,0.7252124023437501,0.9981119714747746,-0.1767578125,-0.93115234375,0.1298828125,40.43588235294118,199.0683746732655
0.66807421875,0.01372998046875,0.7437670898437501,0.9998505678633862,-0.1591796875,-0.23828125,0.0810546875,41.18882352941176,199.0683746732655
0.670515625,0.01080029296875,0.7530444335937501,1.008356964900765,-0.15625,0.52001953125,0.0390625,40.43588235294118,199.39772792889903
0.68028125,0.00884716796875,0.7408374023437501,1.0058334395883173,-0.138671875,1.1884765625,0.1171875,41.7064705882353,199.39772792889903
0.6929765625,0.01031201171875,0.7364428710937501,1.0112719496479716,-0.1455078125,1.6015625,0.14599609375,40.95352941176471,199.39772792889903
0.82334765625,0.01421826171875,0.7159350585937501,1.0911766722865308,-0.1240234375,1.72314453125,0.08447265625,41.04764705882353,199.39772792889903
0.6998125,0.01665966796875,0.7027514648437501,0.9919045826253226,-0.1064453125,1.5751953125,-0.02734375,40.29470588235294,199.39772792889903
0.6890703125,0.01519482421875,0.5792163085937501,0.9003001223996676,-0.0751953125,1.2900390625,-0.0302734375,41.65941176470589,199.14315933818224
0.68174609375,0.00835888671875,0.7017749023437501,0.978435292132362,-0.0283203125,0.9326171875,0.10791015625,40.95352941176471,199.14315933818224
0.67588671875,0.00835888671875,0.7051928710937501,0.976826347418652,-0.03466796875,0.54052734375,0.2099609375,41.09470588235294,199.14315933818224
0.676375,0.00933544921875,0.7086108398437501,0.9796425948177124,-0.05810546875,0.185546875,0.19970703125,40.43588235294118,199.14315933818224
0.6793046875,0.01275341796875,0.7105639648437501,0.9831168070294742,-0.0791015625,0.0009765625,0.15966796875,41.18882352941176,199.23737141796911
0.68369921875,0.01226513671875,0.7173999023437501,0.9910891358404208,-0.0830078125,0.01953125,0.1806640625,41.235882352941175,199.23737141796911
0.67491015625,0.01177685546875,0.7257006835937501,0.991102363786187,-0.095703125,0.203125,0.23583984375,41.04764705882353,199.23737141796911
0.6734453125,0.01665966796875,0.7340014648437501,0.9962752048795666,-0.07958984375,0.37646484375,0.25634765625,40.43588235294118,199.23737141796911
0.6695390625,0.01958935546875,0.7261889648437501,0.98793558075509,-0.0546875,0.791015625,0.22802734375,41.18882352941176,199.23737141796911
0.67246875,0.01080029296875,0.7247241210937501,0.9887142750814726,-0.0263671875,0.97119140625,0.22021484375,40.906470588235294,198.9935902618765
0.67246875,0.01128857421875,0.7286303710937501,0.9915865415155,-0.02099609375,1.02880859375,0.22265625,41.18882352941176,198.9935902618765
0.67246875,0.00738232421875,0.7286303710937501,0.9915497648215388,-0.00537109375,0.9814453125,0.21484375,41.18882352941176,198.9935902618765
0.66905078125,0.00933544921875,0.7369311523437501,0.995381143983569,-0.01708984375,0.77392578125,0.193359375,41.235882352941175,198.9935902618765
0.67002734375,0.01519482421875,0.7300952148437501,0.9910633414638343,0.0,0.638671875,0.20166015625,41.7064705882353,199.1093727321306
0.68174609375,0.02398388671875,0.7305834960937501,0.9995525038386368,0.029296875,0.62060546875,0.3974609375,40.906470588235294,199.1093727321306
0.676375,0.01861279296875,0.7120288085937501,0.9822497650570003,0.0556640625,0.662109375,0.4326171875,41.7064705882353,199.1093727321306
0.66416796875,0.01763623046875,0.7198413085937501,0.9795925871997044,0.08349609375,0.708984375,0.23388671875,41.65941176470589,199.1093727321306
0.64903125,0.02251904296875,0.7310717773437501,0.9778622676028258,-0.00732421875,0.78466796875,0.0048828125,41.65941176470589,199.1093727321306
0.623640625,0.00738232421875,0.7413256835937501,0.9687857848962288,-0.08203125,0.85205078125,-0.21728515625,41.235882352941175,199.3208017243913
0.63975390625,0.02007763671875,0.7349780273437501,0.97461832156822,-0.06005859375,1.02587890625,0.02587890625,41.18882352941176,199.3208017243913
0.6461015625,0.00640576171875,0.7310717773437501,0.9756814062370404,0.02587890625,1.25048828125,0.3203125,40.48294117647059,199.3208017243913
0.66465625,0.02203076171875,0.7213061523437501,0.9810891144717262,-0.01904296875,1.244140625,0.38232421875,41.235882352941175,199.3208017243913
0.674421875,0.03130810546875,0.7134936523437501,0.982292346952465,-0.09375,0.9013671875,0.13671875,41.18882352941176,199.05758898019008
0.68369921875,0.02740185546875,0.7169116210937501,0.9910387257124512,-0.119140625,0.40625,-0.05419921875,40.34176470588236,199.05758898019008
0.68272265625,0.01031201171875,0.7203295898437501,0.9925176476754498,-0.08642578125,0.06005859375,0.02099609375,40.29470588235294,199.05758898019008
0.6636796875,-0.00140673828125,0.7344897460937501,0.9899231756199828,-0.0439453125,-0.00048828125,0.216796875,41.65941176470589,199.05758898019008
0.65684375,0.00494091796875,0.7432788085937501,0.9919332194704344,-0.0009765625,0.00537109375,0.26708984375,41.7064705882353,199.05758898019008
0.6539140625,0.01080029296875,0.7515795898437501,0.9962891785687348,0.04638671875,0.39208984375,0.26318359375,41.09470588235294,199.10865865062428
0.66514453125,0.01226513671875,0.7515795898437501,1.0037128876826338,0.0615234375,0.72607421875,0.3486328125,40.43588235294118,199.10865865062428
0.676375,0.01177685546875,0.7418139648437501,1.0039471068671575,0.06689453125,1.1015625,0.423828125,41.04764705882353,199.10865865062428
0.67783984375,0.00884716796875,0.7291186523437501,0.995569754136624,0.08349609375,1.25146484375,0.41748046875,41.18882352941176,199.10865865062428
0.66905078125,0.00689404296875,0.7139819335937501,0.978492042490873,0.09814453125,1.54296875,0.4091796875,40.34176470588236,198.98137484092047
0.65733203125,-0.00873095703125,0.7027514648437501,0.962299979350498,0.138671875,1.5732421875,0.44287109375,40.95352941176471,198.98137484092047
0.66026171875,-0.01507861328125,0.7071459960937501,0.9675889424836414,0.20654296875,1.36474609375,0.5107421875,41.04764705882353,198.98137484092047
0.65733203125,-0.02484423828125,0.7027514648437501,0.9625810390938848,0.2802734375,0.93701171875,0.60791015625,41.7064705882353,198.98137484092047
0.6597734375,-0.03021533203125,0.6934741210937501,0.9576639868696504,0.125,0.5576171875,0.72119140625,41.09470588235294,198.98137484092047
0.69444140625,-0.00677783203125,0.6881030273437501,0.9776403131833072,0.314453125,-0.02392578125,0.9658203125,40.34176470588236,199.16187244070056
0.7027421875,-0.00580126953125,0.7066577148437501,0.9966169589007856,0.41162109375,-0.63818359375,1.08935546875,41.7064705882353,199.16187244070056
0.70030078125,5.810546874999989e-05,0.7144702148437501,1.000444339028654,0.51416015625,-1.26904296875,1.06103515625,40.62411764705882,199.16187244070056
0.69737109375,-0.00287158203125,0.7344897460937501,1.0128227265905396,0.599609375,-1.3056640625,1.16943359375,41.09470588235294,199.16187244070056
0.682234375,-0.00921923828125,0.7423022460937501,1.008236758575065,0.771484375,-0.95361328125,1.45751953125,41.7064705882353,199.1201583126364
0.6636796875,-0.01166064453125,0.7554858398437501,1.0056667203578915,0.78271484375,-0.15185546875,1.681640625,40.43588235294118,199.1201583126364
0.6636796875,-0.00287158203125,0.7584155273437501,1.0078060754428693,0.78857421875,0.61279296875,1.68798828125,41.235882352941175,199.1201583126364
0.670515625,-0.00531298828125,0.7642749023437501,1.016727867999184,0.765625,1.2138671875,1.5234375,41.09470588235294,199.1201583126364
0.6851640625,0.0015229492187499,0.7501147460937501,1.015935157489452,0.7666015625,1.56787109375,1.4169921875,40.43588235294118,199.1201583126364
0.693953125,-0.00287158203125,0.7315600585937501,1.008344834374788,0.798828125,1.744140625,1.43359375,41.18882352941176,199.07773040687707
0.678328125,-0.01410205078125,0.7159350585937501,0.986352331130154,0.7412109375,1.97998046875,1.42919921875,41.18882352941176,199.07773040687707
0.6714921875,-0.00580126953125,0.7086108398437501,0.9762503444023845,0.68896484375,2.01513671875,1.45458984375,41.65941176470589,199.07773040687707
0.65928515625,-0.00091845703125,0.6993334960937501,0.9611061853789163,0.7099609375,1.6455078125,1.3818359375,41.09470588235294,199.07773040687707
0.66075,-0.00091845703125,0.6998217773437501,0.9624665844110556,0.71826171875,0.99267578125,1.30419921875,41.65941176470589,199.22587193657813
0.6558671875,-0.00531298828125,0.6929858398437501,0.9541589855509324,0.61572265625,0.46484375,1.24072265625,41.09470588235294,199.22587193657813
0.66221484375,-0.01166064453125,0.7007983398437501,0.9642524477757248,0.45556640625,0.04736328125,1.27392578125,41.04764705882353,199.22587193657813
0.65684375,-0.00775439453125,0.7095874023437501,0.9669633520012844,0.4287109375,-0.35498046875,1.25439453125,41.65941176470589,199.22587193657813
0.65537890625,-0.00238330078125,0.7188647460937501,0.972776291886522,0.35986328125,-0.59326171875,1.1650390625,41.09470588235294,199.22587193657813
0.654890625,0.0015229492187499,0.7286303710937501,0.9796868212686284,0.3193359375,-0.67529296875,1.07763671875,41.518235294117645,199.0648032947739
0.66221484375,-0.00531298828125,0.7452319335937501,0.9969590573214092,0.283203125,-0.47802734375,1.0048828125,40.43588235294118,199.0648032947739
0.66905078125,-0.00384814453125,0.7462084960937501,1.0022329448536726,0.267578125,-0.1318359375,0.90576171875,41.09470588235294,199.0648032947739
0.666609375,-0.00775439453125,0.7423022460937501,0.9977178028021064,0.3017578125,0.32861328125,0.77294921875,41.7064705882353,199.0648032947739
0.66465625,-0.00335986328125,0.7408374023437501,0.995298586383386,0.3466796875,0.8369140625,0.6552734375,41.09470588235294,199.12880260418152
0.6597734375,0.00542919921875,0.7457202148437501,0.9957053298347518,0.32470703125,1.21142578125,0.5947265625,41.235882352941175,199.12880260418152
0.65342578125,0.00542919921875,0.7403491210937501,0.9874773662776368,0.2392578125,1.38916015625,0.5107421875,40.48294117647059,199.12880260418152
0.66709765625,0.01665966796875,0.7286303710937501,0.988027856485478,0.18505859375,1.35498046875,0.486328125,40.43588235294118,199.12880260418152
0.6890703125,0.02642529296875,0.7115405273437501,0.990861298936412,0.1376953125,1.2333984375,0.50634765625,40.95352941176471,199.12880260418152
0.69346484375,0.02300732421875,0.6949389648437501,0.9820198528252988,0.14697265625,0.96630859375,0.3173828125,40.95352941176471,199.0008041840209
0.6851640625,0.01812451171875,0.7007983398437501,0.9802533364362006,0.11279296875,0.5927734375,0.05615234375,41.235882352941175,199.0008041840209
0.66612109375,0.01421826171875,0.7105639648437501,0.9740742367188804,0.072265625,0.11181640625,-0.091796875,40.34176470588236,199.0008041840209
0.63584765625,-0.00775439453125,0.7139819335937501,0.9561028051896064,-0.08935546875,-0.0927734375,-0.14111328125,41.65941176470589,199.0008041840209
0.65440234375,0.00884716796875,0.7037280273437501,0.9610170843204016,-0.1357421875,-0.15283203125,0.01123046875,41.18882352941176,198.9691614086314
0.65684375,-0.00189501953125,0.7076342773437501,0.9655017211195936,-0.09765625,-0.15966796875,0.04736328125,41.61235294117647,198.9691614086314
0.6793046875,0.01275341796875,0.7081225585937501,0.9813536906328508,-0.10595703125,-0.22998046875,-0.08154296875,41.7064705882353,198.9691614086314
0.69248828125,0.02642529296875,0.7222827148437501,1.000964852499388,-0.13330078125,-0.44384765625,-0.1474609375,41.04764705882353,198.9691614086314
0.6949296875,0.01763623046875,0.7257006835937501,1.0049277533048984,-0.20166015625,-0.50244140625,-0.1640625,41.18882352941176,198.9691614086314
0.70811328125,0.00884716796875,0.7242358398437501,1.0129265734385149,-0.208984375,-0.5166015625,-0.0302734375,41.18882352941176,199.0432325212973
0.70225390625,-0.00287158203125,0.7247241210937501,1.0091550161010223,-0.130859375,-0.11865234375,0.12158203125,41.18882352941176,199.0432325212973
0.686140625,-0.00482470703125,0.7300952148437501,1.0019237784437844,-0.09228515625,0.6708984375,0.03076171875,41.04764705882353,199.0432325212973
0.67002734375,-0.01117236328125,0.7266772460937501,0.9884944527231124,-0.08349609375,1.19580078125,-0.2138671875,41.235882352941175,199.0432325212973
0.678328125,-0.01996142578125,0.7188647460937501,0.9885818260830348,-0.06689453125,1.55712890625,-0.30029296875,41.235882352941175,199.11730435023964
0.68760546875,-0.01410205078125,0.7115405273437501,0.9895908601759448,-0.01220703125,1.59228515625,-0.2548828125,40.43588235294118,199.11730435023964
0.70030078125,-0.01654345703125,0.6993334960937501,0.9898293837569242,-0.0205078125,1.4677734375,-0.15185546875,41.18882352941176,199.11730435023964
0.70713671875,-0.01898486328125,0.6832202148437501,0.9834595192530624,-0.08935546875,1.13720703125,-0.126953125,41.09470588235294,199.11730435023964
0.71006640625,-0.02191455078125,0.6827319335937501,0.9852905368313424,-0.14404296875,0.67626953125,-0.24951171875,40.34176470588236,199.11730435023964
0.70811328125,-0.02679736328125,0.6832202148437501,0.9843436288881078,-0.228515625,0.17529296875,-0.12255859375,41.18882352941176,199.0957336820573
0.69932421875,-0.03265673828125,0.5836108398437501,0.9114397609653614,-0.2255859375,-0.30126953125,-0.1171875,41.61235294117647,199.0957336820573
0.6988359375,-0.03314501953125,0.7149584960937501,1.0003179049671498,-0.24951171875,-0.376953125,-0.1533203125,41.18882352941176,199.0957336820573
0.70420703125,-0.02142626953125,0.7198413085937501,1.0072428393619517,-0.220703125,-0.40966796875,-0.15966796875,40.43588235294118,199.0957336820573
0.6929765625,-0.02093798828125,0.7359545898437501,1.0110806465557851,-0.19287109375,-0.10400390625,-0.13330078125,41.18882352941176,199.02237496981508
0.6812578125,-0.00970751953125,0.7466967773437501,1.0108226948002683,-0.19775390625,0.2900390625,-0.20703125,41.04764705882353,199.02237496981508
0.67198046875,0.00249951171875,0.7457202148437501,1.0038240068691875,-0.17333984375,0.76513671875,-0.22900390625,40.43588235294118,199.02237496981508
0.65830859375,-0.00628955078125,0.7540209960937501,1.0009782343309686,-0.12890625,1.322265625,-0.36083984375,41.04764705882353,199.02237496981508
0.6793046875,-0.01800830078125,0.7427905273437501,1.006735777087567,-0.19775390625,1.8203125,-0.4228515625,41.28294117647059,199.02237496981508
0.678328125,-0.01996142578125,0.7300952148437501,0.9967780728040608,-0.14697265625,2.2392578125,-0.3974609375,41.04764705882353,199.02237496981508
0.67686328125,-0.01654345703125,0.7120288085937501,0.9825490378309352,-0.14599609375,2.5302734375,-0.41845703125,41.235882352941175,199.02237496981508
0.6773515625,-0.00677783203125,0.7022631835937501,0.9757175089437844,-0.09033203125,2.49853515625,-0.37451171875,41.09470588235294,199.02237496981508
0.69053515625,-0.01556689453125,0.7032397460937501,0.9857115555316174,-0.08349609375,1.890625,-0.326171875,41.09470588235294,199.02237496981508
0.705671875,-0.02142626953125,0.6900561523437501,0.987223061713766,-0.10595703125,1.2041015625,-0.15478515625,41.18882352941176,199.0856610281218
0.70616015625,-0.02044970703125,0.6964038085937501,0.9919972890167436,-0.1787109375,0.70068359375,-0.00146484375,41.18882352941176,199.0856610281218
0.6988359375,-0.01263720703125,0.7037280273437501,0.9918490323694328,-0.1640625,0.2890625,0.005859375,40.906470588235294,199.0856610281218
0.6871171875,-0.00873095703125,0.7134936523437501,0.9905955031714084,-0.140625,0.17431640625,-0.0146484375,40.43588235294118,199.0856610281218
0.69151171875,-0.01019580078125,0.7232592773437501,1.0006979533235558,-0.24853515625,0.34228515625,0.01611328125,40.29470588235294,199.0856610281218
0.7027421875,-0.01361376953125,0.7335131835937501,1.0159101866400264,-0.09912109375,0.66845703125,0.10986328125,41.235882352941175,199.2345182900656
0.70420703125,-0.01068408203125,0.7447436523437501,1.0250194145366698,-0.009765625,1.01611328125,0.162109375,40.29470588235294,199.2345182900656
0.7007890625,-0.00580126953125,0.7379077148437501,1.0176673132579863,0.05126953125,1.4345703125,0.17236328125,40.95352941176471,199.2345182900656
0.70811328125,-0.00091845703125,0.7388842773437501,1.023413522458911,0.15185546875,1.716796875,0.294921875,41.235882352941175,199.2345182900656
0.70518359375,-0.00189501953125,0.7364428710937501,1.019625222509719,0.228515625,1.86865234375,0.39892578125,41.04764705882353,199.26687447713653
0.7086015625,-0.00531298828125,0.7310717773437501,1.0181406316666022,0.23095703125,1.87841796875,0.47607421875,41.65941176470589,199.26687447713653
0.7007890625,-0.01459033203125,0.7271655273437501,1.0099940059552457,0.24755859375,1.81982421875,0.46630859375,41.18882352941176,199.26687447713653
0.69248828125,-0.01214892578125,0.7217944335937501,1.000337353312941,0.25244140625,1.76953125,0.48486328125,41.42411764705882,199.26687447713653
0.6695390625,-0.01654345703125,0.7134936523437501,0.9785854250492124,0.30224609375,1.78515625,0.49462890625,40.43588235294118,199.26687447713653
0.65928515625,-0.01996142578125,0.7257006835937501,0.9806614389988236,0.26318359375,1.72119140625,0.45263671875,41.235882352941175,199.60702371573808
0.65342578125,-0.00384814453125,0.7222827148437501,0.973998141672028,0.30078125,1.7490234375,0.55859375,41.65941176470589,199.60702371573808
0.65537890625,-0.00238330078125,0.7071459960937501,0.9641486662706548,0.3486328125,1.505859375,0.66357421875,41.18882352941176,199.60702371573808
0.6656328125,0.00445263671875,0.7051928710937501,0.9697339080860562,0.33935546875,1.2587890625,0.64501953125,41.04764705882353,199.60702371573808
0.65147265625,0.00249951171875,0.7130053710937501,0.9658154733740804,0.3603515625,0.94091796875,0.53564453125,41.04764705882353,199.44666584914648
0.62608203125,-0.00531298828125,0.7354663085937501,0.9658766115685375,0.18994140625,0.59619140625,0.3466796875,40.95352941176471,199.44666584914648
0.611921875,-0.01019580078125,0.7437670898437501,0.9631935524035278,0.0615234375,0.3125,0.19677734375,41.61235294117647,199.44666584914648
0.63682421875,-0.00335986328125,0.7437670898437501,0.9791556863964268,0.04248046875,0.33837890625,0.35888671875,41.18882352941176,199.44666584914648
0.6363359375,5.810546874999989e-05,0.7442553710937501,0.9792034957720204,0.1357421875,0.59130859375,0.5302734375,41.09470588235294,199.44666584914648
0.6363359375,0.00835888671875,0.7540209960937501,0.9866817921150628,0.12548828125,0.88330078125,0.453125,41.18882352941176,198.874234254301
0.6285234375,0.01470654296875,0.7545092773437501,0.9821111156537716,0.07470703125,0.97607421875,0.2548828125,40.29470588235294,198.874234254301
0.623640625,0.00494091796875,0.7525561523437501,0.9773908144909048,-0.02734375,0.96728515625,0.10986328125,41.09470588235294,198.874234254301
0.6402421875,-0.00043017578125,0.7466967773437501,0.9835986584992528,-0.01611328125,0.9228515625,0.2216796875,41.04764705882353,198.874234254301
0.6421953125,-0.00287158203125,0.7530444335937501,0.9896964101919672,0.0,0.99853515625,0.37451171875,41.7064705882353,199.12880260418152
0.6461015625,-0.00189501953125,0.7535327148437501,0.99260383462072,0.01611328125,0.7744140625,0.0390625,40.34176470588236,199.12880260418152
0.63487109375,-0.00091845703125,0.7564624023437501,0.98757152419575,0.01708984375,0.7001953125,-0.15869140625,41.7064705882353,199.12880260418152
0.6246171875,-0.00335986328125,0.7691577148437501,0.9908387910782148,-0.0029296875,0.65625,-0.12548828125,40.43588235294118,199.12880260418152
0.62559375,-0.00970751953125,0.7755053710937501,0.9964288015557192,-0.021484375,0.68603515625,0.0224609375,41.7064705882353,199.12880260418152
0.63487109375,0.00542919921875,0.7647631835937501,0.9939585045986206,-0.04052734375,0.81005859375,0.103515625,41.04764705882353,199.18130391194515
0.6373125,0.01031201171875,0.7564624023437501,0.989196101084924,-0.064453125,1.04833984375,-0.03271484375,41.28294117647059,199.18130391194515
0.63389453125,0.00640576171875,0.7593920898437501,0.9892116339030352,-0.10791015625,1.283203125,-0.2099609375,41.7064705882353,199.18130391194515
0.62217578125,-0.00628955078125,0.7540209960937501,0.9775939462646488,-0.13818359375,1.51806640625,-0.29638671875,41.18882352941176,199.18130391194515
0.6128984375,-0.01019580078125,0.7496264648437501,0.9683430620589224,-0.1826171875,1.59130859375,-0.27490234375,40.48294117647059,199.1496604533211
0.6207109375,-0.00970751953125,0.7286303710937501,0.957224384116804,-0.22412109375,1.40576171875,-0.21435546875,41.09470588235294,199.1496604533211
0.64463671875,-0.00335986328125,0.7203295898437501,0.9666656639430722,-0.21923828125,0.9404296875,-0.16455078125,41.7064705882353,199.1496604533211
0.6461015625,-0.00384814453125,0.7271655273437501,0.9727444378861227,-0.25439453125,0.2734375,-0.232421875,41.7064705882353,199.1496604533211
0.6373125,-0.00580126953125,0.7437670898437501,0.9794847427699244,-0.275390625,-0.34619140625,-0.2880859375,41.09470588235294,199.1496604533211
0.6343828125,-0.01459033203125,0.7618334960937501,0.9914861100159792,-0.318359375,-0.619140625,-0.29443359375,41.04764705882353,199.3078796996313
0.63291796875,-0.02044970703125,0.7774584960937501,1.0027188333888246,-0.3046875,-0.60986328125,-0.2431640625,41.04764705882353,199.3078796996313
0.62217578125,-0.02533251953125,0.7882006835937501,1.0044922881423748,-0.26904296875,-0.1953125,-0.21044921875,41.18882352941176,199.3078796996313
0.6226640625,-0.02289111328125,0.7945483398437501,1.0097235275780785,-0.22705078125,0.40478515625,-0.13037109375,40.48294117647059,199.3078796996313
0.60752734375,-0.02972705078125,0.7965014648437501,1.002191475941759,-0.2158203125,0.88232421875,-0.31689453125,41.09470588235294,199.03102200006347
0.62217578125,-0.03851611328125,0.7960131835937501,1.0110505339553504,-0.2607421875,1.37646484375,-0.673828125,40.53,199.03102200006347
0.6402421875,-0.03363330078125,0.7847827148437501,1.01337316280517,-0.26318359375,1.40185546875,-1.01708984375,40.29470588235294,199.03102200006347
0.65342578125,-0.03070361328125,0.7852709960937501,1.0220364478709985,-0.26025390625,1.232421875,-1.3359375,40.95352941176471,199.03102200006347
0.65049609375,-0.01214892578125,0.7852709960937501,1.0197761037049835,-0.26318359375,0.9423828125,-1.765625,40.43588235294118,199.03102200006347
0.61729296875,0.00640576171875,0.7867358398437501,1.0000224621207447,-0.35693359375,0.8740234375,-2.234375,41.28294117647059,199.0957336820573
0.592390625,0.01275341796875,0.7823413085937501,0.9814006446859292,-0.3974609375,0.71533203125,-2.66796875,40.34176470588236,199.0957336820573
0.6216875,0.01812451171875,0.7725756835937501,0.9918150192760964,-0.43798828125,0.76611328125,-2.7236328125,41.09470588235294,199.0957336820573
0.67686328125,0.03033154296875,0.7520678710937501,1.0122598415105022,-0.57958984375,0.84619140625,-2.5634765625,41.18882352941176,199.0957336820573
0.7164140625,0.04205029296875,0.7491381835937501,1.0374128176404294,-0.67333984375,0.60888671875,-2.58251953125,41.7064705882353,199.2978061055
0.72666796875,0.03521435546875,0.7506030273437501,1.0453187515279407,-0.7626953125,0.14599609375,-2.67578125,41.18882352941176,199.2978061055
0.71690234375,0.02447216796875,0.7564624023437501,1.0424889561232826,-0.89013671875,0.02197265625,-2.72021484375,41.65941176470589,199.2978061055
0.6998125,-0.00091845703125,0.7515795898437501,1.0269421885331558,-0.9140625,0.1015625,-2.71923828125,40.48294117647059,199.2978061055
0.67783984375,0.10455029296875,0.7525561523437501,1.0182035061643155,-0.892578125,0.58154296875,-2.65869140625,41.235882352941175,199.2978061055
0.6695390625,-0.04877001953125,0.7486499023437501,1.0055534532275068,-0.822265625,1.13623046875,-2.5517578125,40.43588235294118,199.1043832732361
0.67491015625,-0.06439501953125,0.7462084960937501,1.0082051166267336,-0.70166015625,1.4189453125,-2.3984375,41.235882352941175,199.1043832732361
0.66905078125,-0.06927783203125,0.7481616210937501,1.0060686741867144,-0.65673828125,1.52197265625,-2.15869140625,41.65941176470589,199.1043832732361
0.6597734375,-0.08539111328125,0.7520678710937501,1.0040909888000504,-0.68896484375,1.21044921875,-1.99169921875,40.95352941176471,199.1043832732361
0.65830859375,-0.06439501953125,0.7403491210937501,0.9927908864659368,-0.7060546875,0.83935546875,-1.53662109375,40.906470588235294,198.98716946073228
0.6675859375,-0.02826220703125,0.6978686523437501,0.9661730653553292,-0.482421875,0.68359375,-0.90380859375,41.09470588235294,198.98716946073228
0.662703125,-0.00580126953125,0.6924975585937501,0.9585207119677926,-0.3720703125,0.36083984375,-0.37646484375,40.85941176470588,198.98716946073228
0.654890625,0.00201123046875,0.6993334960937501,0.9580986976922556,0.03515625,-0.3564453125,0.03515625,41.65941176470589,198.98716946073228
0.6295,0.00494091796875,0.7252124023437501,0.9603268668446006,0.14501953125,-1.33984375,0.1298828125,41.65941176470589,198.98716946073228
0.63340625,-0.02435595703125,0.7418139648437501,0.9757482506359798,-0.53662109375,-1.69189453125,0.24853515625,41.7064705882353,199.2647386477801
0.68369921875,0.00445263671875,0.7042163085937501,0.981521806677018,-1.23193359375,-1.533203125,0.564453125,40.95352941176471,199.2647386477801
0.682234375,0.03179638671875,0.6827319335937501,0.9657005984199604,-1.392578125,-1.53759765625,0.99462890625,41.65941176470589,199.2647386477801
0.64073046875,0.06841748046875,0.6846850585937501,0.9402181207995374,-1.42822265625,-1.82666015625,0.58349609375,41.37705882352941,199.2647386477801
0.6402421875,0.06939404296875,0.6900561523437501,0.943876626070269,-1.2333984375,-2.37353515625,0.12158203125,41.235882352941175,198.80738193473945
0.64073046875,0.04497998046875,0.7125170898437501,0.9592910588278044,-1.13671875,-2.5205078125,0.04345703125,40.29470588235294,198.80738193473945
0.66026171875,0.07330029296875,0.7164233398437501,0.9770265462457416,-1.0927734375,-2.421875,0.232421875,40.43588235294118,198.80738193473945
0.670515625,0.09185498046875,0.7315600585937501,0.9965985451202234,-0.93701171875,-2.53759765625,0.2919921875,40.906470588235294,198.80738193473945
0.666609375,0.09576123046875,0.7349780273437501,0.9968605583414812,-0.96875,-2.45166015625,0.18017578125,41.04764705882353,198.80738193473945
0.654890625,0.08599560546875,0.7408374023437501,0.9925306199731386,-0.88037109375,-2.06005859375,-0.00537109375,41.235882352941175,199.08210206702253
0.6343828125,0.08062451171875,0.7427905273437501,0.9801426591047364,-0.82177734375,-1.44873046875,-0.15771484375,41.7064705882353,199.08210206702253
0.61826953125,0.08843701171875,0.7442553710937501,0.9715937297634916,-0.78955078125,-0.4716796875,-0.42822265625,41.65941176470589,199.08210206702253
0.62217578125,0.09039013671875,0.7359545898437501,0.9679371043111038,-0.6494140625,0.26123046875,-0.6171875,40.906470588235294,199.08210206702253
0.63584765625,0.10064404296875,0.7237475585937501,0.9686289247767316,-0.57373046875,1.0703125,-0.5869140625,40.48294117647059,199.46681430724647
0.6402421875,0.10943310546875,0.7130053710937501,0.9645010743570251,-0.5126953125,1.4736328125,-0.50537109375,41.7064705882353,199.46681430724647
0.6031328125,0.10943310546875,0.6944506835937501,0.926286427640242,-0.3955078125,1.68701171875,-0.47119140625,41.235882352941175,199.46681430724647
0.572859375,0.09527294921875,0.6934741210937501,0.9045170838657378,-0.40576171875,1.8134765625,-0.5126953125,40.29470588235294,199.46681430724647
0.5855546875,0.08453076171875,0.6773608398437501,0.8993539064705313,-0.34033203125,1.7568359375,-0.40771484375,40.53,199.46681430724647
0.61729296875,0.06548779296875,0.6607592773437501,0.9066102155237062,-0.29638671875,1.552734375,-0.0615234375,41.7064705882353,199.11516843428163
0.63877734375,0.07330029296875,0.6568530273437501,0.919165560368892,-0.2705078125,0.9892578125,0.36279296875,41.65941176470589,199.11516843428163
0.64756640625,0.11333935546875,0.6680834960937501,0.9372959072536589,-0.119140625,-0.15185546875,0.8193359375,41.65941176470589,199.11516843428163
0.64854296875,0.13189404296875,0.6993334960937501,0.962845449511194,0.08154296875,-1.65478515625,1.10888671875,41.09470588235294,199.11516843428163
0.6265703125,0.11480419921875,0.7388842773437501,0.9755615490426024,0.21240234375,-3.32568359375,1.15625,41.7064705882353,199.243168202494
0.6265703125,0.08794873046875,0.7569506835937501,0.9865595132025528,0.498046875,-4.28662109375,1.3232421875,40.906470588235294,199.243168202494
0.63682421875,0.05279248046875,0.7637866210937501,0.9958424243535716,0.8994140625,-4.0419921875,1.875,40.34176470588236,199.243168202494
0.63389453125,0.02984326171875,0.7603686523437501,0.9903905212014712,1.1259765625,-2.7646484375,2.4765625,41.235882352941175,199.243168202494
0.64561328125,0.00396435546875,0.7525561523437501,0.9915507992388004,1.48583984375,-0.97509765625,2.6708984375,41.18882352941176,199.243168202494
0.6685625,-0.01263720703125,0.7315600585937501,0.9911183757440336,1.572265625,1.36669921875,2.97802734375,40.29470588235294,199.16838303729057
0.686140625,-0.00677783203125,0.7134936523437501,0.989903070112048,1.56689453125,3.3486328125,3.26416015625,40.62411764705882,199.16838303729057
0.701765625,0.02984326171875,0.6856616210937501,0.9815790703466348,1.32666015625,4.85205078125,3.4599609375,41.7064705882353,199.16838303729057
0.721296875,0.09429638671875,0.6817553710937501,0.9969711011098338,0.92236328125,5.775390625,3.52197265625,41.7064705882353,199.16838303729057
0.764265625,0.17876904296875,0.6666186523437501,1.0297770360292566,0.4013671875,5.5849609375,3.4345703125,40.53,199.24245724700947
0.78721484375,0.18414013671875,0.6524584960937501,1.0389017707637498,0.07861328125,4.0859375,2.94482421875,41.18882352941176,199.24245724700947
0.8160234375,0.15435498046875,0.6417163085937501,1.049533006274702,0.322265625,1.74462890625,2.74267578125,41.65941176470589,199.24245724700947
0.795515625,0.09136669921875,0.6602709960937501,1.0378587435811788,0.9306640625,-0.79052734375,3.30078125,41.04764705882353,199.24245724700947
0.74229296875,0.03081982421875,0.7169116210937501,1.0324296515888294,1.43408203125,-2.44873046875,4.052734375,41.28294117647059,199.24245724700947
0.7261796875,5.810546874999989e-05,0.7496264648437501,1.0436842332372285,1.8896484375,-3.19384765625,4.49365234375,40.95352941176471,199.2215978109741
0.72666796875,-0.00335986328125,0.7652514648437501,1.055304425241373,2.2177734375,-2.779296875,4.404296875,40.48294117647059,199.2215978109741
0.72178515625,0.01665966796875,0.7823413085937501,1.0645699974411489,2.29443359375,-1.3232421875,3.77294921875,40.53,199.2215978109741
0.71104296875,0.03716748046875,0.7965014648437501,1.068352988722102,2.33154296875,0.29736328125,2.9052734375,40.34176470588236,199.2215978109741
0.690046875,0.02056591796875,0.8131030273437501,1.066641542297474,2.4140625,1.57666015625,2.37109375,41.04764705882353,199.04038370784613
0.639265625,-0.02679736328125,0.8238452148437501,1.0431201158094945,2.41162109375,2.77197265625,1.89697265625,41.18882352941176,199.04038370784613
0.58116015625,-0.07025439453125,0.8233569335937501,1.0102472208624875,2.302734375,3.68115234375,1.8837890625,41.18882352941176,199.04038370784613
0.5386796875,-0.08929736328125,0.8033374023437501,0.9713396969230104,2.26904296875,4.36865234375,2.13037109375,41.04764705882353,199.04038370784613
0.53526171875,-0.09808642578125,0.7755053710937501,0.9473830455929638,2.103515625,4.7705078125,2.49169921875,41.18882352941176,199.04038370784613
0.55381640625,-0.08490283203125,0.7325366210937501,0.922242378099185,1.89599609375,4.5087890625,2.45166015625,41.18882352941176,199.3906078154437
0.59776171875,-0.04877001953125,0.7042163085937501,0.9249963224237382,1.77197265625,3.5029296875,1.9404296875,41.235882352941175,199.3906078154437
0.63487109375,-0.01996142578125,0.6895678710937501,0.9375305931239302,1.5908203125,2.2451171875,1.31396484375,41.09470588235294,199.3906078154437
0.63584765625,-0.01166064453125,0.6988452148437501,0.94489303463382,1.38037109375,0.8544921875,0.71484375,41.235882352941175,199.3906078154437
0.62803515625,0.02007763671875,0.6968920898437501,0.9383442086297338,1.24365234375,-0.0458984375,0.4560546875,41.04764705882353,199.4653937846318
0.59971484375,0.03472607421875,0.7227709960937501,0.9398200396028404,1.17333984375,-0.33056640625,0.4482421875,41.28294117647059,199.4653937846318
0.5875078125,0.04009716796875,0.7491381835937501,0.9528804913239604,1.06201171875,-0.16162109375,0.447265625,41.7064705882353,199.4653937846318
0.6324296875,0.03765576171875,0.7569506835937501,0.9870965522252686,0.91748046875,0.15234375,0.599609375,40.43588235294118,199.4653937846318
0.67198046875,0.02349560546875,0.7642749023437501,1.017951826075459,0.71142578125,0.4150390625,0.4951171875,41.04764705882353,199.4653937846318
0.71494921875,0.04546826171875,0.7486499023437501,1.0361932370432971,0.65771484375,0.77783203125,0.189453125,40.29470588235294,198.91309687430592
0.7125078125,0.03521435546875,0.7222827148437501,1.0151845910309478,0.765625,1.4267578125,-0.14453125,41.37705882352941,198.91309687430592
0.71934375,0.01031201171875,0.7349780273437501,1.028471909644527,0.82275390625,2.142578125,-0.296875,41.235882352941175,198.91309687430592
0.68955859375,-0.03607470703125,0.7442553710937501,1.015238147482532,0.7373046875,2.462890625,-0.37060546875,41.7064705882353,198.91309687430592
0.64463671875,-0.03998095703125,0.7501147460937501,0.9898621663611517,0.6552734375,2.2666015625,-0.60888671875,41.65941176470589,198.9016000876116
0.6226640625,-0.03314501953125,0.7442553710937501,0.9709403609133912,0.7041015625,1.59423828125,-0.8125,41.09470588235294,198.9016000876116
0.62217578125,-0.04486376953125,0.7462084960937501,0.9725957948876282,0.75732421875,0.693359375,-0.8662109375,41.37705882352941,198.9016000876116
0.6461015625,-0.04779345703125,0.7340014648437501,0.979024817863526,0.60888671875,0.0380859375,-0.6201171875,41.518235294117645,198.9016000876116
0.64658984375,-0.03753955078125,0.7257006835937501,0.972691691175546,0.47119140625,-0.333984375,-0.3447265625,40.34176470588236,198.9016000876116
0.6382890625,-0.01849658203125,0.7257006835937501,0.9666418845789808,0.33935546875,-0.47216796875,-0.27392578125,41.235882352941175,198.20047501792573
0.6324296875,-0.02679736328125,0.7222827148437501,0.9604049814907422,0.216796875,-0.19140625,-0.3681640625,41.18882352941176,198.20047501792573
0.6441484375,-0.02923876953125,0.6993334960937501,0.951235750976644,0.126953125,0.40771484375,-0.41064453125,40.48294117647059,198.20047501792573
0.64951953125,-0.04437548828125,0.6905444335937501,0.9490502727478308,0.05712890625,1.00830078125,-0.32763671875,41.65941176470589,198.20047501792573
0.63291796875,-0.04388720703125,0.6754077148437501,0.9266535616820808,-0.0400390625,1.2158203125,-0.3828125,40.43588235294118,198.9116739057114
0.6461015625,-0.03900439453125,0.6680834960937501,0.9302172486094518,-0.1171875,0.8818359375,-0.30859375,40.48294117647059,198.9116739057114
0.67686328125,-0.06634814453125,0.6622241210937501,0.949255900348081,-0.23779296875,0.09716796875,-0.08447265625,41.18882352941176,198.9116739057114
0.71690234375,-0.07709033203125,0.6690600585937501,0.9836326813259124,-0.38720703125,-0.927734375,0.14501953125,41.518235294117645,198.9116739057114
0.7242265625,-0.08539111328125,0.6778491210937501,0.9956280364802644,-0.49755859375,-1.8974609375,0.24072265625,41.235882352941175,198.9116739057114
0.717390625,-0.08539111328125,0.6949389648437501,1.002437587046398,-0.59619140625,-2.7861328125,0.078125,41.18882352941176,199.06124276345471
0.70371875,-0.08490283203125,0.7227709960937501,1.012337138893383,-0.650390625,-3.07666015625,-0.1328125,41.18882352941176,199.06124276345471
0.7125078125,-0.09613330078125,0.7442553710937501,1.0348067702689856,-0.66650390625,-2.85888671875,-0.05712890625,41.37705882352941,199.06124276345471
0.72080859375,-0.09564501953125,0.7574389648437501,1.0499651346823653,-0.7001953125,-2.193359375,0.15185546875,41.04764705882353,199.06124276345471
0.7261796875,-0.08832080078125,0.7613452148437501,1.0558333384363816,-0.6904296875,-1.37109375,0.27197265625,41.04764705882353,199.2834669695017
0.72471484375,-0.09173876953125,0.7711108398437501,1.0621862049147637,-0.68115234375,-0.15625,0.05810546875,41.04764705882353,199.2834669695017
0.71201953125,-0.09320361328125,0.7574389648437501,1.0437300953185753,-0.65380859375,0.931640625,-0.30126953125,41.7064705882353,199.2834669695017
0.71201953125,-0.10394580078125,0.7452319335937501,1.035928171848514,-0.58642578125,1.837890625,-0.43603515625,40.43588235294118,199.2834669695017
0.7125078125,-0.11322314453125,0.7354663085937501,1.0302415029533594,-0.5751953125,2.3525390625,-0.34912109375,41.18882352941176,199.2834669695017
0.7086015625,-0.10589892578125,0.7081225585937501,1.0073570940080896,-0.58740234375,2.3046875,-0.1943359375,41.28294117647059,199.04903661414843
0.71592578125,-0.08343798828125,0.6910327148437501,0.9985178191355268,-0.58935546875,1.7158203125,-0.078125,41.65941176470589,199.04903661414843
0.72715625,-0.07464892578125,0.6773608398437501,0.9965672989759334,-0.65380859375,0.8046875,-0.0849609375,41.7064705882353,199.04903661414843
0.73741015625,-0.06683642578125,0.6675952148437501,0.9969574801535592,-0.7265625,-0.15087890625,-0.11181640625,41.04764705882353,199.04903661414843
0.729109375,-0.05560595703125,0.6856616210937501,1.002409278593909,-0.76416015625,-0.97265625,-0.15283203125,41.04764705882353,198.8678232904587
0.7144609375,-0.05560595703125,0.7022631835937501,1.003354390383562,-0.7880859375,-1.51953125,-0.24365234375,41.18882352941176,198.8678232904587
0.70616015625,-0.06000048828125,0.7164233398437501,1.0077324182251388,-0.82177734375,-1.55859375,-0.25048828125,41.18882352941176,198.8678232904587
0.70713671875,-0.05804736328125,0.7383959960937501,1.02403148508027,-0.81005859375,-1.0322265625,-0.13232421875,40.906470588235294,198.8678232904587
0.70030078125,-0.05267626953125,0.7427905273437501,1.0222200062132885,-0.78369140625,-0.09326171875,-0.044921875,41.04764705882353,198.8678232904587
0.697859375,-0.04584033203125,0.7408374023437501,1.018797870054488,-0.74169921875,0.95361328125,-0.130859375,41.235882352941175,198.96275730597023
0.72764453125,-0.03558642578125,0.7173999023437501,1.0224458799568508,-0.5576171875,1.970703125,0.0390625,40.43588235294118,198.96275730597023
0.740828125,-0.03851611328125,0.7022631835937501,1.021510342974822,-0.54443359375,2.62744140625,0.11474609375,41.235882352941175,198.96275730597023
0.75059375,-0.04095751953125,0.6685717773437501,1.0060102968686733,-0.49755859375,2.64404296875,0.169921875,40.34176470588236,198.96275730597023
0.75010546875,-0.05023486328125,0.6578295898437501,0.9989602219365592,-0.560546875,2.14306640625,0.087890625,41.18882352941176,198.8879730288738
0.73448046875,-0.06244189453125,0.6602709960937501,0.9896051421908156,-0.7138671875,1.2236328125,-0.09814453125,41.18882352941176,198.8879730288738
0.74619921875,-0.06000048828125,0.6539233398437501,0.993996512594236,-0.7421875,0.169921875,-0.0400390625,41.18882352941176,198.8879730288738
0.74131640625,-0.05755908203125,0.6583178710937501,0.9930989283556309,-0.603515625,-0.73681640625,0.3427734375,40.95352941176471,198.8879730288738
0.72569140625,-0.05365283203125,0.6749194335937501,0.992483191460986,-0.52001953125,-1.322265625,0.609375,41.61235294117647,198.8879730288738
0.71592578125,-0.04291064453125,0.6959155273437501,0.9993445196080478,-0.55078125,-1.50244140625,0.7353515625,41.37705882352941,198.9001781066333
0.721296875,-0.04095751953125,0.7149584960937501,1.0164213454210589,-0.58251953125,-1.7509765625,0.73779296875,41.18882352941176,198.9001781066333
0.73057421875,-0.03021533203125,0.7169116210937501,1.0240185192911309,-0.521484375,-1.4423828125,0.8037109375,41.18882352941176,198.9001781066333
0.73252734375,-0.02923876953125,0.7291186523437501,1.0339561036043543,-0.3916015625,-0.73681640625,0.802734375,41.235882352941175,198.9001781066333
0.72959765625,-0.02386767578125,0.7427905273437501,1.0414509942691963,-0.26513671875,0.4560546875,0.77001953125,40.43588235294118,198.99653240198012
0.717390625,-0.02337939453125,0.7423022460937501,1.0325737404574864,-0.16552734375,1.5078125,0.6943359375,41.04764705882353,198.99653240198012
0.70371875,-0.01605517578125,0.7330249023437501,1.0162693320311271,-0.10888671875,2.556640625,0.6943359375,41.04764705882353,198.99653240198012
0.6841875,-0.01117236328125,0.7144702148437501,0.9892952262880949,-0.05908203125,3.001953125,0.7119140625,40.29470588235294,198.99653240198012
0.68028125,-0.01214892578125,0.7007983398437501,0.9767540573895545,-0.060546875,3.36572265625,0.689453125,40.48294117647059,198.99653240198012
0.690046875,-0.01654345703125,0.6802905273437501,0.9691406385357328,-0.00830078125,3.2119140625,0.640625,41.235882352941175,199.17561740875465
0.6871171875,-0.01068408203125,0.6680834960937501,0.9584256552908048,0.02392578125,2.64794921875,0.57421875,41.04764705882353,199.17561740875465
0.6832109375,-0.00531298828125,0.6524584960937501,0.9447261519027742,-0.02294921875,1.88818359375,0.4443359375,40.43588235294118,199.17561740875465
0.67881640625,0.00494091796875,0.6548999023437501,0.9432444053130622,-0.11376953125,0.95166015625,0.35107421875,41.7064705882353,199.17561740875465
0.682234375,5.810546874999989e-05,0.6617358398437501,0.9504409858279468,-0.16015625,0.04150390625,0.4619140625,41.18882352941176,199.00660692364045
0.69346484375,-0.00287158203125,0.6793139648437501,0.9707570233237098,-0.12548828125,-0.65625,0.56884765625,41.235882352941175,199.00660692364045
0.7027421875,0.00884716796875,0.6905444335937501,0.9852798938579156,-0.25146484375,-1.09130859375,0.51171875,40.43588235294118,199.00660692364045
0.7027421875,0.01470654296875,0.7139819335937501,1.0019146999603543,-0.19384765625,-1.09912109375,0.38232421875,40.48294117647059,199.00660692364045
0.69590625,0.01128857421875,0.7227709960937501,1.0033996479425864,-0.16357421875,-0.626953125,0.28369140625,41.09470588235294,199.00660692364045
0.67686328125,0.00689404296875,0.7364428710937501,1.000269729481892,-0.14697265625,0.02587890625,0.14697265625,41.235882352941175,199.1224021270417
0.6753984375,0.00982373046875,0.7359545898437501,0.9989437989045462,-0.06201171875,1.0908203125,0.12890625,41.18882352941176,199.1224021270417
0.6773515625,0.0010346679687499,0.7335131835937501,0.9984226561255686,-0.0087890625,1.89599609375,0.13818359375,40.906470588235294,199.1224021270417
0.68174609375,0.0005463867187499,0.7222827148437501,0.993212140000256,-0.001953125,2.4580078125,0.0888671875,40.29470588235294,199.1224021270417
0.68028125,0.00689404296875,0.7081225585937501,0.9819713157314608,-0.0126953125,2.60546875,-0.076171875,41.235882352941175,199.0591116513349
0.68369921875,0.00396435546875,0.7047045898437501,0.9818701017856134,-0.025390625,2.31103515625,-0.15673828125,40.95352941176471,199.0591116513349
0.68955859375,-0.00140673828125,0.6939624023437501,0.9783030455813668,-0.05859375,1.6953125,-0.13720703125,41.09470588235294,199.0591116513349
0.68858203125,-0.00628955078125,0.6920092773437501,0.976248745012881,-0.06396484375,1.02294921875,-0.0966796875,41.18882352941176,199.0591116513349
0.6753984375,-0.01214892578125,0.7007983398437501,0.9733596246520788,-0.103515625,0.3642578125,-0.15380859375,41.235882352941175,199.0591116513349
0.6578203125,-0.01068408203125,0.7105639648437501,0.9683712414569724,-0.10205078125,-0.04296875,-0.30322265625,41.235882352941175,199.0684778870508
0.64366015625,-0.00726611328125,0.7257006835937501,0.970047769604377,-0.06298828125,-0.13232421875,-0.29248046875,41.18882352941176,199.0684778870508
0.64121875,-0.01117236328125,0.7325366210937501,0.9735996139565272,-0.1025390625,0.1669921875,-0.23828125,41.18882352941176,199.0684778870508
0.63584765625,-0.00873095703125,0.7408374023437501,0.9763291085903026,-0.12353515625,0.59521484375,-0.23046875,41.235882352941175,199.0684778870508
0.63682421875,-0.01214892578125,0.7398608398437501,0.9762616167393274,-0.1201171875,1.06640625,-0.3115234375,40.48294117647059,199.4086336531041
0.63291796875,-0.01361376953125,0.7452319335937501,0.9778246901849816,-0.1171875,1.412109375,-0.4814453125,40.53,199.4086336531041
0.63780078125,-0.02044970703125,0.7418139648437501,0.9785172382324078,-0.1513671875,1.5947265625,-0.494140625,40.34176470588236,199.4086336531041
0.6500078125,-0.01556689453125,0.7310717773437501,0.9783754024631506,-0.17333984375,1.552734375,-0.4482421875,41.65941176470589,199.4086336531041
0.66221484375,-0.01947314453125,0.7208178710937501,0.979023036464872,-0.20849609375,1.40966796875,-0.37060546875,40.48294117647059,199.4086336531041
0.658796875,-0.01507861328125,0.7183764648437501,0.97483610536831,-0.1962890625,1.169921875,-0.36474609375,41.09470588235294,199.10154169944488
0.65635546875,-0.01898486328125,0.7139819335937501,0.97001707608171,-0.20849609375,0.84912109375,-0.41650390625,40.95352941176471,199.10154169944488
0.643171875,-0.03656298828125,0.7305834960937501,0.9740426878056408,-0.25341796875,0.59912109375,-0.5029296875,40.34176470588236,199.10154169944488
0.63487109375,-0.02923876953125,0.7369311523437501,0.9731308928493176,-0.26806640625,0.48486328125,-0.4453125,40.48294117647059,199.10154169944488
