AccX,AccY,AccZ,Magnitude,GyroX,GyroY,GyroZ,Temperature,Altitude
-0.1683515625,0.01372998046875,1.0323413085937505,1.04606851515038,-0.36572265625,0.50244140625,-0.12353515625,43.82411764705883,174.97583264077636
-0.16346875,0.01080029296875,1.0215991210937505,1.0346513629113416,-0.3876953125,1.29296875,-0.16015625,43.82411764705883,174.97583264077636
-0.149796875,0.01910107421875,0.99816162109375,1.0095199733638651,-0.3447265625,1.6298828125,-0.056640625,43.96529411764706,174.97583264077636
-0.15223828125,0.02105419921875,0.99083740234375,1.0026856593499318,-0.36474609375,1.7587890625,0.07861328125,43.96529411764706,174.97583264077636
-0.1595625,0.02544873046875,0.96837646484375,0.9817641299986468,-0.400390625,1.443359375,-0.2412109375,44.01235294117648,174.97583264077636
-0.153703125,0.01519482421875,0.94493896484375,0.95747855359678,-0.380859375,1.00537109375,-0.74365234375,43.96529411764706,175.0398740984282
-0.18641796875,-0.01654345703125,0.96007568359375,0.9781465448854928,-0.46826171875,0.7412109375,-1.0283203125,43.96529411764706,175.0398740984282
-0.18690625,-0.02533251953125,0.96349365234375,0.9817819009034352,-0.40576171875,0.24365234375,-0.84033203125,44.71823529411765,175.0398740984282
-0.169328125,-0.03705126953125,0.97130615234375,0.9866511298684624,-0.31689453125,-0.17724609375,-0.16796875,43.40058823529412,175.0398740984282
-0.1624921875,-0.02679736328125,0.96788818359375,0.9817990352499696,-0.2734375,-0.43310546875,0.2666015625,44.71823529411765,174.71982511949082
-0.16102734375,-0.00628955078125,0.96691162109375,0.9802486658447204,-0.1259765625,-0.51123046875,0.220703125,44.059411764705885,174.71982511949082
-0.18837109375,5.810546874999989e-05,0.98839599609375,1.0061860252612205,-0.41552734375,-0.25048828125,-0.0830078125,43.30647058823529,174.71982511949082
-0.216203125,0.00249951171875,1.0030444335937505,1.0260839023111146,-0.3017578125,0.09228515625,-0.2568359375,43.777058823529416,174.71982511949082
-0.2249921875,-0.01898486328125,1.0240405273437505,1.04863764528664,-0.162109375,0.453125,-0.14453125,44.01235294117648,174.71982511949082
-0.23231640625,-0.03168017578125,1.0342944335937505,1.0605373739352435,-0.1708984375,1.15185546875,0.08740234375,44.01235294117648,174.6876874958111
-0.22596875,-0.02728564453125,1.0206225585937505,1.0456944053998287,-0.31689453125,2.025390625,0.2353515625,43.96529411764706,174.6876874958111
-0.23133984375,-0.01214892578125,0.99523193359375,1.0218377177167943,-0.2421875,2.66455078125,0.1845703125,43.30647058823529,174.6876874958111
-0.26503125,-0.00677783203125,0.97228271484375,1.0077803233183011,-0.25439453125,3.56005859375,0.08642578125,44.01235294117648,174.6876874958111
-0.27284375,-0.01019580078125,0.94005615234375,0.9789040994024744,-0.34375,4.51611328125,-0.07763671875,43.82411764705883,174.34611535765524
-0.27821484375,-0.01654345703125,0.90587646484375,0.9477812800489318,-0.35107421875,5.11572265625,-0.18212890625,43.82411764705883,174.34611535765524
-0.294328125,-0.02728564453125,0.8780444335937501,0.9264640192303588,-0.3837890625,5.41015625,-0.1494140625,44.01235294117648,174.34611535765524
-0.34657421875,-0.04144580078125,0.8331225585937501,0.9032854704590174,-0.43408203125,5.6552734375,-0.06494140625,44.15352941176471,174.34611535765524
-0.31971875,-0.03851611328125,0.7613452148437501,0.8266499296856756,-0.49755859375,5.8623046875,-0.14111328125,43.30647058823529,174.34611535765524
-0.28407421875,-0.01019580078125,0.6695483398437501,0.7273906072389962,-0.44189453125,5.78369140625,-0.35986328125,44.29470588235294,174.45297870797916
-0.2894453125,-0.00482470703125,0.6050952148437501,0.6707772251298967,-0.37060546875,5.271484375,-0.2939453125,43.87117647058824,174.45297870797916
-0.3158125,-0.02728564453125,0.5611499023437501,0.6444930212610033,-0.16455078125,4.49658203125,-0.01123046875,43.96529411764706,174.45297870797916
-0.360734375,-0.02875048828125,0.49523193359375,0.6133600475528671,-0.02734375,3.6953125,0.30908203125,44.76529411764706,174.45297870797916
-0.368546875,-0.00775439453125,0.48546630859375,0.6095608800492811,-0.048828125,2.388671875,0.29931640625,43.30647058823529,174.73043319577107
-0.36708203125,0.02691357421875,0.49034912109375,0.6131197425473,-0.1142578125,0.06005859375,-0.1162109375,43.96529411764706,174.73043319577107
-0.38221875,0.03423779296875,0.5069506835937501,0.6358163216803293,-0.17431640625,-2.6875,-0.5361328125,44.01235294117648,174.73043319577107
-0.37489453125,0.01470654296875,0.5279467773437501,0.6476804703516235,-0.28759765625,-5.25927734375,-0.642578125,43.82411764705883,174.73043319577107
-0.386125,-0.01361376953125,0.5909350585937501,0.7060326435945075,-0.43115234375,-7.39306640625,-0.41552734375,43.87117647058824,174.73043319577107
-0.403703125,-0.01556689453125,0.6436694335937501,0.7599532097984795,-0.52294921875,-9.01904296875,-0.1220703125,44.01235294117648,174.80500475374757
-0.4066328125,-0.01068408203125,0.7051928710937501,0.8141015779692096,-0.68798828125,-9.6142578125,0.4345703125,44.62411764705882,174.80500475374757
-0.3480390625,0.01812451171875,0.7300952148437501,0.8090109453454035,-0.72705078125,-9.25146484375,0.78076171875,43.96529411764706,174.80500475374757
-0.308,0.04742138671875,0.7213061523437501,0.7857450943704799,-0.7197265625,-7.88671875,0.876953125,44.76529411764706,174.80500475374757
-0.3705,0.05035107421875,0.7213061523437501,0.8124580272752109,-0.716796875,-5.8603515625,0.62109375,43.96529411764706,174.6342556717762
-0.50673046875,0.05328076171875,0.7164233398437501,0.8791342385562051,-0.86181640625,-3.40625,-0.48291015625,44.01235294117648,174.6342556717762
-0.52235546875,0.04009716796875,0.6895678710937501,0.8660062744904987,-1.0576171875,-1.8271484375,-1.39404296875,43.40058823529412,174.6342556717762
-0.32704296875,0.02740185546875,0.5665209960937501,0.6547167357773883,-0.85986328125,-1.28564453125,-0.76513671875,43.40058823529412,174.6342556717762
-0.02235546875,0.02789013671875,0.43859130859375,0.4400454097967627,-0.2255859375,-1.5009765625,1.80712890625,43.96529411764706,174.6342556717762
0.0601640625,-0.00824267578125,0.34825927734375,0.3535140455152096,0.20703125,-2.28466796875,4.04345703125,44.62411764705882,174.62364717964147
-0.23329296875,-0.08392626953125,0.25597412109375,0.3563593392284511,0.4658203125,-2.6806640625,4.1689453125,44.62411764705882,174.62364717964147
-0.3070234375,-0.13373095703125,0.18663818359375,0.3833812353493384,0.91455078125,-2.89306640625,3.93798828125,44.01235294117648,174.62364717964147
-0.2445234375,-0.20794970703125,0.19347412109375,0.374789311045817,0.90771484375,-4.06982421875,3.55322265625,44.01235294117648,174.62364717964147
-0.0531171875,-0.20599658203125,0.12657958984375,0.2475447837896805,0.50048828125,-5.3955078125,3.4482421875,44.71823529411765,174.4529000924957
0.17100390625,-0.15863330078125,0.04845458984375,0.2382324649296131,0.146484375,-6.3359375,4.0390625,43.82411764705883,174.4529000924957
0.287703125,-0.07318408203125,-0.0306469726562499,0.298443017895402,-0.345703125,-6.2900390625,4.68994140625,43.30647058823529,174.4529000924957
0.24326953125,0.03570263671875,-0.1224438476562499,0.2746766079085234,-0.71875,-5.30615234375,4.48828125,43.96529411764706,174.4529000924957
0.1812578125,0.13726513671875,-0.1883618164062499,0.2952563059962718,-0.88916015625,-3.9248046875,3.189453125,44.62411764705882,174.4529000924957
0.08018359375,0.20708935546875,-0.2166821289062499,0.3102685205470771,-1.10498046875,-3.6513671875,1.6748046875,44.76529411764706,174.47427280390096
0.35362109375,0.26910107421875,-0.2381665039062499,0.5041691677141287,-0.92138671875,-4.84326171875,0.62353515625,43.30647058823529,174.47427280390096
0.5855546875,0.33746044921875,-0.2030102539062499,0.705667775962048,-0.400390625,-7.935546875,0.0166015625,44.059411764705885,174.47427280390096
0.81553515625,0.36626904296875,-0.0892407226562499,0.8984511725726477,-0.04833984375,-13.20751953125,-0.06884765625,43.40058823529412,174.47427280390096
0.9781328125,0.34673779296875,0.09630615234375,1.042231150437012,-0.2666015625,16.0,-0.53466796875,44.059411764705885,174.3889392293477
1.08653125,0.27984326171875,0.28917724609375,1.1586569328383258,-1.29345703125,16.0,-1.47314453125,43.82411764705883,174.3889392293477
1.147078125,0.17193310546875,0.45665771484375,1.2465494318862609,-2.4013671875,16.0,-2.23291015625,44.059411764705885,174.3889392293477
1.1402421875,0.04302685546875,0.5684741210937501,1.2748201374310124,-2.9619140625,16.0,-2.64892578125,43.82411764705883,174.3889392293477
1.12022265625,-0.02533251953125,0.6622241210937501,1.3015687929110764,-2.19873046875,16.0,-2.6787109375,43.87117647058824,174.3889392293477
1.0738359375,-0.06000048828125,0.8067553710937501,1.344461939977888,-0.9150390625,16.0,-2.10595703125,43.87117647058824,174.41023320735763
1.1539140625,-0.03900439453125,0.98741943359375,1.5192222168815874,0.24169921875,16.0,-0.46533203125,43.87117647058824,174.41023320735763
1.2867265625,-0.06097705078125,1.1866381835937505,1.751426169191188,-0.03076171875,16.0,1.16943359375,44.01235294117648,174.41023320735763
1.377546875,-0.01996142578125,1.1158374023437505,1.772886617866674,-0.66552734375,16.0,1.95166015625,44.71823529411765,174.41023320735763
1.52744921875,-0.01507861328125,1.0640795898437505,1.8616105537841456,-1.50244140625,16.0,1.810546875,43.96529411764706,174.31413488835142
1.53721484375,0.04400341796875,1.0157397460937505,1.84301193930828,-1.369140625,16.0,0.5810546875,43.40058823529412,174.31413488835142
1.4683671875,-0.01068408203125,1.1109545898437505,1.8413137830447053,-0.55517578125,16.0,-1.41845703125,44.01235294117648,174.31413488835142
1.0230546875,-0.06146533203125,0.94298583984375,1.3927100110228463,-0.13671875,-6.61181640625,-2.96044921875,43.96529411764706,174.31413488835142
0.86045703125,-0.08929736328125,0.92443115234375,1.266070012732369,0.212890625,9.47021484375,-2.3173828125,43.87117647058824,174.31413488835142
0.76768359375,-0.09564501953125,0.8340991210937501,1.137632371938938,-0.05712890625,15.99951171875,-0.43701171875,43.87117647058824,174.3249791539365
0.72373828125,-0.06000048828125,0.7359545898437501,1.0339372885493463,-0.76904296875,15.99951171875,1.07470703125,44.57705882352941,174.3249791539365
0.811140625,-0.04437548828125,0.6915209960937501,1.0668268770161735,-1.994140625,15.99951171875,1.3408203125,43.30647058823529,174.3249791539365
1.05088671875,0.00982373046875,0.6890795898437501,1.2566980872368252,-3.255859375,15.99951171875,-0.12158203125,43.87117647058824,174.3249791539365
1.20420703125,0.06792919921875,0.5826342773437501,1.3394743936911646,-3.96875,15.99951171875,-2.7734375,43.96529411764706,174.09027711739694
1.46104296875,0.12554638671875,0.48107177734375,1.5433206104723094,-3.8623046875,15.99951171875,-5.30615234375,44.71823529411765,174.09027711739694
1.4839921875,0.06548779296875,0.33605224609375,1.5229749097387018,-4.00146484375,15.99951171875,-7.1591796875,44.01235294117648,174.09027711739694
1.3921953125,0.04009716796875,0.19200927734375,1.4059456367911798,-4.42529296875,8.86083984375,-8.490234375,43.96529411764706,174.09027711739694
1.30283984375,-0.05755908203125,0.12902099609375,1.3104774411716624,-4.60791015625,0.7626953125,-9.0576171875,43.87117647058824,174.09027711739694
1.2154375,-0.19427783203125,0.15538818359375,1.240635998198334,-4.9619140625,-8.03662109375,-8.79443359375,44.20058823529412,174.12217640135867
1.10166796875,-0.21478564453125,0.16564208984375,1.134567092945261,-5.4267578125,16.0,-7.0546875,43.87117647058824,174.12217640135867
0.9097734375,-0.25043017578125,0.11046630859375,0.9500556751352648,-5.19580078125,16.0,-4.10888671875,43.96529411764706,174.12217640135867
0.830671875,-0.20697314453125,0.05675537109375,0.857948027925444,-4.04345703125,16.0,-0.30810546875,43.96529411764706,174.12217640135867
0.701765625,-0.33050830078125,-0.0301586914062499,0.7762862075190357,-2.10009765625,16.0,2.1748046875,43.30647058823529,174.07943112924607
0.707625,-0.48041064453125,-0.0907055664062499,0.860090127708143,-0.09619140625,16.0,2.42626953125,43.30647058823529,174.07943112924607
0.81358203125,-0.64300830078125,-0.0701977539062499,1.0393763135168843,0.396484375,16.0,1.12158203125,44.71823529411765,174.07943112924607
1.092390625,-0.54779345703125,-0.1326977539062499,1.229228881472406,-0.06884765625,-13.4150390625,-0.2919921875,44.15352941176471,174.07943112924607
1.50694140625,-0.30804736328125,-0.0355297851562499,1.5385148506038242,-0.12939453125,-8.74365234375,0.482421875,43.96529411764706,174.07943112924607
1.9586015625,-0.06585986328125,0.10460693359375,1.9624984618528376,-0.4619140625,-8.7578125,2.869140625,44.01235294117648,174.03668607112604
1.822859375,-0.06744677734375,0.17968017578125,2.14732398811967,-0.7021484375,-13.02978515625,4.1650390625,43.96529411764706,174.03668607112604
1.6871171875,-0.06903369140625,0.25475341796875,2.035883527088161,-1.49365234375,16.0,3.02392578125,44.059411764705885,174.03668607112604
1.551375,-0.07062060546875,0.32982666015625,1.8144052600631555,-2.66455078125,16.0,0.43310546875,43.87117647058824,174.03668607112604
1.4156328125,-0.07220751953125,0.40489990234375,1.4741689579629245,-2.486328125,16.0,-0.83984375,43.30647058823529,174.0369253637558
0.9742265625,-0.27093798828125,0.5303881835937501,1.1418565644906258,-1.99267578125,16.0,-0.34423828125,44.01235294117648,174.0369253637558
0.60996875,-0.44085986328125,0.5875170898437501,0.954775170334563,-1.35791015625,16.0,0.07568359375,44.57705882352941,174.0369253637558
0.5591875,-0.41839892578125,0.6851733398437501,0.9783715178212176,0.12548828125,16.0,-1.27685546875,44.71823529411765,174.0369253637558
0.80772265625,-0.22015673828125,0.6148608398437501,1.038719755855041,-0.36376953125,16.0,-5.013671875,43.87117647058824,174.0369253637558
1.32237109375,0.61871044921875,0.21544677734375,1.4757659853194358,-2.59228515625,16.0,-8.2705078125,43.96529411764706,173.9515146152198
1.99131640625,1.51275341796875,-0.0980297851562499,2.502673325097451,-5.111328125,1.4375,-10.40673828125,43.87117647058824,173.9515146152198
2.71787890625,1.85455029296875,0.15099365234375,3.293785302844932,-11.0625,15.99951171875,-13.46435546875,43.82411764705883,173.9515146152198
3.6363359375,1.33355419921875,0.5406420898437501,3.910703226009177,16.0,15.99951171875,16.0,44.57705882352941,173.9515146152198
5.05869921875,0.24175732421875,1.0880053710937505,5.180023173415744,16.0,15.99951171875,16.0,44.01235294117648,174.49572442259324
5.71983203125,-1.20892626953125,1.5269702148437505,6.042319027318586,-13.6474609375,-1.94921875,16.0,43.447647058823534,174.49572442259324
3.80674609375,-2.22210986328125,0.15099365234375,4.410429361164376,-3.70654296875,-15.99072265625,4.56201171875,44.62411764705882,174.49572442259324
1.78330859375,-1.63812548828125,-0.8099438476562499,2.553361253770311,5.8154296875,15.62451171875,15.99951171875,43.82411764705883,174.49572442259324
-0.1390546875,-0.71625048828125,-0.1517407226562499,0.745235677481354,11.72509765625,15.99951171875,15.99951171875,44.43588235294118,174.49572442259324
-1.49012890625,0.23589794921875,0.20665771484375,1.5227735914415754,11.8095703125,15.99951171875,15.99951171875,44.059411764705885,173.8129963629583
-0.4066328125,1.05425732421875,0.31993896484375,1.1743805563342018,11.31884765625,15.99951171875,7.09228515625,43.82411764705883,173.8129963629583
0.97276171875,1.14703076171875,0.39122802734375,1.5540284100278965,6.92431640625,15.99951171875,-0.9091796875,43.30647058823529,173.8129963629583
1.738875,1.15240185546875,0.02355224609375,2.086209723495909,3.16015625,15.99951171875,-5.17919921875,43.87117647058824,173.8129963629583
2.30283984375,1.22955029296875,-0.4627758789062499,2.6512311824885275,3.1669921875,15.99951171875,-5.20458984375,43.87117647058824,174.17568839712658
2.412703125,1.15240185546875,-0.6532055664062499,2.7524250975924294,3.38818359375,15.99951171875,-0.50634765625,43.96529411764706,174.17568839712658
1.9185625,0.53423779296875,-0.2367016601562499,2.0055721781484444,0.48291015625,6.01025390625,0.99560546875,43.87117647058824,174.17568839712658
0.79698046875,0.09136669921875,-0.4451977539062499,0.9174566918270688,-3.00390625,-13.3876953125,-2.1865234375,44.62411764705882,174.17568839712658
0.28916796875,-0.12005908203125,-0.5921704101562499,0.6698493054365352,-2.849609375,16.0,-3.89306640625,43.82411764705883,174.17568839712658
0.4722734375,-0.16302783203125,-0.4583813476562499,0.6780366757514196,-0.2109375,16.0,-2.5322265625,44.059411764705885,174.0048661743777
0.748640625,-0.50238330078125,-0.1961743164062499,0.9226787787316416,2.2373046875,16.0,0.29443359375,43.96529411764706,174.0048661743777
0.900984375,-0.59320361328125,-0.0438305664062499,1.079622382759622,3.00732421875,-14.421875,4.2109375,43.96529411764706,174.0048661743777
0.94737109375,-0.48773486328125,0.11437255859375,1.0716708301956956,2.986328125,-5.13818359375,7.7919921875,44.57705882352941,174.0048661743777
0.88682421875,-0.15960986328125,0.18859130859375,0.9205971893805184,2.40283203125,4.455078125,10.27294921875,43.447647058823534,174.1543154814195
0.81846484375,0.23785107421875,0.15001708984375,0.8654264620445303,1.74169921875,13.5654296875,10.02294921875,44.57705882352941,174.1543154814195
0.92783984375,0.50005810546875,0.20177490234375,1.0731532955318404,1.73583984375,15.99951171875,7.27587890625,43.30647058823529,174.1543154814195
1.31553515625,0.66802685546875,0.32238037109375,1.510238964741581,2.044921875,15.99951171875,4.7607421875,43.40058823529412,174.1543154814195
1.68174609375,0.75103466796875,0.41124755859375,1.887179787615275,1.75244140625,12.0068359375,4.2275390625,44.43588235294118,174.1543154814195
1.6508216145833332,0.6356375325520833,0.40587646484375,2.090567231230722,1.23388671875,3.30126953125,4.1787109375,43.30647058823529,173.9089303825336
1.6198971354166667,0.5202403971354167,0.40050537109375,1.9560147416417653,1.07666015625,-4.0234375,1.634765625,43.30647058823529,173.9089303825336
1.58897265625,0.40484326171875,0.39513427734375,1.6866722461703176,1.76904296875,-8.49951171875,-1.22607421875,43.87117647058824,173.9089303825336
1.28721484375,0.05035107421875,0.5723803710937501,1.4096370362113568,1.93408203125,-9.81396484375,-2.32666015625,44.059411764705885,173.9089303825336
1.06260546875,-0.29632861328125,0.7398608398437501,1.3282827604094298,1.68994140625,-9.22412109375,-1.9111328125,43.68294117647059,173.86618475046274
0.7144609375,-0.48041064453125,0.7862475585937501,1.1659477012228905,1.10693359375,-5.76904296875,-0.38818359375,43.96529411764706,173.86618475046274
0.67881640625,-0.56048876953125,0.7642749023437501,1.16578535782423,0.56640625,-0.033203125,1.076171875,44.71823529411765,173.86618475046274
0.85996875,-0.41156298828125,0.7066577148437501,1.1867162551544264,0.921875,5.98046875,2.033203125,43.96529411764706,173.86618475046274
1.01621875,-0.22943408203125,0.7383959960937501,1.276937427165625,1.5302734375,10.7021484375,2.92822265625,44.059411764705885,173.86618475046274
1.068953125,-0.02630908203125,0.7447436523437501,1.3030717781269383,1.4990234375,13.5,3.07470703125,43.87117647058824,173.9301419037604
1.03135546875,0.16216748046875,0.6993334960937501,1.2566064353650357,1.224609375,15.3759765625,1.814453125,43.87117647058824,173.9301419037604
1.07725390625,0.27447216796875,0.6832202148437501,1.3048374655456094,1.29296875,15.25146484375,0.17431640625,43.40058823529412,173.9301419037604
1.051375,0.18072216796875,0.6353686523437501,1.241669528095716,1.1826171875,13.76025390625,-1.435546875,43.96529411764706,173.9301419037604
1.0523515625,0.04693310546875,0.6007006835937501,1.212636729921674,0.93994140625,11.5625,-1.9970703125,44.01235294117648,173.9940998447457
0.9966875,-0.08197314453125,0.5591967773437501,1.1457777292617564,0.60498046875,9.3828125,-0.99658203125,43.447647058823534,173.9940998447457
0.865828125,-0.10638720703125,0.5357592773437501,1.0237258339618196,0.31103515625,7.552734375,0.197265625,44.059411764705885,173.9940998447457
0.791609375,-0.07660205078125,0.5328295898437501,0.9572986203817714,0.1396484375,5.6484375,0.1611328125,43.87117647058824,173.9940998447457
0.77061328125,-0.00726611328125,0.5382006835937501,0.939977447315566,0.0283203125,4.13037109375,-0.27001953125,44.01235294117648,173.9940998447457
0.7769609375,0.04253857421875,0.5255053710937501,0.938953525871128,0.0712890625,3.77099609375,-0.4521484375,43.30647058823529,174.25009575495034
0.79991015625,0.02740185546875,0.5562670898437501,0.9747000538618352,0.1015625,3.9169921875,-0.92333984375,43.82411764705883,174.25009575495034
0.83116015625,0.01617138671875,0.5870288085937501,1.017689314675618,-0.025390625,4.13623046875,-1.181640625,43.87117647058824,174.25009575495034
0.76963671875,-0.03021533203125,0.6036303710937501,0.9785822755623586,-0.197265625,4.8525390625,-0.8857421875,44.01235294117648,174.25009575495034
0.72325,-0.05609423828125,0.6314624023437501,0.9617597889504912,-0.2724609375,5.6337890625,-0.40185546875,44.53,173.67431801660672
0.69639453125,-0.06097705078125,0.6924975585937501,0.9839900469695771,-0.3173828125,5.67236328125,0.13427734375,43.40058823529412,173.67431801660672
0.66319140625,-0.03753955078125,0.7300952148437501,0.9870517118846672,-0.275390625,4.953125,0.31689453125,43.30647058823529,173.67431801660672
0.6910234375,0.02300732421875,0.7579272460937501,1.025912490670271,-0.02587890625,3.90234375,0.36279296875,44.57705882352941,173.67431801660672
0.69737109375,0.00201123046875,0.8228686523437501,1.0786302918313062,0.23779296875,2.68017578125,0.3984375,43.82411764705883,173.67431801660672
0.69444140625,-0.00238330078125,0.8536303710937501,1.100426897749571,0.365234375,2.09619140625,0.33740234375,43.30647058823529,173.79162340344132
0.67491015625,-0.03705126953125,0.8682788085937501,1.1003565808574325,0.2470703125,2.2294921875,0.3515625,43.96529411764706,173.79162340344132
0.5855546875,-0.07220751953125,0.8482592773437501,1.0332628027417905,0.36279296875,3.68212890625,0.43603515625,43.68294117647059,173.79162340344132
0.54502734375,-0.06341845703125,0.8365405273437501,1.0004382839615669,0.35009765625,5.908203125,0.4638671875,44.57705882352941,173.79162340344132
0.525984375,-0.02337939453125,0.8150561523437501,0.9703209212967566,0.583984375,8.42041015625,0.787109375,44.01235294117648,173.89816322865002
0.48545703125,-0.01312548828125,0.8297045898437501,0.9613794849280228,0.4345703125,10.14453125,0.67529296875,43.96529411764706,173.89816322865002
0.50498828125,0.06011669921875,0.7838061523437501,0.934333594695546,0.2705078125,10.56884765625,0.35595703125,44.62411764705882,173.89816322865002
0.4898515625,0.06255810546875,0.7340014648437501,0.8846616416666326,0.22119140625,10.0634765625,0.001953125,43.30647058823529,173.89816322865002
0.47471484375,0.08599560546875,0.7042163085937501,0.8536217173467013,-0.00732421875,8.6767578125,0.0546875,43.30647058823529,173.89816322865002
0.4498125,0.13921826171875,0.6871264648437501,0.8329800647319896,-0.0693359375,6.29443359375,0.0791015625,43.30647058823529,173.85549837588044
0.41465625,0.17779248046875,0.7169116210937501,0.8470609448171731,-0.14013671875,2.857421875,-0.4873046875,44.059411764705885,173.85549837588044
0.3726640625,0.16997998046875,0.7178881835937501,0.8265198977536441,-0.16015625,-0.65185546875,-1.38037109375,43.96529411764706,173.85549837588044
0.3628984375,0.10015576171875,0.7173999023437501,0.8101784201200539,-0.0498046875,-2.65625,-2.18212890625,44.71823529411765,173.85549837588044
0.404890625,-0.00824267578125,0.7432788085937501,0.8464441784438416,-0.18603515625,-2.51953125,-2.009765625,44.059411764705885,173.98349344833798
0.4898515625,-0.08392626953125,0.8170092773437501,0.9562961524898446,-0.26953125,-2.3203125,-1.27685546875,43.96529411764706,173.98349344833798
0.45616015625,-0.12982470703125,0.8809741210937501,1.0005258341205787,-0.59423828125,-2.49560546875,-0.62255859375,43.87117647058824,173.98349344833798
0.36778125,-0.07464892578125,0.8682788085937501,0.9459088747997024,-0.78564453125,-1.50341796875,-0.07958984375,44.76529411764706,173.98349344833798
0.3414140625,-0.00921923828125,0.8726733398437501,0.9371271602623016,-0.7255859375,-0.37158203125,-0.2568359375,44.76529411764706,173.98349344833798
0.3785234375,0.01958935546875,0.8946459960937501,0.9716250274211116,-0.6220703125,0.4384765625,-0.71875,43.777058823529416,173.59934996881816
0.42686328125,-0.00238330078125,0.8892749023437501,0.9864217115111652,-0.53125,0.52685546875,-0.96484375,43.447647058823534,173.59934996881816
0.46787890625,-0.02972705078125,0.8853686523437501,1.0018343271294088,-0.36865234375,0.423828125,-0.7333984375,44.059411764705885,173.59934996881816
0.4498125,-0.02777392578125,0.8546069335937501,0.9661551050716776,-0.4453125,-0.083984375,-0.04736328125,43.777058823529416,173.95135473797043
0.4507890625,-0.02875048828125,0.8448413085937501,0.9580157650855434,-0.39794921875,-0.05126953125,-0.109375,44.71823529411765,173.95135473797043
0.45420703125,-0.01996142578125,0.8419116210937501,0.9568268722652312,-0.3837890625,-0.0693359375,-0.189453125,43.777058823529416,173.95135473797043
0.4625078125,-0.01800830078125,0.8297045898437501,0.9500776188966608,-0.32763671875,-0.06591796875,-0.23681640625,44.20058823529412,173.95135473797043
0.47764453125,-0.03900439453125,0.8340991210937501,0.9619703658819996,-0.267578125,-0.0576171875,-0.23779296875,43.30647058823529,173.95135473797043
0.4859453125,-0.05853564453125,0.8350756835937501,0.9679466233997516,-0.3642578125,-0.16455078125,-0.11865234375,44.01235294117648,173.95135473797043
0.47080859375,-0.07367236328125,0.8458178710937501,0.9708224452091436,-0.53369140625,-0.43994140625,0.365234375,44.059411764705885,173.89808293687514
0.4605546875,-0.05023486328125,0.8565600585937501,0.9738220040876244,-0.64892578125,-1.0009765625,0.37255859375,44.71823529411765,173.89808293687514
0.46104296875,-0.00433642578125,0.8419116210937501,0.9598930155778174,-0.58837890625,-1.85791015625,0.1689453125,43.96529411764706,173.89808293687514
0.46397265625,0.03081982421875,0.8409350585937501,0.9609330153994238,-0.568359375,-2.22314453125,0.05029296875,43.30647058823529,173.89808293687514
0.4654375,0.04888623046875,0.8521655273437501,0.9722180907228304,-0.6015625,-2.3046875,-0.2666015625,43.82411764705883,173.8127530112978
0.43662890625,0.03521435546875,0.8536303710937501,0.9594632161046114,-0.65576171875,-2.42333984375,-1.046875,44.62411764705882,173.8127530112978
0.4498125,0.00982373046875,0.8453295898437501,0.9576063420330796,-0.68994140625,-2.31005859375,-1.78515625,44.01235294117648,173.8127530112978
0.510359375,-0.02435595703125,0.8423999023437501,0.9852398184006056,-0.7177734375,-2.099609375,-1.6416015625,43.87117647058824,173.8127530112978
0.576765625,-0.01849658203125,0.8404467773437501,1.019485897536584,-0.744140625,-1.931640625,-0.9814453125,44.059411764705885,173.8127530112978
0.5992265625,0.03521435546875,0.8297045898437501,1.02407139909502,-0.740234375,-1.87841796875,-0.66796875,44.62411764705882,174.01555255747013
0.5699296875,0.08062451171875,0.8467944335937501,1.023904767714798,-0.83984375,-2.07666015625,-1.01513671875,44.01235294117648,174.01555255747013
0.54112109375,0.09820263671875,0.8521655273437501,1.014219839064866,-0.97119140625,-2.49755859375,-1.98291015625,43.30647058823529,174.01555255747013
0.561140625,0.10943310546875,0.8438647460937501,1.0192949108564189,-1.18505859375,-2.64306640625,-2.57861328125,44.01235294117648,174.01555255747013
0.60557421875,0.10943310546875,0.8350756835937501,1.0373269187275418,-1.19970703125,-2.8037109375,-2.68798828125,44.01235294117648,173.8129148117156
0.631453125,0.11578076171875,0.8282397460937501,1.0479118812504604,-1.32080078125,-2.728515625,-2.87451171875,43.87117647058824,173.8129148117156
0.61045703125,0.11724560546875,0.8150561523437501,1.025046755264215,-1.7353515625,-2.126953125,-3.21484375,44.76529411764706,173.8129148117156
0.5972734375,0.10015576171875,0.8179858398437501,1.017775795513636,-2.16845703125,-1.56201171875,-4.115234375,43.87117647058824,173.8129148117156
0.60996875,0.10064404296875,0.7891772460937501,1.002492805517213,-2.54150390625,-1.05126953125,-5.12451171875,43.30647058823529,173.8129148117156
0.650984375,0.09429638671875,0.7525561523437501,0.9995064919612988,-2.7041015625,-0.2763671875,-5.42626953125,43.96529411764706,174.09027711739694
0.6793046875,0.10455029296875,0.7193530273437501,0.9949142677477,-2.84716796875,0.72802734375,-5.5185546875,43.68294117647059,174.09027711739694
0.70225390625,0.16509716796875,0.6968920898437501,1.0030335032298148,-2.87890625,1.57568359375,-5.703125,44.62411764705882,174.09027711739694
0.68858203125,0.20367138671875,0.6763842773437501,0.9864699377913864,-3.33642578125,2.3408203125,-6.203125,43.82411764705883,174.09027711739694
0.71494921875,0.21490185546875,0.6910327148437501,1.0172813798843812,-3.6953125,2.0947265625,-7.09228515625,43.87117647058824,173.63157213156893
0.74131640625,0.22515576171875,0.6627124023437501,1.0195258012580113,-3.8232421875,0.82568359375,-7.58837890625,44.53,173.63157213156893
0.7339921875,0.18609326171875,0.6436694335937501,0.9938237132968086,-4.03515625,-0.1806640625,-7.65771484375,43.96529411764706,173.63157213156893
0.744734375,0.18365185546875,0.6553881835937501,1.0089058253960428,-4.20556640625,-1.09130859375,-7.4111328125,43.82411764705883,173.63157213156893
0.7515703125,0.18609326171875,0.6529467773437501,1.0128317386081755,-4.21337890625,-2.259765625,-7.10595703125,44.059411764705885,173.63157213156893
0.72715625,0.19732373046875,0.6592944335937501,1.0011803117759908,-4.2998046875,-2.9326171875,-7.27099609375,44.059411764705885,173.71689991545966
0.72715625,0.18999951171875,0.6651538085937501,1.0036361967636465,-4.3955078125,-3.13720703125,-7.78076171875,44.059411764705885,173.71689991545966
0.7769609375,0.16656201171875,0.6666186523437501,1.0372037552001407,-4.19677734375,-3.43603515625,-8.28125,44.71823529411765,173.71689991545966
0.815046875,0.10503857421875,0.6802905273437501,1.0668316231321655,-4.19091796875,-2.86572265625,-8.453125,44.01235294117648,173.71689991545966
0.8550859375,0.06158154296875,0.6690600585937501,1.0874767165094332,-4.2509765625,-1.978515625,-8.1806640625,44.62411764705882,173.82360125195862
0.8404375,0.02349560546875,0.6500170898437501,1.0627367745455745,-4.35595703125,-0.24462890625,-7.43505859375,44.62411764705882,173.82360125195862
0.787703125,-0.00921923828125,0.6636889648437501,1.0300700216706729,-4.33447265625,1.3125,-7.068359375,43.82411764705883,173.82360125195862
0.76280078125,-0.00091845703125,0.6661303710937501,1.0127169134227123,-4.431640625,2.18017578125,-6.76416015625,43.96529411764706,173.82360125195862
0.76475390625,0.03863232421875,0.6295092773437501,0.9912733850260615,-4.20751953125,2.45751953125,-6.32080078125,44.01235294117648,173.82360125195862
0.78184375,0.04986279296875,0.6075366210937501,0.9913963352296185,-3.94580078125,2.50341796875,-6.072265625,43.30647058823529,173.8023098765147
0.82920703125,0.04058544921875,0.5938647460937501,1.020738368053107,-3.6689453125,1.9345703125,-6.263671875,44.01235294117648,173.8023098765147
0.86924609375,0.01128857421875,0.5836108398437501,1.0470519642265388,-3.49951171875,1.05712890625,-6.14306640625,44.76529411764706,173.8023098765147
0.87510546875,-0.03851611328125,0.5826342773437501,1.052024606914841,-3.0791015625,0.09716796875,-5.3740234375,44.71823529411765,173.8023098765147
0.85459765625,-0.08636767578125,0.6002124023437501,1.047879505198524,-3.00244140625,-0.75048828125,-3.7177734375,43.82411764705883,174.10104410362138
0.77647265625,-0.08978564453125,0.5987475585937501,0.984616619192363,-2.70654296875,-1.99365234375,-2.427734375,44.76529411764706,174.10104410362138
0.729109375,-0.06097705078125,0.5948413085937501,0.942950085552992,-2.31591796875,-2.92578125,-1.50390625,44.01235294117648,174.10104410362138
0.66709765625,-0.04632861328125,0.6124194335937501,0.906765232034233,-2.107421875,-3.2900390625,-1.07861328125,43.96529411764706,174.10104410362138
0.70371875,-0.03460986328125,0.6915209960937501,0.987228043451158,-1.78125,-4.63623046875,-1.23876953125,43.54176470588236,174.10104410362138
0.76182421875,0.00201123046875,0.6968920898437501,1.032491535175391,-1.4638671875,-6.59375,-1.48876953125,43.30647058823529,174.02656384892595
0.830671875,0.01763623046875,0.7393725585937501,1.1122043791240128,-1.15869140625,-7.98828125,-1.3349609375,43.30647058823529,174.02656384892595
0.8726640625,0.09039013671875,0.7173999023437501,1.13330294391123,-1.3095703125,-8.08740234375,-0.71484375,44.01235294117648,174.02656384892595
0.863875,0.13824169921875,0.7144702148437501,1.1295390524133115,-1.48681640625,-6.76220703125,-0.27001953125,43.87117647058824,174.02656384892595
0.8179765625,0.20025341796875,0.7564624023437501,1.1319993172997769,-1.40966796875,-5.5390625,-0.7861328125,44.01235294117648,173.79170526955343
0.76182421875,0.26470654296875,0.7891772460937501,1.1283822135768669,-1.52294921875,-4.59375,-1.62451171875,44.15352941176471,173.79170526955343
0.64170703125,0.23052685546875,0.7852709960937501,1.0399909049381484,-1.89990234375,-2.7333984375,-2.42041015625,44.57705882352941,173.79170526955343
0.61924609375,0.18609326171875,0.8048022460937501,1.032377393204298,-2.1826171875,-0.29052734375,-2.94873046875,43.96529411764706,173.79170526955343
0.64561328125,0.17535107421875,0.7618334960937501,1.0138810501861089,-2.12841796875,1.3935546875,-2.8291015625,43.87117647058824,173.79170526955343
0.6910234375,0.14751904296875,0.7598803710937501,1.0376383944256822,-1.830078125,2.78759765625,-2.818359375,43.96529411764706,174.13310365410393
0.7545,0.19585888671875,0.7374194335937501,1.0730416462320722,-1.8349609375,3.10693359375,-2.90771484375,43.54176470588236,174.13310365410393
0.73545703125,0.27789013671875,0.6666186523437501,1.030776600701251,-1.23779296875,3.3955078125,-3.1787109375,43.54176470588236,174.13310365410393
0.76280078125,0.31255810546875,0.7271655273437501,1.0992394212940777,-0.7392578125,2.38720703125,-3.806640625,43.30647058823529,174.13310365410393
0.76377734375,0.36529248046875,0.7847827148437501,1.1544168816464633,-0.96435546875,0.63232421875,-4.28955078125,43.96529411764706,173.9303846173884
0.71787890625,0.43951123046875,0.7530444335937501,1.1294229343843618,-1.3173828125,-0.88037109375,-4.82568359375,44.01235294117648,173.9303846173884
0.686140625,0.48345654296875,0.7227709960937501,1.107662899536243,-1.216796875,-1.94189453125,-5.96484375,43.87117647058824,173.9303846173884
0.6656328125,0.44195263671875,0.7593920898437501,1.1023001044618357,-1.13525390625,-2.43359375,-7.1005859375,43.30647058823529,173.9303846173884
0.67100390625,0.33453076171875,0.7803881835937501,1.082202748948476,-1.345703125,-2.31201171875,-7.970703125,44.01235294117648,173.9303846173884
0.721296875,0.23638623046875,0.7906420898437501,1.0960212343164173,-1.2109375,-2.109375,-8.435546875,43.777058823529416,173.73835480913036
0.838484375,0.18658154296875,0.8443530273437501,1.2044919070215023,-0.71728515625,-2.2216796875,-8.11181640625,43.30647058823529,173.73835480913036
0.8707109375,0.15386669921875,0.8814624023437501,1.248514503142121,-0.47119140625,-2.1923828125,-7.4560546875,44.71823529411765,173.73835480913036
0.787703125,0.14654248046875,0.8756030273437501,1.1868578572054194,-0.3037109375,-0.91162109375,-7.01416015625,44.01235294117648,173.73835480913036
0.615828125,0.10845654296875,0.8594897460937501,1.0628874469547784,-0.10986328125,1.6728515625,-7.31298828125,43.54176470588236,174.058298223547
0.4937578125,0.04888623046875,0.8423999023437501,0.9776626393613436,0.07080078125,4.79150390625,-7.83154296875,43.96529411764706,174.058298223547
0.47715625,-0.03509814453125,0.8423999023437501,0.9687866442784804,0.3466796875,7.63134765625,-7.9599609375,44.76529411764706,174.058298223547
0.56651171875,-0.12298876953125,0.8497241210937501,1.0286364016893608,0.373046875,9.46875,-7.03857421875,44.62411764705882,174.058298223547
0.7007890625,-0.16400439453125,0.8624194335937501,1.1232853737965949,0.32470703125,8.99658203125,-4.91259765625,44.01235294117648,174.058298223547
0.64951953125,-0.18695361328125,0.8023608398437501,1.049099705609006,0.24462890625,7.43505859375,-2.6708984375,43.96529411764706,173.58890849668074
0.54112109375,-0.12738330078125,0.7613452148437501,0.9427009491798544,0.076171875,5.59912109375,-1.15478515625,44.059411764705885,173.58890849668074
0.41709765625,-0.13959033203125,0.7281420898437501,0.8506743317203485,0.2880859375,3.2578125,-0.61083984375,43.30647058823529,173.58890849668074
0.32871875,0.03570263671875,0.6876147460937501,0.7629840980753176,0.580078125,1.67138671875,-0.85986328125,44.15352941176471,173.58890849668074
0.34385546875,0.01910107421875,0.6592944335937501,0.7438216080440901,0.8291015625,0.98779296875,-1.0986328125,44.01235294117648,173.5464107989242
0.442,-0.01556689453125,0.6514819335937501,0.787423036241891,1.08837890625,0.4140625,-0.4794921875,43.96529411764706,173.5464107989242
0.541609375,-0.01800830078125,0.6456225585937501,0.842907766099031,1.44677734375,0.1953125,1.05810546875,43.96529411764706,173.5464107989242
0.5796953125,0.04937451171875,0.6710131835937501,0.8881121496176918,1.70751953125,-0.09130859375,2.61669921875,43.87117647058824,173.5464107989242
0.5425859375,0.15191357421875,0.5806811523437501,0.8091154641285352,1.9375,-0.3564453125,3.4052734375,43.87117647058824,173.5464107989242
0.447859375,0.20806591796875,0.7452319335937501,0.8940022823480087,1.8916015625,-0.49072265625,3.3134765625,43.96529411764706,173.66354950608255
0.37998828125,0.23443310546875,0.7657397460937501,0.8864013388836752,1.81103515625,-0.17236328125,2.9873046875,44.01235294117648,173.66354950608255
0.38682421875,0.26519482421875,0.7759936523437501,0.9067124238046782,1.89599609375,0.42626953125,3.11474609375,44.71823529411765,173.66354950608255
0.4488359375,0.27886669921875,0.7667163085937501,0.9311682085360792,2.01123046875,1.0673828125,3.41845703125,44.57705882352941,173.66354950608255
0.52842578125,0.27105419921875,0.7545092773437501,0.9602022884796612,2.078125,1.71435546875,3.55810546875,44.57705882352941,174.15447675463798
0.56455859375,0.26324169921875,0.7506030273437501,0.975411452999274,2.025390625,2.32421875,3.68701171875,44.01235294117648,174.15447675463798
0.55186328125,0.26031201171875,0.7315600585937501,0.9526256053491162,2.0087890625,2.8798828125,3.92578125,44.43588235294118,174.15447675463798
0.4918046875,0.23150341796875,0.7169116210937501,0.8996821414463305,2.00341796875,3.5263671875,4.32861328125,44.01235294117648,174.15447675463798
0.41612109375,0.18804638671875,0.7247241210937501,0.8565881506983286,1.9541015625,3.54541015625,4.5732421875,43.96529411764706,174.15447675463798
0.38194140625,0.17437451171875,0.6832202148437501,0.8019199274968294,1.8232421875,3.375,4.8330078125,44.01235294117648,173.98357378271754
0.4039140625,0.19634716796875,0.6461108398437501,0.7868659337003976,1.86474609375,3.38232421875,5.333984375,43.96529411764706,173.98357378271754
0.4410234375,0.17144482421875,0.6207202148437501,0.7805053396943455,1.79248046875,3.076171875,5.45947265625,43.96529411764706,173.98357378271754
0.47178515625,0.11578076171875,0.6070483398437501,0.7774921898958624,1.55419921875,2.51806640625,5.10888671875,43.30647058823529,173.98357378271754
0.50108203125,0.05669873046875,0.5767749023437501,0.7661378701330697,1.20751953125,2.27392578125,5.025390625,44.01235294117648,173.57830446337516
0.52647265625,-0.04779345703125,0.5709155273437501,0.7780759678052784,1.06640625,1.89697265625,5.80078125,44.01235294117648,173.57830446337516
0.565046875,-0.14056689453125,0.5982592773437501,0.8348360232484527,0.8876953125,0.78515625,7.08056640625,43.30647058823529,173.57830446337516
0.61778125,-0.13714892578125,0.6241381835937501,0.888826176996503,0.96923828125,-1.2216796875,8.8076171875,44.01235294117648,173.57830446337516
0.62119921875,-0.08832080078125,0.6666186523437501,0.9154613377302446,1.322265625,-3.57275390625,10.80224609375,43.96529411764706,173.57830446337516
0.5972734375,0.03374951171875,0.6939624023437501,0.916219626809549,1.779296875,-5.48779296875,12.56298828125,44.01235294117648,173.64234091681735
0.50889453125,0.15484326171875,0.6812670898437501,0.8643349624653806,2.392578125,-6.244140625,13.02880859375,43.82411764705883,173.64234091681735
0.42686328125,0.22124951171875,0.6900561523437501,0.8410357309310721,3.2861328125,-5.6767578125,12.35986328125,43.30647058823529,173.64234091681735
0.40928515625,0.26617138671875,0.6944506835937501,0.8488953399437389,3.951171875,-4.34423828125,11.8330078125,43.87117647058824,173.64234091681735
0.400984375,0.23687451171875,0.6890795898437501,0.8317022811291115,4.07275390625,-2.0380859375,11.58642578125,44.71823529411765,174.03708706234735
0.457625,0.18902294921875,0.6641772460937501,0.8284212275074994,3.76708984375,0.595703125,11.32275390625,43.30647058823529,174.03708706234735
0.557234375,0.13921826171875,0.6348803710937501,0.8561337270997847,3.30419921875,2.8984375,11.67041015625,43.68294117647059,174.03708706234735
0.58408984375,0.13042919921875,0.6090014648437501,0.8538474721884332,2.92724609375,3.9599609375,12.861328125,43.87117647058824,174.03708706234735
0.9078203125,0.17583935546875,0.5914233398437501,1.097651477305615,3.08740234375,2.52001953125,13.51611328125,44.20058823529412,174.03708706234735
1.18076953125,0.21099560546875,0.6387866210937501,1.3589643772902362,3.8330078125,-2.4052734375,11.42578125,44.01235294117648,174.05813802277052
1.55528125,0.36578076171875,0.6773608398437501,1.7353711532692198,5.46875,-11.17041015625,8.8486328125,44.01235294117648,174.05813802277052
1.78526171875,0.44146435546875,0.7134936523437501,1.9725930582658115,7.7314453125,16.0,7.42236328125,43.82411764705883,174.05813802277052
1.6115556640625,0.46868603515625,0.7663500976562501,2.148100845762831,8.64892578125,16.0,5.935546875,44.76529411764706,174.05813802277052
1.437849609375,0.4959077148437499,0.8192065429687501,2.105548981055048,6.27783203125,16.0,2.61669921875,43.30647058823529,173.91953597901983
1.2641435546875,0.52312939453125,0.8720629882812501,1.9924574403298991,3.53955078125,-10.9833984375,-1.1826171875,43.82411764705883,173.91953597901983
1.0904375,0.55035107421875,0.92491943359375,1.532127998875866,1.85009765625,1.1328125,-1.09716796875,44.57705882352941,173.91953597901983
0.4371171875,0.44097607421875,1.0670092773437505,1.2345202029853228,-0.0966796875,14.42529296875,1.70947265625,44.76529411764706,173.91953597901983
-0.24208203125,0.43902294921875,1.0665209960937505,1.178478635743415,-0.9775390625,15.99951171875,1.84130859375,44.01235294117648,173.91953597901983
-0.0472578125,0.40777294921875,0.8907397460937501,0.980779982579172,-0.91796875,15.99951171875,-1.6240234375,43.30647058823529,173.716981798533
0.5308671875,0.27691357421875,0.7291186523437501,0.943459118110758,-0.1728515625,15.99951171875,-4.423828125,44.01235294117648,173.716981798533
1.1060625,0.04107373046875,0.6163256835937501,1.2668538406217873,0.79443359375,15.99951171875,-4.0400390625,43.96529411764706,173.716981798533
1.3257890625,-0.28363330078125,0.5455249023437501,1.4614246154468091,1.701171875,9.3681640625,-1.82666015625,44.01235294117648,173.716981798533
1.28184375,-0.60394580078125,0.47667724609375,1.4950234535414118,2.41796875,-0.29150390625,1.28125,43.30647058823529,173.81307834823664
1.145125,-0.38568408203125,0.47325927734375,1.2977048278977836,2.87744140625,-8.3046875,4.1279296875,43.87117647058824,173.81307834823664
0.92393359375,-0.11810595703125,0.5323413085937501,1.0728418203916938,2.62548828125,-13.32275390625,4.72021484375,44.76529411764706,173.81307834823664
0.67393359375,0.10747998046875,0.5909350585937501,0.9027417562412584,2.26708984375,-15.60302734375,2.763671875,43.87117647058824,173.81307834823664
0.59287890625,0.19244091796875,0.6568530273437501,0.9055356447514922,2.13037109375,-15.32763671875,0.72265625,43.82411764705883,173.81307834823664
0.5699296875,0.12017529296875,0.7125170898437501,0.920294818551848,1.88232421875,-12.4638671875,-0.9306640625,44.01235294117648,174.02648197412665
0.64121875,0.0015229492187499,0.7227709960937501,0.9662099758956316,1.609375,-7.13671875,-1.58447265625,43.82411764705883,174.02648197412665
0.76377734375,-0.08880908203125,0.7237475585937501,1.0559608953211537,1.49755859375,-1.12451171875,-0.89404296875,43.40058823529412,174.02648197412665
0.8375078125,-0.16693408203125,0.7090991210937501,1.110003552822278,1.42529296875,5.0390625,0.21875,44.71823529411765,174.02648197412665
0.81553515625,-0.26361376953125,0.6895678710937501,1.1000425716357316,1.03271484375,10.87255859375,0.75048828125,43.30647058823529,173.78101875026962
0.81553515625,-0.32611376953125,0.6221850585937501,1.0763651930896414,0.5107421875,15.30615234375,0.43212890625,43.30647058823529,173.78101875026962
0.88487109375,-0.33392626953125,0.5362475585937501,1.08722814999205,0.12548828125,15.99951171875,0.431640625,44.01235294117648,173.78101875026962
0.9722734375,-0.27386767578125,0.48351318359375,1.1198679117712294,0.220703125,15.99951171875,2.060546875,43.87117647058824,173.78101875026962
0.94541796875,-0.18646533203125,0.40734130859375,1.0461889874070405,0.72314453125,15.521484375,3.67041015625,44.62411764705882,173.78101875026962
0.93760546875,-0.02191455078125,0.38976318359375,1.0156276886000035,1.12890625,9.853515625,4.435546875,44.15352941176471,173.64234091681735
0.91416796875,0.16070263671875,0.32238037109375,0.9825769772406656,2.03125,3.6767578125,4.89453125,43.82411764705883,173.64234091681735
0.77744921875,0.22124951171875,0.32384521484375,0.8707780184111018,2.23095703125,0.10888671875,4.39892578125,44.01235294117648,173.64234091681735
0.576765625,0.22710888671875,0.36876708984375,0.7212670789382384,1.7880859375,-1.31298828125,3.56103515625,43.40058823529412,173.64234091681735
0.4468828125,0.21490185546875,0.42491943359375,0.6530264777460827,1.3349609375,-1.1748046875,2.71435546875,43.30647058823529,173.78093694373817
0.56260546875,0.17925732421875,0.5176928710937501,0.7852795747596925,1.087890625,-1.92529296875,1.375,43.82411764705883,173.78093694373817
0.7457109375,0.05328076171875,0.6177905273437501,0.9698395627897058,1.07666015625,-4.06005859375,0.05908203125,43.96529411764706,173.78093694373817
0.91123828125,-0.07025439453125,0.6954272460937501,1.1484380435077652,0.89794921875,-5.6083984375,-0.32080078125,44.01235294117648,173.78093694373817
1.06065234375,-0.14300830078125,0.7476733398437501,1.305545936192142,0.7431640625,-6.09423828125,0.47412109375,43.96529411764706,173.78093694373817
1.1070390625,-0.14154345703125,0.7711108398437501,1.3565330675858107,0.8681640625,-4.892578125,2.16259765625,44.15352941176471,173.8129963629583
1.00840625,-0.12689501953125,0.8209155273437501,1.3064791670956588,0.95361328125,-2.39306640625,3.35498046875,44.01235294117648,173.8129963629583
0.89073046875,-0.10296923828125,0.8897631835937501,1.2632030536975047,0.9892578125,-0.09716796875,2.79296875,43.87117647058824,173.8129963629583
0.8023515625,-0.09173876953125,0.95177490234375,1.248222534812104,0.99169921875,1.55029296875,1.73828125,43.82411764705883,173.8129963629583
0.693953125,-0.12054736328125,0.95226318359375,1.184444079439562,0.81982421875,3.640625,1.44384765625,44.01235294117648,173.6424236848986
0.65049609375,-0.16009814453125,0.90489990234375,1.1258865027737417,0.83447265625,6.5234375,1.54296875,44.57705882352941,173.6424236848986
0.6734453125,-0.15814501953125,0.8419116210937501,1.0896575672492108,0.7294921875,9.560546875,1.7109375,44.01235294117648,173.6424236848986
0.6871171875,-0.12787158203125,0.7603686523437501,1.0327834518020391,0.5576171875,12.48681640625,2.337890625,43.96529411764706,173.6424236848986
0.67881640625,-0.08197314453125,0.6856616210937501,0.9683197656040156,0.361328125,14.1611328125,2.93212890625,44.76529411764706,173.6424236848986
0.6480546875,-0.03070361328125,0.6241381835937501,0.9002588861427322,0.3974609375,13.640625,2.755859375,43.30647058823529,173.51435113160215
0.62022265625,-0.03168017578125,0.5479663085937501,0.8282190846733716,0.55517578125,11.26953125,2.25830078125,43.87117647058824,173.51435113160215
0.60069140625,-0.07318408203125,0.49816162109375,0.7838055091259006,0.5,8.0556640625,2.25830078125,44.01235294117648,173.51435113160215
0.588484375,-0.10150439453125,0.49230224609375,0.773937015032391,0.62744140625,4.4365234375,2.77685546875,43.30647058823529,173.51435113160215
0.60996875,-0.09320361328125,0.5093920898437501,0.8001431688770618,0.70703125,0.34814453125,2.8642578125,44.01235294117648,173.9837357535738
0.6382890625,-0.07562548828125,0.5748217773437501,0.8622947393400554,0.783203125,-3.5283203125,2.8984375,44.57705882352941,173.9837357535738
0.666609375,-0.05316455078125,0.6563647460937501,0.9370214555773926,1.01708984375,-6.912109375,2.5390625,44.01235294117648,173.9837357535738
0.66612109375,-0.09222705078125,0.7120288085937501,0.979391731995905,1.49560546875,-8.12109375,2.08544921875,44.01235294117648,173.9837357535738
0.72764453125,-0.13861376953125,0.7896655273437501,1.0827058631210869,1.69970703125,-6.91748046875,2.39013671875,43.87117647058824,173.9837357535738
0.7847734375,-0.17035205078125,0.8399584960937501,1.1620754900483092,1.4951171875,-4.2138671875,3.1357421875,44.76529411764706,173.86659399620746
0.7808671875,-0.09955126953125,0.8638842773437501,1.168742941977053,1.21728515625,-0.4052734375,4.3828125,43.96529411764706,173.86659399620746
0.678328125,-0.00433642578125,0.8946459960937501,1.1227374172446334,0.99658203125,2.76513671875,4.85595703125,44.76529411764706,173.86659399620746
0.61241015625,0.13824169921875,0.8956225585937501,1.0937535071226294,0.85791015625,4.84521484375,3.80712890625,43.87117647058824,173.86659399620746
0.58653125,0.18023388671875,0.8887866210937501,1.080020749330102,0.6826171875,5.95263671875,2.88671875,43.82411764705883,173.9412352435728
0.62705859375,0.18072216796875,0.8380053710937501,1.062128044998825,0.4814453125,6.869140625,2.423828125,44.71823529411765,173.9412352435728
0.68565234375,0.13775341796875,0.7916186523437501,1.0562931559896032,0.65625,7.310546875,2.31494140625,44.71823529411765,173.9412352435728
0.69932421875,0.08013623046875,0.7662280273437501,1.0404718007957414,0.921875,7.18896484375,2.3076171875,43.82411764705883,173.9412352435728
0.66807421875,0.03814404296875,0.7305834960937501,0.9907221479996252,1.060546875,6.9365234375,2.79443359375,43.87117647058824,173.9412352435728
0.6295,0.01617138671875,0.7276538085937501,0.9622950841137022,0.97412109375,6.34521484375,3.11962890625,43.87117647058824,173.85582466609998
0.611921875,0.04546826171875,0.7227709960937501,0.9481105719912588,0.96484375,5.40380859375,3.03466796875,44.01235294117648,173.85582466609998
0.6226640625,0.05962841796875,0.7242358398437501,0.956965848226906,0.92822265625,4.306640625,3.2724609375,43.30647058823529,173.85582466609998
0.61924609375,0.09331982421875,0.7369311523437501,0.9670790234058122,1.03857421875,3.0419921875,3.4755859375,43.40058823529412,173.85582466609998
0.56358203125,0.09380810546875,0.7711108398437501,0.9597065144741104,1.10888671875,1.75927734375,3.01025390625,44.01235294117648,173.97313080877072
0.53916796875,0.12115185546875,0.8043139648437501,0.975859018840424,1.10205078125,0.93212890625,2.6689453125,44.57705882352941,173.97313080877072
0.50596484375,0.05767529296875,0.8384936523437501,0.981019096425118,0.931640625,0.39697265625,2.1494140625,43.777058823529416,173.97313080877072
0.553328125,0.02154248046875,0.8663256835937501,1.028181055279147,0.73388671875,0.3447265625,1.8759765625,44.20058823529412,173.97313080877072
0.592390625,0.01275341796875,0.8756030273437501,1.0572464063553568,0.447265625,0.48583984375,2.02978515625,43.30647058823529,173.97313080877072
0.59873828125,0.03277294921875,0.8609545898437501,1.0491922614124252,0.1630859375,0.98291015625,1.68212890625,44.388823529411766,173.79178756969137
0.57823046875,0.05328076171875,0.8511889648437501,1.0303940840435517,0.2177734375,1.529296875,1.4150390625,44.01235294117648,173.79178756969137
0.572859375,0.08648388671875,0.8682788085937501,1.0438177118828529,0.25,1.9462890625,1.4326171875,43.82411764705883,173.79178756969137
0.567,0.11919873046875,0.8546069335937501,1.0324971420260076,0.14697265625,2.3330078125,1.1728515625,44.01235294117648,173.79178756969137
0.55576953125,0.12798779296875,0.8360522460937501,1.0120494084842204,0.0625,2.47314453125,0.51220703125,44.15352941176471,174.09060170618827
0.5230546875,0.10064404296875,0.8194506835937501,0.9773509361243188,0.0771484375,2.29541015625,-0.23291015625,43.87117647058824,174.09060170618827
0.51084765625,0.06158154296875,0.7974780273437501,0.9490673413549796,0.19970703125,2.24853515625,-0.62060546875,43.96529411764706,174.09060170618827
0.52256640625,0.01519482421875,0.7984545898437501,0.954377422022666,0.3642578125,2.10107421875,-0.53564453125,44.01235294117648,174.09060170618827
0.5425859375,-0.00287158203125,0.7891772460937501,0.957710014204838,0.42626953125,1.7451171875,-0.21240234375,44.62411764705882,174.09060170618827
0.5386796875,-0.00628955078125,0.8013842773437501,0.965625250367808,0.35546875,1.48681640625,0.06201171875,44.01235294117648,174.0586238335081
0.5093828125,0.00347607421875,0.8204272460937501,0.9657037842399496,0.24560546875,1.08349609375,0.20556640625,43.96529411764706,174.0586238335081
0.4654375,0.00884716796875,0.8375170898437501,0.9581989431050638,-0.12158203125,0.52294921875,0.279296875,43.96529411764706,174.0586238335081
0.442,0.02398388671875,0.8492358398437501,0.9576746516940172,-0.23291015625,-0.216796875,0.10546875,44.059411764705885,174.0586238335081
0.44590625,0.03326123046875,0.8482592773437501,0.958896498502888,-0.19775390625,-0.626953125,-0.3173828125,44.62411764705882,173.9945861147935
0.46006640625,0.01080029296875,0.8463061523437501,0.9633337157926548,-0.02685546875,-0.36181640625,-0.51318359375,43.777058823529416,173.9945861147935
0.4937578125,-0.00238330078125,0.8653491210937501,0.9963089675924456,0.20849609375,0.1416015625,-0.26611328125,44.01235294117648,173.9945861147935
0.506453125,0.02203076171875,0.8648608398437501,1.0024791242611542,0.28271484375,0.92041015625,0.2607421875,44.01235294117648,173.9945861147935
0.4683671875,0.07720654296875,0.8521655273437501,0.9754561797420206,0.203125,2.12646484375,0.59765625,43.87117647058824,173.9945861147935
0.4410234375,0.12456982421875,0.8614428710937501,0.9757577228433552,0.0693359375,3.14501953125,0.37255859375,44.01235294117648,173.58915720926248
0.4214921875,0.16070263671875,0.8658374023437501,0.976296783191088,-0.109375,3.14306640625,-0.54052734375,43.87117647058824,173.58915720926248
0.400984375,0.13628857421875,0.8531420898437501,0.9524780679468068,-0.20458984375,2.92333984375,-1.0634765625,43.87117647058824,173.58915720926248
0.41465625,0.09039013671875,0.8487475585937501,0.9489376168636946,-0.23388671875,2.7333984375,-1.19287109375,43.96529411764706,173.58915720926248
0.459578125,0.04742138671875,0.8658374023437501,0.9813945425740952,-0.2666015625,1.8935546875,-1.1435546875,44.01235294117648,173.70662694749876
0.46299609375,0.01177685546875,0.8604663085937501,0.9771930952362716,-0.3759765625,1.34814453125,-1.05322265625,43.87117647058824,173.70662694749876
0.4498125,0.01421826171875,0.8716967773437501,0.9810141261745584,-0.37890625,0.9677734375,-0.83740234375,44.01235294117648,173.70662694749876
0.44151171875,0.06206982421875,0.8775561523437501,0.9843221329364148,-0.4521484375,0.77978515625,-0.78515625,44.059411764705885,173.70662694749876
0.4351640625,0.10552685546875,0.9000170898437501,1.0052534210473691,-0.51611328125,0.64990234375,-0.87451171875,44.059411764705885,173.70662694749876
0.4175859375,0.10845654296875,0.90587646484375,1.0033708220136244,-0.626953125,0.4609375,-1.35205078125,43.30647058823529,173.9200275592479
0.40733203125,0.08160107421875,0.91075927734375,1.0010297599290516,-0.74462890625,0.46875,-1.8173828125,43.96529411764706,173.9200275592479
0.408796875,0.01714794921875,0.8995288085937501,0.9882110172742792,-0.87841796875,0.7373046875,-1.84130859375,44.01235294117648,173.9200275592479
0.44151171875,-0.01068408203125,0.8882983398437501,0.9920285721548509,-0.9287109375,1.02294921875,-1.509765625,43.96529411764706,173.9200275592479
0.43272265625,-0.01996142578125,0.8604663085937501,0.9633533225023052,-0.8447265625,1.2919921875,-1.11328125,44.01235294117648,173.5465783007565
0.40928515625,-0.00189501953125,0.8336108398437501,0.9286683813561292,-0.75390625,1.43994140625,-0.9150390625,44.01235294117648,173.5465783007565
0.37998828125,0.02105419921875,0.8257983398437501,0.9092729355263828,-0.65625,1.27978515625,-1.044921875,44.01235294117648,173.5465783007565
0.38340625,0.02691357421875,0.8243334960937501,0.9095330702060456,-0.59912109375,0.54150390625,-1.330078125,44.059411764705885,173.5465783007565
0.412703125,0.02300732421875,0.8292163085937501,0.9265273297589864,-0.67919921875,-0.6884765625,-1.57861328125,43.30647058823529,173.5465783007565
0.4468828125,0.01226513671875,0.8301928710937501,0.942907675704002,-0.818359375,-1.9150390625,-1.5625,43.40058823529412,173.88780214259728
0.46787890625,-0.01605517578125,0.8399584960937501,0.961612559580592,-0.888671875,-2.859375,-1.390625,43.777058823529416,173.88780214259728
0.48496875,-0.02093798828125,0.8409350585937501,0.9709813904508686,-0.86767578125,-3.453125,-1.26171875,43.96529411764706,173.88780214259728
0.48741015625,-0.00873095703125,0.8497241210937501,0.9796305283089524,-0.77490234375,-3.38037109375,-0.92919921875,44.059411764705885,173.88780214259728
0.4898515625,0.01665966796875,0.8765795898437501,1.0043026810434978,-0.69287109375,-3.0927734375,-0.76708984375,44.71823529411765,173.89832511428213
0.49033984375,0.03228466796875,0.90245849609375,1.0275732574013494,-0.615234375,-2.9072265625,-1.0166015625,43.96529411764706,173.89832511428213
0.50059375,0.01665966796875,0.93761474609375,1.063011316575858,-0.5908203125,-2.75634765625,-1.283203125,43.82411764705883,173.89832511428213
0.50401171875,-0.03119189453125,0.93370849609375,1.061514155628379,-0.61669921875,-2.37744140625,-1.4150390625,44.57705882352941,173.89832511428213
0.52354296875,-0.04095751953125,0.91320068359375,1.053427855645468,-0.5380859375,-1.3984375,-1.41162109375,44.62411764705882,173.89832511428213
0.53623828125,-0.05511767578125,0.90929443359375,1.0570741787717923,-0.4599609375,-0.24560546875,-0.8251953125,43.82411764705883,173.72791672925354
0.549421875,-0.03558642578125,0.91857177734375,1.0709364596281403,-0.49853515625,0.8564453125,-0.16650390625,43.82411764705883,173.72791672925354
0.520125,0.02203076171875,0.90489990234375,1.0439632193466573,-0.4951171875,1.41162109375,-0.09326171875,44.57705882352941,173.72791672925354
0.4761796875,0.06597607421875,0.8897631835937501,1.011325101060881,-0.5009765625,1.77099609375,-0.3740234375,44.01235294117648,173.72791672925354
0.44541796875,0.06841748046875,0.8712084960937501,0.9808579724837848,-0.529296875,1.994140625,-0.828125,43.447647058823534,174.09060170618827
0.442,0.04937451171875,0.8575366210937501,0.9660077116277856,-0.48046875,1.93408203125,-1.3525390625,43.82411764705883,174.09060170618827
0.47373828125,0.01665966796875,0.8370288085937501,0.9619369678281452,-0.31298828125,1.841796875,-1.5751953125,44.15352941176471,174.09060170618827
0.5113359375,-0.01263720703125,0.8292163085937501,0.9742811844731478,-0.10888671875,1.83642578125,-1.2734375,43.96529411764706,174.09060170618827
0.51084765625,-0.00873095703125,0.8204272460937501,0.9665104363843022,0.001953125,2.0224609375,-0.890625,44.62411764705882,174.09060170618827
0.49326953125,0.02935498046875,0.8292163085937501,0.9652855700650252,0.09130859375,2.07958984375,-0.90380859375,44.62411764705882,173.8985711979608
0.48545703125,0.07476513671875,0.8355639648437501,0.9692396474577608,-0.0390625,1.80029296875,-1.23291015625,43.96529411764706,173.8985711979608
0.49424609375,0.12408154296875,0.8184741210937501,0.9641448632818754,-0.34326171875,1.5986328125,-1.7119140625,43.30647058823529,173.8985711979608
0.520125,0.15289013671875,0.8077319335937501,0.972798173352508,-0.630859375,1.3525390625,-1.86328125,44.57705882352941,173.8985711979608
0.52647265625,0.13482373046875,0.8140795898437501,0.97881381001527,-0.62841796875,0.7197265625,-2.34033203125,44.01235294117648,174.11189313979614
0.522078125,0.07037060546875,0.8360522460937501,0.988180625653002,-0.4453125,-0.44873046875,-2.87158203125,44.71823529411765,174.11189313979614
0.51621875,-0.01263720703125,0.8555834960937501,0.999332084765178,-0.39501953125,-1.01806640625,-2.94482421875,43.96529411764706,174.11189313979614
0.5591875,-0.04730517578125,0.8541186523437501,1.0219819529196437,-0.37060546875,-0.83154296875,-2.45947265625,43.96529411764706,174.11189313979614
0.59776171875,-0.04974658203125,0.8697436523437501,1.0565262967001776,-0.4150390625,-0.27587890625,-1.9921875,43.777058823529416,174.11189313979614
0.5836015625,-0.00970751953125,0.8824389648437501,1.0580092373710166,-0.49169921875,0.48681640625,-1.4541015625,43.82411764705883,173.79178756969137
0.53428515625,0.02691357421875,0.8726733398437501,1.0235935359020008,-0.5732421875,1.5107421875,-1.28271484375,44.01235294117648,173.79178756969137
0.49424609375,0.04156201171875,0.8731616210937501,1.0042000889047504,-0.79541015625,2.6376953125,-1.43017578125,43.82411764705883,173.79178756969137
0.49229296875,0.04644482421875,0.8765795898437501,1.006429960855715,-0.98828125,3.1669921875,-1.72021484375,44.71823529411765,173.79178756969137
0.52403125,0.03912060546875,0.8604663085937501,1.008236798065692,-1.0068359375,2.93798828125,-1.80078125,44.76529411764706,173.98389946055792
0.5621171875,0.02056591796875,0.8311694335937501,1.0036141274440904,-0.85791015625,2.42041015625,-1.60400390625,44.01235294117648,173.98389946055792
0.57627734375,-0.00775439453125,0.8248217773437501,1.00622396708417,-0.63671875,1.6728515625,-1.3505859375,43.40058823529412,173.98389946055792
0.56846484375,-0.03216845703125,0.8257983398437501,1.0030603103982216,-0.4619140625,0.82958984375,-1.119140625,43.30647058823529,173.98389946055792
0.52940234375,-0.03607470703125,0.8306811523437501,0.9856974195535484,-0.34326171875,0.43505859375,-0.890625,43.68294117647059,173.98389946055792
0.4898515625,-0.02923876953125,0.8482592773437501,0.9799761530400288,-0.349609375,0.50537109375,-0.67822265625,43.87117647058824,173.77033224436587
0.47080859375,-0.02484423828125,0.8697436523437501,0.9893088440506704,-0.4384765625,0.58447265625,-0.6748046875,44.01235294117648,173.77033224436587
0.4800859375,-0.02093798828125,0.8746264648437501,0.9979440664403968,-0.4970703125,0.4853515625,-0.62646484375,43.777058823529416,173.77033224436587
0.49424609375,-0.01166064453125,0.8785327148437501,1.0080847696839526,-0.55126953125,0.40185546875,-0.6015625,44.059411764705885,173.77033224436587
0.498640625,-0.00433642578125,0.8751147460937501,1.007217501992333,-0.46923828125,0.4931640625,-0.30126953125,44.15352941176471,173.91969810297948
0.4742265625,0.00445263671875,0.8902514648437501,1.0086913944367517,-0.39306640625,0.6533203125,-0.19140625,43.40058823529412,173.91969810297948
0.45030078125,0.00445263671875,0.8922045898437501,0.9994096505969732,-0.29833984375,0.9326171875,-0.1982421875,44.01235294117648,173.91969810297948
0.46299609375,-0.00531298828125,0.8878100585937501,1.0012993113013078,-0.2099609375,1.41796875,-0.14306640625,43.96529411764706,173.91969810297948
0.47276171875,-0.01166064453125,0.90148193359375,1.01799277499512,-0.22412109375,2.013671875,0.07373046875,43.96529411764706,173.91969810297948
0.46690234375,-0.00970751953125,0.91320068359375,1.025683929410413,-0.34375,2.42626953125,0.10498046875,43.82411764705883,173.61036401394625
0.46299609375,-0.00775439453125,0.91710693359375,1.02738047533912,-0.4384765625,2.6005859375,-0.00732421875,43.96529411764706,173.61036401394625
0.50694140625,-0.02875048828125,0.92247802734375,1.0529871275942333,-0.4931640625,2.4970703125,-0.27978515625,44.059411764705885,173.61036401394625
0.56260546875,-0.04242236328125,0.91466552734375,1.074680230247488,-0.42626953125,2.0458984375,0.1123046875,43.82411764705883,173.61036401394625
0.59092578125,-0.04681689453125,0.90538818359375,1.0821796817306557,-0.31005859375,2.0029296875,0.65771484375,43.87117647058824,173.82376490763608
0.53526171875,-0.02435595703125,0.8770678710937501,1.0277871232444171,-0.23681640625,2.37646484375,0.75390625,44.71823529411765,173.82376490763608
0.459578125,-0.00677783203125,0.8526538085937501,0.9686467412297358,-0.1171875,3.80419921875,0.654296875,43.87117647058824,173.82376490763608
0.42295703125,0.01763623046875,0.8423999023437501,0.9427837940788544,-0.15576171875,4.63720703125,0.64013671875,43.30647058823529,173.82376490763608
0.4273515625,0.05230419921875,0.8336108398437501,0.938228180951792,-0.083984375,4.6865234375,0.681640625,43.30647058823529,173.82376490763608
0.43858203125,0.04839794921875,0.8453295898437501,0.9535610494820768,-0.0546875,3.29248046875,0.73291015625,43.30647058823529,173.84513806657512
0.4390703125,0.04302685546875,0.8453295898437501,0.9535282717758184,-0.09130859375,1.22216796875,0.48681640625,44.059411764705885,173.84513806657512
0.447859375,0.01568310546875,0.8477709960937501,0.9589262961199488,-0.05908203125,-0.5107421875,0.2998046875,43.40058823529412,173.84513806657512
0.457625,-0.01459033203125,0.8804858398437501,0.9924156551461368,-0.02099609375,-1.86474609375,0.61767578125,43.82411764705883,173.84513806657512
0.43028125,-0.00189501953125,0.90782958984375,1.004639293177635,0.07421875,-2.00732421875,1.18505859375,44.71823529411765,173.84505590255972
0.38682421875,0.03960888671875,0.93907958984375,1.0164016510119178,0.12451171875,-1.486328125,1.2900390625,44.76529411764706,173.84505590255972
0.34678515625,0.06255810546875,0.95909912109375,1.0217849995170118,0.06640625,-0.36669921875,0.78466796875,43.82411764705883,173.84505590255972
0.33213671875,0.05523388671875,0.96739990234375,1.0243183847021264,0.00244140625,1.18896484375,0.380859375,43.40058823529412,173.84505590255972
0.369734375,0.02886669921875,0.95323974609375,1.0228405584025808,-0.01904296875,2.4365234375,0.25,44.57705882352941,173.84505590255972
0.420515625,0.01665966796875,0.92589599609375,1.0170517838283393,0.0498046875,3.04638671875,0.40966796875,43.87117647058824,173.79170526955343
0.4332109375,0.01617138671875,0.91613037109375,1.0135226129487238,0.1806640625,2.92626953125,0.70849609375,43.30647058823529,173.79170526955343
0.39268359375,0.02007763671875,0.8970874023437501,0.9794740036062634,0.2490234375,2.423828125,0.8408203125,44.01235294117648,173.79170526955343
0.36826953125,0.05035107421875,0.8790209960937501,0.9543770690328458,0.00146484375,1.77001953125,0.67529296875,44.62411764705882,173.79170526955343
0.36631640625,0.06158154296875,0.8824389648437501,0.9574332992939176,-0.05078125,1.01220703125,0.47412109375,44.01235294117648,173.69577367132783
0.35557421875,0.06255810546875,0.8790209960937501,0.9502759878967586,-0.0517578125,0.37939453125,0.234375,44.059411764705885,173.69577367132783
0.37119921875,0.04253857421875,0.8756030273437501,0.95198689685873,-0.0048828125,0.26513671875,0.025390625,43.30647058823529,173.69577367132783
0.4293046875,0.02544873046875,0.8799975585937501,0.9794620236246552,-0.00341796875,0.369140625,0.00146484375,44.01235294117648,173.69577367132783
0.440046875,0.01568310546875,0.8692553710937501,0.9744188586894974,-0.029296875,0.95947265625,0.31689453125,43.96529411764706,173.69577367132783
0.4136796875,0.01470654296875,0.8697436523437501,0.9632243700449212,-0.048828125,1.52490234375,0.564453125,43.82411764705883,173.73852011567706
0.37217578125,0.02691357421875,0.8702319335937501,0.9468594250851564,0.00048828125,1.5888671875,0.35986328125,43.96529411764706,173.73852011567706
0.358015625,0.02496044921875,0.8902514648437501,0.959867637971916,0.080078125,1.0830078125,0.1982421875,43.30647058823529,173.73852011567706
0.377546875,0.01372998046875,0.90831787109375,0.9837537853214188,0.05859375,0.1083984375,0.26611328125,43.96529411764706,173.73852011567706
0.40440234375,0.02398388671875,0.91906005859375,1.004384325721473,0.01904296875,-0.68701171875,0.224609375,44.01235294117648,173.6104470373015
0.400984375,0.01910107421875,0.93224365234375,1.0150032252981591,-0.005859375,-0.67578125,0.30517578125,43.96529411764706,173.6104470373015
0.393171875,0.01665966796875,0.93614990234375,1.0154990435672786,0.0341796875,-0.0498046875,0.30810546875,43.82411764705883,173.6104470373015
0.39756640625,0.03863232421875,0.93907958984375,1.020500847581318,0.13720703125,0.9345703125,0.2587890625,43.82411764705883,173.6104470373015
0.39268359375,0.04205029296875,0.95714599609375,1.0354212136987873,0.2216796875,1.71337890625,0.2265625,43.87117647058824,173.6104470373015
0.38194140625,0.05621044921875,0.95616943359375,1.0311638270171204,0.22216796875,2.2099609375,0.18359375,43.87117647058824,173.7598934181026
0.3843828125,0.05474560546875,0.93810302734375,1.0152755871068009,0.138671875,2.5458984375,0.09423828125,43.87117647058824,173.7598934181026
0.4029375,0.06060498046875,0.92491943359375,1.0106965673253523,0.09765625,2.4375,0.1572265625,43.96529411764706,173.7598934181026
0.41465625,0.07427685546875,0.91368896484375,1.006123442426242,0.037109375,1.95068359375,0.19189453125,43.30647058823529,173.7598934181026
0.40342578125,0.09185498046875,0.9000170898437501,0.9905657274633016,0.0146484375,1.439453125,0.09765625,44.62411764705882,173.717230051898
0.39658984375,0.09380810546875,0.90148193359375,0.989319534535335,-0.0400390625,0.98779296875,-0.06884765625,43.82411764705883,173.717230051898
0.38780078125,0.08697216796875,0.90929443359375,0.9923557683128936,-0.10986328125,0.384765625,-0.30078125,43.30647058823529,173.717230051898
0.37559375,0.06255810546875,0.90782958984375,0.9844484475048824,-0.12109375,0.189453125,-0.296875,44.76529411764706,173.717230051898
0.363875,0.04742138671875,0.91906005859375,0.9896086068975332,-0.10888671875,0.2099609375,-0.28076171875,43.777058823529416,173.717230051898
0.36778125,0.04009716796875,0.92736083984375,0.9984332516529996,-0.0986328125,0.39404296875,-0.4765625,43.82411764705883,174.0799972234452
0.37608203125,0.04449169921875,0.92052490234375,0.9953809830228164,-0.12939453125,0.81982421875,-0.44287109375,43.82411764705883,174.0799972234452
0.400984375,0.05474560546875,0.8951342773437501,0.982370054912098,-0.1572265625,1.5908203125,-0.1826171875,43.30647058823529,174.0799972234452
0.35557421875,0.03863232421875,0.8819506835937501,0.9517155508899172,-0.33740234375,2.1943359375,-0.29833984375,43.82411764705883,174.0799972234452
0.301375,-0.00677783203125,0.8497241210937501,0.9016118408719962,-0.296875,2.546875,-0.86962890625,43.40058823529412,173.7707474894874
0.31846484375,-0.06585986328125,0.8453295898437501,0.9057259484863728,-0.27978515625,2.09228515625,-1.14794921875,44.01235294117648,173.7707474894874
0.3921953125,-0.11761767578125,0.8370288085937501,0.9318091581536578,-0.029296875,1.15966796875,-0.62353515625,44.62411764705882,173.7707474894874
0.4586015625,-0.13617236328125,0.8463061523437501,0.9721586337341888,0.20556640625,-0.32958984375,0.66015625,44.62411764705882,173.7707474894874
0.44932421875,-0.09857470703125,0.8663256835937501,0.9808819584821472,0.42626953125,-1.67138671875,1.30078125,44.01235294117648,173.7707474894874
0.41514453125,-0.14007861328125,0.91466552734375,1.0141893445686565,0.49560546875,-2.5693359375,1.38916015625,43.30647058823529,173.98389946055792
0.37510546875,0.05718701171875,0.94738037109375,1.0205410498991254,0.396484375,-2.4794921875,1.271484375,43.87117647058824,173.98389946055792
0.34776171875,0.11431591796875,0.97667724609375,1.043026742306382,0.29638671875,-1.67919921875,1.03173828125,44.62411764705882,173.98389946055792
0.3218828125,0.14165966796875,1.0054858398437505,1.06521255185912,0.21630859375,-0.54345703125,0.6669921875,44.62411764705882,173.98389946055792
0.20225390625,0.12798779296875,1.0132983398437505,1.0411825215938346,0.14599609375,0.50439453125,0.07763671875,43.82411764705883,174.06931052178416
0.37022265625,0.06597607421875,1.0064624023437505,1.074422740312991,0.134765625,1.6259765625,-0.09521484375,43.40058823529412,174.06931052178416
0.4214921875,0.02154248046875,0.98302490234375,1.0697932983601182,0.06396484375,2.5771484375,0.16015625,43.777058823529416,174.06931052178416
0.43076953125,0.00640576171875,0.95226318359375,1.0451835215236829,-0.107421875,3.220703125,0.31640625,44.71823529411765,174.06931052178416
0.43028125,0.01128857421875,0.92784912109375,1.0228261717046054,-0.2998046875,3.48095703125,0.11572265625,44.71823529411765,174.06931052178416
0.442,0.03326123046875,0.8975756835937501,1.001055651415586,-0.35791015625,3.158203125,-0.095703125,43.96529411764706,173.96260857758412
0.4605546875,0.03912060546875,0.8741381835937501,0.9888167706744484,-0.3134765625,2.40283203125,-0.24951171875,43.87117647058824,173.96260857758412
0.471296875,0.03521435546875,0.8590014648437501,0.980430676702618,-0.1875,1.56005859375,-0.09033203125,43.87117647058824,173.96260857758412
0.46934375,0.02251904296875,0.8736499023437501,0.9919953703649704,-0.11083984375,0.712890625,-0.16552734375,43.87117647058824,173.96260857758412
0.46592578125,0.01812451171875,0.8951342773437501,1.0092971346606427,-0.14111328125,-0.01123046875,-0.08740234375,44.53,173.81324362086588
0.45713671875,0.01861279296875,0.90880615234375,1.0174718857194365,-0.14404296875,-0.40283203125,0.04931640625,43.87117647058824,173.81324362086588
0.4341875,0.01080029296875,0.93175537109375,1.0280094858737991,-0.1953125,-0.31982421875,0.25830078125,44.01235294117648,173.81324362086588
0.408796875,0.01568310546875,0.93370849609375,1.019398057916809,-0.1943359375,0.2255859375,0.31201171875,43.87117647058824,173.81324362086588
0.40049609375,0.01763623046875,0.92247802734375,1.005819998143889,-0.138671875,1.22998046875,0.27099609375,43.96529411764706,173.81324362086588
0.38389453125,0.00640576171875,0.91906005859375,0.9960358609052196,-0.0966796875,2.24853515625,0.39306640625,43.30647058823529,173.9946686789123
0.3795,0.02984326171875,0.90197021484375,0.9790102853061832,-0.0322265625,2.99462890625,0.5478515625,43.87117647058824,173.9946686789123
0.3765703125,0.04156201171875,0.8902514648437501,0.9675124142515692,-0.07275390625,3.24462890625,0.54443359375,44.01235294117648,173.9946686789123
0.354109375,0.05035107421875,0.8614428710937501,0.9327446061468896,-0.1796875,3.05712890625,0.34375,44.57705882352941,173.9946686789123
0.35752734375,0.04302685546875,0.8482592773437501,0.9215318298464792,-0.20703125,2.275390625,0.0849609375,43.96529411764706,173.7707474894874
0.3804765625,0.03179638671875,0.8414233398437501,0.9239949467686476,-0.189453125,0.9775390625,0.03564453125,44.71823529411765,173.7707474894874
0.3863359375,0.02349560546875,0.8292163085937501,0.9150995500590045,-0.10205078125,-0.27734375,0.17431640625,44.01235294117648,173.7707474894874
0.3921953125,0.01031201171875,0.8531420898437501,0.9390287142551188,-0.009765625,-1.31298828125,0.3408203125,43.777058823529416,173.7707474894874
0.3716875,0.01812451171875,0.8878100585937501,0.9626457270052836,0.1083984375,-2.07421875,0.49755859375,44.62411764705882,173.7707474894874
0.36045703125,0.03619091796875,0.92784912109375,0.9960637757871876,0.09130859375,-2.35302734375,0.4765625,43.40058823529412,174.22936473252466
0.358015625,0.04986279296875,0.97032958984375,1.0354713896545502,0.1220703125,-2.2509765625,0.3505859375,44.01235294117648,174.22936473252466
0.3609453125,0.05425732421875,0.98156005859375,1.047227541880783,-0.1015625,-1.66357421875,0.08056640625,43.82411764705883,174.22936473252466
0.393171875,0.05230419921875,0.97960693359375,1.0568583617930456,-0.11279296875,-0.66796875,0.13623046875,44.57705882352941,174.22936473252466
0.4078203125,0.04937451171875,0.98497802734375,1.0672098969017518,-0.08935546875,0.6611328125,0.19677734375,44.059411764705885,174.06931052178416
0.395125,0.03570263671875,0.99279052734375,1.0691265009703728,-0.0537109375,1.77587890625,0.2724609375,43.87117647058824,174.06931052178416
0.3707109375,0.02886669921875,0.95812255859375,1.0277444832214613,-0.14453125,2.6728515625,0.03662109375,43.40058823529412,174.06931052178416
0.3795,0.02203076171875,0.93614990234375,1.0103871753541418,-0.19482421875,3.20849609375,-0.0966796875,44.62411764705882,174.06931052178416
0.40244921875,0.02251904296875,0.91173583984375,0.9968624391681644,-0.14501953125,3.01806640625,-0.01708984375,43.30647058823529,174.06931052178416
0.43467578125,0.03130810546875,0.8931811523437501,0.9938288601039162,0.015625,2.296875,0.42333984375,43.777058823529416,173.78135031664866
0.46494921875,0.04058544921875,0.8985522460937501,1.0125320210564437,-0.07177734375,1.3720703125,0.84130859375,44.62411764705882,173.78135031664866
0.35948046875,0.04937451171875,0.8756030273437501,0.9478104828043022,-0.14794921875,0.404296875,0.498046875,43.96529411764706,173.78135031664866
0.3082109375,0.05035107421875,0.90441162109375,0.9568122036424056,-0.20556640625,-0.0751953125,-0.24560546875,43.96529411764706,173.78135031664866
0.330671875,0.04497998046875,0.8931811523437501,0.9534881532882796,-0.30078125,-0.19873046875,-0.45654296875,43.82411764705883,173.50383162776546
0.42246875,0.02496044921875,0.8990405273437501,0.993668324220055,-0.21923828125,-0.1083984375,-0.0283203125,43.87117647058824,173.50383162776546
0.40733203125,0.00591748046875,0.90148193359375,0.9892543034292424,-0.24853515625,0.05322265625,0.3330078125,43.96529411764706,173.50383162776546
0.36778125,0.00494091796875,0.90831787109375,0.9799636806893502,-0.1875,0.31689453125,0.19384765625,43.87117647058824,173.50383162776546
0.35215625,0.00249951171875,0.91124755859375,0.9769300819485316,-0.2421875,0.5322265625,-0.1357421875,44.43588235294118,173.50383162776546
0.3589921875,-0.01068408203125,0.90197021484375,0.9708448942854704,-0.248046875,0.69384765625,-0.166015625,43.40058823529412,173.8985711979608
0.381453125,-0.00628955078125,0.8902514648437501,0.9685523814836956,-0.23974609375,0.62939453125,-0.033203125,43.87117647058824,173.8985711979608
0.381453125,0.00396435546875,0.8848803710937501,0.9636054554814232,-0.1259765625,0.46630859375,0.0634765625,43.447647058823534,173.8985711979608
0.36924609375,0.00787060546875,0.8795092773437501,0.9539083777354112,-0.12548828125,0.24853515625,0.05322265625,43.87117647058824,173.8985711979608
0.36631640625,0.01568310546875,0.8804858398437501,0.9537761705192748,-0.10009765625,0.07080078125,0.0244140625,43.96529411764706,174.13343093232348
0.36778125,0.01812451171875,0.8946459960937501,0.9674621460828242,-0.10888671875,-0.29248046875,-0.125,44.059411764705885,174.13343093232348
0.36241015625,0.01714794921875,0.91222412109375,0.9817270601449382,-0.09130859375,-0.73876953125,0.08447265625,44.01235294117648,174.13343093232348
0.37119921875,0.01861279296875,0.93712646484375,1.0081375437772628,-0.10546875,-1.21923828125,0.04931640625,43.87117647058824,174.13343093232348
0.381453125,0.02203076171875,0.94591552734375,1.0201705866688071,-0.2138671875,-1.38818359375,-0.033203125,43.96529411764706,174.13343093232348
0.37608203125,0.02349560546875,0.94200927734375,1.0145793297259529,-0.2138671875,-0.93505859375,-0.04931640625,44.57705882352941,173.91986196305714
0.373640625,0.03033154296875,0.95421630859375,1.0252102626951891,-0.193359375,-0.17138671875,0.00537109375,43.87117647058824,173.91986196305714
0.358015625,0.03033154296875,0.96251708984375,1.0273920081859151,-0.13818359375,0.57080078125,-0.04248046875,43.96529411764706,173.91986196305714
0.3589921875,0.04790966796875,0.95714599609375,1.0233763651800876,-0.11328125,1.3330078125,-0.212890625,44.01235294117648,173.91986196305714
0.37217578125,0.04693310546875,0.94005615234375,1.0121378849234548,-0.14404296875,2.2333984375,-0.12548828125,43.96529411764706,173.93063123728805
0.37119921875,0.03863232421875,0.91515380859375,0.9883257610013002,-0.13037109375,2.77587890625,-0.1025390625,44.01235294117648,173.93063123728805
0.381453125,0.03130810546875,0.90734130859375,0.984761359071794,-0.17578125,2.65185546875,-0.08154296875,43.96529411764706,173.93063123728805
0.36338671875,0.04546826171875,0.8936694335937501,0.965796213870913,-0.2470703125,2.0791015625,-0.18017578125,43.40058823529412,173.93063123728805
0.365828125,0.04839794921875,0.8804858398437501,0.954687327188829,-0.2998046875,1.07666015625,-0.30859375,43.87117647058824,173.93063123728805
0.37022265625,0.04986279296875,0.8887866210937501,0.9641020543275984,-0.24365234375,0.07177734375,-0.326171875,44.57705882352941,173.93063123728805
0.381453125,0.03960888671875,0.8902514648437501,0.9693415399825838,-0.15380859375,-0.62646484375,-0.3076171875,43.30647058823529,173.93063123728805
0.37998828125,0.03228466796875,0.9000170898437501,0.9774784681434135,-0.162109375,-1.001953125,-0.310546875,43.40058823529412,173.93063123728805
0.369734375,5.810546874999989e-05,0.92296630859375,0.994268735419182,-0.14013671875,-0.6826171875,-0.2939453125,43.30647058823529,173.93063123728805
0.37901171875,-0.01605517578125,0.94103271484375,1.0146182641887511,-0.14306640625,-0.3203125,-0.21484375,43.777058823529416,174.12274416380146
0.3726640625,-0.01166064453125,0.94298583984375,1.0140201024909272,-0.1376953125,0.3203125,-0.1005859375,43.96529411764706,174.12274416380146
0.3824296875,-0.00140673828125,0.92638427734375,1.0022186757906888,-0.22607421875,0.970703125,0.1025390625,43.96529411764706,174.12274416380146
0.38584765625,0.01031201171875,0.93224365234375,1.0089910697099953,-0.29541015625,1.0537109375,0.10791015625,43.30647058823529,174.12274416380146
0.38340625,0.01617138671875,0.91466552734375,0.991904679492183,-0.28955078125,0.7822265625,-0.14599609375,43.30647058823529,174.12274416380146
0.40830859375,0.00347607421875,0.8941577148437501,0.9829781329392197,-0.1796875,0.45849609375,-0.15380859375,43.30647058823529,174.0052727824042
0.412703125,-0.01312548828125,0.90538818359375,0.9950999501650962,-0.10498046875,0.05615234375,0.00634765625,44.01235294117648,174.0052727824042
0.39463671875,-0.02044970703125,0.90343505859375,0.9860787166345916,-0.10791015625,-0.2958984375,0.15380859375,44.01235294117648,174.0052727824042
0.38487109375,-0.01800830078125,0.91368896484375,0.9916035408259658,-0.107421875,-0.4599609375,0.21875,43.777058823529416,174.0052727824042
0.4019609375,-0.01752001953125,0.92101318359375,1.0050596155023588,-0.14013671875,-0.36572265625,0.23779296875,43.447647058823534,174.05878924268782
0.4185625,-0.00531298828125,0.92833740234375,1.0183482345647132,-0.22802734375,-0.29296875,0.26904296875,44.01235294117648,174.05878924268782
0.4078203125,0.01177685546875,0.92784912109375,1.0135877333150662,-0.20556640625,-0.08544921875,0.2685546875,43.87117647058824,174.05878924268782
0.39951953125,0.02837841796875,0.92101318359375,1.0043338462932152,-0.07861328125,0.1298828125,0.38232421875,43.87117647058824,174.05878924268782
0.43662890625,0.02886669921875,0.92491943359375,1.023207724138281,-0.0732421875,0.57177734375,0.53515625,44.01235294117648,174.05878924268782
0.363875,0.00835888671875,0.91075927734375,0.9807942433965886,-0.138671875,0.93994140625,0.20166015625,44.20058823529412,173.56803623859938
0.3238359375,0.01177685546875,0.8912280273437501,0.9483120823148188,-0.03564453125,1.380859375,-0.33056640625,43.30647058823529,173.56803623859938
0.3921953125,0.01958935546875,0.8843920898437501,0.9676519387532118,-0.14404296875,1.4052734375,-0.46533203125,43.30647058823529,173.56803623859938
0.4918046875,0.03130810546875,0.8638842773437501,0.9945592454734652,-0.0986328125,1.06640625,0.12255859375,43.30647058823529,173.56803623859938
0.47959765625,0.04839794921875,0.8775561523437501,1.0012297807623587,-0.0869140625,0.3779296875,0.6875,43.96529411764706,173.77049704034985
0.39073046875,0.09039013671875,0.90099365234375,0.9862201770341952,-0.04541015625,-0.5849609375,0.46240234375,44.01235294117648,173.77049704034985
0.3257890625,0.08404248046875,0.92687255859375,0.9860498930795002,-0.11865234375,-1.22314453125,-0.4521484375,44.01235294117648,173.77049704034985
0.35850390625,0.04790966796875,0.93468505859375,1.0022257958363407,-0.20263671875,-1.3251953125,-0.892578125,43.82411764705883,173.77049704034985
0.44248828125,0.03179638671875,0.93907958984375,1.0385939366822114,-0.10986328125,-0.84521484375,-0.38037109375,43.82411764705883,173.77049704034985
0.44541796875,0.03423779296875,0.93907958984375,1.0399230112916305,-0.06640625,0.20361328125,0.201171875,44.62411764705882,173.69594023731284
0.3863359375,0.05962841796875,0.96154052734375,1.0379649274219032,-0.212890625,1.18359375,0.271484375,43.96529411764706,173.69594023731284
0.34483203125,0.08990185546875,0.94347412109375,1.0085310558264178,-0.37353515625,1.88623046875,-0.35791015625,43.96529411764706,173.69594023731284
0.37803515625,0.07818310546875,0.91857177734375,0.9963921353935686,-0.3740234375,2.205078125,-0.93701171875,44.57705882352941,173.69594023731284
0.4371171875,0.04107373046875,0.8853686523437501,0.9882490260534122,-0.31787109375,2.1103515625,-0.72900390625,43.30647058823529,173.95200466371534
0.4546953125,0.0005463867187499,0.8653491210937501,0.9775363047609256,-0.23583984375,1.76171875,-0.28955078125,43.82411764705883,173.95200466371534
0.44590625,-0.00531298828125,0.8697436523437501,0.9774019809811034,-0.2138671875,0.88037109375,-0.0107421875,43.96529411764706,173.95200466371534
0.412703125,0.01275341796875,0.8770678710937501,0.9693990765209004,-0.255859375,-0.197265625,0.04443359375,43.30647058823529,173.95200466371534
0.400984375,0.03081982421875,0.8707202148437501,0.959110016159023,-0.2880859375,-0.75927734375,-0.130859375,44.71823529411765,173.95200466371534
0.41319140625,0.03374951171875,0.8707202148437501,0.9643753731186072,-0.33056640625,-0.9521484375,-0.3193359375,43.96529411764706,174.06939306893685
0.42686328125,0.00787060546875,0.8814624023437501,0.9794131784163292,-0.27734375,-0.8046875,-0.23291015625,43.82411764705883,174.06939306893685
0.42491015625,-0.01214892578125,0.91173583984375,1.0059614699070865,-0.27294921875,-0.7421875,-0.1044921875,44.01235294117648,174.06939306893685
0.40635546875,-0.00873095703125,0.91808349609375,1.0040310266089572,-0.22119140625,-0.42138671875,-0.05517578125,44.57705882352941,174.06939306893685
0.4097734375,-0.00580126953125,0.92247802734375,1.0094125201030335,-0.2177734375,0.087890625,0.1552734375,43.40058823529412,173.72808452075938
0.41807421875,0.00884716796875,0.91417724609375,1.0052782510529326,-0.14208984375,0.615234375,0.3173828125,44.01235294117648,173.72808452075938
0.41123828125,0.03179638671875,0.92980224609375,1.017182457091551,-0.12890625,0.8603515625,0.3427734375,43.87117647058824,173.72808452075938
0.39951953125,0.05865185546875,0.92687255859375,1.011013667501222,-0.17529296875,0.798828125,0.1083984375,43.30647058823529,173.72808452075938
0.41319140625,0.06158154296875,0.92980224609375,1.0193388256483942,-0.21044921875,0.47998046875,-0.33642578125,43.777058823529416,173.72808452075938
0.428328125,0.04253857421875,0.91564208984375,1.0117682292185348,-0.205078125,0.23779296875,-0.57275390625,43.82411764705883,174.0160421466702
0.43858203125,0.00689404296875,0.92296630859375,1.0218945800634254,-0.11279296875,0.095703125,-0.359375,43.96529411764706,174.0160421466702
0.4185625,-0.00873095703125,0.93029052734375,1.0201525676497825,-0.0009765625,0.0625,-0.20166015625,44.01235294117648,174.0160421466702
0.40049609375,-0.01898486328125,0.92784912109375,1.0107727428345408,-0.10302734375,0.23291015625,-0.18310546875,43.447647058823534,174.0160421466702
0.4234453125,-0.01166064453125,0.92638427734375,1.018641120620412,-0.119140625,0.26708984375,-0.20947265625,44.76529411764706,173.88805065168884
0.44248828125,0.00298779296875,0.91564208984375,1.0169588205251152,-0.1396484375,0.2744140625,-0.25830078125,43.777058823529416,173.88805065168884
0.45908984375,0.00542919921875,0.91075927734375,1.0199389305768587,-0.11279296875,0.5673828125,-0.1748046875,44.01235294117648,173.88805065168884
0.45908984375,0.01617138671875,0.91515380859375,1.0239782672334667,-0.10498046875,0.85888671875,-0.05859375,43.87117647058824,173.88805065168884
0.436140625,0.03228466796875,0.90245849609375,1.0028421020943603,-0.07958984375,1.14013671875,-0.09423828125,43.40058823529412,173.88805065168884
0.42198046875,0.03667919921875,0.8951342773437501,0.9902920044802525,-0.00927734375,1.49658203125,-0.18896484375,43.87117647058824,174.0907666047806
0.42588671875,0.03716748046875,0.8858569335937501,0.9836175199782476,-0.03515625,1.6552734375,-0.25732421875,43.777058823529416,174.0907666047806
0.4341875,0.02984326171875,0.8741381835937501,0.9764870554404932,-0.06494140625,1.58447265625,-0.25927734375,43.87117647058824,174.0907666047806
0.45420703125,0.02691357421875,0.8756030273437501,0.9867669579022732,-0.1552734375,1.13720703125,-0.2646484375,43.87117647058824,174.0907666047806
0.44639453125,0.02642529296875,0.8770678710937501,0.9844868836827204,-0.20068359375,0.517578125,-0.28369140625,44.62411764705882,173.78143429330427
0.4429765625,0.03667919921875,0.8721850585937501,0.9789179613296656,-0.10498046875,0.0166015625,-0.11083984375,43.40058823529412,173.78143429330427
0.45030078125,0.02398388671875,0.8897631835937501,0.9975091695294752,-0.0087890625,-0.16162109375,0.19091796875,44.57705882352941,173.78143429330427
0.4058671875,-0.00043017578125,0.91173583984375,0.9979932868491408,-0.19775390625,-0.22802734375,0.0888671875,43.30647058823529,173.78143429330427
0.34287890625,-0.01361376953125,0.91954833984375,0.981488883473187,-0.15625,0.17919921875,-0.310546875,44.57705882352941,173.78143429330427
0.365828125,-0.02728564453125,0.93566162109375,1.0050061654668023,-0.18798828125,0.7392578125,-0.37109375,43.96529411764706,173.8453871627762
0.4312578125,-0.01068408203125,0.92882568359375,1.0241164977455115,-0.203125,1.65283203125,0.33154296875,44.62411764705882,173.8453871627762
0.4488359375,0.00249951171875,0.93810302734375,1.0399505931830824,-0.18310546875,2.4375,0.98193359375,43.87117647058824,173.8453871627762
0.369734375,0.03081982421875,0.96056396484375,1.029726420064019,-0.0966796875,2.98974609375,1.21630859375,43.447647058823534,173.8453871627762
0.28233203125,0.05914013671875,0.97863037109375,1.0202579746652092,-0.0078125,3.24072265625,0.83154296875,43.30647058823529,173.82401364635814
0.270125,0.05572216796875,0.99376708984375,1.0313319080124757,0.0224609375,3.00537109375,0.22119140625,43.82411764705883,173.82401364635814
0.20518359375,0.02105419921875,0.98986083984375,1.011122182876571,0.00537109375,2.81982421875,-0.03369140625,43.87117647058824,173.82401364635814
0.3765703125,-0.03168017578125,0.97618896484375,1.046782560456846,0.0068359375,2.89453125,0.47314453125,43.87117647058824,173.82401364635814
0.354109375,-0.03753955078125,0.95323974609375,1.0175798154781892,0.04638671875,3.26318359375,1.20556640625,43.82411764705883,173.82401364635814
0.31651171875,-0.01214892578125,0.93029052734375,0.9827348216936398,0.0634765625,3.765625,1.2021484375,43.96529411764706,173.69585673730742
0.34385546875,0.03863232421875,0.90978271484375,0.9733620231405626,0.06201171875,3.89697265625,0.7119140625,44.059411764705885,173.69585673730742
0.38584765625,0.03374951171875,0.8785327148437501,0.9601235204001628,0.02783203125,3.625,0.56005859375,43.777058823529416,173.69585673730742
0.432234375,0.03374951171875,0.8721850585937501,0.973998131880692,0.0205078125,2.8408203125,0.720703125,43.82411764705883,173.69585673730742
0.4214921875,0.03326123046875,0.8585131835937501,0.9569779830174288,0.11083984375,1.98828125,0.9326171875,43.40058823529412,174.0053554061086
0.37412890625,0.02349560546875,0.8873217773437501,0.9632571922994584,0.16845703125,0.73486328125,0.77392578125,43.96529411764706,174.0053554061086
0.3218828125,0.01617138671875,0.91808349609375,0.9730094370205462,0.1435546875,-0.572265625,0.447265625,43.96529411764706,174.0053554061086
0.334578125,0.00494091796875,0.95568115234375,1.0125677258060162,0.091796875,-1.35546875,0.39794921875,43.82411764705883,174.0053554061086
0.34190234375,0.00591748046875,0.96105224609375,1.0200753153364133,0.07568359375,-1.38525390625,0.59228515625,44.01235294117648,174.0053554061086
0.32090625,0.01421826171875,0.97863037109375,1.0300001861565151,0.1923828125,-0.5830078125,0.75927734375,43.30647058823529,173.87719790528007
0.28721484375,0.02691357421875,0.99279052734375,1.0338518937115928,0.17138671875,0.67822265625,0.67529296875,43.96529411764706,173.87719790528007
0.256453125,0.04742138671875,0.96935302734375,1.0038238315865429,0.0419921875,2.3037109375,0.47216796875,44.01235294117648,173.87719790528007
0.24131640625,0.04937451171875,0.93566162109375,0.9675402418094372,-0.08740234375,3.8310546875,0.3720703125,43.30647058823529,173.87719790528007
0.270125,0.03277294921875,0.8829272460937501,0.923905895489464,-0.10498046875,4.4853515625,0.21337890625,43.96529411764706,173.60009664276473
0.3023515625,0.03033154296875,0.8384936523437501,0.8918565326698112,-0.044921875,4.17578125,0.232421875,43.87117647058824,173.60009664276473
0.31065234375,0.0015229492187499,0.7906420898437501,0.8494834384990584,-0.00048828125,3.1396484375,0.2060546875,43.40058823529412,173.60009664276473
0.3472734375,0.02642529296875,0.7545092773437501,0.8310122659138905,-0.1787109375,1.859375,0.40966796875,43.96529411764706,173.60009664276473
0.3765703125,0.04009716796875,0.7315600585937501,0.8237676264973957,-0.373046875,0.04345703125,0.6044921875,43.87117647058824,173.60009664276473
0.37559375,0.02935498046875,0.7750170898437501,0.8617330616073975,-0.2880859375,-2.337890625,0.513671875,43.30647058823529,173.94131794380922
0.350203125,0.02398388671875,0.7159350585937501,0.7973584286288944,-0.26611328125,-4.86962890625,0.04443359375,43.87117647058824,173.94131794380922
0.3560625,0.01714794921875,0.8985522460937501,0.9666802444597604,-0.1767578125,-6.234375,0.0126953125,43.96529411764706,173.94131794380922
0.3707109375,0.00640576171875,0.96007568359375,1.0291807184325463,-0.1806640625,-6.33984375,0.419921875,44.01235294117648,173.94131794380922
0.37315234375,0.02154248046875,1.0186694335937505,1.0850779534434734,-0.05810546875,-5.5849609375,0.4541015625,43.82411764705883,173.76006069905551
0.3570390625,0.03326123046875,1.0328295898437505,1.0933069849131962,-0.0048828125,-3.98583984375,0.078125,43.82411764705883,173.76006069905551
0.34287890625,0.02007763671875,1.0523608398437505,1.106992499109208,-0.07421875,-1.3828125,-0.2197265625,44.71823529411765,173.76006069905551
0.36729296875,0.00933544921875,1.0523608398437505,1.1146544813268136,-0.1376953125,0.92822265625,-0.2783203125,43.68294117647059,173.76006069905551
0.40244921875,0.01226513671875,1.0167163085937505,1.093539143977808,-0.16943359375,2.662109375,-0.32275390625,43.30647058823529,173.76006069905551
0.41221484375,-0.00775439453125,0.96544677734375,1.0497945932066024,-0.19091796875,3.53515625,-0.24658203125,43.96529411764706,173.87744753771202
0.41416796875,-0.01214892578125,0.93907958984375,1.0264273860323705,-0.15380859375,3.22802734375,0.1494140625,43.87117647058824,173.87744753771202
0.3902421875,0.01665966796875,0.90587646484375,0.9864981900639372,-0.13916015625,2.0869140625,0.15771484375,43.30647058823529,173.87744753771202
0.389265625,0.04986279296875,0.8878100585937501,0.970680547383908,-0.03271484375,0.99658203125,0.27734375,43.96529411764706,173.87744753771202
0.37803515625,0.06646435546875,0.91368896484375,0.9910376452920856,-0.0224609375,-0.4033203125,0.359375,44.71823529411765,173.93063123728805
0.32871875,0.04839794921875,0.92980224609375,0.9873857376583508,-0.09033203125,-1.48095703125,-0.15966796875,43.87117647058824,173.93063123728805
0.35069140625,0.00201123046875,0.93712646484375,1.0005970810351914,-0.01708984375,-1.5927734375,-0.73828125,43.96529411764706,173.93063123728805
0.41026171875,-0.04437548828125,0.96739990234375,1.0517349632329434,-0.02392578125,-1.03662109375,-0.39453125,43.30647058823529,173.93063123728805
0.4293046875,-0.02679736328125,0.97325927734375,1.0640743556368504,0.01806640625,0.0634765625,0.8486328125,43.82411764705883,173.93063123728805
0.36826953125,0.03521435546875,0.96300537109375,1.0316209784768753,-0.0283203125,1.30859375,1.2001953125,44.76529411764706,174.16549131815518
0.2847734375,0.07525341796875,0.95763427734375,1.001909375525168,-0.0458984375,2.28564453125,0.51513671875,44.29470588235294,174.16549131815518
0.29209765625,0.06890576171875,0.94054443359375,0.9872653525516696,-0.2041015625,2.57470703125,-0.16845703125,44.76529411764706,174.16549131815518
0.38487109375,0.03863232421875,0.91222412109375,0.9908436114665768,-0.27587890625,2.244140625,-0.3125,44.53,174.16549131815518
0.45127734375,0.00787060546875,0.8775561523437501,0.9868221663141072,-0.27880859375,1.1748046875,-0.2607421875,43.87117647058824,174.1866998725879
0.44932421875,-0.01166064453125,0.8541186523437501,0.96516677132384,-0.1962890625,0.46484375,-0.0029296875,44.01235294117648,174.1866998725879
0.40830859375,-0.00677783203125,0.8575366210937501,0.9498057186888444,-0.0830078125,0.04150390625,0.29248046875,44.76529411764706,174.1866998725879
0.37510546875,0.02398388671875,0.8741381835937501,0.9515234645161808,-0.05224609375,-0.4658203125,0.25390625,44.01235294117648,174.1866998725879
0.34678515625,0.05718701171875,0.8863452148437501,0.9534873563823858,-0.12939453125,-0.75537109375,-0.103515625,43.82411764705883,174.1866998725879
0.36631640625,0.03863232421875,0.8946459960937501,0.9675079453363864,-0.16552734375,-1.1103515625,-0.45703125,43.40058823529412,174.11222341364086
0.4039140625,0.00884716796875,0.8970874023437501,0.983865158296694,-0.15869140625,-0.9892578125,-0.546875,43.82411764705883,174.11222341364086
0.416609375,-0.01019580078125,0.90489990234375,0.9962485427608866,-0.15234375,-0.79541015625,-0.26171875,43.82411764705883,174.11222341364086
0.4185625,0.00396435546875,0.90489990234375,0.9970226255117088,-0.12548828125,-0.62841796875,0.001953125,43.447647058823534,174.11222341364086
0.3882890625,0.01372998046875,0.91271240234375,0.9919681637093504,-0.1474609375,-0.26806640625,-0.00390625,43.30647058823529,173.90934081989147
0.34580859375,0.00396435546875,0.92101318359375,0.983801089641158,-0.24365234375,0.02587890625,-0.2568359375,44.01235294117648,173.90934081989147
0.38291796875,0.01617138671875,0.92296630859375,0.999377051637272,-0.318359375,-0.0419921875,-0.322265625,43.82411764705883,173.90934081989147
0.4371171875,0.01421826171875,0.8990405273437501,0.999773706586016,-0.2275390625,0.05126953125,-0.27685546875,43.82411764705883,173.90934081989147
0.46885546875,-0.01996142578125,0.8887866210937501,1.005069931363608,-0.1416015625,0.28173828125,-0.04638671875,44.01235294117648,173.90934081989147
0.442,-0.03119189453125,0.8648608398437501,0.9717619083806924,-0.08447265625,0.76171875,-0.04541015625,43.87117647058824,173.86667714744073
0.428328125,-0.02337939453125,0.8751147460937501,0.9745960176326354,-0.0625,1.03369140625,0.0810546875,43.96529411764706,173.86667714744073
0.4117265625,0.0015229492187499,0.8780444335937501,0.969785083927031,-0.142578125,0.6630859375,0.154296875,43.30647058823529,173.86667714744073
0.41709765625,0.03277294921875,0.8721850585937501,0.9673423889626264,-0.126953125,0.0546875,-0.03125,43.96529411764706,173.86667714744073
0.432234375,0.02496044921875,0.8746264648437501,0.9759206074071384,-0.4111328125,-0.54248046875,-0.1865234375,44.01235294117648,173.9946686789123
0.459578125,0.01910107421875,0.8868334960937501,0.9990248013981882,-0.35791015625,-1.1728515625,-0.2109375,44.059411764705885,173.9946686789123
0.463484375,0.01519482421875,0.90245849609375,1.014632931519558,-0.1669921875,-1.65673828125,-0.32568359375,43.82411764705883,173.9946686789123
0.43760546875,0.01128857421875,0.93566162109375,1.0329998293202105,0.01513671875,-1.62939453125,-0.3505859375,44.01235294117648,173.9946686789123
0.424421875,0.01275341796875,0.94542724609375,1.036402072221401,0.00146484375,-0.7705078125,-0.4326171875,44.57705882352941,173.9946686789123
0.4185625,0.02740185546875,0.95372802734375,1.041893746132676,-0.0732421875,0.392578125,-0.35498046875,44.62411764705882,173.79212111048645
0.4097734375,0.03716748046875,0.96202880859375,1.0463245769116156,-0.19384765625,1.5146484375,-0.2060546875,43.87117647058824,173.79212111048645
0.38975390625,0.04546826171875,0.95812255859375,1.0353619210435994,-0.2607421875,2.0244140625,-0.4521484375,43.96529411764706,173.79212111048645
0.39854296875,0.04009716796875,0.93517333984375,1.0173462814468297,-0.3017578125,2.31884765625,-0.76611328125,43.447647058823534,173.79212111048645
0.443953125,0.02251904296875,0.90685302734375,1.0099425219763838,-0.29248046875,2.50830078125,-0.45654296875,44.01235294117648,173.86692920527574
0.467390625,0.01861279296875,0.8882983398437501,1.003929466132532,-0.19482421875,2.40576171875,-0.07421875,43.82411764705883,173.86692920527574
0.44053515625,0.02593701171875,0.8995288085937501,1.0019461212855718,-0.1064453125,1.783203125,-0.083984375,43.30647058823529,173.86692920527574
0.3843828125,0.01177685546875,0.8834155273437501,0.963489405661618,-0.10693359375,1.423828125,-0.4794921875,43.82411764705883,173.86692920527574
0.3863359375,-0.00726611328125,0.8912280273437501,0.9713885163667788,-0.19140625,1.1923828125,-0.40087890625,44.71823529411765,173.86692920527574
0.412703125,0.00835888671875,0.8829272460937501,0.9746559712363312,-0.18359375,0.9267578125,-0.0380859375,43.30647058823529,173.92011100837954
0.42588671875,0.01031201171875,0.8829272460937501,0.9803297183539949,-0.1650390625,0.65771484375,0.14013671875,44.059411764705885,173.92011100837954
0.37705859375,0.00396435546875,0.8931811523437501,0.9695161010200498,-0.22998046875,0.21826171875,-0.03955078125,43.87117647058824,173.92011100837954
0.3375078125,0.00689404296875,0.8736499023437501,0.9366019449009456,-0.16943359375,0.4404296875,-0.494140625,43.30647058823529,173.92011100837954
0.3902421875,-0.01556689453125,0.90782958984375,0.9882741812402082,-0.30712890625,0.4169921875,-0.67333984375,43.96529411764706,173.9521714854466
0.40733203125,-0.01263720703125,0.90294677734375,0.9906522928854832,-0.05224609375,0.35302734375,-0.10498046875,44.57705882352941,173.9521714854466
0.40830859375,5.810546874999989e-05,0.92296630859375,1.0092485907374464,-0.1044921875,0.2412109375,0.4345703125,43.87117647058824,173.9521714854466
0.35996875,0.01324169921875,0.91564208984375,0.9839478036299448,-0.1611328125,0.47802734375,0.17919921875,43.96529411764706,173.9521714854466
0.3687578125,0.01275341796875,0.91906005859375,0.9903617345455236,-0.2001953125,0.87060546875,-0.08154296875,43.82411764705883,173.9521714854466
0.4078203125,-0.00335986328125,0.91222412109375,0.999240483104108,-0.19775390625,1.05615234375,-0.10302734375,44.71823529411765,173.83478423841268
0.4468828125,-0.01996142578125,0.8985522460937501,1.0037424199401228,-0.1435546875,1.0478515625,0.06640625,43.96529411764706,173.83478423841268
0.4605546875,-0.01214892578125,0.90587646484375,1.016302310404572,-0.09765625,0.84814453125,0.3642578125,43.87117647058824,173.83478423841268
0.41221484375,-0.00970751953125,0.92003662109375,1.0082076658590189,-0.0546875,0.4482421875,0.57373046875,43.96529411764706,173.83478423841268
0.36436328125,0.02203076171875,0.92491943359375,0.994344967214376,-0.044921875,0.1533203125,0.37744140625,44.71823529411765,173.685506465887
0.3589921875,0.02837841796875,0.94542724609375,1.011688392218106,-0.11181640625,0.0498046875,0.033203125,43.96529411764706,173.685506465887
0.3795,0.01812451171875,0.92931396484375,1.0039786816355485,-0.25,0.26611328125,-0.1142578125,43.82411764705883,173.685506465887
0.43858203125,0.00689404296875,0.92247802734375,1.0214535901820736,-0.08837890625,0.93310546875,0.11572265625,44.62411764705882,173.685506465887
0.45030078125,0.0010346679687499,0.91124755859375,1.0164369027023938,-0.04833984375,1.37646484375,0.486328125,43.30647058823529,173.685506465887
0.4195390625,0.01665966796875,0.91271240234375,1.0046564083766685,-0.0771484375,1.9189453125,0.62060546875,43.30647058823529,173.83461699136743
0.40244921875,0.03521435546875,0.90636474609375,0.9923217610559354,-0.08837890625,1.96435546875,0.3056640625,43.30647058823529,173.83461699136743
0.44444140625,0.04449169921875,0.9000170898437501,1.0047578996453137,-0.06298828125,1.6826171875,0.03857421875,44.01235294117648,173.83461699136743
0.47471484375,0.03912060546875,0.8946459960937501,1.0135462806282731,-0.03515625,1.28173828125,0.21533203125,44.57705882352941,173.83461699136743
0.451765625,0.02984326171875,0.91613037109375,1.0218990444471638,-0.04150390625,0.93212890625,0.55712890625,43.82411764705883,173.62147031241904
0.39658984375,0.03716748046875,0.92443115234375,1.0065971792100543,-0.10400390625,0.650390625,0.44873046875,43.30647058823529,173.62147031241904
0.37608203125,0.03326123046875,0.93566162109375,1.0089631672510178,-0.03662109375,0.630859375,0.142578125,43.40058823529412,173.62147031241904
0.393171875,0.00738232421875,0.93614990234375,1.015389216832688,-0.06396484375,0.8662109375,0.19775390625,43.82411764705883,173.62147031241904
0.3941484375,0.00249951171875,0.92931396484375,1.0094472168450088,-0.06103515625,1.47216796875,0.5166015625,44.71823529411765,173.62147031241904
0.397078125,0.02642529296875,0.92491943359375,1.0068988489919846,-0.02099609375,1.90380859375,0.4736328125,44.059411764705885,173.88813435610925
0.3648515625,0.02593701171875,0.91271240234375,0.983276828074215,-0.00732421875,2.1455078125,0.25341796875,43.82411764705883,173.88813435610925
0.3472734375,0.03814404296875,0.90538818359375,0.9704543118551529,-0.0029296875,2.22265625,0.20703125,44.62411764705882,173.88813435610925
0.36241015625,0.05718701171875,0.8834155273437501,0.956574340871898,-0.21826171875,2.08837890625,0.08447265625,44.43588235294118,173.88813435610925
0.377546875,0.05279248046875,0.8663256835937501,0.9464929365137849,-0.1005859375,1.7109375,-0.09375,43.30647058823529,174.1014533927726
0.3795,5.810546874999989e-05,0.8736499023437501,0.9525147795396612,-0.025390625,0.94287109375,-0.232421875,43.30647058823529,174.1014533927726
0.38389453125,0.00689404296875,0.8594897460937501,0.9413528363968588,0.0888671875,0.158203125,-0.16796875,44.15352941176471,174.1014533927726
0.36436328125,-0.01800830078125,0.8814624023437501,0.9539711035277272,0.03369140625,-0.404296875,-0.10498046875,43.82411764705883,174.1014533927726
0.35459765625,-0.01947314453125,0.8770678710937501,0.9462382108543552,-0.015625,-0.6474609375,0.13037109375,43.87117647058824,174.1014533927726
0.34190234375,-0.00531298828125,0.8907397460937501,0.9541188268645464,-0.01806640625,-0.6279296875,0.3427734375,43.30647058823529,173.9095080330242
0.4507890625,0.01275341796875,0.90587646484375,1.011921735164002,-0.11572265625,-0.779296875,0.26708984375,44.71823529411765,173.9095080330242
0.31162890625,0.01128857421875,0.90538818359375,0.9575843409902094,-0.22802734375,-0.74658203125,-0.119140625,43.30647058823529,173.9095080330242
0.32920703125,-0.00628955078125,0.8858569335937501,0.9450710738720078,-0.18505859375,-0.4150390625,-0.326171875,44.059411764705885,173.9095080330242
0.38975390625,-0.01410205078125,0.8834155273437501,0.9656759131434348,-0.1279296875,-0.14697265625,-0.169921875,44.059411764705885,173.94156864870777
0.41123828125,-0.02142626953125,0.8682788085937501,0.9609808002475708,-0.064453125,0.02197265625,0.2060546875,43.30647058823529,173.94156864870777
0.393171875,-0.14252001953125,0.8756030273437501,0.9703487727367636,-0.05810546875,-0.18115234375,0.4365234375,43.96529411764706,173.94156864870777
0.3687578125,-0.00091845703125,0.8819506835937501,0.955939420745157,-0.0078125,-0.990234375,0.2626953125,44.01235294117648,173.94156864870777
0.38487109375,0.00640576171875,0.8961108398437501,0.9752853069092088,0.02587890625,-1.9423828125,0.0341796875,43.82411764705883,173.94156864870777
0.4097734375,-0.00043017578125,0.91759521484375,1.0049355369554394,-0.03271484375,-2.609375,0.07861328125,44.62411764705882,173.35481237810257
0.4214921875,-0.00824267578125,0.91613037109375,1.008473332650865,-0.0439453125,-2.7529296875,0.09814453125,44.76529411764706,173.35481237810257
0.4332109375,-0.00189501953125,0.92491943359375,1.0213477694243212,-0.0927734375,-2.408203125,-0.0185546875,44.29470588235294,173.35481237810257
0.404890625,-0.00384814453125,0.92394287109375,1.0087723506689634,-0.19287109375,-1.3408203125,0.26806640625,43.82411764705883,173.35481237810257
0.41221484375,0.02837841796875,0.93273193359375,1.020154533372166,-0.2587890625,-0.181640625,0.5126953125,44.62411764705882,173.90934081989147
0.436140625,0.04937451171875,0.91710693359375,1.0167308467970206,-0.24951171875,0.3154296875,0.16796875,44.57705882352941,173.90934081989147
0.46006640625,0.04742138671875,0.92784912109375,1.0367323075859862,-0.17529296875,0.01904296875,-0.08740234375,44.15352941176471,173.90934081989147
0.49522265625,0.03228466796875,0.93370849609375,1.0574021631937447,-0.14208984375,-0.66552734375,-0.10693359375,43.30647058823529,173.90934081989147
0.51866015625,0.03081982421875,0.92882568359375,1.06427222539609,-0.11181640625,-1.2763671875,-0.0849609375,43.87117647058824,173.90934081989147
0.49229296875,0.02251904296875,0.92736083984375,1.0501702726951578,-0.0390625,-1.34814453125,-0.00341796875,43.82411764705883,174.08007983017853
0.43174609375,0.01812451171875,0.92882568359375,1.0244268338426243,-0.03125,-0.77294921875,0.00732421875,43.82411764705883,174.08007983017853
0.39854296875,0.02251904296875,0.93077880859375,1.0127649262111582,-0.07080078125,0.04248046875,0.1435546875,43.87117647058824,174.08007983017853
0.40537890625,0.02984326171875,0.92491943359375,1.010296311258159,-0.11279296875,0.76513671875,-0.068359375,44.01235294117648,174.08007983017853
0.44590625,0.03472607421875,0.90880615234375,1.012900245116744,-0.22900390625,1.4052734375,-0.0986328125,43.96529411764706,173.7281690675535
0.48155078125,0.03277294921875,0.90099365234375,1.0221324682675483,-0.27197265625,1.60498046875,-0.0048828125,43.82411764705883,173.7281690675535
0.4820390625,0.03814404296875,0.9000170898437501,1.0216884984185215,-0.21923828125,1.26708984375,0.06787109375,44.059411764705885,173.7281690675535
0.43858203125,0.04400341796875,0.8985522460937501,1.000842963650358,-0.25244140625,0.79833984375,0.046875,43.87117647058824,173.7281690675535
0.39561328125,0.05181591796875,0.8980639648437501,0.982707302612132,-0.17822265625,0.65673828125,-0.0576171875,44.62411764705882,173.7281690675535
0.37998828125,0.03472607421875,0.90197021484375,0.9793606396947224,-0.14013671875,0.75390625,-0.3662109375,44.62411764705882,174.12274416380146
0.4058671875,-0.00482470703125,0.8922045898437501,0.9801941041576164,-0.154296875,0.87841796875,-0.53076171875,44.01235294117648,174.12274416380146
0.451765625,-0.03998095703125,0.8882983398437501,0.9973788635347842,-0.1494140625,1.39697265625,-0.12841796875,43.447647058823534,174.12274416380146
0.46885546875,-0.04339892578125,0.8922045898437501,1.0088299893807693,-0.26123046875,1.6494140625,0.46044921875,43.40058823529412,174.12274416380146
0.457625,-0.00873095703125,0.8868334960937501,0.997983226326748,-0.39306640625,1.48779296875,0.544921875,43.777058823529416,173.7707474894874
0.4605546875,0.01177685546875,0.8897631835937501,1.0019619939807298,-0.49462890625,1.119140625,0.3505859375,43.447647058823534,173.7707474894874
0.48496875,0.03619091796875,0.8760913085937501,1.0020181894623932,-0.447265625,0.81787109375,0.37060546875,44.01235294117648,173.7707474894874
0.467390625,0.03570263671875,0.8799975585937501,0.997057860777158,-0.35595703125,0.73095703125,0.3466796875,43.87117647058824,173.7707474894874
0.45420703125,0.00982373046875,0.8731616210937501,0.984282352512899,-0.25244140625,0.68408203125,0.01416015625,43.30647058823529,173.7707474894874
0.45127734375,-0.02240283203125,0.8843920898437501,0.9931276335110568,-0.16796875,0.69677734375,-0.11279296875,44.62411764705882,173.93088176343971
0.46494921875,-0.03998095703125,0.8878100585937501,1.0029870154102734,-0.09716796875,0.5869140625,0.19384765625,44.62411764705882,173.93088176343971
0.46885546875,-0.02777392578125,0.9000170898437501,1.0151983074950912,-0.07568359375,0.42529296875,0.41455078125,43.82411764705883,173.93088176343971
0.43565234375,-0.01800830078125,0.90734130859375,1.0066705090507593,-0.130859375,0.41748046875,0.4580078125,43.30647058823529,173.93088176343971
0.39951953125,-0.00140673828125,0.91515380859375,0.9985611288982053,-0.14013671875,0.48291015625,0.45947265625,43.87117647058824,173.9629424593742
0.38291796875,0.0010346679687499,0.90978271484375,0.987082483664813,-0.13427734375,0.6318359375,0.27880859375,43.30647058823529,173.9629424593742
0.416609375,-0.00531298828125,0.9005053710937501,0.9922205009729742,-0.12841796875,0.8623046875,0.08935546875,44.059411764705885,173.9629424593742
0.46201953125,-0.00970751953125,0.8882983398437501,1.001314248256301,-0.03466796875,1.21826171875,0.38916015625,43.82411764705883,173.9629424593742
0.44639453125,-0.01507861328125,0.8775561523437501,0.9846828132067504,-0.06689453125,1.6630859375,0.64111328125,43.96529411764706,173.9629424593742
0.39854296875,0.01861279296875,0.8814624023437501,0.9675530480277432,-0.06884765625,1.81884765625,0.64404296875,43.30647058823529,173.685506465887
0.37022265625,0.03960888671875,0.8780444335937501,0.9537272704882008,-0.123046875,1.587890625,0.41259765625,44.059411764705885,173.685506465887
0.38291796875,0.02740185546875,0.8751147460937501,0.955616477100246,0.04052734375,0.97216796875,-0.05126953125,44.059411764705885,173.685506465887
0.420515625,0.00445263671875,0.8658374023437501,0.9625630494363798,-0.0556640625,0.451171875,-0.1630859375,43.30647058823529,173.685506465887
0.46104296875,-0.01263720703125,0.8521655273437501,0.9689718282945154,-0.087890625,0.29296875,0.1240234375,44.57705882352941,173.9735452036971
0.475203125,0.00347607421875,0.8653491210937501,0.9872482942398358,-0.00830078125,0.00634765625,0.1259765625,43.87117647058824,173.9735452036971
0.43272265625,0.03033154296875,0.8824389648437501,0.9832941708387322,-0.0009765625,-0.3642578125,0.341796875,44.01235294117648,173.9735452036971
0.39561328125,0.05572216796875,0.9005053710937501,0.9851521464592268,0.0234375,-0.5302734375,0.29541015625,43.447647058823534,173.9735452036971
0.37412890625,0.05572216796875,0.91808349609375,0.992952518650656,-0.07861328125,-0.57275390625,-0.2333984375,43.40058823529412,173.9735452036971
0.3795,0.02496044921875,0.90294677734375,0.9797735231882242,-0.09375,0.0634765625,-0.71533203125,43.87117647058824,174.2401336544023
0.436140625,-0.00726611328125,0.90831787109375,1.007627310133012,-0.22607421875,0.6962890625,-0.6171875,44.01235294117648,174.2401336544023
0.47080859375,0.00787060546875,0.8770678710937501,0.9954751272052056,-0.2021484375,1.26416015625,-0.080078125,44.71823529411765,174.2401336544023
0.459578125,0.02837841796875,0.8570483398437501,0.9729076237823676,-0.20849609375,1.556640625,0.32958984375,44.71823529411765,174.2401336544023
0.424421875,0.04449169921875,0.8609545898437501,0.9609142755994976,-0.20068359375,1.1787109375,-0.01513671875,43.96529411764706,173.70688023037252
0.42393359375,0.01958935546875,0.8546069335937501,0.9541784139792638,-0.08544921875,0.30810546875,-0.5341796875,44.57705882352941,173.70688023037252
0.4722734375,-0.01117236328125,0.8765795898437501,0.9957704548740096,-0.06201171875,-0.56005859375,-0.31640625,43.82411764705883,173.70688023037252
0.5035234375,-0.01849658203125,0.8824389648437501,1.016157715284967,0.0126953125,-1.236328125,0.17236328125,43.82411764705883,173.70688023037252
0.4761796875,-0.00824267578125,0.91466552734375,1.0312264850180357,-0.00146484375,-1.4072265625,0.421875,44.57705882352941,173.70688023037252
0.41514453125,0.01226513671875,0.92687255859375,1.0156712830830832,-0.13671875,-0.91943359375,0.33740234375,43.777058823529416,173.94156864870777
0.38340625,0.03570263671875,0.93566162109375,1.0117992389775343,-0.193359375,-0.04443359375,0.02685546875,44.059411764705885,173.94156864870777
0.39121875,0.03130810546875,0.92833740234375,1.007890192635064,-0.115234375,0.7294921875,-0.3046875,44.62411764705882,173.94156864870777
