AccX,AccY,AccZ,Magnitude,GyroX,GyroY,GyroZ,Temperature,Altitude
1.0367265625,0.08794873046875,0.7452319335937501,1.2798076337606408,2.2802734375,-3.9208984375,5.06103515625,43.87117647058824,200.52695000769967
1.01573046875,0.05523388671875,0.7540209960937501,1.2662175286811368,3.17236328125,-1.65869140625,5.59765625,44.62411764705882,200.153106398156
1.045515625,-0.05560595703125,0.7872241210937501,1.3099300597391943,3.392578125,0.732421875,4.74267578125,44.62411764705882,200.153106398156
1.13389453125,-0.09564501953125,0.7564624023437501,1.3664187293503658,3.9619140625,2.53515625,3.53466796875,43.40058823529412,200.153106398156
0.96006640625,-0.06244189453125,0.6275561523437501,1.148674548750399,4.84912109375,5.04736328125,2.7861328125,44.059411764705885,200.153106398156
0.87119921875,-0.11468798828125,0.5782397460937501,1.0519042814672706,4.87451171875,8.732421875,3.07958984375,43.87117647058824,200.33467754227075
1.25840625,-0.27191455078125,0.41808349609375,1.353631272788718,4.044921875,9.59765625,5.595703125,44.57705882352941,200.33467754227075
1.600203125,-0.48627001953125,0.24718505859375,1.6906238571446586,4.62158203125,8.76611328125,8.505859375,44.71823529411765,200.33467754227075
1.84825,-0.69574267578125,0.32286865234375,2.001082232210741,4.21875,6.6689453125,11.54150390625,44.71823529411765,200.33467754227075
1.82823046875,-0.84564501953125,0.33556396484375,2.042093367215493,3.00390625,3.80078125,12.6904296875,44.15352941176471,200.33467754227075
2.08653125,-1.01703173828125,0.43712646484375,2.3620003726004657,0.7060546875,1.77001953125,13.76025390625,43.30647058823529,200.3665469507873
2.53330859375,-0.88373095703125,0.6783374023437501,2.767449090227576,-2.6962890625,-3.8935546875,15.99951171875,43.87117647058824,200.3665469507873
2.05869921875,-0.50043017578125,0.7755053710937501,2.2561208776813286,-6.5146484375,-13.17822265625,15.99951171875,44.76529411764706,200.3665469507873
1.18272265625,0.02447216796875,0.8682788085937501,1.4674262700609964,-9.34521484375,16.0,11.9814453125,44.01235294117648,200.3665469507873
0.3570390625,0.13677685546875,0.97423583984375,1.046575497505486,-10.64453125,16.0,4.86572265625,44.57705882352941,200.39871766309628
0.2945390625,0.11089794921875,1.0460131835937505,1.0923347448155425,-9.4658203125,16.0,1.4013671875,44.76529411764706,200.39871766309628
0.54014453125,-0.06732470703125,0.98839599609375,1.1283684575130069,-6.73193359375,16.0,4.43994140625,43.30647058823529,200.39871766309628
0.57823046875,-0.26410205078125,0.91320068359375,1.1126705966878965,-3.70849609375,-0.6796875,9.26611328125,43.87117647058824,200.39871766309628
0.5484453125,-0.40814501953125,0.8409350585937501,1.0837649147963138,-1.47900390625,15.65673828125,11.4736328125,43.96529411764706,200.39871766309628
0.643171875,-0.53412158203125,0.7598803710937501,1.1297672784941846,-0.4638671875,15.99951171875,10.6533203125,43.63588235294118,200.4414365780921
0.926375,-0.38959033203125,0.5045092773437501,1.124491386522428,1.51953125,15.99951171875,8.8427734375,44.71823529411765,200.4414365780921
1.0894609375,-0.41986376953125,0.27648193359375,1.1998553991657113,2.564453125,15.99951171875,7.2783203125,44.059411764705885,200.4414365780921
1.10215625,-0.45794970703125,0.08751708984375,1.1967144916807806,1.9951171875,15.99951171875,5.05322265625,44.059411764705885,200.4414365780921
1.1441484375,-0.36078173828125,0.00499755859375,1.1996933296900627,0.41943359375,7.46484375,3.71630859375,44.71823529411765,200.3773961011993
1.13389453125,-0.50726611328125,0.08263427734375,1.2449353965062795,-1.74951171875,-3.36572265625,3.54736328125,43.54176470588236,200.3773961011993
0.95420703125,-0.55560595703125,0.05382568359375,1.1054891415974577,-3.23828125,-12.83984375,4.22119140625,44.76529411764706,200.3773961011993
0.8863359375,-0.56293017578125,0.18077880859375,1.0654401693880744,-3.52734375,16.0,5.9765625,43.30647058823529,200.3773961011993
0.7378984375,-0.60736376953125,0.30577880859375,1.0034368601905972,-3.34912109375,16.0,8.041015625,43.30647058823529,200.3773961011993
0.56309375,-0.61322314453125,0.36925537109375,0.9107506384073744,-2.9501953125,16.0,7.7314453125,43.30647058823529,200.22776769917465
0.3404375,-0.69427783203125,0.42394287109375,0.881842932390726,-2.677734375,-13.79443359375,4.27294921875,44.01235294117648,200.22776769917465
0.19639453125,-0.80462939453125,0.49572021484375,0.9652656659455816,-2.73828125,-6.03955078125,-0.43115234375,44.059411764705885,200.22776769917465
0.162703125,-0.89837939453125,0.5714038085937501,1.0770608877303751,-2.88134765625,0.6826171875,-3.61083984375,44.76529411764706,200.22776769917465
0.18467578125,-0.99994189453125,0.49425537109375,1.130609264279249,-3.56787109375,6.56884765625,-3.61083984375,44.43588235294118,200.16372849074185
0.26084765625,-0.95794970703125,0.35265380859375,1.0536004222133044,-3.4453125,10.38134765625,-2.40478515625,43.40058823529412,200.16372849074185
0.34678515625,-0.76752001953125,0.23888427734375,0.8754499545597298,-3.62890625,12.150390625,-1.736328125,44.71823529411765,200.16372849074185
0.42100390625,-0.52337939453125,0.14220458984375,0.6865802393531916,-3.55419921875,11.90087890625,-2.57861328125,44.059411764705885,200.16372849074185
0.4703203125,-0.51068408203125,0.05773193359375,0.6966580252510347,-3.16015625,9.56103515625,-4.04833984375,43.87117647058824,200.16372849074185
0.4937578125,-0.34906298828125,0.00841552734375,0.604741736853919,-2.419921875,5.970703125,-4.83349609375,44.71823529411765,200.3666220099813
0.53184375,-0.33685595703125,0.04210693359375,0.6309538050112466,-1.96875,1.63330078125,-4.23193359375,43.96529411764706,200.3666220099813
0.5113359375,-0.30707080078125,0.09435302734375,0.6038703597961838,-1.69580078125,-1.5654296875,-2.7880859375,44.15352941176471,200.3666220099813
0.47471484375,-0.27240283203125,0.18322021484375,0.5771716667531612,-1.55029296875,-2.619140625,-1.5283203125,43.40058823529412,200.3666220099813
0.42100390625,-0.25873095703125,0.26134521484375,0.5590056516045175,-1.65234375,-1.5927734375,-0.94140625,43.96529411764706,200.4412869294772
0.4293046875,-0.14691455078125,0.32726318359375,0.5594529392868052,-1.79150390625,1.18701171875,-1.3603515625,43.96529411764706,200.4412869294772
0.440046875,0.01128857421875,0.32579833984375,0.547643353241963,-1.49609375,4.05126953125,-3.2666015625,44.059411764705885,200.4412869294772
0.44053515625,0.05328076171875,0.32823974609375,0.5519523479225644,-1.88916015625,8.25927734375,-6.39208984375,43.82411764705883,200.4412869294772
0.59434375,0.04302685546875,0.32970458984375,0.6810293092221704,-2.58935546875,11.77001953125,-9.5517578125,44.01235294117648,200.4412869294772
0.772078125,-0.06000048828125,0.31407958984375,0.8356737871047064,-3.06298828125,13.84716796875,-11.26708984375,44.71823529411765,200.1317091827784
0.87510546875,-0.16400439453125,0.27989990234375,0.9333011187145122,-3.70849609375,14.50927734375,-11.73095703125,44.43588235294118,200.1317091827784
1.01377734375,-0.22748095703125,0.25499755859375,1.0698204725099592,-3.79248046875,12.6572265625,-11.416015625,44.76529411764706,200.1317091827784
1.13682421875,-0.32123095703125,0.29601318359375,1.2178597772129054,-4.4384765625,8.81298828125,-10.27294921875,44.01235294117648,200.1317091827784
1.18369921875,-0.23236376953125,0.29210693359375,1.2411539882358174,-4.828125,4.22265625,-8.603515625,44.01235294117648,200.31328034892104
1.1597734375,-0.31878955078125,0.36290771484375,1.2563451808762551,-5.31982421875,-0.08251953125,-6.9423828125,44.01235294117648,200.31328034892104
1.12412890625,-0.38421923828125,0.44054443359375,1.2670318144792905,-6.36767578125,-2.64404296875,-5.771484375,43.96529411764706,200.31328034892104
1.0972734375,-0.38666064453125,0.43761474609375,1.2429891860636135,-7.72412109375,-2.04931640625,-4.77392578125,44.57705882352941,200.31328034892104
0.998640625,-0.43060595703125,0.41857177734375,1.165292633169838,-9.3857421875,1.91455078125,-3.548828125,44.53,200.31328034892104
0.81846484375,-0.66107470703125,0.22570068359375,1.0760321869283702,-11.232421875,10.64111328125,-2.68408203125,43.82411764705883,200.1958242754488
0.74131640625,-0.64837939453125,0.06359130859375,0.9869091690509268,-10.6064453125,15.99951171875,-2.27392578125,43.96529411764706,200.1958242754488
0.998640625,-0.65228564453125,0.02062255859375,1.192973155559207,-7.04248046875,15.99951171875,-3.05224609375,43.87117647058824,200.1958242754488
1.2886796875,-0.73822314453125,0.07091552734375,1.4868415383339095,-3.91650390625,15.60302734375,-3.20654296875,44.53,200.1958242754488
1.432234375,-0.71039111328125,-0.0472485351562499,1.5994321688758877,-3.0048828125,9.79443359375,-2.01318359375,43.96529411764706,200.3666220099813
1.5484453125,-0.80365283203125,-0.1478344726562499,1.7508271735213108,-3.224609375,8.900390625,0.17578125,44.62411764705882,200.3666220099813
1.68955859375,-0.79242236328125,-0.1536938476562499,1.8724751646817912,-3.525390625,8.54833984375,2.5673828125,43.30647058823529,200.3666220099813
1.59385546875,-0.63080126953125,0.09728271484375,1.716901110580889,-3.576171875,6.26318359375,2.44873046875,44.71823529411765,200.3666220099813
1.25694140625,-0.44085986328125,0.17247802734375,1.3431335703177407,-3.005859375,2.60888671875,-0.10791015625,43.82411764705883,200.3666220099813
0.8296953125,-0.38910205078125,0.20909912109375,0.9399559351101656,-2.642578125,1.126953125,-2.154296875,44.15352941176471,200.5374987747697
0.62901171875,-0.46966845703125,0.29747802734375,0.8394863778568852,-3.2578125,1.48974609375,-2.7587890625,44.01235294117648,200.5374987747697
0.75791796875,-0.54144580078125,0.29308349609375,0.9764738287431518,-3.4599609375,2.18505859375,-1.3525390625,43.96529411764706,200.5374987747697
0.82920703125,-0.55902392578125,0.31847412109375,1.0495321891570335,-3.2060546875,2.7216796875,-0.0556640625,44.01235294117648,200.5374987747697
0.942,-0.45502001953125,0.29796630859375,1.0877458982828687,-3.263671875,4.07275390625,0.34375,44.76529411764706,200.5909169030008
1.12608203125,-0.30316455078125,0.30382568359375,1.2051056102955178,-3.35693359375,5.8359375,-0.42041015625,44.71823529411765,200.5909169030008
1.1324296875,-0.32171923828125,0.36730224609375,1.2332117439422676,-3.76806640625,5.46630859375,-2.6396484375,43.96529411764706,200.5909169030008
1.0425859375,-0.41693408203125,0.40978271484375,1.1952996859435332,-4.66845703125,4.53564453125,-4.767578125,43.40058823529412,200.5909169030008
0.811140625,-0.46576220703125,0.34142333984375,0.9957175523280044,-5.2099609375,4.61083984375,-4.44287109375,43.447647058823534,200.5909169030008
0.49131640625,-0.37054736328125,0.15587646484375,0.6348185817832419,-4.48876953125,5.451171875,-2.0791015625,43.82411764705883,200.29180769762667
0.25010546875,-0.28998095703125,-0.0199047851562499,0.3834552143491249,-2.4912109375,5.2099609375,0.34130859375,43.87117647058824,200.29180769762667
0.20908984375,-0.42865283203125,-0.1292797851562499,0.4941407451504648,-1.142578125,4.23974609375,0.43896484375,44.01235294117648,200.29180769762667
0.7574296875,-0.51263720703125,-0.0462719726562499,0.9157716598544908,-1.23046875,2.8486328125,0.23876953125,44.059411764705885,200.29180769762667
0.979109375,-0.61322314453125,-0.0296704101562499,1.1556721535282075,-1.8955078125,0.2265625,-0.95654296875,43.87117647058824,200.1742751869805
0.97325,-0.52142626953125,0.01232177734375,1.1041977826703804,-1.7958984375,-2.04296875,-2.2314453125,43.30647058823529,200.1742751869805
0.87217578125,-0.46722705078125,0.16515380859375,1.0031288505839189,-1.70556640625,-3.873046875,-2.572265625,43.40058823529412,200.1742751869805
0.73350390625,-0.44720751953125,0.28966552734375,0.9066028147654488,-1.740234375,-4.9765625,-1.900390625,44.01235294117648,200.1742751869805
0.63389453125,-0.39252001953125,0.35460693359375,0.8256151160402965,-1.72216796875,-4.84716796875,-1.05517578125,43.96529411764706,200.1742751869805
0.5591875,-0.32464892578125,0.38243896484375,0.7512304220396886,-1.37109375,-3.57958984375,-1.43115234375,44.15352941176471,200.5054033152181
0.54893359375,-0.27972705078125,0.39708740234375,0.7329759330197501,-1.19970703125,-1.73046875,-2.83349609375,44.76529411764706,200.5054033152181
0.60264453125,-0.29388720703125,0.38243896484375,0.7718870923476568,-1.22314453125,0.6708984375,-4.5224609375,43.82411764705883,200.5054033152181
0.67246875,-0.27923876953125,0.37120849609375,0.8173030390914209,-1.72265625,2.96435546875,-5.46484375,43.96529411764706,200.5054033152181
0.69932421875,-0.39691455078125,0.29845458984375,0.8577124609978454,-1.654296875,4.98486328125,-5.31494140625,43.40058823529412,200.35584848611765
0.72178515625,-0.45550830078125,0.31261474609375,0.9089497254186936,-1.81396484375,5.74365234375,-4.7734375,43.30647058823529,200.35584848611765
0.84483203125,-0.42425830078125,0.32286865234375,0.9989897063904432,-2.15478515625,4.7177734375,-3.888671875,44.01235294117648,200.35584848611765
0.8336015625,-0.26068408203125,0.31066162109375,0.9270158566321902,-2.25341796875,2.27392578125,-2.662109375,43.96529411764706,200.35584848611765
1.03965625,-0.24310595703125,0.39659912109375,1.138980459604324,-3.09375,-0.98046875,-2.775390625,44.01235294117648,200.35584848611765
1.0904375,-0.28607470703125,0.42150146484375,1.2035597884088236,-3.47265625,-4.25830078125,-4.1416015625,43.82411764705883,200.2169936410379
1.1060625,-0.56341845703125,0.40831787109375,1.3067280112878337,-2.923828125,-6.515625,-6.32763671875,43.96529411764706,200.2169936410379
1.2652421875,-0.63568408203125,0.45372802734375,1.4868763122650617,-1.935546875,-7.5546875,-5.7099609375,43.30647058823529,200.2169936410379
1.27549609375,-0.62787158203125,0.47277099609375,1.4982074033462156,-1.10986328125,-5.42236328125,-2.08837890625,44.76529411764706,200.2169936410379
1.17198046875,-0.65082080078125,0.42150146484375,1.4052648927253697,0.3466796875,-0.19873046875,1.447265625,44.01235294117648,200.19567215172287
1.08604296875,-0.72796923828125,0.48839599609375,1.3956930861960672,1.38671875,5.6494140625,2.7705078125,43.96529411764706,200.19567215172287
1.0035234375,-0.65619189453125,0.42101318359375,1.2707868400404814,1.21826171875,10.572265625,2.671875,44.57705882352941,200.19567215172287
0.846296875,-0.51459033203125,0.24083740234375,1.0193253969280285,1.23828125,12.94970703125,1.31201171875,43.68294117647059,200.19567215172287
0.77842578125,-0.43109423828125,0.00792724609375,0.8898605398738584,2.2490234375,12.3310546875,-0.408203125,43.96529411764706,200.19567215172287
1.06260546875,-0.48529345703125,-0.0033032226562499,1.1681827908913338,3.27978515625,8.36279296875,-0.9931640625,44.76529411764706,200.14233136782937
1.32041796875,-0.57464892578125,0.11290771484375,1.444462928624566,3.2138671875,1.947265625,0.65576171875,44.01235294117648,200.14233136782937
1.3560625,-0.52191455078125,0.15392333984375,1.461161420504969,2.513671875,-4.75390625,2.83935546875,44.01235294117648,200.14233136782937
1.2378984375,-0.33343798828125,0.25841552734375,1.3078042737223092,2.23876953125,-9.80908203125,4.34130859375,43.30647058823529,200.14233136782937
1.00303515625,-0.14935595703125,0.38292724609375,1.0839833958023184,2.15478515625,-12.15283203125,4.35400390625,43.447647058823534,200.3024310649543
0.80967578125,-0.04242236328125,0.47179443359375,0.9380642383223078,1.90576171875,-11.68212890625,3.07763671875,43.40058823529412,200.3024310649543
0.701765625,-0.01117236328125,0.49962646484375,0.8615256342705027,1.81591796875,-8.85009765625,1.33447265625,43.96529411764706,200.3024310649543
0.6656328125,-0.03705126953125,0.48009521484375,0.8215419970801273,2.10595703125,-3.7919921875,0.23583984375,43.40058823529412,200.3024310649543
0.69346484375,-0.09955126953125,0.46202880859375,0.839210679599024,2.5078125,1.513671875,0.20654296875,43.87117647058824,200.3024310649543
0.73838671875,-0.14691455078125,0.40050537109375,0.8527622083163573,2.654296875,5.6845703125,0.86572265625,43.87117647058824,200.4413615364004
0.8248125,-0.17669970703125,0.25402099609375,0.8809455789534564,2.68994140625,7.79248046875,1.3837890625,43.96529411764706,200.4413615364004
0.88584765625,-0.20160205078125,0.13976318359375,0.91918616419694,2.80029296875,7.72216796875,1.4306640625,44.76529411764706,200.4413615364004
0.95030078125,-0.17962939453125,-0.0194165039062499,0.9673237797387,2.95703125,6.1005859375,1.28955078125,43.96529411764706,200.4413615364004
1.04112109375,-0.23285205078125,-0.0296704101562499,1.0672551441164717,3.0380859375,2.87451171875,0.76513671875,43.30647058823529,200.46275857395585
1.11045703125,-0.31000048828125,-0.0755688476562499,1.155389878665756,2.88623046875,-1.43310546875,0.361328125,43.96529411764706,200.46275857395585
1.18369921875,-0.38812548828125,-0.0770336914062499,1.2480863050024191,2.86767578125,-5.89208984375,0.62939453125,43.87117647058824,200.46275857395585
1.19248828125,-0.45111376953125,-0.0452954101562499,1.2757678504181298,3.0048828125,-9.3583984375,1.65576171875,43.96529411764706,200.46275857395585
1.18955859375,-0.51459033203125,0.01525146484375,1.2961811080880594,3.28759765625,-11.484375,2.181640625,44.76529411764706,200.46275857395585
1.20616015625,-0.56781298828125,0.09581787109375,1.3365683583741037,3.5478515625,-12.74462890625,2.130859375,43.82411764705883,200.62286430762663
1.25498828125,-0.63226611328125,0.18517333984375,1.4174079123059449,3.818359375,-13.59619140625,2.1826171875,43.96529411764706,200.62286430762663
1.29746875,-0.69574267578125,0.24425537109375,1.4923617907323818,4.23046875,-13.49560546875,2.95947265625,44.71823529411765,200.62286430762663
1.35459765625,-0.71820361328125,0.32677490234375,1.567652090627893,4.3984375,-12.4453125,4.32080078125,44.76529411764706,200.62286430762663
1.3257890625,-0.68060595703125,0.36534912109375,1.5344122937708196,4.12890625,-11.09423828125,5.50048828125,43.447647058823534,199.96045798364207
1.26475390625,-0.56146533203125,0.32482177734375,1.4213919056630189,4.29345703125,-9.419921875,6.2919921875,44.71823529411765,199.96045798364207
1.190046875,-0.43939501953125,0.24034912109375,1.2911418387987708,4.8603515625,-7.28271484375,6.43603515625,43.87117647058824,199.96045798364207
1.08701953125,-0.31341845703125,0.16710693359375,1.1435765465336918,5.54150390625,-5.158203125,5.9873046875,43.30647058823529,199.96045798364207
0.990828125,-0.21283251953125,0.08312255859375,1.0168320482794624,6.41064453125,-3.20361328125,5.48388671875,43.96529411764706,199.96045798364207
0.90830859375,-0.18988330078125,0.02013427734375,0.9281624634296736,7.01904296875,-1.701171875,5.45947265625,44.62411764705882,200.31290654320017
0.88584765625,-0.20355517578125,-0.0687329101562499,0.9115289313069008,7.412109375,-0.94970703125,6.31689453125,44.71823529411765,200.31290654320017
0.9039140625,-0.27337939453125,-0.1263500976562499,0.9527650670114172,7.65869140625,-1.05126953125,7.470703125,43.777058823529416,200.31290654320017
0.92100390625,-0.28900439453125,-0.1722485351562499,0.9805311281390342,7.64892578125,-2.03173828125,8.15869140625,44.20058823529412,200.31290654320017
0.90147265625,-0.26800830078125,-0.1785961914062499,0.9572763440297172,7.453125,-3.97998046875,8.1064453125,44.01235294117648,200.2276169568277
0.80772265625,-0.24261767578125,-0.1483227539062499,0.856317035534962,7.2001953125,-6.591796875,7.162109375,44.76529411764706,200.2276169568277
0.6890703125,-0.23529345703125,-0.0584790039062499,0.7304797741131724,7.08056640625,-9.1474609375,5.8349609375,44.71823529411765,200.2276169568277
0.604109375,-0.26166064453125,0.06066162109375,0.6611310476245398,7.06982421875,-11.6513671875,4.81787109375,43.96529411764706,200.2276169568277
0.50694140625,-0.33636767578125,0.18566162109375,0.6360841455565189,7.4697265625,-12.916015625,4.17822265625,43.96529411764706,200.2276169568277
0.395125,-0.43158251953125,0.33947021484375,0.6764815323096437,8.05126953125,-12.18017578125,3.884765625,44.53,200.2062201502505
0.42393359375,-0.53070361328125,0.5401538085937501,0.8678318696601884,8.724609375,-10.4912109375,4.0341796875,44.71823529411765,200.2062201502505
0.2906328125,-0.57953173828125,0.6495288085937501,0.9177211671145892,9.54833984375,-6.4482421875,4.34130859375,44.059411764705885,200.2062201502505
0.2711015625,-0.69183642578125,0.7930834960937501,1.0867912076401804,10.61181640625,-0.89453125,4.5791015625,44.01235294117648,200.2062201502505
0.37022265625,-0.86322314453125,0.8868334960937501,1.2917788751365646,11.11962890625,4.5380859375,4.796875,44.01235294117648,200.4412869294772
0.51866015625,-1.06000048828125,0.9000170898437501,1.48412942658266,11.08056640625,9.451171875,5.37158203125,44.71823529411765,200.4412869294772
0.7671953125,-1.21625048828125,0.7657397460937501,1.6291750232906446,11.2607421875,13.423828125,6.45751953125,44.57705882352941,200.4412869294772
1.006453125,-1.26703173828125,0.6656420898437501,1.7496847460059273,11.3642578125,15.89453125,7.80859375,43.30647058823529,200.4412869294772
1.2779375,-0.98578173828125,0.5069506835937501,1.6917118209172697,10.72021484375,15.99951171875,9.33740234375,44.62411764705882,200.4412869294772
1.4234453125,-0.58343798828125,0.34581787109375,1.5767645492640008,10.68896484375,15.82275390625,9.81640625,43.30647058823529,200.2811092073824
1.3082109375,-0.36664111328125,0.21739990234375,1.3759012611673176,9.685546875,15.99951171875,8.8125,43.447647058823534,200.2811092073824
1.1685625,-0.21039111328125,0.09484130859375,1.191132910623222,8.0673828125,15.99951171875,6.5458984375,44.57705882352941,200.2811092073824
1.10215625,-0.09320361328125,-0.0985180664062499,1.1104688750033338,6.75830078125,15.99951171875,4.216796875,44.01235294117648,200.2811092073824
1.22666796875,-0.15765673828125,-0.1263500976562499,1.2431951978110587,4.99755859375,15.99951171875,2.76611328125,44.059411764705885,200.6655112188212
1.4507890625,-0.26898486328125,-0.1112133789062499,1.4796993533119511,2.64208984375,13.5712890625,3.83837890625,43.447647058823534,200.6655112188212
1.455671875,-0.51019580078125,0.01427490234375,1.5425576603932054,0.31689453125,2.89013671875,6.04052734375,43.82411764705883,200.6655112188212
1.1421953125,-0.63812548828125,0.02648193359375,1.308631179323655,-1.21875,-11.1064453125,7.4453125,43.30647058823529,200.6655112188212
0.92881640625,-0.73968798828125,0.34288818359375,1.235884518462364,-0.30859375,16.0,7.87109375,44.62411764705882,200.6655112188212
0.73057421875,-0.81976611328125,0.8570483398437501,1.3929418603859056,0.11376953125,16.0,7.28076171875,43.30647058823529,200.8042993950036
0.4371171875,-0.42523486328125,0.95909912109375,1.136559390722956,2.81689453125,16.0,6.05908203125,43.82411764705883,200.8042993950036
0.549421875,-0.13226611328125,1.3741381835937505,1.4858043172172355,5.91796875,16.0,3.95947265625,44.01235294117648,200.8042993950036
0.4810625,0.05572216796875,1.4351733398437505,1.5146777229191866,7.64990234375,-1.88427734375,1.17138671875,43.96529411764706,200.8042993950036
0.37803515625,0.18609326171875,1.2764819335937505,1.3442274391669455,8.830078125,13.31689453125,-1.5654296875,43.96529411764706,200.6762095945872
0.426375,0.19097607421875,0.97423583984375,1.0804642396604631,9.50048828125,15.99951171875,-2.12548828125,43.40058823529412,200.6762095945872
0.43028125,0.02886669921875,0.6553881835937501,0.7845437601687131,10.22119140625,15.99951171875,-1.5400390625,43.87117647058824,200.6762095945872
0.43809375,-0.18158251953125,0.37316162109375,0.603446717321169,10.29541015625,15.99951171875,-0.95068359375,43.87117647058824,200.6762095945872
0.46885546875,-0.35101611328125,0.14659912109375,0.6037624240256407,10.21484375,15.99951171875,-1.40966796875,44.059411764705885,200.6762095945872
0.55186328125,-0.46673876953125,0.15343505859375,0.7388778501086829,9.33056640625,9.92333984375,-1.93798828125,43.87117647058824,200.56929915255097
0.49326953125,-0.49066455078125,0.16027099609375,0.7139701142497796,8.18994140625,0.0361328125,-1.88623046875,44.01235294117648,200.56929915255097
0.361921875,-0.50873095703125,0.30870849609375,0.6964880227296892,7.6337890625,-5.97509765625,-1.8251953125,43.96529411764706,200.56929915255097
0.2437578125,-0.43841845703125,0.5694506835937501,0.7588825308740718,7.01611328125,-8.1962890625,-1.96240234375,44.76529411764706,200.56929915255097
0.13877734375,-0.38080126953125,0.7715991210937501,0.8715698260538652,6.37939453125,-7.38427734375,-1.99462890625,43.30647058823529,200.48400640907252
0.1031328125,-0.39007861328125,0.8829272460937501,0.9707513705621416,5.279296875,-4.2548828125,-1.91650390625,44.01235294117648,200.48400640907252
0.10850390625,-0.38763720703125,0.8965991210937501,0.982815183995741,4.32861328125,-0.32666015625,-1.39208984375,43.30647058823529,200.48400640907252
0.092390625,-0.35345751953125,0.8770678710937501,0.9501138332884106,3.6337890625,2.6669921875,-0.46484375,44.01235294117648,200.48400640907252
0.10948046875,-0.28119189453125,0.8013842773437501,0.8563128018204317,3.3017578125,3.3671875,0.06494140625,43.96529411764706,200.48400640907252
0.14854296875,-0.22406298828125,0.7388842773437501,0.7862691724774556,3.623046875,1.38623046875,0.0322265625,43.30647058823529,200.66558446891187
0.233015625,-0.23773486328125,0.7662280273437501,0.8354157866599061,4.1796875,-2.61083984375,0.11376953125,44.76529411764706,200.66558446891187
0.29014453125,-0.28460986328125,0.8970874023437501,0.9848616302481844,4.63232421875,-7.1787109375,0.4599609375,44.62411764705882,200.66558446891187
0.28965625,-0.29437548828125,1.0855639648437505,1.1614675169939837,4.75341796875,-11.380859375,0.9091796875,44.01235294117648,200.66558446891187
0.2623125,-0.21185595703125,1.2642749023437505,1.3084654458113043,5.50146484375,-12.63818359375,1.453125,44.62411764705882,200.16342669763245
0.2554765625,-0.11127001953125,1.4092944335937505,1.4365793022982165,5.783203125,-11.35205078125,2.1064453125,43.96529411764706,200.16342669763245
0.207625,-0.03705126953125,1.4195483398437505,1.435130107813234,5.82470703125,-7.822265625,2.2099609375,44.01235294117648,200.16342669763245
0.22471484375,5.810546874999989e-05,1.3365405273437505,1.3552997253781698,5.7080078125,-3.24462890625,2.263671875,43.30647058823529,200.16342669763245
0.30576953125,0.04400341796875,1.1583178710937505,1.1988042365327771,5.63671875,0.65234375,2.505859375,43.87117647058824,200.16342669763245
0.25303515625,0.08208935546875,0.98839599609375,1.0235683160756262,5.69287109375,2.73681640625,2.2978515625,44.57705882352941,200.43066303769024
0.2398515625,0.09771435546875,0.8389819335937501,0.8780475796874975,5.75830078125,2.89111328125,1.73681640625,43.447647058823534,200.43066303769024
0.27354296875,0.08697216796875,0.7130053710937501,0.768613409304238,5.8408203125,2.09228515625,1.18310546875,44.01235294117648,200.43066303769024
0.40244921875,0.02105419921875,0.6568530273437501,0.7706260782687525,5.79052734375,0.4384765625,0.79052734375,44.71823529411765,200.43066303769024
0.6089921875,-0.06146533203125,0.6358569335937501,0.8825890954895111,5.57421875,-1.41259765625,0.798828125,44.76529411764706,200.2917326209352
0.79600390625,-0.13763720703125,0.6290209960937501,1.0238328149905118,5.310546875,-3.08642578125,0.97900390625,44.20058823529412,200.2917326209352
0.90147265625,-0.17816455078125,0.6158374023437501,1.1061877160984084,5.19189453125,-4.201171875,1.0224609375,43.96529411764706,200.2917326209352
0.900984375,-0.08392626953125,0.6016772460937501,1.0866609274187289,5.31787109375,-4.54052734375,1.04296875,44.62411764705882,200.2917326209352
0.87412890625,-0.13568408203125,0.5875170898437501,1.061926478489426,5.48193359375,-4.16064453125,1.21044921875,44.01235294117648,200.2917326209352
0.78916796875,0.06206982421875,0.5440600585937501,0.9605415625242784,5.68408203125,-3.3740234375,1.52490234375,43.30647058823529,200.60154122680163
0.71299609375,0.10845654296875,0.5045092773437501,0.8801453643242143,6.0361328125,-2.34716796875,2.0888671875,43.447647058823534,200.60154122680163
0.7300859375,0.14556591796875,0.48156005859375,0.8866312664474193,6.40234375,-1.68310546875,2.8828125,44.059411764705885,200.60154122680163
0.7935625,0.21587841796875,0.46007568359375,0.9423452485077838,6.84716796875,-1.99755859375,3.59228515625,44.01235294117648,200.60154122680163
0.7545,0.21148388671875,0.5084155273437501,0.9340674669347458,7.35791015625,-2.86376953125,3.06396484375,44.01235294117648,200.60154122680163
0.8453203125,0.26128857421875,0.7344897460937501,1.1499188392487647,6.7783203125,-5.3857421875,1.9873046875,43.30647058823529,200.60154122680163
0.5406328125,0.19585888671875,1.6031420898437505,1.7031468232912144,3.14697265625,-10.0732421875,-0.61328125,44.29470588235294,200.60154122680163
0.55186328125,0.56548779296875,1.2603686523437505,1.4875680370993072,-0.27001953125,-12.06884765625,-1.4365234375,43.30647058823529,200.60154122680163
0.53965625,0.45953076171875,1.0689624023437505,1.2826059436765445,4.6865234375,-3.65234375,0.3310546875,43.96529411764706,200.60154122680163
0.13487109375,0.59429638671875,1.7271655273437505,1.83152372794919,3.3759765625,12.482421875,-3.111328125,43.87117647058824,200.18489831254703
0.928328125,0.82964794921875,1.0294116210937505,1.6154866489549693,7.8427734375,15.99951171875,-10.4228515625,44.71823529411765,200.18489831254703
0.70323046875,-0.11468798828125,0.8765795898437501,1.1296363149992044,11.83251953125,15.99951171875,-11.8994140625,44.01235294117648,200.18489831254703
0.361921875,-0.52191455078125,0.7154467773437501,0.9566850752114132,12.93359375,15.99951171875,-11.53369140625,43.30647058823529,200.18489831254703
0.30674609375,-0.22894580078125,0.7696459960937501,0.8595721639451759,10.55078125,15.99951171875,-12.4384765625,44.01235294117648,200.40919165230284
0.459578125,0.23247998046875,0.7066577148437501,0.8744278816720432,5.83154296875,15.99951171875,-15.1953125,44.43588235294118,200.40919165230284
0.41075,0.36529248046875,0.7393725585937501,0.9213175018355402,2.849609375,15.99951171875,-15.63330078125,43.96529411764706,200.40919165230284
0.28330859375,0.34478466796875,0.8248217773437501,0.9378012534324244,3.32666015625,15.99951171875,-13.77490234375,43.30647058823529,200.40919165230284
0.14366015625,0.34576123046875,0.98058349609375,1.049634727798428,4.66357421875,15.99951171875,-11.119140625,43.96529411764706,200.40919165230284
0.16612109375,0.27496044921875,1.1168139648437505,1.1620984891536907,5.671875,15.99951171875,-8.94482421875,43.87117647058824,200.29158377184336
0.20030078125,0.32134716796875,1.3184741210937505,1.371771997572787,6.77783203125,15.99951171875,-8.671875,44.059411764705885,200.29158377184336
0.2105546875,0.33990185546875,1.4215014648437505,1.4766627788131754,5.91064453125,14.95556640625,-8.03125,43.777058823529416,200.29158377184336
0.7925859375,-0.19085986328125,1.7266772460937505,1.9094591558638767,2.853515625,10.34521484375,-4.67822265625,43.30647058823529,200.29158377184336
0.59580859375,0.02447216796875,1.6597827148437505,1.7636511638885772,-0.677734375,6.2314453125,0.93212890625,44.62411764705882,200.41996455235528
0.2692705078124999,0.44073193359375,1.3528979492187505,2.2096323812498166,-5.95068359375,0.3291015625,12.765625,43.96529411764706,200.41996455235528
-0.057267578125,0.85699169921875,1.0460131835937505,2.401291053538293,-12.23046875,-10.888671875,15.99951171875,44.15352941176471,200.41996455235528
-0.3838056640625,1.27325146484375,0.7391284179687501,1.3863855604927429,-10.44091796875,16.0,15.99951171875,43.96529411764706,200.41996455235528
-0.71034375,1.68951123046875,0.43224365234375,1.883048330775277,1.0205078125,16.0,15.99951171875,43.82411764705883,200.41996455235528
-0.317033203125,1.37188427734375,0.6514819335937501,2.548628057377554,5.525390625,16.0,-2.62353515625,44.20058823529412,200.2063706541617
0.0762773437499999,1.05425732421875,0.8707202148437502,2.5348627093926823,-1.412109375,16.0,16.0,43.777058823529416,200.2063706541617
0.4695878906249999,0.7366303710937501,1.0899584960937505,1.864210665525473,-4.142578125,16.0,16.0,44.62411764705882,200.2063706541617
0.8628984375,0.41900341796875,1.3091967773437505,1.6230076338442458,2.96044921875,16.0,-14.0283203125,43.30647058823529,200.2063706541617
0.3238359375,-0.07953173828125,1.8839038085937505,1.913188064944108,5.99365234375,0.654296875,1.09228515625,44.20058823529412,200.3238279931179
0.0269609374999999,0.29595654296875,1.7584155273437505,1.7833514331955134,5.1865234375,15.99951171875,6.55712890625,43.54176470588236,200.3238279931179
0.08213671875,0.61382763671875,1.4620288085937505,1.5877843195235313,3.4765625,15.99951171875,1.5712890625,44.57705882352941,200.3238279931179
0.36045703125,0.67583935546875,1.1461108398437505,1.3784985175854654,1.5693359375,15.99951171875,-6.7841796875,43.40058823529412,200.3238279931179
0.631453125,0.59429638671875,0.7691577148437501,1.1591051870485642,1.43310546875,15.99951171875,-11.4453125,44.01235294117648,200.3238279931179
0.861921875,0.12798779296875,0.49181396484375,1.000585413529428,1.7763671875,15.99951171875,-10.0283203125,43.82411764705883,200.302506201251
0.8531328125,0.03912060546875,0.35167724609375,0.9236032172727018,1.67431640625,12.09619140625,-5.1640625,44.71823529411765,200.302506201251
0.580671875,0.29205029296875,0.28966552734375,0.7116033430011983,1.38427734375,-0.83154296875,-1.9189453125,43.96529411764706,200.302506201251
0.29893359375,0.47613232421875,0.39464599609375,0.6868833568161825,1.54833984375,-9.8330078125,-1.8115234375,44.71823529411765,200.302506201251
0.16514453125,0.50933544921875,0.5943530273437501,0.7999692726257231,1.2392578125,-13.94580078125,-2.8671875,43.30647058823529,200.14210472851897
0.15147265625,0.47369091796875,0.7628100585937501,0.9106076195866736,0.60546875,-13.37353515625,-3.078125,44.71823529411765,200.14210472851897
0.05869921875,0.49712841796875,0.7877124023437501,0.9333129652159208,1.3125,-7.6181640625,-2.7265625,44.76529411764706,200.14210472851897
0.0738359375,0.45415966796875,0.93322021484375,1.0404867702517917,1.89501953125,-0.0927734375,-2.5302734375,43.87117647058824,200.14210472851897
0.07871875,0.44048779296875,0.90587646484375,1.0103654323628914,1.5986328125,7.541015625,-2.802734375,44.62411764705882,200.14210472851897
0.08604296875,0.57281201171875,0.7940600585937501,0.982877596598124,1.77392578125,13.3896484375,-3.1484375,44.76529411764706,200.3239032486349
0.1373125,0.56988232421875,0.6861499023437501,0.9024534750332296,1.7646484375,15.99951171875,-3.73681640625,43.40058823529412,200.3239032486349
0.176375,0.58160107421875,0.5577319335937501,0.8248835432396667,1.2509765625,15.99951171875,-4.0400390625,43.63588235294118,200.3239032486349
0.1871171875,0.59673779296875,0.43468505859375,0.7616166592057824,0.95556640625,14.1748046875,-4.01806640625,43.40058823529412,200.3239032486349
0.16221484375,0.58648388671875,0.34142333984375,0.6977441521816069,0.7509765625,10.0029296875,-3.724609375,44.01235294117648,200.7724955784856
0.14463671875,0.56890576171875,0.26378662109375,0.6435502525798706,0.818359375,5.20166015625,-3.07666015625,44.20058823529412,200.7724955784856
0.15049609375,0.55523388671875,0.27111083984375,0.6359519090903037,1.31005859375,0.66162109375,-2.1982421875,44.76529411764706,200.7724955784856
0.1461015625,0.53374951171875,0.34825927734375,0.6538491661545012,1.5078125,-2.77587890625,-1.3564453125,44.57705882352941,200.7724955784856
0.17881640625,0.52984326171875,0.44786865234375,0.7164464522105861,1.39697265625,-5.24072265625,-0.39306640625,44.059411764705885,200.7724955784856
0.19834765625,0.55035107421875,0.5787280273437501,0.822893812874291,1.03955078125,-6.86962890625,-0.21044921875,43.96529411764706,200.39849325333327
0.21104296875,0.57769482421875,0.7349780273437501,0.9583648288966244,0.3203125,-8.02197265625,-0.5712890625,43.777058823529416,200.39849325333327
0.21934375,0.57183544921875,0.90343505859375,1.0914679870447712,-0.59033203125,-8.603515625,-0.88232421875,43.30647058823529,200.39849325333327
0.19541796875,0.61529248046875,1.0240405273437505,1.2105502966313415,-1.1923828125,-8.09619140625,-0.80859375,44.53,200.39849325333327
0.16709765625,0.65386669921875,1.1475756835937505,1.3313125991468455,-1.19482421875,-6.41552734375,-0.20947265625,43.87117647058824,200.3984193196096
0.13389453125,0.66460888671875,1.1944506835937505,1.3734428103644398,-0.56494140625,-3.46337890625,0.490234375,44.71823529411765,200.3984193196096
0.127546875,0.66607373046875,1.1529467773437505,1.3376130573264309,0.44140625,0.755859375,1.0185546875,44.76529411764706,200.3984193196096
0.1295,0.65826123046875,1.0753100585937505,1.2674264553224095,1.66552734375,5.03759765625,1.12548828125,43.40058823529412,200.3984193196096
0.12901171875,0.59087841796875,0.95421630859375,1.12973894859935,2.46240234375,8.23046875,0.93310546875,43.82411764705883,200.3984193196096
0.1363359375,0.51665966796875,0.8131030273437501,0.972965175859421,2.90283203125,9.70068359375,0.87451171875,43.30647058823529,200.19552176702712
0.15244921875,0.44537060546875,0.6988452148437501,0.8426033318371662,3.15283203125,9.1943359375,1.306640625,43.30647058823529,200.19552176702712
0.20030078125,0.41900341796875,0.6192553710937501,0.7740552188747993,3.10302734375,6.6796875,2.2119140625,44.01235294117648,200.19552176702712
0.22764453125,0.43414013671875,0.5738452148437501,0.7547171798212076,3.1142578125,2.8359375,3.029296875,44.76529411764706,200.19552176702712
0.24278125,0.44537060546875,0.5963061523437501,0.7828657221325833,2.98876953125,-1.48779296875,3.63720703125,44.62411764705882,200.27041073051328
0.24229296875,0.47613232421875,0.6514819335937501,0.8425180013926639,2.88525390625,-4.8603515625,4.00048828125,44.15352941176471,200.27041073051328
0.2164140625,0.50103466796875,0.7496264648437501,0.9272597380175888,2.96826171875,-6.72119140625,4.29541015625,43.40058823529412,200.27041073051328
0.2222734375,0.54693310546875,0.8370288085937501,1.024284398637229,3.22216796875,-6.77490234375,4.41259765625,43.87117647058824,200.27041073051328
0.1871171875,0.55767529296875,0.91271240234375,1.0858446038166745,3.40185546875,-4.6513671875,4.3798828125,44.01235294117648,200.27041073051328
0.1519609375,0.56988232421875,0.95665771484375,1.123855850789108,3.2421875,-1.103515625,4.38916015625,44.76529411764706,200.2383905935857
0.1285234375,0.56841748046875,0.94493896484375,1.1101920344558576,2.9443359375,3.0947265625,4.3046875,44.62411764705882,200.2383905935857
0.1324296875,0.56011669921875,0.8804858398437501,1.0519142802721184,2.55419921875,6.349609375,4.1845703125,43.96529411764706,200.2383905935857
0.176375,0.53912060546875,0.7955249023437501,0.977046077784986,2.25244140625,8.1962890625,4.19970703125,43.82411764705883,200.2383905935857
0.0816484375,0.49419873046875,0.7154467773437501,0.8733630080067928,1.5263671875,8.89697265625,4.56787109375,43.87117647058824,200.4519853819572
0.23741015625,0.49126904296875,0.6173022460937501,0.8238755475813502,0.77490234375,8.10498046875,4.96533203125,43.87117647058824,200.4519853819572
0.26866015625,0.49956982421875,0.5347827148437501,0.779577347619772,0.2861328125,6.17236328125,5.2236328125,43.96529411764706,200.4519853819572
0.2925859375,0.52007763671875,0.49034912109375,0.7723532479346009,-0.10400390625,3.4580078125,5.38623046875,44.76529411764706,200.4519853819572
0.24278125,0.50689404296875,0.6021655273437501,0.8237036047450224,-0.423828125,-2.48046875,5.6962890625,43.82411764705883,200.35584848611765
0.24229296875,0.50298779296875,0.6226733398437501,0.836316142815283,-0.42626953125,-2.572265625,5.7880859375,43.40058823529412,200.35584848611765
0.2378984375,0.49712841796875,0.6509936523437501,0.8529507992310629,-0.4111328125,-2.55712890625,5.8642578125,44.01235294117648,200.35584848611765
0.2378984375,0.49175732421875,0.6758959960937501,0.869054848685219,-0.42919921875,-2.4462890625,5.93017578125,44.01235294117648,200.35584848611765
0.2496171875,0.48882763671875,0.7354663085937501,0.9176992371098308,-0.41259765625,-1.86669921875,6.0126953125,43.87117647058824,200.35584848611765
0.26475390625,0.48638623046875,0.7808764648437501,0.957305724108608,-0.5029296875,-0.779296875,5.96923828125,43.30647058823529,200.441139019922
0.2935625,0.48589794921875,0.8165209960937501,0.9944758898651926,-0.68408203125,0.0693359375,5.7978515625,43.82411764705883,200.441139019922
0.326765625,0.47906201171875,0.8497241210937501,1.0287406216934385,-0.7705078125,0.38525390625,5.69921875,44.62411764705882,200.441139019922
0.36436328125,0.47320263671875,0.8878100585937501,1.0699944094531906,-0.81298828125,0.185546875,5.79248046875,43.87117647058824,200.441139019922
0.37705859375,0.47173779296875,0.93370849609375,1.111989785975306,-0.72314453125,-0.30029296875,5.93212890625,44.62411764705882,200.441139019922
0.39756640625,0.48540966796875,0.99279052734375,1.174442260956048,-0.45654296875,-0.9580078125,6.09814453125,43.58882352941177,200.30235636341635
0.40830859375,0.50445263671875,1.0523608398437505,1.236386552684574,-0.03662109375,-1.29638671875,6.26220703125,43.96529411764706,200.30235636341635
0.43760546875,0.51519482421875,1.1251147460937505,1.3125575968540582,0.36572265625,-0.98876953125,6.416015625,44.01235294117648,200.30235636341635
0.45908984375,0.51763623046875,1.1734545898437505,1.3622431597015492,0.6396484375,-0.056640625,6.3603515625,44.57705882352941,200.30235636341635
0.48741015625,0.50054638671875,1.1954272460937505,1.384616064610018,0.8798828125,1.212890625,6.1650390625,44.62411764705882,200.2810341903011
0.50205859375,0.45611279296875,1.1812670898437505,1.3621650593874093,1.05859375,2.6533203125,6.0908203125,43.87117647058824,200.2810341903011
0.47276171875,0.40191357421875,1.1592944335937505,1.314915110422798,1.11181640625,4.4345703125,6.166015625,43.447647058823534,200.2810341903011
0.42295703125,0.37359326171875,1.1114428710937505,1.2465030409873,1.119140625,5.83203125,6.2783203125,43.30647058823529,200.2810341903011
0.35996875,0.34820263671875,1.0548022460937505,1.1676602055216547,1.109375,6.85986328125,6.45849609375,44.62411764705882,200.2810341903011
0.299421875,0.34185498046875,0.98741943359375,1.0869753560860556,1.09033203125,7.390625,6.52587890625,44.01235294117648,200.37709649552943
0.25889453125,0.35113232421875,0.90734130859375,1.0067713433064318,1.044921875,7.53662109375,6.3701171875,44.71823529411765,200.37709649552943
0.24326953125,0.38140576171875,0.8243334960937501,0.9403064036201176,1.05224609375,7.03857421875,6.14501953125,44.15352941176471,200.37709649552943
0.21690234375,0.39263623046875,0.7388842773437501,0.8643840648153738,0.97314453125,6.15478515625,5.78857421875,43.82411764705883,200.37709649552943
0.20518359375,0.41753857421875,0.6622241210937501,0.8093080715420929,0.87353515625,5.0556640625,5.177734375,43.447647058823534,200.49463082001603
0.1734453125,0.44292919921875,0.6099780273437501,0.7735261765389446,0.822265625,3.76220703125,4.490234375,44.059411764705885,200.49463082001603
0.18565234375,0.45318310546875,0.5772631835937501,0.757016844564875,0.64111328125,2.5234375,3.7099609375,43.30647058823529,200.49463082001603
0.2164140625,0.46490185546875,0.6050952148437501,0.7931639179216642,0.3076171875,1.50830078125,3.48193359375,44.15352941176471,200.49463082001603
0.23545703125,0.47369091796875,0.6573413085937501,0.8437539305478133,-0.2041015625,1.060546875,3.52197265625,43.82411764705883,200.49463082001603
0.22471484375,0.51958935546875,0.7291186523437501,0.9230838902903592,-0.939453125,1.00146484375,3.5224609375,44.62411764705882,200.38786917662588
0.21397265625,0.54449169921875,0.7999194335937501,0.9910230110253488,-1.544921875,0.74365234375,3.2333984375,43.30647058823529,200.38786917662588
0.2066484375,0.52105419921875,0.8687670898437501,1.0339039179925098,-2.07666015625,-0.189453125,2.78662109375,44.76529411764706,200.38786917662588
0.19834765625,0.47027294921875,0.91368896484375,1.046578216849564,-2.64404296875,-0.77880859375,2.4814453125,43.30647058823529,200.38786917662588
0.19834765625,0.44390576171875,0.92394287109375,1.0440615628744954,-3.181640625,-0.82470703125,2.32861328125,43.87117647058824,200.5373506617981
0.27354296875,0.43902294921875,0.8843920898437501,1.0245566232627108,-3.46728515625,-0.58203125,2.0986328125,44.62411764705882,200.5373506617981
0.23057421875,0.43951123046875,0.8624194335937501,0.9950386281449036,-3.77001953125,-0.27490234375,1.6748046875,43.96529411764706,200.5373506617981
0.2222734375,0.40533154296875,0.7047045898437501,0.8427975437139943,-3.84228515625,0.3818359375,1.6064453125,43.96529411764706,200.5373506617981
0.1363359375,0.38482373046875,0.8301928710937501,0.9251470124260106,-3.986328125,1.14501953125,1.083984375,43.87117647058824,200.5373506617981
0.1773515625,0.37164013671875,0.7906420898437501,0.891450998190038,-3.7685546875,1.70556640625,0.9306640625,44.71823529411765,200.27033577304212
0.20127734375,0.34917919921875,0.7789233398437501,0.8770178171664732,-3.60107421875,1.9580078125,0.8203125,44.76529411764706,200.27033577304212
0.23448046875,0.35064404296875,0.7593920898437501,0.8686821520049485,-3.50732421875,1.67236328125,0.7333984375,44.57705882352941,200.27033577304212
0.2476640625,0.34087841796875,0.7618334960937501,0.8705893747693614,-3.5400390625,0.75732421875,0.51025390625,43.87117647058824,200.27033577304212
0.25108203125,0.32378857421875,0.7769702148437501,0.8783871253414295,-3.6103515625,-0.3828125,0.2373046875,44.76529411764706,200.47330797606745
0.28526171875,0.29351513671875,0.8155444335937501,0.9124900584844644,-3.66064453125,-1.77490234375,0.11572265625,43.777058823529416,200.47330797606745
0.3257890625,0.28033154296875,0.8643725585937501,0.965331138665782,-3.5380859375,-3.02099609375,0.2333984375,43.30647058823529,200.47330797606745
0.33799609375,0.29253857421875,0.91857177734375,1.0215646268977083,-3.3515625,-3.923828125,0.4150390625,44.01235294117648,200.47330797606745
0.33653125,0.30035107421875,1.0045092773437505,1.1011371114809376,-3.4306640625,-3.93359375,0.4560546875,44.71823529411765,200.47330797606745
0.3296953125,0.33892529296875,1.0538256835937505,1.155040226442465,-3.16796875,-3.96826171875,0.22021484375,43.87117647058824,200.51588062870272
0.275984375,0.33111279296875,1.1295092773437505,1.2089641287140442,-3.19091796875,-3.34375,-0.01513671875,44.20058823529412,200.51588062870272
0.26768359375,0.33648388671875,1.1534350585937505,1.2309704898077125,-3.26025390625,-2.42236328125,-0.25341796875,43.96529411764706,200.51588062870272
0.28135546875,0.33355419921875,1.1622241210937505,1.2414444052248712,-3.17138671875,-1.4609375,-0.6611328125,44.01235294117648,200.51588062870272
0.3023515625,0.31890576171875,1.1402514648437505,1.2220027640238489,-3.12109375,-0.50146484375,-0.8857421875,44.76529411764706,200.2487906064344
0.34483203125,0.29546826171875,1.1075366210937505,1.1970162866573129,-3.07568359375,0.1259765625,-1.14013671875,43.87117647058824,200.2487906064344
0.3902421875,0.25982373046875,1.0577319335937505,1.1569763088168472,-2.98193359375,0.75830078125,-1.33642578125,44.059411764705885,200.2487906064344
0.45030078125,0.20464794921875,1.0006030273437505,1.1161800907753543,-2.859375,0.93896484375,-1.42919921875,43.87117647058824,200.2487906064344
0.5015703125,0.15289013671875,0.94445068359375,1.0802477799227026,-2.73583984375,0.78955078125,-1.5791015625,43.87117647058824,200.2487906064344
0.5015703125,0.12017529296875,0.92198974609375,1.05644686157113,-2.52783203125,0.109375,-1.76318359375,44.57705882352941,200.08868786313025
0.5152421875,0.09478466796875,0.91564208984375,1.054921362830027,-2.2255859375,-1.03759765625,-1.751953125,44.059411764705885,200.08868786313025
0.5406328125,0.08013623046875,0.94640380859375,1.0928796010110886,-2.0625,-2.46875,-1.65966796875,43.40058823529412,200.08868786313025
0.57920703125,0.10015576171875,1.0157397460937505,1.1735583468449695,-2.060546875,-3.76708984375,-1.7177734375,44.71823529411765,200.08868786313025
0.57530078125,0.11968701171875,1.1016772460937505,1.2485946997491757,-2.11767578125,-4.78271484375,-2.10400390625,43.447647058823534,200.3877948677438
0.5484453125,0.11236279296875,1.1832202148437505,1.3089796541053842,-2.22216796875,-4.65576171875,-2.50048828125,43.30647058823529,200.3877948677438
0.49717578125,0.09576123046875,1.2545092773437505,1.352829441453717,-2.259765625,-3.18994140625,-3.05419921875,44.01235294117648,200.3877948677438
0.4644609375,0.05230419921875,1.2823413085937505,1.3648658994367269,-2.5048828125,-0.5478515625,-3.22265625,44.71823529411765,200.3877948677438
0.457625,0.00249951171875,1.2476733398437505,1.3289528400739774,-2.86767578125,2.58984375,-3.12109375,43.82411764705883,200.3877948677438
0.47080859375,-0.03363330078125,1.1680834960937505,1.2598456193982233,-2.97509765625,5.16064453125,-2.8427734375,44.15352941176471,200.52672606061165
0.50498828125,-0.03119189453125,1.0587084960937505,1.173392422928224,-2.92333984375,6.408203125,-2.509765625,43.82411764705883,200.52672606061165
0.52842578125,-0.01752001953125,0.95714599609375,1.093466604525417,-2.7451171875,6.27490234375,-2.26611328125,44.57705882352941,200.52672606061165
0.54014453125,-0.01654345703125,0.8746264648437501,1.0281056626703806,-2.537109375,5.05078125,-2.08154296875,44.01235294117648,200.52672606061165
0.5425859375,-0.03216845703125,0.8228686523437501,0.9861780408275904,-2.3447265625,3.2587890625,-1.849609375,43.96529411764706,200.25948887771776
0.53037890625,-0.05658251953125,0.8096850585937501,0.9695840653710306,-2.15283203125,1.53759765625,-1.6904296875,43.82411764705883,200.25948887771776
0.51768359375,-0.05511767578125,0.8355639648437501,0.9844802693639164,-1.9599609375,0.27294921875,-1.52880859375,43.87117647058824,200.25948887771776
0.51377734375,-0.04974658203125,0.8965991210937501,1.034568444000049,-1.8525390625,-0.2265625,-1.52880859375,44.76529411764706,200.25948887771776
0.54698046875,-0.03363330078125,0.96251708984375,1.1075910709087056,-1.81298828125,-0.20947265625,-1.86083984375,44.57705882352941,200.25948887771776
0.59873828125,-0.02289111328125,1.0421069335937505,1.2020808598200157,-1.8740234375,0.16748046875,-2.2890625,44.71823529411765,200.2596373691633
0.64903125,-0.00238330078125,1.0899584960937505,1.2685648453296057,-1.96533203125,0.701171875,-2.71533203125,43.87117647058824,200.2596373691633
0.70371875,0.02007763671875,1.1324389648437505,1.33343211289295,-1.685546875,0.90087890625,-2.97412109375,43.40058823529412,200.2596373691633
0.70371875,0.01519482421875,1.1871264648437505,1.380116011542878,-1.56494140625,1.4951171875,-3.10107421875,44.71823529411765,200.2596373691633
0.68662890625,0.03033154296875,1.2134936523437505,1.3946132444787376,-1.56201171875,2.53955078125,-3.10986328125,43.30647058823529,200.409117658969
0.6500078125,0.06255810546875,1.2379077148437505,1.3995853612197258,-1.3525390625,3.96435546875,-3.11962890625,43.96529411764706,200.409117658969
0.5904375,0.10113232421875,1.2130053710937505,1.3528585361043568,-1.10888671875,5.7041015625,-3.26953125,44.059411764705885,200.409117658969
0.56846484375,0.12652294921875,1.1397631835937505,1.2799298613340042,-1.03076171875,7.62744140625,-3.39501953125,43.447647058823534,200.409117658969
0.5279375,0.17486279296875,1.0465014648437505,1.185099285372832,-0.8740234375,8.9541015625,-3.7138671875,44.01235294117648,200.409117658969
0.514265625,0.16949169921875,0.93273193359375,1.0785107459391563,-0.49267578125,9.57421875,-3.89794921875,43.82411764705883,200.68690798372825
0.4781328125,0.11871044921875,0.95275146484375,1.0725849667531189,-0.30078125,9.74658203125,-4.11083984375,43.30647058823529,200.68690798372825
0.4722734375,0.09966748046875,0.7139819335937501,0.8618271334376316,0.09326171875,9.33056640625,-4.16748046875,43.96529411764706,200.68690798372825
0.48643359375,0.04205029296875,0.6397631835937501,0.8047874249448163,0.57421875,8.0732421875,-3.873046875,43.87117647058824,200.68690798372825
0.4498125,0.10455029296875,0.6119311523437501,0.7666301481971938,0.85693359375,6.619140625,-2.98583984375,44.01235294117648,200.32367878636995
0.41905078125,-0.04974658203125,0.6021655273437501,0.7353105480075774,1.134765625,4.9111328125,-2.29150390625,44.15352941176471,200.32367878636995
0.377546875,-0.04242236328125,0.6148608398437501,0.7227690862938132,1.31591796875,3.9013671875,-1.931640625,44.059411764705885,200.32367878636995
0.317,-0.02679736328125,0.6402514648437501,0.714932889796934,1.32080078125,3.599609375,-1.91455078125,44.76529411764706,200.32367878636995
0.23155078125,0.00884716796875,0.6544116210937501,0.6942251842890047,1.36865234375,3.7060546875,-2.13916015625,44.62411764705882,200.32367878636995
0.17686328125,0.06451123046875,0.6685717773437501,0.6945721996824302,1.14306640625,4.3388671875,-2.23193359375,44.76529411764706,200.33437715129904
0.15733203125,0.10796826171875,0.6514819335937501,0.6788514000831631,0.9443359375,5.09912109375,-2.36279296875,43.82411764705883,200.33437715129904
0.1382890625,0.15044873046875,0.6246264648437501,0.6572038541350682,0.7265625,5.7392578125,-2.63916015625,43.82411764705883,200.33437715129904
0.14756640625,0.17583935546875,0.6187670898437501,0.6599757833882308,0.62744140625,6.29296875,-2.962890625,43.96529411764706,200.33437715129904
0.16465625,0.19683544921875,0.5391772460937501,0.5971331320890257,-0.02001953125,6.16650390625,-3.1123046875,43.87117647058824,200.3450755296082
0.15635546875,0.21050732421875,0.47667724609375,0.5440418762386695,-0.27197265625,5.86865234375,-3.15087890625,43.30647058823529,200.3450755296082
0.14658984375,0.17876904296875,0.43126708984375,0.4893242849041006,-0.64599609375,5.0654296875,-3.21826171875,43.96529411764706,200.3450755296082
0.14561328125,0.16070263671875,0.40392333984375,0.4584567914158102,-1.0126953125,4.0888671875,-3.20556640625,43.30647058823529,200.3450755296082
0.1373125,0.14458935546875,0.39171630859375,0.4395480301280312,-1.326171875,2.92529296875,-3.2607421875,43.40058823529412,200.3450755296082
0.12022265625,0.14361279296875,0.42198974609375,0.461685463479584,-1.56884765625,1.849609375,-3.28369140625,44.76529411764706,200.37717074480136
0.11045703125,0.14947216796875,0.46642333984375,0.5020890525602406,-1.7353515625,0.95068359375,-3.3994140625,44.059411764705885,200.37717074480136
0.12412890625,0.15435498046875,0.5186694335937501,0.555203950550418,-1.86962890625,0.3271484375,-3.56689453125,44.71823529411765,200.37717074480136
0.1089921875,0.16167919921875,0.5875170898437501,0.6190281021524956,-2.0078125,-0.00048828125,-3.74658203125,44.57705882352941,200.37717074480136
0.0748125,0.13824169921875,0.6597827148437501,0.6782484119890931,-2.11865234375,-0.31005859375,-3.8583984375,44.20058823529412,200.75102530734307
0.09678515625,0.13042919921875,0.7159350585937501,0.7341267946361975,-2.18896484375,-0.39697265625,-3.80810546875,44.71823529411765,200.75102530734307
0.0816484375,0.14214794921875,0.7715991210937501,0.788820455164504,-2.18798828125,-0.6083984375,-3.8681640625,43.96529411764706,200.75102530734307
0.0855546875,0.14703076171875,0.8448413085937501,0.8617972419027683,-2.09814453125,-0.95849609375,-3.86279296875,43.30647058823529,200.75102530734307
0.07432421875,0.14996044921875,0.92101318359375,0.9360969555426308,-1.91357421875,-1.4658203125,-3.71630859375,43.82411764705883,200.75102530734307
0.07823046875,0.13335888671875,1.0279467773437505,1.0395091033555746,-1.82177734375,-1.7900390625,-3.53857421875,44.01235294117648,200.39849325333327
0.096296875,0.11333935546875,1.1299975585937505,1.1397426815122234,-1.6640625,-2.18017578125,-3.4716796875,44.059411764705885,200.39849325333327
0.13194140625,0.10699169921875,1.2779467773437505,1.2891872339222956,-1.90478515625,-2.1025390625,-3.36376953125,43.82411764705883,200.39849325333327
0.16075,0.12945263671875,1.3936694335937505,1.408869418287927,-1.93017578125,-1.6484375,-3.345703125,43.87117647058824,200.39849325333327
0.20811328125,0.14019482421875,1.4883959960937505,1.5094000025699863,-2.08251953125,-0.79638671875,-3.5,44.059411764705885,200.66558446891187
0.23936328125,0.13580029296875,1.5504077148437505,1.5746430015175454,-2.45068359375,0.43017578125,-3.404296875,43.96529411764706,200.66558446891187
0.2652421875,0.15191357421875,1.5401538085937505,1.570192633464931,-2.802734375,1.552734375,-3.2177734375,43.87117647058824,200.66558446891187
0.2515703125,0.13042919921875,1.4844897460937505,1.5112938841925083,-2.98974609375,2.12841796875,-2.9345703125,44.76529411764706,200.66558446891187
0.2144609375,0.10308544921875,1.4048999023437505,1.4249083616708442,-3.1025390625,2.43115234375,-2.50390625,44.01235294117648,200.66558446891187
0.1714921875,0.08794873046875,1.3297045898437505,1.3435992132388794,-3.01806640625,2.1845703125,-2.06884765625,43.30647058823529,200.47330797606745
0.13389453125,0.07867138671875,1.2681811523437505,1.2776542442096104,-2.81005859375,1.7431640625,-1.7421875,44.57705882352941,200.47330797606745
0.1060625,0.06451123046875,1.2222827148437505,1.228570709307629,-2.52392578125,1.3408203125,-1.58056640625,44.76529411764706,200.47330797606745
0.09483203125,0.06304638671875,1.1968920898437505,1.202297232700729,-2.1875,1.1962890625,-1.3544921875,44.01235294117648,200.47330797606745
0.08311328125,0.07037060546875,1.1573413085937505,1.16245376003163,-1.828125,1.36669921875,-1.10693359375,43.87117647058824,200.6120924927125
0.0748125,0.08599560546875,1.1319506835937505,1.1376750434129006,-1.564453125,1.83056640625,-0.8779296875,43.87117647058824,200.6120924927125
0.07090625,0.09624951171875,1.0919116210937505,1.098436458369232,-1.3955078125,2.431640625,-0.80078125,43.87117647058824,200.6120924927125
0.09483203125,0.10064404296875,1.0396655273437505,1.0488215988827914,-1.28369140625,2.86572265625,-0.6484375,43.82411764705883,200.6120924927125
0.10948046875,0.10747998046875,0.96593505859375,0.9780431772983204,-1.1767578125,3.05810546875,-0.4326171875,44.76529411764706,200.6120924927125
0.1871171875,0.11919873046875,0.8736499023437501,0.9013796819700984,-0.92431640625,2.89404296875,0.10546875,44.059411764705885,200.48400640907252
0.1216875,0.11968701171875,0.8150561523437501,0.8327360685738384,-0.6689453125,2.5146484375,0.35498046875,43.96529411764706,200.48400640907252
0.108015625,0.09527294921875,0.7735522460937501,0.7868464828247406,-0.46435546875,2.259765625,0.56591796875,43.30647058823529,200.48400640907252
0.0640703125,0.04790966796875,0.7667163085937501,0.7708788744623569,-0.333984375,2.47119140625,0.7080078125,43.30647058823529,200.48400640907252
0.061140625,0.04693310546875,0.7379077148437501,0.7419222924540391,-0.06689453125,2.51220703125,0.8369140625,43.30647058823529,200.58007067552376
0.07920703125,0.05181591796875,0.7081225585937501,0.7144201852857613,0.216796875,2.1904296875,1.2958984375,43.30647058823529,200.58007067552376
0.0757890625,0.06353466796875,0.6715014648437501,0.6787450576732256,0.48876953125,1.68798828125,1.4892578125,44.62411764705882,200.58007067552376
0.0660234375,0.08697216796875,0.6700366210937501,0.6788757809107867,0.72509765625,1.2109375,1.56591796875,43.54176470588236,200.58007067552376
0.05479296875,0.08697216796875,0.6841967773437501,0.6918754639045932,0.8603515625,0.791015625,1.7421875,43.82411764705883,200.58007067552376
0.0303789062499999,0.09869091796875,0.7056811523437501,0.7131960908527639,0.91650390625,0.41796875,1.8466796875,43.30647058823529,200.62271784953336
0.0240312499999999,0.10015576171875,0.7398608398437501,0.7469958098385323,0.947265625,0.1455078125,1.85693359375,44.71823529411765,200.62271784953336
0.0230546874999999,0.10796826171875,0.7696459960937501,0.7775240340063013,0.97314453125,0.0966796875,1.85302734375,43.447647058823534,200.62271784953336
0.0235429687499999,0.12554638671875,0.8033374023437501,0.8134292523631675,1.029296875,0.2138671875,1.7626953125,43.40058823529412,200.62271784953336
0.0303789062499999,0.14361279296875,0.8326342773437501,0.8454746312320555,1.091796875,0.4462890625,1.685546875,44.71823529411765,200.2809596079836
0.0269609374999999,0.15044873046875,0.8560717773437501,0.8696094529241415,1.19580078125,0.669921875,1.52880859375,43.777058823529416,200.2809596079836
0.03233203125,0.14458935546875,0.8834155273437501,0.8957535575768903,1.27294921875,0.658203125,1.43505859375,43.96529411764706,200.2809596079836
0.03623828125,0.13140576171875,0.90099365234375,0.911246535688652,1.33740234375,0.47900390625,1.3916015625,44.76529411764706,200.2809596079836
0.0230546874999999,0.11138623046875,0.94493896484375,0.951760504661618,1.359375,0.037109375,1.36669921875,44.57705882352941,200.2809596079836
0.0152421874999999,0.09331982421875,1.0025561523437505,1.007005338850946,1.3447265625,-0.49609375,1.26416015625,43.82411764705883,200.51595391381773
0.0040117187499999,0.09185498046875,1.0650561523437505,1.0690173239800735,1.23095703125,-0.89111328125,1.0166015625,44.01235294117648,200.51595391381773
-0.020890625,0.10455029296875,1.1265795898437505,1.1316133413075575,1.02001953125,-1.08740234375,0.63623046875,43.87117647058824,200.51595391381773
-0.020890625,0.11529248046875,1.1739428710937505,1.1797756731079707,0.87158203125,-0.94921875,0.21826171875,43.82411764705883,200.51595391381773
0.0215898437499999,0.13433544921875,1.1929858398437505,1.2007195127662629,0.44921875,-0.49609375,-0.04541015625,43.96529411764706,200.3876475542756
-0.00477734375,0.16900341796875,1.1710131835937505,1.183155465037793,0.25830078125,0.47509765625,-0.28076171875,44.62411764705882,200.3876475542756
-0.0062421875,0.18951123046875,1.1246264648437505,1.1404990823343597,0.11962890625,0.91650390625,-0.46337890625,43.87117647058824,200.3876475542756
0.0191484374999999,0.19146435546875,1.0616381835937505,1.0789350744776038,0.05029296875,0.81884765625,-0.6767578125,43.82411764705883,200.3876475542756
0.05088671875,0.18951123046875,1.0064624023437505,1.0254123716585803,0.0556640625,0.3310546875,-0.921875,43.96529411764706,200.3876475542756
0.07530078125,0.18023388671875,0.98448974609375,1.0036804878756704,0.0791015625,-0.29833984375,-1.154296875,44.62411764705882,200.56929915255097
0.09776171875,0.17535107421875,0.97960693359375,0.9999675480872234,0.1044921875,-0.90380859375,-1.28125,44.01235294117648,200.56929915255097
0.1109453125,0.16021435546875,1.0020678710937505,1.0208415745561847,0.0947265625,-1.31982421875,-1.2626953125,44.01235294117648,200.56929915255097
0.1050859375,0.13970654296875,1.0220874023437505,1.0369299062320116,0.01708984375,-1.46435546875,-1.18896484375,43.96529411764706,200.56929915255097
0.0933671875,0.12066357421875,1.0391772460937505,1.0503173228333875,-0.0078125,-1.322265625,-1.01904296875,43.54176470588236,200.4945572193528
0.08897265625,0.09331982421875,1.0572436523437505,1.0650769284767894,-0.0234375,-0.9404296875,-0.8271484375,43.96529411764706,200.4945572193528
0.084578125,0.06548779296875,1.0479663085937505,1.053411360392532,0.04833984375,-0.4208984375,-0.64990234375,44.059411764705885,200.4945572193528
0.07041796875,0.04693310546875,1.0333178710937505,1.036777328761358,0.1962890625,0.115234375,-0.490234375,44.57705882352941,200.4945572193528
0.05479296875,0.03667919921875,1.0059741210937505,1.0081327121912624,0.337890625,0.458984375,-0.36181640625,44.57705882352941,200.4945572193528
0.06651171875,0.03033154296875,0.97911865234375,0.9818437485656184,0.44287109375,0.6201171875,-0.10009765625,44.01235294117648,200.3877948677438
0.06309375,0.02593701171875,0.95177490234375,0.9542164401211164,0.5341796875,0.23291015625,0.16259765625,43.777058823529416,200.3877948677438
0.05576953125,0.02935498046875,0.92784912109375,0.9299870681942892,0.5615234375,-0.072265625,0.29345703125,43.30647058823529,200.3877948677438
0.07627734375,0.04888623046875,0.91661865234375,0.921085148356802,0.5361328125,-0.3369140625,0.4443359375,43.30647058823529,200.3877948677438
0.084578125,0.05376904296875,0.8946459960937501,0.9002422049298007,0.54248046875,-0.66552734375,0.67724609375,43.82411764705883,200.3131295223436
0.084578125,0.06939404296875,0.90636474609375,0.9129436156683788,0.6171875,-0.88037109375,0.93994140625,44.01235294117648,200.3131295223436
0.19834765625,0.07964794921875,0.92345458984375,0.9478681174393984,0.73388671875,-1.0546875,1.11474609375,44.01235294117648,200.3131295223436
0.04307421875,0.07525341796875,0.96251708984375,0.9664148247404858,0.79052734375,-1.1328125,1.234375,44.01235294117648,200.3131295223436
0.0328203125,0.06353466796875,1.0128100585937505,1.015331493520797,0.71728515625,-1.0009765625,1.30517578125,43.40058823529412,200.3131295223436
0.0206132812499999,0.06011669921875,1.0494311523437505,1.0513537313380217,0.65673828125,-0.716796875,1.345703125,43.87117647058824,200.25956290606115
0.0894609375,0.07622998046875,1.0562670898437505,1.0627861658619904,0.6279296875,-0.5244140625,1.50146484375,43.96529411764706,200.25956290606115
0.08311328125,0.10796826171875,1.0679858398437505,1.0766423348380234,0.60205078125,-0.72802734375,1.7890625,44.01235294117648,200.25956290606115
0.061140625,0.10259716796875,1.1007006835937505,1.1071613928259727,0.45947265625,-1.00634765625,1.76904296875,43.96529411764706,200.25956290606115
0.0284257812499999,0.08697216796875,1.1456225585937505,1.149270738250891,0.15625,-0.54296875,1.4267578125,43.96529411764706,200.47308753170915
-0.001359375,0.06988232421875,1.1705249023437505,1.1726098814803887,-0.14501953125,0.732421875,1.08984375,43.87117647058824,200.47308753170915
0.06651171875,0.07769482421875,1.1299975585937505,1.1346165770291292,-0.34033203125,1.96630859375,0.9921875,43.30647058823529,200.47308753170915
0.1246171875,0.09966748046875,1.0772631835937505,1.0890174547774434,-0.400390625,2.13720703125,1.2490234375,43.96529411764706,200.47308753170915
0.13975390625,0.12115185546875,1.0147631835937505,1.0314810929789155,-0.416015625,1.53173828125,1.4453125,44.059411764705885,200.47308753170915
0.1226640625,0.12701123046875,0.99083740234375,1.0064477546189372,-0.48291015625,0.9970703125,1.45458984375,43.82411764705883,200.56922643893705
0.07823046875,0.11529248046875,0.99572021484375,1.005420861401814,-0.55517578125,0.408203125,1.36328125,43.82411764705883,200.56922643893705
0.0757890625,0.09185498046875,1.0089038085937505,1.0159075816364982,-0.6240234375,0.15234375,1.41552734375,44.059411764705885,200.56922643893705
0.09287890625,0.09185498046875,1.0338061523437505,1.0420263860799783,-0.6083984375,0.1728515625,1.51953125,43.82411764705883,200.56922643893705
0.10459765625,0.10699169921875,1.0543139648437505,1.06487831692605,-0.5751953125,0.4345703125,1.55224609375,43.87117647058824,200.0138744882363
0.096296875,0.11724560546875,1.0523608398437505,1.063241721046133,-0.63525390625,0.80908203125,1.3935546875,43.30647058823529,200.0138744882363
0.1089921875,0.12456982421875,1.0465014648437505,1.0595103840746634,-0.69873046875,1.13916015625,1.2919921875,43.30647058823529,200.0138744882363
0.119734375,0.12505810546875,1.0196459960937505,1.0342406913528832,-0.73046875,1.37353515625,1.2568359375,43.82411764705883,200.0138744882363
0.11924609375,0.12212841796875,0.98400146484375,0.998696081981315,-0.72509765625,1.4345703125,1.337890625,43.96529411764706,200.0138744882363
0.10215625,0.12212841796875,0.95568115234375,0.9688538149972318,-0.6982421875,1.32177734375,1.38671875,44.01235294117648,200.3024310649543
0.08408984375,0.11822216796875,0.94445068359375,0.9555284802463152,-0.671875,1.14208984375,1.30615234375,43.87117647058824,200.3024310649543
0.05772265625,0.11285107421875,0.95177490234375,0.9601784910777456,-0.68701171875,1.0087890625,1.13623046875,43.30647058823529,200.3024310649543
0.0484453125,0.23101513671875,0.94835693359375,0.9772900363718776,-0.69140625,0.93505859375,0.9580078125,43.82411764705883,200.3024310649543
0.06651171875,-0.01752001953125,0.95470458984375,0.9571789872767672,-0.697265625,0.8935546875,0.8974609375,44.62411764705882,200.79360109713213
0.10752734375,0.11724560546875,0.94249755859375,0.9558296446599904,-0.70849609375,0.77734375,0.89892578125,43.96529411764706,200.79360109713213
0.07920703125,0.12749951171875,0.95421630859375,0.9659496067985331,-0.65576171875,0.52880859375,0.90771484375,44.01235294117648,200.79360109713213
0.0601640625,0.11871044921875,0.95958740234375,0.9687723509199916,-0.65185546875,0.32080078125,0.84765625,43.96529411764706,200.79360109713213
0.05479296875,0.11187451171875,0.97863037109375,0.9865270290386564,-0.6357421875,0.38916015625,0.72119140625,43.82411764705883,200.79360109713213
0.0543046875,0.11187451171875,0.98156005859375,0.9894064150203128,-0.60107421875,0.6220703125,0.60302734375,44.01235294117648,200.68690798372825
0.0543046875,0.11675732421875,0.98156005859375,0.9899704139365788,-0.5498046875,0.8603515625,0.42626953125,43.30647058823529,200.68690798372825
0.0591875,0.11578076171875,0.97032958984375,0.979003502479314,-0.541015625,0.88720703125,0.333984375,43.96529411764706,200.68690798372825
0.06260546875,0.11578076171875,0.97716552734375,0.9859904144212408,-0.53564453125,0.77978515625,0.22509765625,43.30647058823529,200.68690798372825
0.05967578125,0.10992138671875,0.97081787109375,0.9788417895456712,-0.5849609375,0.6552734375,0.09765625,44.01235294117648,200.4517639909492
0.05479296875,0.11089794921875,0.98546630859375,0.9931991089095656,-0.6005859375,0.55810546875,-0.0322265625,43.96529411764706,200.4517639909492
0.049421875,0.10503857421875,0.99572021484375,1.0024641490102812,-0.61376953125,0.6298828125,-0.16259765625,43.40058823529412,200.4517639909492
0.0523515625,0.10601513671875,1.0069506835937505,1.0138686179676375,-0.62939453125,0.7568359375,-0.2958984375,44.71823529411765,200.4517639909492
0.0523515625,0.09869091796875,1.0010913085937505,1.0073055105218345,-0.63525390625,1.1171875,-0.3701171875,44.059411764705885,200.4517639909492
0.06065234375,0.09185498046875,0.99034912109375,0.99644740247062,-0.6396484375,1.25537109375,-0.40283203125,44.01235294117648,200.2274679535158
0.06944140625,0.08404248046875,0.98107177734375,0.9871104698693772,-0.658203125,1.19189453125,-0.48486328125,44.01235294117648,200.2274679535158
0.0738359375,0.07818310546875,0.97325927734375,0.979182293846718,-0.68994140625,1.05859375,-0.5458984375,44.71823529411765,200.2274679535158
0.0816484375,0.07378857421875,0.97032958984375,0.9765504257117332,-0.72705078125,0.9013671875,-0.5712890625,43.96529411764706,200.2274679535158
0.08604296875,0.07134716796875,0.96447021484375,0.9709256439960908,-0.72998046875,0.755859375,-0.541015625,43.87117647058824,200.53720428789592
0.1011796875,0.07330029296875,0.97374755859375,0.9817303957702394,-0.71728515625,0.6787109375,-0.49462890625,44.71823529411765,200.53720428789592
0.09190234375,0.07476513671875,0.96593505859375,0.9731733678414284,-0.7109375,0.6357421875,-0.4599609375,44.76529411764706,200.53720428789592
0.0796953125,0.06988232421875,0.97130615234375,0.977072424978572,-0.70166015625,0.6279296875,-0.47216796875,44.76529411764706,200.53720428789592
0.080671875,0.06353466796875,0.98253662109375,0.9878880590634944,-0.69873046875,0.6640625,-0.388671875,43.82411764705883,200.53720428789592
0.07920703125,0.05962841796875,0.98302490234375,0.9880117715173408,-0.701171875,0.7412109375,-0.2353515625,43.54176470588236,200.120633459066
0.07334765625,0.06841748046875,0.97716552734375,0.982300004143362,-0.65576171875,0.72216796875,-0.20751953125,43.96529411764706,200.120633459066
0.13584765625,0.07867138671875,0.95470458984375,0.96752500053776,-0.609375,0.419921875,-0.15771484375,44.01235294117648,200.120633459066
0.12412890625,0.08746044921875,0.96349365234375,0.975385735825097,-0.56884765625,-0.15087890625,-0.2001953125,43.777058823529416,200.120633459066
0.1285234375,0.06792919921875,0.98986083984375,1.000478451716723,-0.5908203125,-0.1796875,-0.22998046875,43.96529411764706,200.52657893639267
0.07041796875,0.03716748046875,1.0240405273437505,1.0271314977011157,-0.67333984375,0.3544921875,-0.3310546875,43.87117647058824,200.52657893639267
0.05967578125,0.02984326171875,1.0181811523437505,1.0203649730002784,-0.71630859375,0.9765625,-0.39599609375,44.01235294117648,200.52657893639267
0.09873828125,0.04546826171875,0.98448974609375,0.990472953276194,-0.60986328125,1.20849609375,-0.30078125,44.62411764705882,200.52657893639267
0.12412890625,0.05376904296875,0.96251708984375,0.9719764624670076,-0.5068359375,0.763671875,-0.24462890625,43.40058823529412,200.52657893639267
0.1207109375,0.05474560546875,0.94542724609375,0.9546731846064817,-0.4580078125,0.0556640625,-0.11083984375,43.30647058823529,200.25948887771776
0.10996875,0.04107373046875,0.96642333984375,0.9735267069299796,-0.5,-0.41748046875,-0.04296875,43.447647058823534,200.25948887771776
0.08897265625,0.03179638671875,0.99962646484375,1.0040817760444425,-0.57470703125,-0.62109375,-0.04052734375,44.62411764705882,200.25948887771776
0.07139453125,0.02447216796875,1.0259936523437505,1.02876578517521,-0.669921875,-0.50439453125,-0.02099609375,44.71823529411765,200.25948887771776
0.07627734375,0.02349560546875,1.0416186523437505,1.0446720507203728,-0.69482421875,-0.0947265625,-0.00341796875,44.71823529411765,200.36639813669515
0.08897265625,0.02251904296875,1.0430834960937505,1.047113375274889,-0.6640625,0.38427734375,-0.01220703125,43.30647058823529,200.36639813669515
0.10996875,0.02935498046875,1.0338061523437505,1.0400528839817105,-0.67333984375,0.83984375,0.01318359375,43.82411764705883,200.36639813669515
0.12217578125,0.02740185546875,1.0123217773437505,1.020035864120271,-0.67236328125,0.99365234375,0.0634765625,43.96529411764706,200.36639813669515
0.1304765625,0.02251904296875,0.98937255859375,0.9981930175854709,-0.69677734375,0.8427734375,0.13134765625,44.57705882352941,200.36639813669515
0.13096484375,0.01324169921875,0.98302490234375,0.9917989168801312,-0.72216796875,0.5205078125,0.22802734375,43.96529411764706,200.40919165230284
0.1246171875,0.00689404296875,0.98839599609375,0.9962447572474454,-0.7314453125,0.240234375,0.28076171875,44.76529411764706,200.40919165230284
0.104109375,0.00201123046875,0.99767333984375,1.0030926677261038,-0.73876953125,0.08447265625,0.2392578125,43.82411764705883,200.40919165230284
0.0904375,0.00396435546875,1.0025561523437505,1.0066347381860203,-0.74755859375,0.1015625,0.14599609375,44.059411764705885,200.40919165230284
0.09678515625,0.00249951171875,1.0152514648437505,1.0198574169444226,-0.763671875,0.25732421875,0.03173828125,44.76529411764706,200.60146746481507
0.12559375,0.00347607421875,1.0118334960937505,1.019604284489006,-0.79833984375,0.443359375,-0.0234375,43.96529411764706,200.60146746481507
0.09483203125,0.01275341796875,1.0132983398437505,1.0178061157956295,-0.81591796875,0.576171875,-0.0341796875,44.76529411764706,200.60146746481507
0.1148515625,0.00689404296875,0.99816162109375,1.004771133672564,-0.86376953125,0.7099609375,-0.0107421875,44.01235294117648,200.60146746481507
0.1187578125,0.02398388671875,0.98058349609375,0.9880397955868804,-0.88037109375,0.693359375,-0.04248046875,44.20058823529412,200.60146746481507
0.1050859375,0.03863232421875,0.95665771484375,0.963187154246184,-0.79931640625,0.4111328125,-0.08447265625,44.76529411764706,200.47323405984608
0.09776171875,0.03423779296875,0.94933349609375,0.954967887902995,-0.7392578125,0.0517578125,-0.1533203125,43.96529411764706,200.47323405984608
0.09190234375,0.03326123046875,0.95763427734375,0.9626088298902752,-0.7080078125,-0.11572265625,-0.2275390625,44.01235294117648,200.47323405984608
0.0953203125,0.03423779296875,0.96593505859375,0.971230521484462,-0.67529296875,-0.015625,-0.3154296875,44.01235294117648,200.47323405984608
0.0953203125,0.03374951171875,0.96495849609375,0.9702421814680412,-0.6669921875,0.18359375,-0.4052734375,43.447647058823534,200.3022820966421
0.096296875,0.02496044921875,0.97667724609375,0.9817303882417204,-0.6298828125,0.35546875,-0.4814453125,44.01235294117648,200.3022820966421
0.09825,0.01324169921875,0.97081787109375,0.9758666629889562,-0.57958984375,0.42333984375,-0.49072265625,43.30647058823529,200.3022820966421
0.10850390625,0.01031201171875,0.97081787109375,0.9769169740014744,-0.53369140625,0.41162109375,-0.47216796875,44.059411764705885,200.3022820966421
0.1050859375,0.00542919921875,0.97081787109375,0.9765039013231908,-0.48193359375,0.33544921875,-0.482421875,43.777058823529416,200.3022820966421
0.0992265625,0.00396435546875,0.97228271484375,0.9773409356021991,-0.412109375,0.248046875,-0.51904296875,44.01235294117648,200.5053292201662
0.1060625,0.00445263671875,0.97179443359375,0.9775753173253694,-0.34765625,0.1611328125,-0.5224609375,44.01235294117648,200.5053292201662
0.1168046875,0.00298779296875,0.98058349609375,0.9875202553569412,-0.275390625,0.09375,-0.62353515625,43.40058823529412,200.5053292201662
0.10850390625,0.00249951171875,0.99230224609375,0.998219962149146,-0.12548828125,0.03857421875,-0.4873046875,44.15352941176471,200.5053292201662
0.1050859375,-0.00140673828125,0.99913818359375,1.004650259089134,-0.2451171875,0.109375,-0.5458984375,44.76529411764706,200.39849325333327
0.1031328125,0.0005463867187499,1.0103686523437505,1.015618771582887,-0.27978515625,0.19091796875,-0.63330078125,43.87117647058824,200.39849325333327
0.10996875,-0.00189501953125,1.0069506835937505,1.0129394830223113,-0.2978515625,0.2783203125,-0.654296875,43.87117647058824,200.39849325333327
0.1246171875,-0.00873095703125,1.0132983398437505,1.020969734400189,-0.31982421875,0.3271484375,-0.646484375,44.01235294117648,200.39849325333327
0.12998828125,-0.01214892578125,1.0064624023437505,1.0148946334430586,-0.3154296875,0.3857421875,-0.6103515625,43.447647058823534,200.39849325333327
0.1265703125,-0.01556689453125,1.0089038085937505,1.0169312991577502,-0.35791015625,0.4833984375,-0.59423828125,43.87117647058824,200.61201954066283
0.11778125,-0.02191455078125,1.0152514648437505,1.022295557681284,-0.42333984375,0.6435546875,-0.626953125,44.76529411764706,200.61201954066283
0.10459765625,-0.02289111328125,0.99864990234375,1.004373585978559,-0.40869140625,0.8251953125,-0.6396484375,44.059411764705885,200.61201954066283
0.2105546875,-0.02289111328125,0.94591552734375,0.9693366104535012,-0.3447265625,0.798828125,-0.3701171875,43.87117647058824,200.61201954066283
0.1793046875,0.01226513671875,0.93761474609375,0.954684249702827,-0.2265625,0.048828125,-0.263671875,44.01235294117648,200.5906957958716
0.13584765625,0.00249951171875,0.94445068359375,0.954173950078366,-0.16064453125,-0.67041015625,-0.103515625,44.76529411764706,200.5906957958716
0.07334765625,-0.02777392578125,0.97911865234375,0.9822548574571224,-0.27099609375,-0.62744140625,-0.2431640625,44.01235294117648,200.5906957958716
0.041609375,-0.03851611328125,1.0035327148437505,1.0051331955675589,-0.38037109375,0.0068359375,-0.544921875,43.30647058823529,200.5906957958716
0.1050859375,-0.02923876953125,0.98986083984375,0.9958526207025464,-0.31640625,0.8662109375,-0.52880859375,44.20058823529412,200.5906957958716
0.1617265625,-0.00531298828125,0.96544677734375,0.9789132692664736,-0.17919921875,0.91748046875,-0.36279296875,44.059411764705885,200.36647232636184
0.15733203125,0.02007763671875,0.94835693359375,0.961528654304593,-0.0908203125,0.39013671875,-0.27783203125,44.01235294117648,200.36647232636184
0.13682421875,0.01324169921875,0.93322021484375,0.9432900820149456,-0.0771484375,-0.119140625,-0.31396484375,44.01235294117648,200.36647232636184
0.11436328125,-0.00238330078125,0.94982177734375,0.9566849266803156,-0.13525390625,-0.48046875,-0.36279296875,43.30647058823529,200.36647232636184
0.1168046875,-0.01703173828125,0.97032958984375,0.9774829553793732,-0.1240234375,-0.6435546875,-0.2919921875,43.30647058823529,200.56944588409937
0.12412890625,-0.01947314453125,0.99572021484375,1.0036164282101203,-0.09326171875,-0.63427734375,-0.251953125,44.71823529411765,200.56944588409937
0.12510546875,-0.00775439453125,1.0250170898437505,1.032652673175959,-0.0341796875,-0.4521484375,-0.310546875,43.777058823529416,200.56944588409937
0.13096484375,0.0010346679687499,1.0294116210937505,1.0377095674990813,-0.02490234375,-0.24560546875,-0.37646484375,43.40058823529412,200.56944588409937
0.1343828125,0.00591748046875,1.0362475585937505,1.0449415101152868,-0.0400390625,0.15185546875,-0.39453125,44.62411764705882,200.56944588409937
0.14268359375,0.00396435546875,1.0172045898437505,1.0271706292719287,-0.0869140625,0.35107421875,-0.37890625,44.15352941176471,200.58007067552376
0.15147265625,-0.00238330078125,1.0001147460937505,1.0115231836533511,-0.12841796875,0.41552734375,-0.314453125,43.30647058823529,200.58007067552376
0.14463671875,0.00738232421875,0.98351318359375,0.9941189372627156,-0.169921875,0.34130859375,-0.3095703125,43.777058823529416,200.58007067552376
0.12803515625,0.01128857421875,0.97130615234375,0.9797734813336572,-0.18798828125,0.22509765625,-0.39306640625,44.01235294117648,200.58007067552376
0.11045703125,0.01470654296875,0.95177490234375,0.958275796882145,-0.17236328125,-0.01416015625,-0.509765625,43.96529411764706,200.47330797606745
0.1050859375,0.01226513671875,0.94786865234375,0.9537549318011104,-0.1708984375,-0.21142578125,-0.56298828125,43.87117647058824,200.47330797606745
0.13584765625,0.01470654296875,0.94347412109375,0.953317515462888,-0.14013671875,-0.326171875,-0.5712890625,43.40058823529412,200.47330797606745
0.16416796875,0.02398388671875,0.95079833984375,0.9651651837044632,-0.13330078125,-0.30029296875,-0.509765625,43.87117647058824,200.47330797606745
0.13389453125,0.02251904296875,0.95812255859375,0.9676950398142586,-0.03857421875,-0.33154296875,-0.34765625,43.96529411764706,200.47330797606745
0.1421953125,0.01568310546875,0.95958740234375,0.9701924806093596,-0.0263671875,-0.37646484375,-0.23876953125,43.82411764705883,200.2489389786596
0.12412890625,0.01470654296875,0.96300537109375,0.9710837309564628,-0.00048828125,-0.36572265625,-0.2412109375,43.96529411764706,200.2489389786596
0.11045703125,0.01324169921875,0.96935302734375,0.9757158346420624,0.12451171875,-0.26220703125,-0.30322265625,43.96529411764706,200.2489389786596
0.11924609375,0.00347607421875,0.96398193359375,0.971335617725281,-0.0546875,-0.2080078125,-0.330078125,44.62411764705882,200.2489389786596
0.14121875,0.00591748046875,0.96642333984375,0.976704573410716,-0.06787109375,-0.31103515625,-0.279296875,44.01235294117648,200.6441145074245
0.15244921875,0.00689404296875,0.96349365234375,0.9755041313252544,-0.0859375,-0.5048828125,-0.2841796875,43.96529411764706,200.6441145074245
0.14756640625,0.01568310546875,0.95958740234375,0.9709942259290268,-0.123046875,-0.6572265625,-0.2568359375,44.20058823529412,200.6441145074245
0.14366015625,0.01421826171875,0.96984130859375,0.9805266764932584,-0.1357421875,-0.673828125,-0.30517578125,43.30647058823529,200.6441145074245
0.13340625,0.01812451171875,0.97423583984375,0.9834943808177872,-0.1884765625,-0.57373046875,-0.35498046875,44.76529411764706,200.6441145074245
0.12608203125,0.02056591796875,0.97374755859375,0.982091616629178,-0.263671875,-0.44287109375,-0.43310546875,43.87117647058824,200.37709649552943
0.1304765625,0.02642529296875,0.97423583984375,0.983289327261492,-0.30322265625,-0.39599609375,-0.484375,43.30647058823529,200.37709649552943
0.1363359375,0.03130810546875,0.96691162109375,0.976977875045382,-0.3291015625,-0.46240234375,-0.482421875,44.76529411764706,200.37709649552943
0.14073046875,0.03521435546875,0.95665771484375,0.9675944910114672,-0.361328125,-0.59716796875,-0.44287109375,43.96529411764706,200.37709649552943
0.14463671875,0.03716748046875,0.95958740234375,0.9711380873758312,-0.40771484375,-0.771484375,-0.4580078125,43.30647058823529,200.40919165230284
0.1529375,0.03619091796875,0.95665771484375,0.9694811214354496,-0.45361328125,-0.89794921875,-0.50732421875,43.96529411764706,200.40919165230284
0.15147265625,0.03179638671875,0.96105224609375,0.9734353576492076,-0.521484375,-0.970703125,-0.58349609375,43.87117647058824,200.40919165230284
0.15147265625,0.02886669921875,0.95323974609375,0.9656310193071128,-0.59228515625,-1.02099609375,-0.62353515625,44.01235294117648,200.40919165230284
0.1480546875,0.03179638671875,0.94786865234375,0.9598886304124286,-0.60400390625,-1.12109375,-0.63427734375,43.40058823529412,200.40919165230284
0.1529375,0.02984326171875,0.94054443359375,0.9533647417124528,-0.61767578125,-1.146484375,-0.654296875,43.30647058823529,200.5053292201662
0.1558671875,0.02251904296875,0.94396240234375,0.9570092499416986,-0.68994140625,-1.07666015625,-0.681640625,44.76529411764706,200.5053292201662
0.15342578125,0.02154248046875,0.92687255859375,0.9397320302570537,-0.7529296875,-0.9501953125,-0.69873046875,43.40058823529412,200.5053292201662
0.15244921875,0.01617138671875,0.90782958984375,0.9206828130478836,-0.74365234375,-1.0126953125,-0.66748046875,44.76529411764706,200.5053292201662
0.1998125,0.01519482421875,0.8751147460937501,0.8977648560007333,-0.7060546875,-1.33154296875,-0.58203125,44.15352941176471,200.56929915255097
0.18565234375,0.02398388671875,0.8575366210937501,0.8777306398200372,-0.662109375,-1.982421875,-0.572265625,44.059411764705885,200.56929915255097
0.205671875,0.00738232421875,0.8575366210937501,0.8818868835592081,-0.72705078125,-2.42041015625,-0.58935546875,43.447647058823534,200.56929915255097
0.17002734375,-0.00482470703125,0.8585131835937501,0.8752013835825981,-0.83056640625,-2.537109375,-0.66650390625,44.059411764705885,200.56929915255097
0.1421953125,-0.03119189453125,0.8687670898437501,0.8808795023026701,-0.98046875,-2.52392578125,-0.75390625,43.40058823529412,200.56929915255097
0.192,-0.02972705078125,0.8511889648437501,0.8730809535317591,-1.02001953125,-2.6689453125,-0.68505859375,43.82411764705883,200.4412127573177
0.20616015625,-0.01361376953125,0.7071459960937501,0.7367108011542225,-0.9453125,-3.25390625,-0.56787109375,43.87117647058824,200.4412127573177
0.21885546875,0.00298779296875,0.8311694335937501,0.8595052474820394,-0.876953125,-4.21142578125,-0.33935546875,43.96529411764706,200.4412127573177
0.2066484375,5.810546874999989e-05,0.8448413085937501,0.8697473292881311,-0.86767578125,-4.734375,-0.24169921875,44.71823529411765,200.4412127573177
0.21299609375,0.00787060546875,0.8785327148437501,0.9040182594582552,-0.97509765625,-4.8994140625,-0.232421875,44.29470588235294,200.3984193196096
0.2320390625,0.01128857421875,0.8912280273437501,0.9210086618250684,-1.1259765625,-4.81396484375,-0.212890625,44.059411764705885,200.3984193196096
0.2359453125,0.01519482421875,0.8946459960937501,0.9253607574888508,-1.26318359375,-4.5859375,-0.18408203125,43.30647058823529,200.3984193196096
0.23545703125,0.02789013671875,0.8907397460937501,0.921756566866986,-1.42822265625,-4.4267578125,-0.25732421875,44.62411764705882,200.3984193196096
0.23350390625,0.02300732421875,0.8751147460937501,0.9060238573196868,-1.56005859375,-4.37451171875,-0.3720703125,44.71823529411765,200.3984193196096
0.24522265625,0.02007763671875,0.8599780273437501,0.8944827947750384,-1.5810546875,-4.5185546875,-0.51318359375,43.30647058823529,200.17397663349564
0.2779375,0.01714794921875,0.8565600585937501,0.9006877594631713,-1.6240234375,-4.83984375,-0.55810546875,43.96529411764706,200.17397663349564
0.311140625,0.02496044921875,0.8663256835937501,0.920842930474449,-1.36669921875,-5.197265625,-0.4599609375,44.76529411764706,200.17397663349564
0.30967578125,0.02544873046875,0.8936694335937501,0.946145751940494,-1.30859375,-5.45166015625,-0.3642578125,43.96529411764706,200.17397663349564
0.2632890625,0.03277294921875,0.91271240234375,0.9504941483379702,-1.3671875,-5.70068359375,-0.39501953125,43.40058823529412,200.16335233624832
0.2222734375,0.02886669921875,0.92882568359375,0.9554872672334516,-1.40771484375,-5.859375,-0.6171875,43.30647058823529,200.16335233624832
0.1949296875,0.01080029296875,0.93468505859375,0.9548562133407628,-1.423828125,-5.7099609375,-0.990234375,43.82411764705883,200.16335233624832
0.20616015625,-0.01605517578125,0.93566162109375,0.9582392435515128,-1.5361328125,-5.3994140625,-1.1689453125,43.96529411764706,200.16335233624832
0.2125078125,-0.03558642578125,0.92589599609375,0.9506362919938716,-1.70068359375,-4.93798828125,-1.11669921875,43.54176470588236,200.16335233624832
0.23496875,-0.04779345703125,0.90343505859375,0.9347135567155604,-1.912109375,-4.67626953125,-1.01123046875,43.30647058823529,200.0993113585425
0.24229296875,-0.05707080078125,0.8648608398437501,0.8999706835796032,-2.1474609375,-4.61767578125,-0.921875,44.15352941176471,200.0993113585425
0.2535234375,-0.08490283203125,0.8189624023437501,0.8614998785266249,-2.548828125,-4.62646484375,-0.82275390625,43.87117647058824,200.0993113585425
0.27940234375,-0.12591845703125,0.7842944335937501,0.842044467994574,-2.89501953125,-5.3701171875,-0.671875,44.059411764705885,200.0993113585425
0.32237109375,-0.18158251953125,0.7549975585937501,0.8407833531697753,-3.20166015625,-6.56396484375,-0.46337890625,43.96529411764706,200.4624622779837
0.3746171875,-0.22894580078125,0.7344897460937501,0.8557040399475975,-3.48095703125,-7.89599609375,-0.029296875,43.30647058823529,200.4624622779837
0.43174609375,-0.23285205078125,0.7100756835937501,0.8630366408516784,-3.70458984375,-8.806640625,0.13525390625,44.059411764705885,200.4624622779837
0.4341875,-0.19330126953125,0.6905444335937501,0.8382933739007818,-3.47705078125,-9.97314453125,0.15771484375,44.15352941176471,200.4624622779837
0.432234375,-0.17035205078125,0.6739428710937501,0.8185629906336501,-2.99462890625,-11.01318359375,0.2021484375,43.68294117647059,200.4624622779837
0.49619921875,-0.16888720703125,0.7007983398437501,0.8751313424364842,-2.19970703125,-11.71630859375,0.4833984375,44.71823529411765,200.45183735318656
0.61778125,-0.16400439453125,0.7286303710937501,0.9692540079655798,-1.51513671875,-11.849609375,0.8974609375,43.82411764705883,200.45183735318656
0.709578125,-0.17669970703125,0.7921069335937501,1.0780339958418468,-0.72998046875,-11.43408203125,0.96533203125,43.40058823529412,200.45183735318656
0.770125,-0.17132861328125,0.8521655273437501,1.1613062022339016,-0.49267578125,-10.39306640625,0.99365234375,44.62411764705882,200.45183735318656
0.77842578125,-0.15521533203125,0.8931811523437501,1.1949104849796712,-0.33935546875,-8.77978515625,0.33837890625,44.62411764705882,200.27033577304212
0.783796875,-0.12005908203125,0.90929443359375,1.206469266663072,-0.1279296875,-7.09765625,-0.126953125,44.01235294117648,200.27033577304212
0.7984453125,-0.10834033203125,0.90148193359375,1.2090997565105166,-0.53857421875,-5.142578125,-0.5009765625,43.96529411764706,200.27033577304212
0.83994921875,-0.10394580078125,0.8599780273437501,1.2065991990270997,-0.72119140625,-3.30615234375,-0.60107421875,44.15352941176471,200.27033577304212
0.85850390625,-0.11517626953125,0.8023608398437501,1.1807105688628403,-0.61962890625,-2.08154296875,-0.5927734375,44.20058823529412,200.27033577304212
0.8550859375,-0.12250048828125,0.7574389648437501,1.1488655776908672,-0.54541015625,-2.3193359375,-0.74462890625,44.01235294117648,200.33437715129904
0.817,-0.11664111328125,0.6734545898437501,1.0651925806581188,-0.3984375,-3.42236328125,-1.0068359375,43.30647058823529,200.33437715129904
0.8248125,-0.11908251953125,0.5972827148437501,1.0253013937693056,-0.046875,-4.86328125,-1.14111328125,44.20058823529412,200.33437715129904
0.84873828125,-0.13812548828125,0.5748217773437501,1.0343381440712536,0.2900390625,-6.3076171875,-1.267578125,44.62411764705882,200.33437715129904
0.95713671875,-0.15277392578125,0.5704272460937501,1.1246500850772347,0.31298828125,-8.31689453125,-1.1689453125,44.01235294117648,200.4517639909492
0.92783984375,-0.18304736328125,0.5064624023437501,1.072798805854129,0.58251953125,-8.5390625,-0.986328125,43.96529411764706,200.4517639909492
0.96006640625,-0.26556689453125,0.48741943359375,1.1089774497822822,0.92041015625,-8.1240234375,-0.640625,43.68294117647059,200.4517639909492
0.98350390625,-0.15082080078125,0.40734130859375,1.075152914354128,1.7490234375,-6.3828125,-0.5322265625,44.01235294117648,200.4517639909492
1.0621171875,-0.12884814453125,0.41222412109375,1.146570316353764,2.7333984375,-4.90869140625,-0.22412109375,43.30647058823529,200.4517639909492
1.002546875,-0.16302783203125,0.36925537109375,1.0807533667172442,3.6611328125,-3.51025390625,-0.34228515625,44.059411764705885,200.3768763563056
1.01280078125,-0.17132861328125,0.32921630859375,1.0786576352455777,4.2763671875,-2.54052734375,-0.39208984375,44.76529411764706,200.3768763563056
1.09483203125,-0.18255908203125,0.31847412109375,1.15473406500784,5.09375,-2.251953125,-0.13916015625,44.71823529411765,200.3768763563056
1.1343828125,-0.18304736328125,0.20909912109375,1.1679268577020594,5.30322265625,-3.623046875,0.7626953125,44.76529411764706,200.3768763563056
1.18858203125,-0.14740283203125,0.36681396484375,1.25260022541336,5.47412109375,-7.0625,1.37451171875,44.29470588235294,200.25948887771776
1.17881640625,-0.14886767578125,0.42394287109375,1.2615455847839538,5.80810546875,-11.84521484375,1.1728515625,44.76529411764706,200.25948887771776
1.13291796875,-0.04388720703125,0.46447021484375,1.2252190789139017,6.091796875,16.0,0.97509765625,43.87117647058824,200.25948887771776
1.20616015625,0.06402294921875,0.6270678710937501,1.36093180413632,4.85693359375,16.0,2.84228515625,43.30647058823529,200.25948887771776
1.23741015625,-0.02386767578125,0.6480639648437501,1.3970470512000837,2.56640625,16.0,5.8671875,43.87117647058824,200.25948887771776
1.350203125,-0.29046923828125,0.6544116210937501,1.5282916694695436,1.2919921875,16.0,8.58837890625,43.30647058823529,200.3340837165316
1.62510546875,-0.60736376953125,0.49962646484375,1.8054044249066827,1.36962890625,-11.70947265625,10.1064453125,43.40058823529412,200.3340837165316
1.787703125,-0.72796923828125,0.34923583984375,1.9615777697684889,3.28759765625,-1.21826171875,10.126953125,43.96529411764706,200.3340837165316
1.6998125,-0.64544970703125,0.34679443359375,1.8510089785397008,4.802734375,9.56494140625,9.244140625,43.30647058823529,200.3340837165316
1.3560625,-0.33539111328125,0.6011889648437501,1.5207961317100285,3.85888671875,15.99951171875,7.546875,44.62411764705882,200.38772099363027
0.861921875,-0.20599658203125,0.44200927734375,0.990311118623848,2.310546875,15.99951171875,4.2841796875,43.87117647058824,200.38772099363027
0.721296875,-0.29974658203125,0.28087646484375,0.830065529839244,1.11865234375,15.99951171875,1.02783203125,44.15352941176471,200.38772099363027
0.69444140625,-0.39154345703125,0.18468505859375,0.8183298334572904,-0.8720703125,12.0576171875,-0.396484375,43.96529411764706,200.38772099363027
0.85264453125,-0.42621142578125,0.14952880859375,0.9648926058046484,-3.09326171875,3.517578125,1.8115234375,44.059411764705885,200.38772099363027
1.16807421875,-0.34955126953125,0.15441162109375,1.228994068036185,-4.55810546875,-6.75732421875,6.99853515625,44.01235294117648,200.3984193196096
1.40049609375,-0.21380908203125,0.27306396484375,1.4427985171409912,-4.3466796875,16.0,13.25341796875,43.96529411764706,200.3984193196096
1.31944140625,-0.13959033203125,0.43614990234375,1.3966523628441097,-3.31787109375,16.0,15.99951171875,44.57705882352941,200.3984193196096
0.9742265625,-0.15716845703125,0.5557788085937501,1.1325676152212891,-1.82470703125,16.0,14.77783203125,44.76529411764706,200.3984193196096
0.510359375,-0.25531298828125,0.6910327148437501,0.89620177784906,-1.70068359375,16.0,9.43798828125,44.15352941176471,200.35577392129744
0.14951953125,-0.33636767578125,0.7618334960937501,0.8461025820230818,-2.47998046875,-8.45654296875,4.35498046875,44.62411764705882,200.35577392129744
0.21983203125,-0.43011767578125,0.7779467773437501,0.9157120318978514,-1.93408203125,3.15234375,1.0693359375,44.15352941176471,200.35577392129744
0.1714921875,-0.60882861328125,0.6358569335937501,0.8968812021236434,-1.73046875,14.10498046875,-0.56005859375,43.54176470588236,200.35577392129744
0.28916796875,-0.72162158203125,0.30675537109375,0.8357360106511801,-0.5654296875,15.99951171875,-0.798828125,44.01235294117648,200.35577392129744
0.6832109375,-0.77875048828125,0.08605224609375,1.0395357123137683,1.2890625,15.99951171875,0.97412109375,43.30647058823529,200.4198160117085
1.1461015625,-0.83929736328125,-0.0667797851562499,1.4221210902315298,2.884765625,15.99951171875,4.20556640625,43.54176470588236,200.4198160117085
1.20225390625,-0.84515673828125,-0.2474438476562499,1.4902794453049786,4.560546875,14.40087890625,6.16162109375,44.15352941176471,200.4198160117085
1.21153125,-0.79779345703125,-0.1234204101562499,1.4558554074672294,5.4580078125,4.4599609375,5.73046875,44.01235294117648,200.4198160117085
1.00840625,-0.74359423828125,-0.0809399414062499,1.2555344799562385,4.67138671875,-6.31640625,2.72314453125,44.15352941176471,200.14210472851897
0.90440234375,-0.71478564453125,0.03527099609375,1.1533022848212402,4.5771484375,-13.39501953125,-0.3935546875,44.059411764705885,200.14210472851897
0.817,-0.72699267578125,0.23107177734375,1.117766306937359,4.01953125,16.0,-1.521484375,43.82411764705883,200.14210472851897
0.7261796875,-0.67279345703125,0.33702880859375,1.0457420294622286,3.57763671875,16.0,0.0810546875,43.96529411764706,200.14210472851897
0.6871171875,-0.64740283203125,0.5704272460937501,1.1030175426375106,4.4638671875,-13.41552734375,2.5498046875,44.059411764705885,200.14210472851897
0.60166796875,-0.56537158203125,0.7598803710937501,1.1220817923671362,4.576171875,-8.68310546875,3.3642578125,44.62411764705882,200.6120924927125
0.611921875,-0.43158251953125,0.7974780273437501,1.0939300966535916,4.32861328125,-2.83837890625,2.51953125,44.62411764705882,200.6120924927125
0.65928515625,-0.21771533203125,0.7315600585937501,1.0085816785876864,4.0458984375,2.02783203125,0.53271484375,44.01235294117648,200.6120924927125
0.7867265625,-0.09906298828125,0.6231616210937501,1.008505114411656,3.19921875,4.783203125,-1.33154296875,44.15352941176471,200.6120924927125
0.96397265625,-0.06244189453125,0.5230639648437501,1.0985163555943973,1.93603515625,4.91015625,-1.8583984375,44.76529411764706,200.441139019922
1.01280078125,0.00249951171875,0.38243896484375,1.0826039127447311,0.890625,2.99951171875,-1.50537109375,43.87117647058824,200.441139019922
1.06358203125,0.13287060546875,0.26378662109375,1.10383183341647,0.150390625,0.3447265625,-0.67333984375,43.68294117647059,200.441139019922
1.0933671875,0.33013623046875,0.19445068359375,1.1585563455092949,-0.92578125,-1.1630859375,0.17236328125,43.30647058823529,200.441139019922
1.2144609375,0.48931591796875,0.19786865234375,1.324196903738757,-2.67431640625,-1.3876953125,0.36962890625,44.01235294117648,200.441139019922
1.29405078125,0.58501904296875,0.19982177734375,1.4341350870091083,-3.9560546875,-0.38720703125,-0.615234375,43.40058823529412,200.483932433246
1.29405078125,0.57622998046875,0.25988037109375,1.4401896479716054,-4.40576171875,1.611328125,-2.62744140625,43.30647058823529,200.483932433246
1.3433671875,0.49566357421875,0.35118896484375,1.4743308544173492,-4.375,4.23388671875,-4.67041015625,44.62411764705882,200.483932433246
1.26621875,0.35650341796875,0.47960693359375,1.4001526419023618,-4.65576171875,6.111328125,-4.662109375,43.447647058823534,200.483932433246
1.17686328125,0.19537060546875,0.6138842773437501,1.3416522508480355,-5.53173828125,6.0654296875,-3.32666015625,43.58882352941177,200.29158377184336
1.03037890625,0.01226513671875,0.6309741210937501,1.2082878239532608,-6.583984375,5.53564453125,-2.916015625,43.58882352941177,200.29158377184336
0.963484375,-0.10931689453125,0.49279052734375,1.087701626430166,-7.51318359375,7.087890625,-4.2177734375,43.30647058823529,200.29158377184336
1.1011796875,-0.25238330078125,0.31017333984375,1.171538106689519,-7.8095703125,10.48828125,-5.130859375,44.29470588235294,200.29158377184336
1.301375,-0.36859423828125,0.21007568359375,1.3687842766325584,-8.798828125,13.1181640625,-3.78125,44.62411764705882,200.29158377184336
1.4097734375,-0.34710986328125,0.08654052734375,1.4544537342729842,-9.26513671875,13.6533203125,-1.47216796875,43.82411764705883,200.483858892183
1.4488359375,-0.31781298828125,-0.0482250976562499,1.484067494878759,-9.76220703125,13.294921875,1.06103515625,44.01235294117648,200.483858892183
1.51670703125,-0.27386767578125,-0.0882641601562499,1.5437597884545058,-10.6162109375,11.13525390625,2.76220703125,43.30647058823529,200.483858892183
1.5699296875,-0.18695361328125,-0.1409985351562499,1.587296904844513,-11.34521484375,7.2861328125,3.35791015625,43.30647058823529,200.483858892183
1.5123125,-0.18451220703125,-0.0877758789062499,1.5260532287956268,-12.20458984375,4.11865234375,3.12109375,44.01235294117648,200.6441145074245
1.4488359375,-0.19134814453125,0.02794677734375,1.4616842027507029,-13.6923828125,2.40771484375,2.13427734375,44.57705882352941,200.6441145074245
1.34385546875,-0.16742236328125,0.08458740234375,1.3568834869845032,-14.44580078125,1.962890625,1.53857421875,43.30647058823529,200.6441145074245
1.240828125,-0.25628955078125,0.19738037109375,1.2823017509633905,-15.05322265625,3.28466796875,1.95458984375,43.30647058823529,200.6441145074245
1.225203125,-0.33929736328125,0.23107177734375,1.2921453341339642,-15.68701171875,5.791015625,2.716796875,44.01235294117648,200.6441145074245
1.32920703125,-0.44769580078125,0.32579833984375,1.4399192408626764,16.0,8.21337890625,3.6611328125,43.30647058823529,200.37709649552943
1.50694140625,-0.54632861328125,0.37072021484375,1.6452297205114963,-15.80126953125,9.36865234375,4.87158203125,43.30647058823529,200.37709649552943
1.50059375,-0.61566455078125,0.41759521484375,1.6748761760464976,-15.330078125,8.45068359375,5.39697265625,44.71823529411765,200.37709649552943
1.490828125,-0.61517626953125,0.5045092773437501,1.6898342971461175,-15.443359375,7.22119140625,5.4091796875,44.71823529411765,200.37709649552943
1.4800859375,-0.49212939453125,0.5845874023437501,1.6657095047834605,-15.9541015625,6.42138671875,5.6337890625,43.40058823529412,200.25956290606115
1.37705859375,-0.34076220703125,0.6358569335937501,1.5545813881430537,16.0,5.8212890625,5.716796875,43.96529411764706,200.25956290606115
1.358015625,-0.15668017578125,0.7193530273437501,1.5447407203720636,16.0,6.77294921875,6.72119140625,43.87117647058824,200.25956290606115
1.30772265625,0.01128857421875,0.7838061523437501,1.5246698206593328,16.0,8.708984375,7.82080078125,43.40058823529412,200.25956290606115
1.2339921875,0.28716748046875,0.5865405273437501,1.3961488713122572,16.0,12.712890625,8.56640625,43.96529411764706,200.25956290606115
1.33018359375,0.45415966796875,0.36974365234375,1.453395942453276,16.0,15.99951171875,8.87841796875,44.059411764705885,200.4945572193528
1.14073046875,0.50249951171875,0.13292724609375,1.2535714636055837,-15.10888671875,15.99951171875,7.08837890625,43.40058823529412,200.4945572193528
1.072859375,0.48785107421875,-0.1336743164062499,1.1861259342955357,-14.0791015625,15.99951171875,4.1181640625,44.059411764705885,200.4945572193528
1.02158984375,0.48638623046875,-0.4979321289062499,1.2361851718249413,-11.8740234375,15.99951171875,2.04248046875,44.76529411764706,200.4945572193528
0.97325,0.36822216796875,-0.5247875976562499,1.16542058937425,-9.279296875,15.99951171875,1.78369140625,43.82411764705883,200.5051823343879
0.799421875,0.32232373046875,-0.7445141601562499,1.1389772851663782,-9.3818359375,15.99951171875,1.3701171875,43.82411764705883,200.5051823343879
0.96299609375,0.32085888671875,-1.07312744140625,1.477130463860007,-8.87939453125,15.99951171875,-0.61572265625,43.87117647058824,200.5051823343879
1.22569140625,0.28912060546875,-1.15027587890625,1.7055921978759356,-7.7998046875,15.99951171875,-3.08740234375,43.30647058823529,200.5051823343879
1.32237109375,0.00738232421875,-0.98133056640625,1.646732974364591,-7.8349609375,15.99951171875,-5.2421875,43.87117647058824,200.5051823343879
1.2046953125,-0.24994189453125,-0.8411938476562499,1.4904257230523328,-8.69482421875,12.7529296875,-5.94482421875,43.87117647058824,200.55852819694715
0.94639453125,-0.50335986328125,-0.7708813476562499,1.3203377647052068,-8.783203125,10.37646484375,-4.6982421875,44.20058823529412,200.55852819694715
0.64073046875,-0.65423876953125,-0.6707836914062499,1.1351275971444594,-7.888671875,10.64013671875,-3.01611328125,44.01235294117648,200.55852819694715
0.49326953125,-1.04486376953125,-0.5208813476562499,1.2674275149588787,-7.333984375,12.2109375,-2.27783203125,43.447647058823534,200.55852819694715
0.5347734375,-1.25189501953125,-0.4359204101562499,1.4294230911012695,-7.365234375,14.20361328125,-2.21630859375,43.30647058823529,200.5586008509608
0.6597734375,-1.35443408203125,-0.4032055664062499,1.559604885918028,-6.9501953125,15.11865234375,-2.5009765625,43.30647058823529,200.5586008509608
0.74424609375,-1.39154345703125,-0.3675610351562499,1.6203075496441257,-6.208984375,14.3984375,-2.09326171875,44.29470588235294,200.5586008509608
0.68174609375,-1.37152392578125,-0.3773266601562499,1.5774127626586725,-5.47607421875,12.92236328125,-1.310546875,43.40058823529412,200.5586008509608
0.58408984375,-1.31488330078125,-0.3421704101562499,1.4789048751802094,-4.37109375,11.38916015625,-0.39208984375,44.01235294117648,200.5586008509608
0.395125,-1.23285205078125,-0.3192211914062499,1.3333979577693074,-3.24365234375,10.32275390625,0.18603515625,43.96529411764706,200.3449278234792
0.32871875,-1.26361376953125,-0.2703930664062499,1.3333747355905283,-2.1298828125,9.9248046875,0.78857421875,43.96529411764706,200.3449278234792
0.3257890625,-1.03070361328125,-0.2288891601562499,1.1049337986108885,-1.39697265625,10.04150390625,1.70654296875,44.71823529411765,200.3449278234792
0.28965625,-0.95746142578125,-0.1781079101562499,1.0160489912811062,-0.55029296875,9.7353515625,2.546875,44.76529411764706,200.3449278234792
0.283796875,-0.91156298828125,-0.0892407226562499,0.9588804171763118,0.15869140625,8.3525390625,3.30419921875,43.40058823529412,200.5479025627408
0.37803515625,-0.85150439453125,0.00157958984375,0.931650582767524,0.64013671875,6.43359375,3.77197265625,43.30647058823529,200.5479025627408
0.373640625,-0.69818408203125,0.09874755859375,0.798009654941866,0.86962890625,5.115234375,4.62060546875,44.01235294117648,200.5479025627408
0.16612109375,-0.65619189453125,0.18370849609375,0.7013792353457827,1.0166015625,4.52978515625,5.48046875,44.01235294117648,200.5479025627408
0.19834765625,-0.83246142578125,0.23107177734375,0.8864129875167779,1.30712890625,5.1103515625,4.65087890625,43.96529411764706,200.5479025627408
0.17979296875,-0.88519580078125,0.21056396484375,0.9274881673764992,2.00537109375,6.5712890625,3.3837890625,44.76529411764706,200.57985235584653
0.2359453125,-0.63470751953125,0.13683349609375,0.690830826971027,3.3369140625,9.4873046875,3.70263671875,44.62411764705882,200.57985235584653
0.1685625,-0.25824267578125,0.04406005859375,0.3115186748241499,4.49267578125,12.833984375,3.841796875,44.76529411764706,200.57985235584653
0.0972734375,-0.13959033203125,-0.0457836914062499,0.1761923064110455,5.32958984375,14.85302734375,2.287109375,43.54176470588236,200.57985235584653
0.270125,0.02886669921875,-0.2181469726562499,0.3484091038246165,6.08251953125,14.796875,0.201171875,44.01235294117648,200.3447818564099
0.67686328125,-0.13763720703125,-0.2791821289062499,0.7450037337923251,6.71630859375,12.81640625,-1.6494140625,43.777058823529416,200.3447818564099
0.854109375,-0.35931689453125,-0.3680493164062499,0.9970314711510264,6.8173828125,9.5966796875,-3.2470703125,43.30647058823529,200.3447818564099
1.38291796875,-0.52142626953125,-0.3372875976562499,1.515951973639543,6.86083984375,4.041015625,-3.27587890625,43.96529411764706,200.3447818564099
1.49619921875,-0.81781298828125,-0.2957836914062499,1.730583190167848,6.63232421875,-4.52197265625,-4.15673828125,44.01235294117648,200.3447818564099
1.54307421875,-1.27191455078125,0.16222412109375,2.006280472547304,6.36767578125,16.0,-6.294921875,43.87117647058824,200.35555283542388
1.662703125,-1.82367236328125,0.6392749023437501,2.549320492061992,4.99755859375,16.0,-7.78369140625,43.82411764705883,200.35555283542388
2.082625,-2.14447314453125,1.2003100585937505,3.2213097018141674,1.13134765625,16.0,-4.982421875,44.62411764705882,200.35555283542388
1.658796875,-2.01312548828125,1.1280444335937505,2.841965085682657,0.59375,16.0,0.62744140625,44.57705882352941,200.35555283542388
1.3785234375,-1.78753955078125,1.8013842773437505,2.8880113967928374,1.162109375,16.0,3.47314453125,44.059411764705885,200.5051095436468
0.88682421875,-1.37445361328125,2.1675952148437503,2.7155200138163145,-0.287109375,16.0,2.70068359375,43.87117647058824,200.5051095436468
0.37901171875,-0.81927783203125,2.2589038085937503,2.432593773215537,-0.44873046875,0.53173828125,-1.0390625,43.447647058823534,200.5051095436468
0.13682421875,-0.39740283203125,2.2965014648437503,2.334645338327108,-0.134765625,15.99951171875,-4.90087890625,44.71823529411765,200.5051095436468
0.21006640625,-0.13959033203125,1.9932788085937505,2.009172407888458,2.0908203125,15.99951171875,-7.65673828125,43.87117647058824,200.5051095436468
0.40684375,-0.05511767578125,1.6553881835937505,1.7055409210802903,5.08203125,15.99951171875,-9.19482421875,44.01235294117648,200.59062296304225
0.5972734375,0.00982373046875,1.3594897460937505,1.4849392023101278,7.02099609375,15.99951171875,-10.259765625,43.30647058823529,200.59062296304225
0.506453125,0.03326123046875,1.1983569335937505,1.3014070914079026,7.201171875,14.89306640625,-12.87646484375,44.01235294117648,200.59062296304225
0.49424609375,0.02837841796875,1.1382983398437505,1.2412927319067737,6.4189453125,10.6923828125,16.0,43.30647058823529,200.59062296304225
0.56358203125,-0.07025439453125,1.1495288085937505,1.282176613297012,4.9755859375,8.6533203125,16.0,43.96529411764706,200.622645272652
0.54112109375,-0.34320361328125,1.2066577148437505,1.3662443409077467,3.11328125,10.0712890625,16.0,44.01235294117648,200.622645272652
0.63780078125,-0.53216845703125,1.2271655273437505,1.481866503678046,0.94580078125,14.14453125,16.0,44.76529411764706,200.622645272652
0.6685625,-0.74554736328125,1.1129077148437505,1.4971239992267216,0.3525390625,15.99951171875,16.0,43.96529411764706,200.622645272652
0.6216875,-0.89642626953125,0.8980639648437501,1.4130089487730924,1.65673828125,15.99951171875,16.0,44.57705882352941,200.622645272652
0.6578203125,-0.98334033203125,0.6212084960937501,1.3362581216800835,3.23779296875,15.99951171875,16.0,43.96529411764706,200.66536602295537
0.74131640625,-1.14740283203125,0.5298999023437501,1.465222569998382,4.61865234375,15.99951171875,16.0,44.76529411764706,200.66536602295537
0.76475390625,-1.23138720703125,0.43614990234375,1.51373370448019,4.41552734375,15.99951171875,-14.376953125,43.30647058823529,200.66536602295537
0.45713671875,-1.09466845703125,0.24181396484375,1.2106803888897135,4.0400390625,14.97509765625,-12.3759765625,43.30647058823529,200.66536602295537
0.24229296875,-0.70160205078125,0.14611083984375,0.7565049225788225,4.0166015625,9.89990234375,-12.4189453125,43.777058823529416,200.47308753170915
0.17491015625,-0.34857470703125,0.17394287109375,0.427029286519857,4.421875,4.740234375,-13.5,43.777058823529416,200.47308753170915
0.1871171875,-0.16644580078125,0.31017333984375,0.3986534174009401,5.4404296875,1.130859375,-14.419921875,43.40058823529412,200.47308753170915
0.115828125,-0.06976611328125,0.5411303710937501,0.5577683601849853,5.89501953125,0.12548828125,-15.02978515625,44.62411764705882,200.47308753170915
0.0176835937499999,0.03814404296875,0.7359545898437501,0.737154553546269,5.8310546875,1.8115234375,-15.94580078125,44.76529411764706,200.47308753170915
-0.03895703125,0.12896435546875,0.8863452148437501,0.8965251224264142,5.3896484375,5.23388671875,16.0,43.40058823529412,200.3447095250232
-0.03505078125,0.17681591796875,0.92736083984375,0.9447171816946448,4.73291015625,9.50732421875,16.0,44.01235294117648,200.3447095250232
0.0064531249999999,0.18169873046875,0.8594897460937501,0.8785093597204984,4.2802734375,13.32861328125,16.0,43.40058823529412,200.3447095250232
0.05479296875,0.11724560546875,0.7515795898437501,0.7626405977233783,3.8759765625,15.23974609375,16.0,44.01235294117648,200.3447095250232
0.096296875,0.04595654296875,0.5831225585937501,0.592804360912878,3.4248046875,15.4423828125,16.0,44.71823529411765,200.5690109067168
0.13194140625,-0.00677783203125,0.43029052734375,0.4501159979516768,3.09033203125,13.873046875,16.0,44.62411764705882,200.5690109067168
0.09580859375,-0.02777392578125,0.31066162109375,0.3262841099567242,2.8037109375,10.763671875,16.0,44.76529411764706,200.5690109067168
0.08799609375,-0.01263720703125,0.29259521484375,0.3058021766866118,2.345703125,6.6240234375,16.0,43.96529411764706,200.5690109067168
0.0699296875,0.02789013671875,0.34288818359375,0.351056017422091,1.8720703125,1.2548828125,16.0,43.30647058823529,200.5690109067168
0.0259843749999999,0.04595654296875,0.47716552734375,0.48007721469678,1.15380859375,-3.4755859375,16.0,43.87117647058824,200.526433551253
0.03184375,0.04107373046875,0.6920092773437501,0.6939581512443681,0.60400390625,-7.35498046875,16.0,44.059411764705885,200.526433551253
0.0054765624999999,5.810546874999989e-05,0.95177490234375,0.9517906602002968,-0.77587890625,-9.1484375,16.0,44.01235294117648,200.526433551253
0.06065234375,-0.06146533203125,1.2086108398437505,1.2116917330872137,-1.8662109375,-9.623046875,16.0,43.87117647058824,200.526433551253
0.0953203125,-0.22357470703125,1.4830249023437505,1.502808860957007,-2.2451171875,-9.19775390625,16.0,44.76529411764706,200.33422956438548
0.0904375,-0.41253955078125,1.6651538085937505,1.7178780598864745,-0.88330078125,-9.36572265625,-15.24658203125,43.96529411764706,200.33422956438548
0.14903125,-0.45794970703125,1.8008959960937505,1.8641766644803468,0.55224609375,-9.25,-13.1650390625,44.76529411764706,200.33422956438548
0.225203125,-0.24945361328125,1.8384936523437505,1.8689575871049344,1.4697265625,-8.19140625,-13.671875,44.71823529411765,200.33422956438548
0.18028125,0.00201123046875,1.8057788085937505,1.8147568651794173,0.57958984375,-2.10400390625,16.0,43.447647058823534,200.33422956438548
0.0660234375,0.44439404296875,1.7193530273437505,1.7770818755368438,-2.2548828125,7.74853515625,16.0,44.57705882352941,200.5371317531076
-0.08094921875,0.57378857421875,1.4000170898437505,1.515200962174584,-4.6865234375,15.99951171875,16.0,43.40058823529412,200.5371317531076
-0.1595625,0.65289013671875,0.95763427734375,1.1699526192006942,-4.6328125,15.99951171875,16.0,44.01235294117648,200.5371317531076
-0.21473828125,0.72662060546875,0.49718505859375,0.906246664112397,-3.0078125,15.99951171875,16.0,43.87117647058824,200.5371317531076
-0.212296875,0.86236279296875,0.05431396484375,0.8897693839465802,-0.39306640625,15.99951171875,16.0,43.96529411764706,200.87897235386936
-0.07216015625,0.97906201171875,-0.2313305664062499,1.0086046509384272,2.9404296875,12.80224609375,16.0,43.96529411764706,200.87897235386936
0.28623828125,0.96636669921875,-0.1209790039062499,1.015102394046061,4.5185546875,1.5419921875,16.0,43.30647058823529,200.87897235386936
0.39268359375,0.95269482421875,0.00206787109375,1.030452380745695,3.66552734375,-9.41845703125,16.0,44.53,200.87897235386936
0.2711015625,1.02740185546875,0.20665771484375,1.0824777322952248,2.8466796875,-15.525390625,16.0,44.01235294117648,200.87897235386936
0.07627734375,1.04546826171875,0.5255053710937501,1.1725945652607983,1.7177734375,16.0,16.0,43.82411764705883,200.5476860838511
-0.1878828125,1.06353466796875,0.6544116210937501,1.262798681907318,-0.1357421875,-13.0390625,16.0,44.15352941176471,200.5476860838511
-0.15028515625,1.09722607421875,0.8726733398437501,1.4099820723004326,-0.4873046875,-5.5380859375,16.0,43.87117647058824,200.5476860838511
-0.028703125,1.12359326171875,0.8795092773437501,1.4271728192823288,-1.4921875,0.53125,16.0,43.82411764705883,200.5476860838511
0.20518359375,1.16460888671875,0.7173999023437501,1.3831401903101774,-1.52490234375,3.333984375,16.0,43.54176470588236,200.8466667046605
0.40342578125,1.04888623046875,0.5967944335937501,1.2724300693604351,-2.2724609375,4.1826171875,16.0,44.76529411764706,200.8466667046605
0.4878984375,0.97515576171875,0.39757568359375,1.1606205534597664,-2.85302734375,2.67138671875,16.0,44.01235294117648,200.8466667046605
