AccX,AccY,AccZ,Magnitude,GyroX,GyroY,GyroZ,Temperature,Altitude
-0.559953125,-0.00091845703125,0.8546069335937501,1.021714909701868,-0.11328125,0.4697265625,0.14111328125,45.09470588235294,306.7193839767077
-0.56239453125,0.00933544921875,0.8526538085937501,1.0214662386498392,-0.25,0.5830078125,0.09228515625,45.235882352941175,306.7193839767077
-0.5648359375,-0.00335986328125,0.8565600585937501,1.0260341412208958,-0.142578125,0.64404296875,0.083984375,45.00058823529412,306.7193839767077
-0.5648359375,-0.01019580078125,0.8458178710937501,1.0171290290354702,-0.13623046875,0.740234375,0.05517578125,44.906470588235294,306.7193839767077
-0.55360546875,-0.00580126953125,0.8453295898437501,1.0104923479292085,-0.12646484375,0.89697265625,0.05126953125,45.04764705882353,306.7193839767077
-0.5453046875,-0.00628955078125,0.8248217773437501,0.988801155459987,-0.1201171875,1.0166015625,0.09228515625,44.906470588235294,306.7193839767077
-0.54579296875,-0.00628955078125,0.8179858398437501,0.9833770169018868,-0.1337890625,1.001953125,0.1162109375,45.09470588235294,307.3028839191536
-0.54676953125,-0.00433642578125,0.8091967773437501,0.9766141251054132,-0.095703125,0.85546875,0.126953125,45.04764705882353,307.3028839191536
-0.56190625,-0.00043017578125,0.8101733398437501,0.9859612869853672,-0.0771484375,0.6904296875,0.11474609375,45.00058823529412,307.3028839191536
-0.5628828125,0.00249951171875,0.8096850585937501,0.9861202777940968,-0.0986328125,0.45849609375,0.025390625,45.00058823529412,307.3028839191536
-0.56434765625,-0.00189501953125,0.8131030273437501,0.9897617901745164,-0.095703125,0.234375,-0.041015625,45.235882352941175,307.0681147721006
-0.55751171875,0.0015229492187499,0.8170092773437501,0.989103531074305,-0.10693359375,0.078125,-0.1015625,45.18882352941176,307.0681147721006
-0.55458203125,-0.00970751953125,0.8233569335937501,0.9927598427705104,-0.09814453125,0.0302734375,-0.0859375,45.04764705882353,307.0681147721006
-0.55409375,-0.00970751953125,0.8380053710937501,1.0046726440520244,-0.0732421875,0.0478515625,-0.04736328125,45.00058823529412,307.0681147721006
-0.5589765625,-0.01019580078125,0.8482592773437501,1.0159244821233655,-0.08544921875,0.0947265625,-0.0830078125,44.906470588235294,307.0681147721006
-0.5511640625,-0.00873095703125,0.8384936523437501,1.0034588473988095,-0.1064453125,0.2431640625,-0.09326171875,44.85941176470588,306.67911349597665
-0.54774609375,-0.01263720703125,0.8419116210937501,1.0044902488091365,-0.1103515625,0.43701171875,-0.0498046875,44.906470588235294,306.67911349597665
-0.5501875,-0.00628955078125,0.8326342773437501,0.9980108633742564,-0.11376953125,0.64111328125,0.03759765625,45.235882352941175,306.67911349597665
-0.5550703125,-0.01312548828125,0.8282397460937501,0.9971240681434324,-0.12060546875,0.79150390625,0.06298828125,45.235882352941175,306.67911349597665
-0.56141796875,-0.01117236328125,0.8287280273437501,1.0010519969720493,-0.1279296875,0.82275390625,0.06494140625,45.37705882352941,306.75584982329127
-0.56825390625,-0.00726611328125,0.8199389648437501,0.997629793279872,-0.1455078125,0.728515625,-0.001953125,45.04764705882353,306.75584982329127
-0.55946484375,-0.01166064453125,0.8131030273437501,0.9870528937694611,-0.14306640625,0.54150390625,-0.02880859375,45.235882352941175,306.75584982329127
-0.54774609375,-0.01263720703125,0.8155444335937501,0.9824959060401652,-0.1279296875,0.2607421875,-0.01025390625,45.235882352941175,306.75584982329127
-0.54628125,-0.00824267578125,0.8082202148437501,0.9755567956237478,-0.08203125,0.072265625,0.04150390625,45.235882352941175,306.75584982329127
-0.540421875,0.01617138671875,0.8262866210937501,0.9874547569005122,-0.10791015625,-0.08544921875,0.19091796875,45.235882352941175,307.05900111758206
-0.5492109375,-0.00775439453125,0.8248217773437501,0.9909711140516044,-0.189453125,-0.28466796875,-0.060546875,45.09470588235294,307.05900111758206
-0.5316328125,-0.02875048828125,0.8287280273437501,0.9850127822562172,-0.1181640625,-0.27294921875,-0.09814453125,45.18882352941176,307.05900111758206
-0.52235546875,-0.01361376953125,0.8389819335937501,0.9883983282819684,-0.0439453125,-0.130859375,-0.12451171875,45.04764705882353,307.05900111758206
-0.53309765625,0.0005463867187499,0.8531420898437501,1.006004391193523,-0.0283203125,0.072265625,0.10009765625,44.906470588235294,307.078751416062
-0.567765625,0.00738232421875,0.8521655273437501,1.024010932380882,-0.0712890625,0.43359375,-0.00439453125,44.906470588235294,307.078751416062
-0.57313671875,0.0015229492187499,0.8472827148437501,1.0229252253350851,-0.14013671875,0.77685546875,-0.03076171875,45.235882352941175,307.078751416062
-0.5492109375,0.00396435546875,0.7066577148437501,0.8949935731233506,-0.173828125,0.81005859375,0.03466796875,45.00058823529412,307.078751416062
-0.5179609375,0.01226513671875,0.8087084960937501,0.9604391693432872,-0.1904296875,0.5869140625,0.14208984375,45.18882352941176,307.078751416062
-0.52626171875,-0.00335986328125,0.8043139648437501,0.9611886596010412,-0.16015625,0.17236328125,0.203125,44.906470588235294,306.8515792930804
-0.53309765625,-0.01459033203125,0.8204272460937501,0.9785227922848808,-0.11328125,-0.34375,0.220703125,45.00058823529412,306.8515792930804
-0.552140625,-0.00335986328125,0.8370288085937501,1.002740138257431,-0.1015625,-0.7255859375,0.13623046875,44.906470588235294,306.8515792930804
-0.54628125,-0.00482470703125,0.8536303710937501,1.0134748602472354,-0.083984375,-0.7919921875,0.07666015625,44.85941176470588,306.8515792930804
-0.5413984375,-0.00921923828125,0.8643725585937501,1.0199692066586292,-0.06298828125,-0.4873046875,0.07763671875,45.235882352941175,306.9374327872602
-0.52675,-0.01117236328125,0.8741381835937501,1.0206409497065403,-0.05810546875,0.06884765625,0.0703125,45.04764705882353,306.9374327872602
-0.52040234375,-0.01507861328125,0.8682788085937501,1.0124001449090971,-0.07177734375,0.58740234375,0.05615234375,45.235882352941175,306.9374327872602
-0.52821484375,-0.00628955078125,0.8594897460937501,1.008847413262861,-0.052734375,1.05322265625,0.0849609375,44.906470588235294,306.9374327872602
-0.52675,-0.01214892578125,0.8350756835937501,0.9874029350914484,-0.06884765625,1.2734375,0.1005859375,45.235882352941175,306.9374327872602
-0.528703125,-0.00482470703125,0.8253100585937501,0.9801463997784832,-0.0791015625,1.1416015625,0.06494140625,45.18882352941176,307.2512214488232
-0.5238203125,-0.00677783203125,0.8101733398437501,0.964787281937432,-0.10107421875,0.86328125,0.0,45.09470588235294,307.2512214488232
-0.5394453125,-0.00287158203125,0.8077319335937501,0.9713085852131048,-0.10693359375,0.46142578125,-0.0126953125,44.906470588235294,307.2512214488232
-0.542375,0.00298779296875,0.8013842773437501,0.9676757346888412,-0.13037109375,0.0908203125,-0.06884765625,45.09470588235294,307.2512214488232
-0.53846875,0.0015229492187499,0.8106616210937501,0.9732025369958878,-0.1572265625,-0.25927734375,-0.1640625,45.00058823529412,307.0027733741782
-0.52723828125,-0.00238330078125,0.8155444335937501,0.971132642075128,-0.173828125,-0.38671875,-0.2099609375,45.00058823529412,307.0027733741782
-0.51551953125,-0.00970751953125,0.8243334960937501,0.9723067087178892,-0.1630859375,-0.28125,-0.158203125,45.00058823529412,307.0027733741782
-0.52528515625,-0.01361376953125,0.8331225585937501,0.9849888465029608,-0.15576171875,-0.03369140625,-0.0712890625,45.09470588235294,307.0027733741782
-0.53407421875,-0.00628955078125,0.8384936523437501,0.9941561419632304,-0.15771484375,0.29345703125,-0.115234375,45.00058823529412,307.0027733741782
-0.53212109375,-0.00580126953125,0.8448413085937501,0.9984705052470356,-0.19921875,0.54296875,-0.15380859375,45.09470588235294,307.0886274216977
-0.52040234375,-0.00287158203125,0.8189624023437501,0.9703227616708276,-0.216796875,0.7099609375,-0.16748046875,45.00058823529412,307.0886274216977
-0.50868359375,-0.00091845703125,0.8106616210937501,0.9570434190924046,-0.21435546875,0.64599609375,-0.0830078125,45.04764705882353,307.0886274216977
-0.51161328125,-0.00140673828125,0.8052905273437501,0.9540665395524354,-0.20947265625,0.400390625,-0.06396484375,45.09470588235294,307.0886274216977
-0.52040234375,-0.00238330078125,0.8082202148437501,0.961272175393205,-0.189453125,0.05078125,-0.080078125,45.09470588235294,307.3378378844518
-0.52919140625,-0.00873095703125,0.8228686523437501,0.9783826414392036,-0.17919921875,-0.298828125,-0.10205078125,45.00058823529412,307.3378378844518
-0.53065625,-0.00628955078125,0.8365405273437501,0.9906743501280588,-0.16455078125,-0.54248046875,-0.1181640625,45.09470588235294,307.3378378844518
-0.53114453125,-0.00824267578125,0.8604663085937501,1.01122931277024,-0.171875,-0.57568359375,-0.1357421875,45.04764705882353,307.3378378844518
-0.52040234375,-0.00921923828125,0.8707202148437501,1.0144246084714852,-0.16015625,-0.41259765625,-0.06689453125,45.09470588235294,307.3378378844518
-0.5160078125,-0.01117236328125,0.8726733398437501,1.0138775282727044,-0.09033203125,-0.05712890625,-0.02197265625,45.00058823529412,307.0665936703936
-0.5121015625,0.00933544921875,0.8902514648437501,1.0270748909322531,-0.0478515625,0.35205078125,0.0966796875,45.00058823529412,307.0665936703936
-0.51356640625,-0.00384814453125,0.8814624023437501,1.0201672552040124,-0.1533203125,0.54248046875,0.06689453125,45.235882352941175,307.0665936703936
-0.50575390625,-0.01800830078125,0.8536303710937501,0.992368945018845,-0.06396484375,0.810546875,-0.0048828125,45.09470588235294,307.0665936703936
-0.5121015625,-0.01410205078125,0.8380053710937501,0.9821913663503422,0.00927734375,0.8759765625,-0.01708984375,45.18882352941176,307.3158029638034
-0.5257734375,0.00933544921875,0.8384936523437501,0.9897456558194352,-0.00341796875,0.7275390625,-0.03955078125,45.235882352941175,307.3158029638034
-0.54383984375,0.01372998046875,0.8189624023437501,0.9831834541255986,-0.087890625,0.556640625,-0.15625,45.09470588235294,307.3158029638034
-0.53993359375,-0.00384814453125,0.8072436523437501,0.9711773309367352,-0.12548828125,0.490234375,-0.12109375,45.09470588235294,307.3158029638034
-0.50966015625,0.0005463867187499,0.8028491210937501,0.9509576671168006,-0.1337890625,0.328125,0.00439453125,45.04764705882353,307.3158029638034
-0.481828125,0.00347607421875,0.8038256835937501,0.9371798945442382,-0.15625,0.01171875,0.0966796875,45.18882352941176,307.1760034816593
-0.49159375,-0.00677783203125,0.8248217773437501,0.9602298258368196,-0.126953125,-0.30810546875,0.03955078125,45.33,307.1760034816593
-0.5023359375,-0.02435595703125,0.8423999023437501,0.981107640483791,-0.11962890625,-0.57275390625,0.0068359375,45.37705882352941,307.1760034816593
-0.509171875,-0.02289111328125,0.8716967773437501,1.0097699109152292,-0.099609375,-0.63427734375,-0.0595703125,45.09470588235294,307.1760034816593
-0.4955,-0.01654345703125,0.8775561523437501,1.0079180207174152,-0.0791015625,-0.43310546875,-0.08740234375,45.33,307.13345698102233
-0.48719921875,-0.01019580078125,0.8829272460937501,1.0084778406087438,-0.07763671875,-0.0927734375,-0.0029296875,44.906470588235294,307.13345698102233
-0.49110546875,-0.00482470703125,0.8902514648437501,1.0167376898150955,-0.05908203125,0.36328125,-0.00732421875,45.09470588235294,307.13345698102233
-0.4945234375,-0.01117236328125,0.8707202148437501,1.0014149711661249,-0.06884765625,0.72314453125,0.00146484375,45.42411764705882,307.13345698102233
-0.49696484375,-0.01068408203125,0.8541186523437501,0.9882342221426134,-0.03857421875,0.9345703125,0.01904296875,45.18882352941176,307.13345698102233
-0.4925703125,-0.00873095703125,0.8404467773437501,0.974193270308579,-0.0712890625,0.884765625,0.06884765625,45.00058823529412,307.04684152411625
-0.497453125,-0.01117236328125,0.8233569335937501,0.9620296634566196,-0.07958984375,0.697265625,0.03369140625,44.906470588235294,307.04684152411625
-0.50575390625,-0.00677783203125,0.8150561523437501,0.9592442255065058,-0.1201171875,0.55615234375,0.0888671875,45.04764705882353,307.04684152411625
-0.5511640625,0.02300732421875,0.7862475585937501,0.9604667532787604,-0.2099609375,0.919921875,0.30078125,45.18882352941176,307.04684152411625
-0.66395703125,0.04253857421875,0.7320483398437501,0.9892134458805482,-0.31884765625,2.3115234375,-0.111328125,45.18882352941176,306.8948860343156
-0.6722578125,0.01910107421875,0.6783374023437501,0.9552157080586888,-0.26904296875,3.96923828125,-0.822265625,45.235882352941175,306.8948860343156
-0.542375,0.00445263671875,0.6265795898437501,0.8287294184518318,-0.08935546875,5.0712890625,-1.21240234375,45.00058823529412,306.8948860343156
-0.27626171875,0.03228466796875,0.6060717773437501,0.6668476860012102,0.03125,4.994140625,-1.86572265625,45.09470588235294,306.8948860343156
-0.12782421875,-0.00921923828125,0.5757983398437501,0.589887915980954,-0.1142578125,4.8330078125,-2.23046875,45.04764705882353,306.8948860343156
-0.071671875,-0.14105517578125,0.5411303710937501,0.5637867494015397,-0.4560546875,4.3154296875,-0.12646484375,45.18882352941176,307.1752424268445
-0.23719921875,-0.22259814453125,0.41222412109375,0.5251115398997439,-0.626953125,3.603515625,1.6005859375,45.00058823529412,307.1752424268445
-0.698625,-0.21087939453125,0.09923583984375,0.7364745491681034,-0.48681640625,5.5966796875,1.6337890625,45.18882352941176,307.1752424268445
-1.028703125,-0.13275439453125,-0.0653149414062499,1.0392881651510453,-0.166015625,9.28466796875,2.1220703125,45.235882352941175,307.1752424268445
-1.00966015625,0.02496044921875,-0.1942211914062499,1.0284738821842971,-1.087890625,10.05810546875,1.89208984375,45.04764705882353,306.89793027964123
-0.7367109375,0.13189404296875,-0.3543774414062499,0.8280835797070315,-2.4130859375,9.89501953125,0.00732421875,45.18882352941176,306.89793027964123
-0.38221875,-0.01361376953125,-0.5023266601562499,0.631354560509501,-0.95166015625,5.05126953125,-0.89013671875,45.00058823529412,306.89793027964123
-0.12440625,-0.15668017578125,-0.5526196289062499,0.5877193605577302,-0.81005859375,0.3828125,-0.48046875,45.04764705882353,306.89793027964123
0.154890625,-0.11371142578125,-0.8031079101562499,0.825774611756522,-0.54345703125,-5.0498046875,0.765625,45.00058823529412,306.89793027964123
0.30772265625,0.02251904296875,-0.8455883789062499,0.9001222400358098,-0.375,-9.8291015625,1.5341796875,45.04764705882353,307.027091661556
0.41465625,0.09771435546875,-0.8319165039062499,0.934651256031004,-0.39208984375,-13.6552734375,1.361328125,45.09470588235294,307.027091661556
0.6031328125,0.17290966796875,-0.7738110351562499,0.9962180789971694,-0.60791015625,16.0,0.72900390625,45.04764705882353,307.027091661556
0.709578125,0.13580029296875,-0.6844555664062499,0.995199606829411,-0.15771484375,16.0,-0.13623046875,45.235882352941175,307.027091661556
1.123640625,0.06158154296875,-0.5672680664062499,1.2602196632925102,0.21337890625,16.0,-1.041015625,45.04764705882353,306.7467353105151
1.4000078125,0.02984326171875,-0.3665844726562499,1.4475139622551867,0.61669921875,16.0,-0.00634765625,45.18882352941176,306.7467353105151
1.47373828125,0.02300732421875,-0.2157055664062499,1.4896183235876403,0.56787109375,16.0,1.57958984375,45.04764705882353,306.7467353105151
1.42491015625,0.06744091796875,-0.0189282226562499,1.4266308241496086,0.71142578125,16.0,2.11767578125,45.04764705882353,306.7467353105151
1.2281328125,0.11675732421875,0.11730224609375,1.2392345600557308,0.83740234375,16.0,1.67529296875,45.09470588235294,306.7467353105151
1.0816484375,0.14800732421875,0.28234130859375,1.127646276501198,1.47021484375,16.0,1.1201171875,44.906470588235294,306.7011465031818
1.045515625,0.08990185546875,0.43566162109375,1.136215786648777,1.87646484375,16.0,0.1357421875,45.09470588235294,306.7011465031818
0.89170703125,-0.06048876953125,0.45372802734375,1.002332002690398,0.79052734375,16.0,0.3935546875,45.09470588235294,306.7011465031818
0.8882890625,-0.10443408203125,0.46886474609375,1.009850526650551,0.857421875,16.0,1.52880859375,45.235882352941175,306.7011465031818
0.8248125,-0.17377001953125,0.5196459960937501,0.9902240358123038,1.12890625,16.0,2.2177734375,45.00058823529412,306.7133037384892
0.56455859375,-0.14593798828125,0.5753100585937501,0.8191495380696371,0.25,-10.07421875,2.46533203125,45.235882352941175,306.7133037384892
0.55674609375,-0.04437548828125,0.6295092773437501,0.8415564907526609,-1.0673828125,-6.3955078125,1.783203125,45.09470588235294,306.7133037384892
0.65830859375,-0.00043017578125,0.6646655273437501,0.9354948705874612,-2.7216796875,-9.06103515625,-0.4619140625,45.09470588235294,306.7133037384892
0.82627734375,-0.02289111328125,0.6007006835937501,1.021811902030804,-3.2666015625,16.0,-2.9248046875,45.00058823529412,306.7133037384892
1.2027421875,-0.01166064453125,0.6246264648437501,1.355316553726977,-1.6044921875,16.0,-3.21435546875,45.00058823529412,306.2475769844613
1.44053515625,-0.05169970703125,0.8375170898437501,1.6671080564497531,0.5283203125,16.0,-1.0478515625,45.00058823529412,306.2475769844613
1.3804765625,0.05035107421875,1.0855639648437505,1.7569006494546249,1.86865234375,16.0,1.44775390625,45.235882352941175,306.2475769844613
1.3238359375,0.28814404296875,1.3873217773437505,1.939131324280824,3.0419921875,16.0,2.01171875,45.18882352941176,306.2475769844613
1.045515625,0.40826123046875,1.6578295898437505,2.0020437316363737,2.8349609375,16.0,-0.03173828125,44.906470588235294,306.29012338978
1.0503984375,0.39361279296875,1.8008959960937505,2.1216725235147864,1.80517578125,16.0,-2.24658203125,45.33,306.29012338978
1.264265625,0.03814404296875,1.8043139648437505,2.2034907356966165,0.50732421875,16.0,-4.3193359375,45.04764705882353,306.29012338978
1.8628984375,-0.16009814453125,1.6011889648437505,2.461671811078741,-0.580078125,16.0,-6.1796875,45.09470588235294,306.29012338978
2.40635546875,-0.14740283203125,1.3165209960937505,2.7469076741000134,-0.5576171875,-9.2919921875,-4.5693359375,45.00058823529412,306.29012338978
2.6216875,0.01568310546875,1.1890795898437505,2.878784739857493,0.04345703125,4.619140625,0.154296875,45.235882352941175,306.57198784699364
2.28916796875,0.23736279296875,1.1265795898437505,2.562384174336362,0.39306640625,15.748046875,3.697265625,45.04764705882353,306.57198784699364
1.705671875,0.42095654296875,1.1724780273437505,2.1121613766088303,-0.55322265625,15.99951171875,5.08203125,45.18882352941176,306.57198784699364
1.45127734375,0.59136669921875,1.1744311523437505,1.958368972645963,-1.38818359375,15.99951171875,3.56103515625,45.04764705882353,306.57198784699364
0.91905078125,0.62896435546875,0.93517333984375,1.454235082275548,-2.5478515625,15.99951171875,-0.71826171875,45.00058823529412,306.6479636699947
0.60996875,0.64507763671875,0.6280444335937501,1.087486479888051,-2.5576171875,15.99951171875,-6.4072265625,45.18882352941176,306.6479636699947
0.72080859375,0.56499951171875,0.32921630859375,0.9732280590439084,-1.587890625,13.93115234375,-11.58544921875,45.00058823529412,306.6479636699947
1.16416796875,0.52007763671875,0.11193115234375,1.279959526916168,-1.00341796875,11.3330078125,-14.05126953125,45.09470588235294,306.6479636699947
1.75889453125,0.48345654296875,-0.0052563476562499,1.8241348168902247,1.02734375,7.5341796875,-11.5419921875,45.04764705882353,306.6479636699947
2.73741015625,0.80181591796875,0.34093505859375,2.872726900355661,6.521484375,-7.1748046875,-6.05712890625,45.04764705882353,306.5704691868687
2.81455859375,0.19390576171875,0.90734130859375,2.9635464856081346,8.2529296875,16.0,-3.1689453125,45.00058823529412,306.5704691868687
2.14903125,-0.48968798828125,0.7877124023437501,2.340645310197524,2.8037109375,16.0,-4.87353515625,44.906470588235294,306.5704691868687
0.940046875,-1.01410205078125,-0.0125805664062499,1.3828410491618712,-0.0048828125,16.0,-3.265625,45.04764705882353,306.5704691868687
0.1265703125,-1.31976611328125,0.22472412109375,1.3447317830605487,2.48583984375,-10.18603515625,3.98974609375,45.09470588235294,306.49829266536915
-0.00477734375,-0.68744189453125,1.0552905273437505,1.2594591213975428,2.8271484375,-6.130859375,7.9541015625,44.85941176470588,306.49829266536915
-0.1468671875,0.50396435546875,1.1617358398437505,1.2748255582332262,-2.8095703125,0.71435546875,1.7373046875,45.18882352941176,306.49829266536915
0.0201249999999999,1.05523388671875,0.97081787109375,1.4340191456670168,-9.27978515625,8.638671875,-8.00634765625,45.09470588235294,306.49829266536915
0.57139453125,0.58208935546875,0.8394702148437501,1.1704827934242534,-10.46484375,7.65234375,-14.5087890625,45.18882352941176,306.49829266536915
0.990828125,-0.30169970703125,0.21739990234375,1.058312715624654,-7.03515625,8.47705078125,16.0,45.00058823529412,306.16020993382136
2.11241015625,-1.64105517578125,-0.0511547851562499,2.675435585139541,-3.40283203125,14.3095703125,-13.1865234375,45.04764705882353,306.16020993382136
3.21397265625,-2.46673876953125,0.25548583984375,4.059518863928568,1.18896484375,11.62158203125,8.9091796875,45.00058823529412,306.16020993382136
2.682234375,-1.49164111328125,0.5880053710937501,3.124919962126657,-1.3896484375,3.57861328125,15.99951171875,45.00058823529412,306.16020993382136
0.86729296875,0.81304638671875,0.23448974609375,1.2117041559814488,-1.14697265625,2.17724609375,15.99951171875,45.235882352941175,306.00978213917955
-0.59315625,2.13531201171875,0.41075927734375,2.253911024913893,3.2685546875,3.60205078125,11.61865234375,45.00058823529412,306.00978213917955
-0.181046875,1.97320263671875,1.6236499023437505,2.561746595954011,1.66015625,-2.73046875,-7.587890625,45.18882352941176,306.00978213917955
0.45225390625,1.21148388671875,1.7554858398437505,2.180357158217312,-2.7529296875,-10.41455078125,-11.1650390625,45.04764705882353,306.00978213917955
1.1734453125,0.98687451171875,1.1177905273437505,1.897459055244081,-1.92138671875,-6.32421875,-7.54443359375,45.235882352941175,306.00978213917955
1.99424609375,1.05230419921875,0.93859130859375,2.4423994871229144,1.50634765625,4.7939453125,-3.884765625,45.09470588235294,305.8585980660385
2.29991015625,0.93169873046875,1.2935717773437505,2.7983883208588565,2.6103515625,13.51708984375,0.5634765625,45.235882352941175,305.8585980660385
1.40244921875,0.78814404296875,1.2872241210937505,2.0603351138989963,1.7578125,15.99951171875,2.19287109375,45.235882352941175,305.8585980660385
0.38584765625,0.54156201171875,1.2579272460937505,1.4228663966920732,1.818359375,15.99951171875,-0.689453125,45.09470588235294,305.8585980660385
0.2183671875,0.12603466796875,1.1363452148437505,1.1639799884039854,0.97900390625,15.99951171875,-4.7216796875,45.235882352941175,306.0310553226739
0.596296875,-0.21722705078125,0.7393725585937501,0.974386645601916,0.7666015625,15.99951171875,-6.54150390625,45.09470588235294,306.0310553226739
1.16465625,-0.52679736328125,0.40831787109375,1.341887896390258,0.68994140625,15.99951171875,-3.50927734375,45.04764705882353,306.0310553226739
1.5435625,-0.78949267578125,0.19542724609375,1.7447279687774466,1.02587890625,15.99951171875,-0.255859375,45.04764705882353,306.0310553226739
1.67002734375,-0.92718798828125,0.16808349609375,1.9175299101043533,0.55078125,15.99951171875,1.95458984375,44.906470588235294,306.0310553226739
1.6539140625,-0.96234423828125,0.08995849609375,1.9156280145445312,-0.56298828125,15.44677734375,4.88916015625,45.00058823529412,306.02041872426867
1.37705859375,-0.92621142578125,0.00597412109375,1.6595763513593782,-0.3251953125,9.61083984375,6.796875,45.235882352941175,306.02041872426867
1.1988359375,-0.75824267578125,0.11193115234375,1.422908339733243,-0.23486328125,7.52685546875,9.32373046875,45.235882352941175,306.02041872426867
0.783796875,-0.27093798828125,0.25011474609375,0.866199931290229,-0.884765625,7.2890625,11.80615234375,45.235882352941175,306.02041872426867
0.373640625,0.10943310546875,0.23058349609375,0.4524949390808052,-0.5859375,10.85498046875,9.66015625,45.04764705882353,306.0629651977962
0.4654375,0.32574169921875,0.37804443359375,0.6823908812311225,-2.02001953125,15.56298828125,6.9208984375,45.09470588235294,306.0629651977962
0.67246875,0.61040966796875,0.24230224609375,0.939959871983032,-3.9619140625,15.99951171875,5.51220703125,45.00058823529412,306.0629651977962
0.94151171875,0.71587841796875,0.10704833984375,1.18759655309382,-3.8876953125,15.99951171875,4.447265625,45.235882352941175,306.0629651977962
1.30381640625,0.66851513671875,0.09337646484375,1.4681855718591807,-4.1982421875,15.99951171875,3.3623046875,44.906470588235294,306.0629651977962
1.48155078125,0.56499951171875,0.01036865234375,1.5856622195840882,-4.52685546875,15.99951171875,2.88818359375,45.04764705882353,306.1488158197082
1.29307421875,0.47271435546875,0.02013427734375,1.3769187289692568,-5.6279296875,14.7236328125,3.0400390625,45.00058823529412,306.1488158197082
1.076765625,0.44097607421875,-0.0120922851562499,1.163628090317229,-2.9521484375,3.8984375,3.66943359375,45.00058823529412,306.1488158197082
0.3628984375,0.29058544921875,0.10363037109375,0.4763133769385786,-3.91455078125,-5.03515625,4.2958984375,45.00058823529412,306.1488158197082
-0.11659375,0.30132763671875,0.20568115234375,0.3830106834267451,-2.751953125,-14.8271484375,2.40771484375,45.235882352941175,305.8692346427159
0.03428515625,0.18316357421875,0.5650561523437501,0.5949897664340099,-2.24755859375,16.0,-0.94091796875,45.235882352941175,305.8692346427159
0.53575,-0.04828173828125,0.7584155273437501,0.92981358393366,-2.2666015625,16.0,-1.42236328125,45.09470588235294,305.8692346427159
1.14170703125,-0.36127001953125,1.0230639648437505,1.5750145549738936,-0.52880859375,16.0,0.4853515625,45.18882352941176,305.8692346427159
1.2632890625,-0.56830126953125,1.3985522460937505,1.9684547171415527,0.15966796875,16.0,5.10302734375,45.00058823529412,305.8692346427159
0.75596484375,-0.50384814453125,1.7291186523437505,1.9532529563824068,0.1494140625,-9.3330078125,8.953125,45.235882352941175,306.06220812630653
0.260359375,0.12994091796875,2.1260913085937503,2.145911437779024,-0.64453125,-1.48486328125,7.5205078125,45.09470588235294,306.06220812630653
0.2466875,0.87701123046875,3.0689624023437503,3.201333104821191,14.306640625,16.0,-2.51708984375,45.00058823529412,306.06220812630653
0.79991015625,0.31646435546875,4.52941162109375,4.610376945506004,11.654296875,16.0,-0.0546875,45.09470588235294,306.06220812630653
3.40635546875,0.76665966796875,3.8189624023437503,5.174504658079663,-7.70263671875,16.0,-11.578125,45.09470588235294,305.8479615026723
4.2154375,0.92339794921875,1.5181811523437505,4.574653112571427,-13.1123046875,-8.06982421875,-7.640625,45.00058823529412,305.8479615026723
2.95420703125,-1.54291064453125,0.19933349609375,3.3388091115186165,-9.66455078125,15.99951171875,-11.5673828125,45.09470588235294,305.8479615026723
2.900984375,-1.75921923828125,0.31896240234375,3.4076824509396264,4.58056640625,15.99951171875,-2.37890625,45.00058823529412,305.8479615026723
2.0836015625,-0.39935595703125,-0.0272290039062499,2.1217026347541057,2.49462890625,15.99951171875,15.99951171875,45.235882352941175,305.8479615026723
2.43565234375,1.35308544921875,1.3370288085937505,3.090451198047301,4.41796875,16.0,2.36865234375,45.00058823529412,306.48689580261606
2.7310625,0.33990185546875,1.1417163085937505,2.979555634581488,-5.69140625,16.0,-6.7060546875,45.00058823529412,306.48689580261606
0.22325,-0.37445361328125,0.5352709960937501,0.6903412998355084,8.546875,16.0,8.642578125,45.09470588235294,306.48689580261606
-0.15223828125,-0.41791064453125,2.5757983398437503,2.6139171541256427,14.1611328125,16.0,14.216796875,45.09470588235294,306.48689580261606
-0.9456953125,0.45122998046875,3.4493334960937503,3.604975684610457,3.55322265625,-10.34619140625,3.19580078125,45.09470588235294,305.95432773554484
-1.41298046875,0.43169873046875,2.4981616210937503,2.9023592272603085,-5.93701171875,15.99951171875,-6.0654296875,45.235882352941175,305.95432773554484
-0.33534375,0.38580029296875,1.0518725585937505,1.1695012510644862,-6.54833984375,15.99951171875,-14.466796875,45.235882352941175,305.95432773554484
0.80772265625,-0.11273486328125,0.6334155273437501,1.0326375303555255,-1.9638671875,15.99951171875,-10.25146484375,44.906470588235294,305.95432773554484
1.62412890625,-0.36615283203125,0.49034912109375,1.7355992800985889,-0.23486328125,15.99951171875,-3.294921875,45.09470588235294,305.95432773554484
1.900984375,-0.01068408203125,0.34288818359375,1.93169046434754,0.68798828125,15.99951171875,0.28662109375,45.00058823529412,306.0295412625723
1.60459765625,0.19585888671875,0.24620849609375,1.6351492181138845,1.13671875,10.90380859375,0.484375,45.09470588235294,306.0295412625723
1.20616015625,0.08355419921875,0.46398193359375,1.2950223401291214,1.6572265625,-3.0009765625,1.419921875,45.09470588235294,306.0295412625723
0.9195390625,0.03912060546875,0.6798022460937501,1.1442087235420502,0.8515625,16.0,2.419921875,45.235882352941175,306.0295412625723
0.5250078125,0.19341748046875,0.8209155273437501,0.993451472378486,1.0224609375,16.0,0.62548828125,45.235882352941175,306.25669760887894
0.53526171875,0.21587841796875,1.0391772460937505,1.1886959021141132,1.17724609375,16.0,-1.8837890625,45.18882352941176,306.25669760887894
0.6539140625,0.07964794921875,1.2183764648437505,1.3850590626522614,1.3046875,16.0,-1.97900390625,45.18882352941176,306.25669760887894
0.623640625,-0.06000048828125,1.4146655273437505,1.547193020278708,1.4169921875,-8.2275390625,-0.0546875,45.235882352941175,306.25669760887894
0.447859375,0.04156201171875,1.4888842773437505,1.555339773784147,0.73291015625,5.947265625,-0.0615234375,45.04764705882353,306.25669760887894
0.18369921875,0.12847607421875,1.3702319335937505,1.3884477147001577,-0.14111328125,15.99951171875,-1.5244140625,45.09470588235294,305.608661965344
0.0274492187499999,0.17290966796875,1.1334155273437505,1.1468574325132832,-0.52685546875,15.99951171875,-2.7744140625,45.09470588235294,305.608661965344
0.0718828125,0.13384716796875,0.8882983398437501,0.9011970615105928,-0.3857421875,15.99951171875,-3.2236328125,45.00058823529412,305.608661965344
0.28428515625,0.11626904296875,0.6241381835937501,0.6956184389711515,-0.16943359375,15.99951171875,-3.390625,45.04764705882353,305.608661965344
0.58604296875,0.10259716796875,0.37072021484375,0.7010035790139145,0.01416015625,15.99951171875,-3.11279296875,45.18882352941176,305.7271766020539
0.830671875,0.07281201171875,0.23156005859375,0.8654117018520652,-0.103515625,10.2177734375,-1.56884765625,45.04764705882353,305.7271766020539
0.889265625,0.09478466796875,0.15148193359375,0.907041488187772,0.5302734375,-1.48876953125,-0.0576171875,44.906470588235294,305.7271766020539
0.6998125,0.09136669921875,0.27745849609375,0.7583327936578933,0.994140625,-11.3369140625,0.5791015625,45.33,305.7271766020539
0.494734375,0.14751904296875,0.5074389648437501,0.7238910642401611,0.83203125,16.0,1.0732421875,44.906470588235294,305.7271766020539
0.3570390625,0.15874951171875,0.7437670898437501,0.8401593798538831,0.84521484375,16.0,0.75439453125,45.18882352941176,306.00902477099675
0.37022265625,0.18609326171875,0.95616943359375,1.0420918879815355,0.6591796875,16.0,-0.08251953125,45.04764705882353,306.00902477099675
0.48448046875,0.17437451171875,1.1002124023437505,1.2147407646112722,0.6591796875,16.0,-0.3046875,45.235882352941175,306.00902477099675
0.55576953125,0.11724560546875,1.2418139648437505,1.3655505216389956,0.8505859375,-11.16845703125,0.27392578125,45.33,306.00902477099675
0.553328125,0.10601513671875,1.3482592773437505,1.4612372504398463,0.40478515625,-1.9033203125,0.646484375,45.04764705882353,305.99763115126234
0.4293046875,0.13580029296875,1.2984545898437505,1.3743102110390406,-0.1640625,7.3193359375,0.08154296875,45.00058823529412,305.99763115126234
0.39951953125,0.16412060546875,1.1866381835937505,1.2627991161512284,-0.57861328125,14.0283203125,-0.845703125,45.235882352941175,305.99763115126234
0.459578125,0.15142529296875,0.99864990234375,1.1097041496634898,-1.03857421875,15.99951171875,-1.11376953125,44.85941176470588,305.99763115126234
0.5289140625,0.13091748046875,0.7681811523437501,0.941802397012617,-1.0673828125,15.61669921875,-0.78173828125,44.85941176470588,305.99763115126234
0.619734375,0.13091748046875,0.6094897460937501,0.8790266394383904,-0.6669921875,11.43603515625,-0.51611328125,45.235882352941175,305.8791144691679
0.69444140625,0.13580029296875,0.5132983398437501,0.8741657577205972,-0.48486328125,5.56005859375,-0.099609375,45.04764705882353,305.8791144691679
0.7203203125,0.12066357421875,0.5093920898437501,0.8904500839119083,-0.2119140625,-1.67333984375,0.47607421875,45.09470588235294,305.8791144691679
0.6558671875,0.11382763671875,0.5616381835937501,0.8709511741714473,0.04296875,-8.13232421875,0.88525390625,45.235882352941175,305.8791144691679
0.5836015625,0.12066357421875,0.5860522460937501,0.8358275641824781,0.35009765625,-12.32275390625,0.88671875,45.235882352941175,305.8373249526223
0.5250078125,0.12261669921875,0.8707202148437501,1.02411998840511,0.3740234375,-13.87158203125,0.78759765625,45.18882352941176,305.8373249526223
0.475203125,0.12408154296875,0.99279052734375,1.1076313784372276,0.228515625,-12.23974609375,0.810546875,45.00058823529412,305.8373249526223
0.43760546875,0.11724560546875,1.0709155273437505,1.1628005611400365,0.03466796875,-7.8125,0.640625,45.00058823529412,305.8373249526223
0.44053515625,0.12749951171875,1.1148608398437505,1.2055048907399106,-0.2744140625,-1.943359375,0.3701171875,45.09470588235294,305.8373249526223
0.48057421875,0.12749951171875,1.0801928710937505,1.1891275558061265,-0.71142578125,3.28369140625,-0.03564453125,45.00058823529412,305.5767519879085
0.50889453125,0.12310498046875,0.93761474609375,1.0738947305228832,-0.8271484375,7.18994140625,-0.06982421875,45.18882352941176,305.5767519879085
0.561140625,0.11480419921875,0.8287280273437501,1.0073971155848682,-0.80419921875,8.50146484375,0.03125,45.18882352941176,305.5767519879085
0.60557421875,0.11871044921875,0.7071459960937501,0.9385455582761084,-0.76171875,7.4921875,0.09521484375,45.09470588235294,305.5767519879085
0.647078125,0.10943310546875,0.6412280273437501,0.9175287938136912,-0.556640625,4.52978515625,0.1015625,45.09470588235294,305.8464480584425
0.6910234375,0.09673779296875,0.6304858398437501,0.9404169213738448,-0.34521484375,0.5673828125,0.23583984375,45.04764705882353,305.8464480584425
0.68760546875,0.08062451171875,0.6592944335937501,0.956018170702052,-0.2353515625,-3.28759765625,0.509765625,45.235882352941175,305.8464480584425
0.64268359375,0.09429638671875,0.7037280273437501,0.95768843926026,-0.08251953125,-6.07275390625,0.78125,45.04764705882353,305.8464480584425
0.5894609375,0.09624951171875,0.7833178710937501,0.98504571087809,0.05029296875,-6.96728515625,0.7568359375,44.906470588235294,305.8464480584425
0.54746875,0.09478466796875,0.8839038085937501,1.044026871471729,-0.04541015625,-6.28564453125,0.5615234375,45.18882352941176,306.0211764720126
0.5308671875,0.09331982421875,0.94542724609375,1.0882836202078898,-0.16455078125,-4.21875,0.357421875,44.906470588235294,306.0211764720126
0.54014453125,0.09869091796875,0.96837646484375,1.1132156078640272,-0.34375,-1.13037109375,0.10302734375,45.09470588235294,306.0211764720126
0.5464921875,0.09722607421875,1.0777514648437505,1.2122932155544608,-0.4765625,1.76953125,-0.04150390625,45.09470588235294,306.0211764720126
0.58311328125,0.10503857421875,0.8956225585937501,1.0738686923018403,-0.55126953125,3.998046875,-0.12109375,45.09470588235294,305.9672359319744
0.604109375,0.08990185546875,0.8189624023437501,1.0216309984687528,-0.79150390625,4.748046875,0.2099609375,44.906470588235294,305.9672359319744
0.58994921875,0.09429638671875,0.7281420898437501,0.9418719617092184,-0.5927734375,4.26171875,0.05517578125,44.906470588235294,305.9672359319744
0.58408984375,0.09576123046875,0.6900561523437501,0.909125212619389,-0.318359375,3.0654296875,-0.26416015625,45.235882352941175,305.9672359319744
0.59776171875,0.07915966796875,0.7120288085937501,0.93304359474963,-0.291015625,1.03515625,0.01513671875,45.09470588235294,305.9672359319744
0.600203125,0.07525341796875,0.7154467773437501,0.9368943160182488,-0.39111328125,-1.33837890625,0.29052734375,45.00058823529412,305.82593135565367
0.59287890625,0.10015576171875,0.7149584960937501,0.9341853270193748,-0.2275390625,-2.8017578125,0.2197265625,45.37705882352941,305.82593135565367
0.60948046875,0.08990185546875,0.7735522460937501,0.9889043749731968,-0.13037109375,-3.447265625,0.19921875,45.09470588235294,305.82593135565367
0.6089921875,0.08160107421875,0.8394702148437501,1.0403078685463745,-0.1953125,-3.3173828125,0.2783203125,45.235882352941175,305.82593135565367
0.5748125,0.07281201171875,0.8697436523437501,1.0450669930674432,-0.25,-2.2705078125,0.43701171875,44.906470588235294,305.8266884158932
0.54209765625,0.07867138671875,0.8799975585937501,1.0365590958218227,-0.3623046875,-0.6953125,0.38330078125,45.09470588235294,305.8266884158932
0.54209765625,0.08599560546875,0.8716967773437501,1.0301069773102012,-0.513671875,0.6845703125,0.1904296875,45.09470588235294,305.8266884158932
0.56846484375,0.08062451171875,0.8214038085937501,1.0021760360545031,-0.57958984375,1.560546875,0.0439453125,45.04764705882353,305.8266884158932
0.615828125,0.07574169921875,0.7701342773437501,0.9889832605668,-0.525390625,1.7138671875,0.0693359375,45.235882352941175,305.8266884158932
0.643171875,0.06695263671875,0.7491381835937501,0.989626563140234,-0.45751953125,1.17333984375,0.2099609375,45.04764705882353,306.3121550124776
0.6421953125,0.06939404296875,0.7427905273437501,0.984361783140796,-0.396484375,0.15478515625,0.3076171875,45.00058823529412,306.3121550124776
0.61826953125,0.08160107421875,0.7261889648437501,0.9572180322406102,-0.2509765625,-0.7451171875,0.3740234375,45.235882352941175,306.3121550124776
0.60948046875,0.07378857421875,0.7667163085937501,0.9822245635986622,-0.20849609375,-1.412109375,0.2109375,45.09470588235294,306.3121550124776
0.60850390625,0.07232373046875,0.7935717773437501,1.0026284913700307,-0.265625,-1.74462890625,0.24560546875,45.18882352941176,305.728688718366
0.6050859375,0.07622998046875,0.7999194335937501,1.0058882154213091,-0.21728515625,-1.4609375,0.12890625,45.37705882352941,305.728688718366
0.6168046875,0.06988232421875,0.8155444335937501,1.0249118425142416,-0.16015625,-0.7705078125,0.13232421875,45.518235294117645,305.728688718366
0.6207109375,0.07281201171875,0.8165209960937501,1.0282461738536108,-0.203125,-0.2197265625,0.1865234375,45.09470588235294,305.728688718366
0.611921875,0.07476513671875,0.7921069335937501,1.0037288483546651,-0.201171875,0.2548828125,0.138671875,45.235882352941175,305.728688718366
0.60996875,0.07769482421875,0.7681811523437501,0.983971871804838,-0.17919921875,0.4931640625,0.08544921875,45.18882352941176,305.88138607650427
0.61778125,0.08453076171875,0.7481616210937501,0.9739327152354738,-0.169921875,0.39306640625,0.04931640625,45.04764705882353,305.88138607650427
0.63389453125,0.08208935546875,0.7437670898437501,0.9806887492801032,-0.13232421875,0.0361328125,0.01025390625,45.235882352941175,305.88138607650427
0.63780078125,0.07720654296875,0.7364428710937501,0.9772915579422046,-0.11376953125,-0.33984375,0.06103515625,45.04764705882353,305.88138607650427
0.635359375,0.07720654296875,0.7476733398437501,0.9842041499560362,-0.05224609375,-0.5927734375,0.041015625,44.906470588235294,305.8054153823786
0.639265625,0.08550732421875,0.7667163085937501,1.0019111435977333,-0.05078125,-0.6787109375,0.0712890625,45.09470588235294,305.8054153823786
0.63487109375,0.08404248046875,0.7740405273437501,1.0046209146604763,-0.0634765625,-0.63134765625,0.095703125,44.906470588235294,305.8054153823786
0.6363359375,0.08794873046875,0.7798999023437501,1.010397081458997,-0.10595703125,-0.46826171875,0.05615234375,45.235882352941175,305.8054153823786
0.64756640625,0.08208935546875,0.7784350585937501,1.015894705780412,-0.123046875,-0.1826171875,0.037109375,45.09470588235294,305.8054153823786
0.65147265625,0.07330029296875,0.7764819335937501,1.0162252447111435,-0.107421875,0.138671875,0.1171875,45.18882352941176,305.81756744832603
0.65537890625,0.07183544921875,0.7730639648437501,1.0160264446665963,-0.1767578125,0.349609375,0.2001953125,45.09470588235294,305.81756744832603
0.64366015625,0.07818310546875,0.7554858398437501,0.995575134748216,-0.1806640625,0.4580078125,0.2275390625,45.235882352941175,305.81756744832603
0.6295,0.07574169921875,0.7515795898437501,0.983300022816151,-0.119140625,0.56591796875,0.2490234375,45.09470588235294,305.81756744832603
0.63780078125,0.07720654296875,0.7608569335937501,0.9958182365461982,-0.06396484375,0.3623046875,-0.03173828125,45.04764705882353,305.9140534725832
0.66905078125,0.08208935546875,0.7667163085937501,1.0208925056224758,-0.18701171875,-0.07568359375,-0.0390625,45.18882352941176,305.9140534725832
0.67491015625,0.06988232421875,0.7481616210937501,1.0100163709194232,-0.1875,-0.34619140625,-0.0556640625,45.33,305.9140534725832
0.676375,0.08501904296875,0.7364428710937501,1.0035235326972296,-0.02001953125,-0.18017578125,-0.16015625,45.235882352941175,305.9140534725832
0.6500078125,0.07037060546875,0.7789233398437501,1.0169482522618425,0.00830078125,0.279296875,0.08740234375,45.235882352941175,305.9140534725832
0.62119921875,0.06988232421875,0.7842944335937501,1.0029405601430057,-0.20751953125,0.47216796875,0.3076171875,45.00058823529412,306.1609677879713
0.59385546875,0.09429638671875,0.7476733398437501,0.9594641991369984,-0.16015625,0.76953125,-0.08740234375,44.906470588235294,306.1609677879713
0.63682421875,0.08257763671875,0.7520678710937501,0.988923775831124,-0.24560546875,0.59521484375,-0.185546875,45.09470588235294,306.1609677879713
0.67881640625,0.08697216796875,0.7359545898437501,1.0049801140855632,-0.23779296875,0.25927734375,-0.1982421875,45.18882352941176,306.1609677879713
0.6968828125,0.06353466796875,0.7354663085937501,1.0151812643406726,-0.12255859375,0.09130859375,0.103515625,45.04764705882353,306.0751171904779
0.67198046875,0.06890576171875,0.7457202148437501,1.0061830813555352,-0.09814453125,0.052734375,0.43310546875,44.906470588235294,306.0751171904779
0.63291796875,0.08550732421875,0.7657397460937501,0.9971228692640628,-0.09375,0.1337890625,0.27685546875,45.18882352941176,306.0751171904779
0.631453125,0.08453076171875,0.7720874023437501,1.0009982295723292,-0.15625,0.19384765625,-0.06005859375,45.00058823529412,306.0751171904779
0.6539140625,0.06841748046875,0.7632983398437501,1.007426874952803,-0.166015625,0.41357421875,-0.19873046875,45.09470588235294,306.0751171904779
0.68174609375,0.06353466796875,0.7598803710937501,1.0228551064304554,-0.1015625,0.64404296875,-0.103515625,45.00058823529412,305.728688718366
0.6832109375,0.07183544921875,0.7491381835937501,1.016437669019715,-0.056640625,0.81640625,0.01806640625,44.906470588235294,305.728688718366
0.65440234375,0.07915966796875,0.7554858398437501,1.0026303081110366,-0.0400390625,0.92431640625,0.03466796875,45.09470588235294,305.728688718366
0.6343828125,0.08160107421875,0.7476733398437501,0.9839287124696444,-0.0546875,0.8603515625,-0.08544921875,45.09470588235294,305.728688718366
0.63389453125,0.08453076171875,0.7457202148437501,0.982377913662567,-0.099609375,0.82568359375,-0.11865234375,44.85941176470588,305.79326484798173
0.64463671875,0.08160107421875,0.7325366210937501,0.979196168149094,-0.13330078125,0.6640625,-0.1328125,45.09470588235294,305.79326484798173
0.66123828125,0.07720654296875,0.7247241210937501,0.984084328989517,-0.0400390625,0.6396484375,-0.1171875,45.00058823529412,305.79326484798173
0.6685625,0.07037060546875,0.7466967773437501,1.0047307678258042,-0.04345703125,0.6240234375,0.015625,44.906470588235294,305.79326484798173
0.6461015625,0.07915966796875,0.7486499023437501,0.9920635858538356,-0.03955078125,0.50390625,0.02783203125,45.00058823529412,305.79326484798173
0.6343828125,0.08306591796875,0.7501147460937501,0.9859075168750324,-0.029296875,0.67138671875,0.01611328125,45.235882352941175,306.032571138393
0.627546875,0.08111279296875,0.7535327148437501,0.9839745514215544,-0.0751953125,0.7890625,-0.06591796875,45.18882352941176,306.032571138393
0.63877734375,0.08306591796875,0.7423022460937501,0.9828270784691084,-0.0986328125,0.81396484375,-0.10009765625,44.906470588235294,306.032571138393
0.6480546875,0.07671826171875,0.7388842773437501,0.9858045166145594,-0.10986328125,0.7392578125,-0.00439453125,45.00058823529412,306.032571138393
0.6519609375,0.08160107421875,0.7388842773437501,0.9887678062342689,-0.09423828125,0.58447265625,0.03271484375,45.04764705882353,305.84871888313336
0.65049609375,0.08160107421875,0.7432788085937501,0.9910939867652346,-0.0908203125,0.41455078125,0.01953125,45.37705882352941,305.84871888313336
0.64561328125,0.07769482421875,0.7403491210937501,0.985378006523924,-0.07470703125,0.33154296875,-0.01025390625,45.09470588235294,305.84871888313336
0.65147265625,0.07818310546875,0.7559741210937501,1.0010125331810966,-0.06689453125,0.30859375,-0.01953125,44.81235294117647,305.84871888313336
0.65684375,0.08062451171875,0.7603686523437501,1.0080200946761924,-0.099609375,0.37158203125,0.041015625,45.00058823529412,305.84871888313336
0.65244921875,0.07574169921875,0.7535327148437501,0.9996190976506106,-0.1279296875,0.505859375,0.09765625,45.00058823529412,306.06523904568405
0.65147265625,0.07427685546875,0.7623217773437501,1.005518853782608,-0.24853515625,0.50146484375,0.130859375,45.18882352941176,306.06523904568405
0.64268359375,0.08062451171875,0.7501147460937501,0.9910674275106578,-0.11962890625,0.705078125,0.11328125,44.85941176470588,306.06523904568405
0.63194140625,0.08355419921875,0.7506030273437501,0.9847518214240156,-0.10009765625,0.76806640625,0.0234375,45.235882352941175,306.06523904568405
0.63340625,0.07574169921875,0.7432788085937501,0.9794915363820916,-0.03076171875,0.73095703125,-0.07373046875,45.235882352941175,305.990025299371
0.6714921875,0.08501904296875,0.7520678710937501,1.0117984375716058,-0.1591796875,0.3505859375,0.06201171875,44.906470588235294,305.990025299371
0.67198046875,0.08404248046875,0.7349780273437501,0.9994066187408006,-0.16455078125,0.11279296875,0.1435546875,45.235882352941175,305.990025299371
0.67979296875,0.08990185546875,0.7423022460937501,1.0105510618145372,-0.06298828125,0.03466796875,-0.0439453125,45.04764705882353,305.990025299371
0.64073046875,0.07037060546875,0.7545092773437501,0.9923566925740064,0.0322265625,0.5458984375,0.01171875,44.906470588235294,305.990025299371
0.64121875,0.07134716796875,0.7901538085937501,1.0200955567808008,-0.16943359375,0.7119140625,0.271484375,45.235882352941175,305.6322031518351
0.59287890625,0.09234326171875,0.7359545898437501,0.9495587574095328,-0.15478515625,1.0556640625,0.02392578125,45.18882352941176,305.6322031518351
0.6529375,0.08306591796875,0.7554858398437501,1.001991107664463,-0.2001953125,0.935546875,-0.09375,45.235882352941175,305.6322031518351
0.67100390625,0.08257763671875,0.7257006835937501,0.9918199385257632,-0.19580078125,0.63037109375,-0.009765625,45.00058823529412,305.6322031518351
0.6773515625,0.07525341796875,0.7237475585937501,0.9941220974848032,-0.10498046875,0.458984375,0.208984375,45.235882352941175,305.93608463884823
0.63877734375,0.07525341796875,0.7369311523437501,0.9781447209380484,-0.099609375,0.31884765625,0.49755859375,45.235882352941175,305.93608463884823
0.61533984375,0.08648388671875,0.7442553710937501,0.9695559000749526,-0.1123046875,0.2021484375,0.22509765625,45.00058823529412,305.93608463884823
0.62705859375,0.08648388671875,0.7579272460937501,0.987489571098837,-0.1689453125,-0.0107421875,-0.0439453125,45.09470588235294,305.93608463884823
0.66612109375,0.07867138671875,0.7437670898437501,1.0015467949934185,-0.00146484375,0.01171875,-0.13037109375,45.235882352941175,305.93608463884823
0.7007890625,0.06646435546875,0.7545092773437501,1.0318948930318887,-0.080078125,0.10595703125,0.056640625,44.906470588235294,305.7955365627472
0.690046875,0.07183544921875,0.7569506835937501,1.026790805789948,-0.0625,0.337890625,0.23828125,45.37705882352941,305.7955365627472
0.65537890625,0.07476513671875,0.7632983398437501,1.008828871530868,-0.0263671875,0.66845703125,0.212890625,45.04764705882353,305.7955365627472
0.6295,0.08013623046875,0.7598803710937501,0.9900051736265402,-0.09619140625,0.83642578125,0.115234375,44.906470588235294,305.7955365627472
0.62608203125,0.07818310546875,0.7471850585937501,0.9779452027698736,-0.162109375,0.91357421875,-0.044921875,45.00058823529412,305.71044554257946
0.66026171875,0.07671826171875,0.7354663085937501,0.9913334050683292,-0.18603515625,0.77099609375,0.06103515625,45.37705882352941,305.71044554257946
0.67246875,0.08453076171875,0.7183764648437501,0.9876357702334996,-0.12646484375,0.541015625,0.060546875,45.18882352941176,305.71044554257946
0.67393359375,0.06841748046875,0.7418139648437501,1.0045672694527163,-0.09521484375,0.34912109375,0.1865234375,45.235882352941175,305.71044554257946
0.65635546875,0.07867138671875,0.7432788085937501,0.9947135646761976,-0.09326171875,0.23583984375,0.21630859375,45.18882352941176,305.71044554257946
0.6363359375,0.08208935546875,0.7486499023437501,0.9859709751887148,-0.10791015625,0.25048828125,0.115234375,45.04764705882353,305.92544821961786
0.6373125,0.07818310546875,0.7515795898437501,0.9885098383459252,-0.1572265625,0.52978515625,0.08544921875,45.18882352941176,305.92544821961786
0.64463671875,0.07867138671875,0.7457202148437501,0.988860114007854,-0.18310546875,0.66796875,0.0322265625,44.906470588235294,305.92544821961786
0.66319140625,0.07671826171875,0.7423022460937501,0.998359232721782,-0.17236328125,0.64306640625,0.0263671875,45.09470588235294,305.92544821961786
0.66123828125,0.07232373046875,0.7427905273437501,0.9970980664362844,-0.15380859375,0.64208984375,0.1162109375,45.235882352941175,305.8266884158932
0.65635546875,0.07330029296875,0.7452319335937501,0.9957640629964593,-0.14208984375,0.54931640625,0.16943359375,45.09470588235294,305.8266884158932
0.64073046875,0.08111279296875,0.7344897460937501,0.978054193736036,-0.11962890625,0.5673828125,0.06396484375,45.235882352941175,305.8266884158932
0.645125,0.07671826171875,0.7349780273437501,0.9809508947874286,-0.10693359375,0.529296875,-0.0205078125,44.906470588235294,305.8266884158932
0.65733203125,0.07867138671875,0.7413256835937501,0.9939005762908294,-0.11328125,0.478515625,-0.05712890625,45.18882352941176,305.8266884158932
0.66709765625,0.07085888671875,0.7423022460937501,1.0005263061794478,-0.13671875,0.38037109375,0.0234375,45.47117647058823,305.794778885598
0.6597734375,0.06939404296875,0.7413256835937501,0.9948267644096916,-0.0927734375,0.4912109375,0.0830078125,45.235882352941175,305.794778885598
0.65244921875,0.07037060546875,0.7481616210937501,0.9951823031179522,-0.08056640625,0.560546875,0.13134765625,45.04764705882353,305.794778885598
0.6343828125,0.07867138671875,0.7447436523437501,0.9814651535281168,-0.091796875,0.5830078125,0.02734375,45.18882352941176,305.794778885598
0.6363359375,0.07378857421875,0.7354663085937501,0.9753352603673042,-0.02783203125,0.56201171875,-0.1708984375,45.00058823529412,305.5668712064147
0.66709765625,0.07671826171875,0.7437670898437501,1.0020451380002953,-0.02099609375,0.48046875,-0.10693359375,45.09470588235294,305.5668712064147
0.69834765625,0.07037060546875,0.7491381835937501,1.0265717165507968,-0.22314453125,0.08203125,0.2412109375,45.33,305.5668712064147
0.68662890625,0.08550732421875,0.7227709960937501,1.000584164469673,-0.1142578125,-0.1376953125,0.03662109375,45.235882352941175,305.5668712064147
0.6558671875,0.06841748046875,0.7462084960937501,0.995826209192823,0.06298828125,0.27734375,-0.0966796875,45.00058823529412,305.5668712064147
0.64658984375,0.06206982421875,0.7867358398437501,1.020237409044506,-0.03857421875,0.60595703125,0.23681640625,45.04764705882353,305.5775077795847
0.61045703125,0.09380810546875,0.7423022460937501,0.9656450549813972,-0.1982421875,0.8115234375,-0.005859375,45.09470588235294,305.5775077795847
0.64170703125,0.07964794921875,0.7427905273437501,0.9848195150798176,-0.19140625,0.8173828125,-0.1435546875,45.04764705882353,305.5775077795847
0.6968828125,0.07720654296875,0.7198413085937501,1.0048771139761608,-0.2001953125,0.455078125,-0.09765625,45.235882352941175,305.5775077795847
0.6988359375,0.07183544921875,0.7247241210937501,1.0093349548098849,-0.083984375,0.29296875,0.13134765625,45.00058823529412,305.8380823924229
0.6558671875,0.07378857421875,0.7418139648437501,0.9929221921991674,-0.06396484375,0.283203125,0.33984375,45.04764705882353,305.8380823924229
0.62217578125,0.07867138671875,0.7545092773437501,0.9811096470120384,-0.14697265625,0.2978515625,0.15234375,45.04764705882353,305.8380823924229
0.62608203125,0.08013623046875,0.7427905273437501,0.9747503746085316,-0.173828125,0.333984375,-0.05419921875,45.37705882352941,305.8380823924229
0.66075,0.08111279296875,0.7383959960937501,0.9941823246922432,-0.16015625,0.375,-0.0947265625,45.33,305.8380823924229
0.686140625,0.07232373046875,0.7305834960937501,1.0048740836686323,-0.14404296875,0.318359375,0.0947265625,45.09470588235294,306.0006617391486
0.678328125,0.07964794921875,0.7340014648437501,1.002612084194849,-0.12353515625,0.2685546875,0.30810546875,45.00058823529412,306.0006617391486
0.6529375,0.08111279296875,0.7330249023437501,0.9850036403717022,-0.134765625,0.25048828125,0.3232421875,45.18882352941176,306.0006617391486
0.63291796875,0.07867138671875,0.7354663085937501,0.9734911572949156,-0.16748046875,0.2451171875,0.21142578125,45.235882352941175,306.0006617391486
0.635359375,0.07622998046875,0.7310717773437501,0.9715752615990212,-0.16650390625,0.26416015625,0.1044921875,45.18882352941176,305.7940216473395
0.6617265625,0.06353466796875,0.7291186523437501,0.9866776103406482,-0.19970703125,0.193359375,0.1513671875,45.235882352941175,305.7940216473395
0.67686328125,0.06792919921875,0.7232592773437501,0.9929059672873464,-0.20361328125,0.02685546875,0.2255859375,45.235882352941175,305.7940216473395
0.67881640625,0.06548779296875,0.7242358398437501,0.994785361842576,-0.13134765625,0.001953125,0.2451171875,45.04764705882353,305.7940216473395
0.6675859375,0.06255810546875,0.7388842773437501,0.9977647397124176,-0.08642578125,0.04052734375,0.224609375,45.09470588235294,305.7940216473395
0.65830859375,0.06255810546875,0.7369311523437501,0.990126883010268,-0.09912109375,0.10107421875,0.2490234375,45.235882352941175,305.6238385604072
0.66612109375,0.06841748046875,0.7403491210937501,0.9982560214076728,-0.04541015625,0.2421875,0.05712890625,45.235882352941175,305.6238385604072
0.6773515625,0.07281201171875,0.7349780273437501,1.0021474087926552,-0.0595703125,0.388671875,0.10205078125,45.235882352941175,305.6238385604072
0.68662890625,0.07085888671875,0.7325366210937501,1.00652378907234,-0.0830078125,0.3681640625,0.08984375,45.04764705882353,305.6238385604072
0.68662890625,0.06695263671875,0.7291186523437501,1.003770850173101,-0.06640625,0.37841796875,0.15673828125,45.235882352941175,305.9132955703585
0.67686328125,0.07037060546875,0.7330249023437501,1.0002106933414676,-0.05517578125,0.39453125,0.15087890625,45.18882352941176,305.9132955703585
0.6675859375,0.07525341796875,0.7354663085937501,0.9961148286920792,-0.05810546875,0.35791015625,0.0859375,45.00058823529412,305.9132955703585
0.6714921875,0.07476513671875,0.7349780273437501,0.9983407655806802,-0.09716796875,0.29443359375,0.00048828125,45.04764705882353,305.9132955703585
0.67783984375,0.06646435546875,0.7276538085937501,0.9966766925557607,-0.09619140625,0.3076171875,-0.02734375,45.09470588235294,305.9132955703585
0.6910234375,0.07330029296875,0.7335131835937501,1.010409775600701,-0.12890625,0.27734375,0.05517578125,44.906470588235294,305.71956612734886
0.6812578125,0.07085888671875,0.7242358398437501,0.996820315118772,-0.083984375,0.27294921875,0.068359375,45.04764705882353,305.71956612734886
0.67881640625,0.07085888671875,0.7252124023437501,0.9958643099008916,-0.09423828125,0.3154296875,0.1044921875,45.00058823529412,305.71956612734886
0.67002734375,0.07769482421875,0.7305834960937501,0.9943467060576152,-0.11572265625,0.27587890625,0.1123046875,44.85941176470588,305.71956612734886
0.66514453125,0.07378857421875,0.7193530273437501,0.9825124829159354,-0.09130859375,0.23388671875,0.0263671875,44.85941176470588,305.9687524597542
0.6636796875,0.07134716796875,0.7217944335937501,0.9831319089238132,-0.03369140625,0.17333984375,-0.095703125,45.09470588235294,305.9687524597542
0.705671875,0.07183544921875,0.7281420898437501,1.0165254693968564,-0.0947265625,-0.03369140625,0.04931640625,45.18882352941176,305.9687524597542
0.7007890625,0.06988232421875,0.7090991210937501,0.9994050294519096,-0.181640625,-0.189453125,0.24462890625,44.906470588235294,305.9687524597542
0.6968828125,0.07281201171875,0.7139819335937501,1.0003586581355266,-0.03369140625,-0.1240234375,0.03759765625,45.00058823529412,305.9687524597542
0.67002734375,0.06451123046875,0.7305834960937501,0.9934035358271276,-0.12451171875,0.240234375,-0.0166015625,44.906470588235294,305.72032378096986
0.6656328125,0.07085888671875,0.7520678710937501,1.0068237708929832,-0.13427734375,0.39697265625,0.23681640625,45.04764705882353,305.72032378096986
0.64073046875,0.08453076171875,0.7032397460937501,0.9551058180889428,-0.22119140625,0.5810546875,0.1826171875,45.04764705882353,305.72032378096986
0.678328125,0.08111279296875,0.7076342773437501,0.983592700674938,-0.1640625,0.353515625,-0.017578125,45.00058823529412,305.72032378096986
0.70371875,0.07330029296875,0.6954272460937501,0.992074627566094,-0.1982421875,-0.0888671875,0.0302734375,45.33,305.7210818734916
0.70371875,0.06548779296875,0.7007983398437501,0.9953024883206292,-0.14599609375,-0.27099609375,0.193359375,45.235882352941175,305.7210818734916
0.68955859375,0.06890576171875,0.7144702148437501,0.9953425270284562,-0.14453125,-0.3330078125,0.33544921875,45.04764705882353,305.7210818734916
0.674421875,0.07183544921875,0.7237475585937501,0.9918748539071796,-0.1748046875,-0.3173828125,0.296875,45.04764705882353,305.7210818734916
0.6793046875,0.07964794921875,0.7203295898437501,0.9933143370951062,-0.1728515625,-0.193359375,0.10498046875,44.85941176470588,305.7210818734916
0.707625,0.06597607421875,0.7203295898437501,1.011909433199821,-0.1640625,-0.04736328125,-0.01904296875,45.04764705882353,305.91481181371347
0.72373828125,0.05816357421875,0.7169116210937501,1.020363843720402,-0.15087890625,0.11962890625,0.08544921875,44.906470588235294,305.91481181371347
0.7086015625,0.06499951171875,0.7120288085937501,1.0066410160372723,-0.099609375,0.3251953125,0.19140625,45.09470588235294,305.91481181371347
0.68467578125,0.06890576171875,0.7169116210937501,0.99372591889696,-0.10205078125,0.47900390625,0.14013671875,45.00058823529412,305.91481181371347
0.67686328125,0.07769482421875,0.7081225585937501,0.9826586107108908,-0.14208984375,0.470703125,-0.02880859375,45.33,305.91481181371347
0.68369921875,0.06890576171875,0.6983569335937501,0.979742329602976,-0.1484375,0.3994140625,-0.05126953125,45.37705882352941,305.91481181371347
0.7086015625,0.06939404296875,0.7012866210937501,0.9993671159799482,-0.1650390625,0.2333984375,0.0791015625,45.235882352941175,305.91481181371347
0.71201953125,0.06890576171875,0.6841967773437501,0.9898712274872344,-0.13916015625,0.1103515625,0.02001953125,45.235882352941175,305.91481181371347
0.71104296875,0.06451123046875,0.7017749023437501,1.001115285981083,-0.0419921875,0.10302734375,0.06494140625,45.235882352941175,305.91481181371347
0.7105546875,0.06451123046875,0.7183764648437501,1.0124793370860554,-0.0869140625,0.1904296875,0.10400390625,45.235882352941175,305.9687524597542
0.6968828125,0.06988232421875,0.7134936523437501,0.9998011729993862,-0.078125,0.4853515625,0.0986328125,45.00058823529412,305.9687524597542
0.686140625,0.06744091796875,0.7105639648437501,0.9900698878495034,-0.1064453125,0.72119140625,0.0498046875,45.235882352941175,305.9687524597542
0.693953125,0.06792919921875,0.7095874023437501,0.9948364676512,-0.12939453125,0.69921875,-0.02294921875,45.235882352941175,305.9687524597542
0.7027421875,0.07085888671875,0.6993334960937501,0.9939491449153788,-0.107421875,0.59716796875,-0.06494140625,45.18882352941176,305.8183258846024
0.713484375,0.06402294921875,0.7012866210937501,1.0024778383190804,-0.09521484375,0.51953125,0.0087890625,45.18882352941176,305.8183258846024
0.70713671875,0.06402294921875,0.6978686523437501,0.9955711591620484,-0.0703125,0.47021484375,0.10986328125,45.00058823529412,305.8183258846024
0.690046875,0.06890576171875,0.7071459960937501,0.9904383643047804,-0.0751953125,0.4697265625,0.06298828125,45.235882352941175,305.8183258846024
0.686140625,0.07183544921875,0.7115405273437501,0.9910798207472856,-0.0849609375,0.5283203125,-0.0146484375,45.235882352941175,305.8183258846024
0.69541796875,0.07330029296875,0.7061694335937501,0.9938080061821792,-0.10107421875,0.583984375,-0.04736328125,45.00058823529412,306.0986662436967
0.7105546875,0.06548779296875,0.7003100585937501,0.9998053776229262,-0.10888671875,0.61474609375,0.00390625,45.09470588235294,306.0986662436967
0.71201953125,0.06158154296875,0.6998217773437501,1.000257276584603,-0.09033203125,0.58740234375,0.0732421875,45.04764705882353,306.0986662436967
0.705671875,0.06841748046875,0.7007983398437501,0.9968811664022263,-0.09228515625,0.5673828125,0.07470703125,45.33,306.0986662436967
0.6949296875,0.06597607421875,0.6973803710937501,0.9867215893680558,-0.08642578125,0.62255859375,0.06982421875,45.235882352941175,305.8388402711193
0.68467578125,0.07330029296875,0.7027514648437501,0.983876760432748,-0.0625,0.7001953125,0.0263671875,45.04764705882353,305.8388402711193
0.6753984375,0.06206982421875,0.6978686523437501,0.973157935989873,-0.0498046875,0.72900390625,-0.111328125,45.18882352941176,305.8388402711193
0.713484375,0.07085888671875,0.7066577148437501,1.0067005816747856,-0.08837890625,0.50244140625,0.01806640625,45.18882352941176,305.8388402711193
0.7027421875,0.06499951171875,0.6841967773437501,0.9829530755552548,-0.09375,0.31298828125,0.091796875,45.04764705882353,305.8388402711193
0.733015625,0.07574169921875,0.6954272460937501,1.013246152770501,-0.0634765625,0.1435546875,-0.08154296875,45.18882352941176,305.78414240212845
0.68760546875,0.06451123046875,0.7061694335937501,0.9877440197002548,0.05810546875,0.6826171875,-0.0703125,45.04764705882353,305.78414240212845
0.690046875,0.06255810546875,0.7510913085937501,1.021869052326264,-0.08154296875,0.88818359375,0.19287109375,45.00058823529412,305.78414240212845
0.64268359375,0.08404248046875,0.6846850585937501,0.9428143877032648,-0.150390625,1.0517578125,-0.052734375,45.04764705882353,305.78414240212845
0.69737109375,0.07085888671875,0.6998217773437501,0.9905038840255282,-0.14453125,0.8369140625,-0.14208984375,45.33,305.7978122276041
0.7339921875,0.07378857421875,0.6807788085937501,1.0038172499148423,-0.1259765625,0.333984375,-0.11181640625,45.00058823529412,305.7978122276041
0.733015625,0.06158154296875,0.6968920898437501,1.0132930364980024,-0.02734375,0.26220703125,0.11181640625,45.04764705882353,305.7978122276041
0.69737109375,0.06890576171875,0.7071459960937501,0.9955550744120258,-0.04931640625,0.43896484375,0.29345703125,45.09470588235294,305.7978122276041
0.658796875,0.07818310546875,0.7134936523437501,0.9742685011973482,-0.099609375,0.59912109375,0.13623046875,45.09470588235294,305.7978122276041
0.67783984375,0.07915966796875,0.7081225585937501,0.9834483539044162,-0.134765625,0.55419921875,-0.1083984375,45.37705882352941,305.7210818734916
0.71690234375,0.07427685546875,0.6934741210937501,1.00018617184968,-0.142578125,0.4755859375,-0.09765625,44.906470588235294,305.7210818734916
0.7437578125,0.06304638671875,0.6949389648437501,1.0198483688231197,-0.064453125,0.42333984375,0.1083984375,45.37705882352941,305.7210818734916
0.717390625,0.06255810546875,0.6993334960937501,1.0038078322848636,-0.05029296875,0.46435546875,0.23486328125,45.18882352941176,305.7210818734916
0.68809375,0.07427685546875,0.7081225585937501,0.9901654498298488,-0.05419921875,0.52001953125,0.16552734375,45.04764705882353,305.8608713460998
0.6793046875,0.07183544921875,0.7105639648437501,0.9856552837368662,-0.10693359375,0.5693359375,0.00048828125,45.09470588235294,305.8608713460998
0.692,0.06744091796875,0.7061694335937501,0.9910033028999377,-0.13525390625,0.65625,-0.01220703125,45.18882352941176,305.8608713460998
0.7154375,0.05914013671875,0.7037280273437501,1.0052768318460783,-0.15087890625,0.6416015625,0.134765625,45.00058823529412,305.8608713460998
0.71592578125,0.07330029296875,0.6910327148437501,0.9977218400897372,-0.08984375,0.52099609375,0.1142578125,44.906470588235294,305.8608713460998
0.707625,0.06695263671875,0.7007983398437501,0.998165371727726,-0.06787109375,0.435546875,0.09033203125,45.00058823529412,305.8076895525195
0.6929765625,0.06890576171875,0.6993334960937501,0.986930523862275,-0.0595703125,0.4814453125,0.0537109375,44.85941176470588,305.8076895525195
0.68272265625,0.06988232421875,0.6983569335937501,0.97913031374467,-0.0595703125,0.59912109375,-0.02734375,45.00058823529412,305.8076895525195
0.7007890625,0.06548779296875,0.7090991210937501,0.9991073639421718,-0.0927734375,0.64404296875,-0.0703125,45.09470588235294,305.8076895525195
0.70225390625,0.07134716796875,0.7027514648437501,0.99604748308531,-0.07177734375,0.689453125,-0.017578125,45.235882352941175,305.81908475977446
0.71006640625,0.06841748046875,0.7007983398437501,0.9999967830179444,-0.05029296875,0.64794921875,0.0322265625,45.18882352941176,305.81908475977446
0.7027421875,0.07232373046875,0.6988452148437501,0.9937111946592976,-0.05615234375,0.6259765625,0.01904296875,45.04764705882353,305.81908475977446
0.70127734375,0.06988232421875,0.7125170898437501,1.0021746631274793,-0.06103515625,0.60498046875,-0.0126953125,45.00058823529412,305.81908475977446
0.69346484375,0.07232373046875,0.7105639648437501,0.9955025663656516,-0.06201171875,0.65576171875,-0.04052734375,45.09470588235294,305.81908475977446
0.6968828125,0.07134716796875,0.7051928710937501,0.9939985202084144,-0.07421875,0.70947265625,-0.0244140625,45.09470588235294,306.06751684373216
0.693953125,0.07330029296875,0.7017749023437501,0.9896625112664166,-0.0849609375,0.74658203125,-0.03125,45.18882352941176,306.06751684373216
0.6998125,0.07134716796875,0.6993334960937501,0.9919149622281732,-0.1142578125,0.62548828125,0.025390625,45.00058823529412,306.06751684373216
0.6968828125,0.07085888671875,0.6900561523437501,0.9832823244482692,-0.08984375,0.556640625,0.03515625,45.09470588235294,306.06751684373216
0.69346484375,0.06841748046875,0.5797045898437501,0.9064391058625032,-0.07373046875,0.4775390625,0.03173828125,45.33,305.8092078604387
0.70225390625,0.07085888671875,0.7022631835937501,0.9956681724860112,-0.10693359375,0.36376953125,0.02978515625,45.33,305.8092078604387
0.69444140625,0.06988232421875,0.7066577148437501,0.9932258212012426,-0.0869140625,0.43701171875,0.033203125,45.04764705882353,305.8092078604387
0.68467578125,0.06792919921875,0.7032397460937501,0.9838401506458254,-0.0654296875,0.4853515625,-0.10498046875,45.00058823529412,305.8092078604387
0.70323046875,0.07525341796875,0.7056811523437501,0.999090615443628,-0.08349609375,0.4384765625,-0.0302734375,45.04764705882353,305.8092078604387
0.72471484375,0.07281201171875,0.6954272460937501,1.007041334013483,-0.1826171875,0.166015625,0.1103515625,45.00058823529412,305.76438562437977
0.74278125,0.07134716796875,0.6949389648437501,1.0196835629678584,-0.07470703125,-0.1064453125,-0.14111328125,45.235882352941175,305.76438562437977
0.72080859375,0.05132763671875,0.7164233398437501,1.017576511613676,0.04736328125,0.25927734375,-0.22705078125,45.09470588235294,305.76438562437977
0.70420703125,0.06109326171875,0.7525561523437501,1.0324634094822942,-0.06494140625,0.94482421875,0.18505859375,45.235882352941175,305.76438562437977
0.65733203125,0.09136669921875,0.6900561523437501,0.9573979143599808,-0.20849609375,0.99853515625,-0.06982421875,45.04764705882353,305.9376024004622
0.6812578125,0.07867138671875,0.6763842773437501,0.963222240616548,-0.16650390625,0.693359375,-0.1962890625,45.09470588235294,305.9376024004622
0.74278125,0.07574169921875,0.6734545898437501,1.0054858899724648,-0.1650390625,0.29052734375,-0.13525390625,45.18882352941176,305.9376024004622
0.7437578125,0.05865185546875,0.7086108398437501,1.028953374137418,-0.0859375,0.453125,0.22802734375,45.00058823529412,305.9376024004622
0.6832109375,0.06646435546875,0.7130053710937501,0.9897329715009202,-0.1171875,0.7294921875,0.32177734375,45.09470588235294,305.9376024004622
0.6461015625,0.07818310546875,0.7125170898437501,0.9650079949746976,-0.16015625,0.81298828125,-0.029296875,45.33,306.03408870973453
0.68369921875,0.07134716796875,0.6900561523437501,0.974018754174673,-0.1591796875,0.66552734375,-0.37255859375,45.00058823529412,306.03408870973453
0.73741015625,0.05523388671875,0.6910327148437501,1.012102136035209,-0.0771484375,0.63916015625,-0.0830078125,45.09470588235294,306.03408870973453
0.74424609375,0.05962841796875,0.6959155273437501,1.020664595981324,-0.03173828125,0.58056640625,0.23779296875,45.09470588235294,306.03408870973453
0.68467578125,0.06597607421875,0.6944506835937501,0.9774433588415457,0.02001953125,0.5654296875,0.23291015625,45.235882352941175,306.1320946051309
0.66465625,0.08013623046875,0.7173999023437501,0.9812504094167936,-0.0654296875,0.5302734375,0.12255859375,45.09470588235294,306.1320946051309
0.68028125,0.07134716796875,0.7042163085937501,0.9817299052021036,-0.1083984375,0.68212890625,-0.1650390625,45.235882352941175,306.1320946051309
0.72569140625,0.05914013671875,0.6988452148437501,1.0092126669766992,-0.1162109375,0.77294921875,-0.0283203125,45.235882352941175,306.1320946051309
0.72666796875,0.06255810546875,0.6905444335937501,1.004396071345564,-0.099609375,0.720703125,0.28564453125,45.18882352941176,306.1320946051309
0.82334765625,0.07915966796875,0.6861499023437501,1.074694982109635,-0.078125,0.4580078125,0.248046875,45.09470588235294,305.8076895525195
0.678328125,0.07769482421875,0.7061694335937501,0.982263101118288,-0.06396484375,0.35205078125,0.08447265625,45.00058823529412,305.8076895525195
0.6871171875,0.06792919921875,0.7100756835937501,0.9904301499326148,-0.14501953125,0.4013671875,-0.00341796875,45.00058823529412,305.8076895525195
0.7086015625,0.06792919921875,0.8262866210937501,1.090632903722636,-0.11962890625,0.59033203125,0.00390625,45.09470588235294,305.8076895525195
0.70908984375,0.06646435546875,0.6959155273437501,0.9957531512656164,-0.10595703125,0.6357421875,0.1083984375,45.235882352941175,305.90569353876697
0.70616015625,0.07232373046875,0.6890795898437501,0.9893045887911224,-0.0849609375,0.48876953125,0.1064453125,45.09470588235294,305.90569353876697
0.701765625,0.07525341796875,0.6959155273437501,0.9911793432803924,-0.08740234375,0.32861328125,0.0498046875,45.235882352941175,305.90569353876697
0.70518359375,0.07037060546875,0.7051928710937501,0.9997664269466392,-0.11328125,0.3447265625,-0.0107421875,45.18882352941176,305.90569353876697
0.70371875,0.06792919921875,0.6993334960937501,0.9944354146784848,-0.09228515625,0.57275390625,0.07666015625,45.235882352941175,305.90569353876697
0.69737109375,0.07037060546875,0.7022631835937501,0.9921955671858944,-0.091796875,0.7333984375,0.07421875,45.00058823529412,306.06751684373216
0.6929765625,0.06744091796875,0.6920092773437501,0.98165250140801,-0.10546875,0.6708984375,0.013671875,45.09470588235294,306.06751684373216
0.70030078125,0.07232373046875,0.6905444335937501,0.9861559313696744,-0.08544921875,0.5283203125,-0.07275390625,45.09470588235294,306.06751684373216
0.70811328125,0.06206982421875,0.7007983398437501,0.9981960705637668,-0.09814453125,0.5087890625,-0.01171875,45.235882352941175,306.06751684373216
0.7183671875,0.07232373046875,0.7037280273437501,1.0082238216461177,-0.0927734375,0.49072265625,0.09130859375,45.04764705882353,305.89353904184804
0.7007890625,0.07818310546875,0.6944506835937501,0.9896866474011828,-0.08837890625,0.52197265625,0.12744140625,45.00058823529412,305.89353904184804
0.69346484375,0.07085888671875,0.6968920898437501,0.9856840549745248,-0.12744140625,0.498046875,0.10595703125,45.04764705882353,305.89353904184804
0.692,0.07085888671875,0.6959155273437501,0.98396311060179,-0.1279296875,0.44677734375,0.0419921875,45.00058823529412,305.89353904184804
0.70371875,0.07378857421875,0.6910327148437501,0.9890354117882342,-0.10205078125,0.35693359375,0.1240234375,45.235882352941175,305.89353904184804
0.70908984375,0.06744091796875,0.6924975585937501,0.9934332149591996,-0.064453125,0.3349609375,-0.0283203125,45.09470588235294,305.78641692829723
0.73252734375,0.07134716796875,0.7076342773437501,1.0209960813785737,-0.09521484375,0.2412109375,0.10400390625,45.00058823529412,305.78641692829723
0.71787890625,0.07281201171875,0.6924975585937501,1.0001022856425896,-0.11181640625,0.2607421875,0.244140625,45.235882352941175,305.78641692829723
0.7164140625,0.07622998046875,0.7012866210937501,1.0054168507614685,-0.0732421875,0.248046875,-0.10595703125,45.04764705882353,305.78641692829723
0.69053515625,0.06402294921875,0.7144702148437501,0.9956934407450684,-0.03125,0.83984375,-0.10400390625,45.00058823529412,305.9695113820025
0.69151171875,0.07134716796875,0.7120288085937501,0.9951200429160167,-0.17626953125,1.00537109375,0.08837890625,44.906470588235294,305.9695113820025
0.6656328125,0.07867138671875,0.6627124023437501,0.9425730509542142,-0.140625,0.82470703125,-0.07568359375,45.235882352941175,305.9695113820025
0.72080859375,0.07915966796875,0.6841967773437501,0.9969736766757428,-0.25,0.21826171875,-0.177734375,45.235882352941175,305.9695113820025
0.73643359375,0.06988232421875,0.6881030273437501,1.010298843650426,-0.10302734375,0.03515625,-0.06787109375,45.00058823529412,305.9695113820025
0.725203125,0.06499951171875,0.7208178710937501,1.0245598627320749,-0.0927734375,0.35009765625,0.1865234375,45.00058823529412,305.9809070376275
0.68809375,0.07769482421875,0.7100756835937501,0.9918250707310116,-0.185546875,0.65625,0.27099609375,45.04764705882353,305.9809070376275
0.66905078125,0.08404248046875,0.6881030273437501,0.9634198786895614,-0.2314453125,0.53759765625,0.08935546875,44.906470588235294,305.9809070376275
0.69639453125,0.07574169921875,0.6754077148437501,0.9730764252749664,-0.2119140625,0.16455078125,-0.08837890625,45.09470588235294,305.9809070376275
0.73838671875,0.06402294921875,0.6783374023437501,1.004716634614718,-0.16162109375,-0.16259765625,0.02294921875,44.906470588235294,305.8183258846024
0.740828125,0.06304638671875,0.6890795898437501,1.0137217758381916,-0.0810546875,-0.0712890625,0.22314453125,45.09470588235294,305.8183258846024
0.71299609375,0.06548779296875,0.7051928710937501,1.004962221266115,-0.103515625,0.18505859375,0.26220703125,45.235882352941175,305.8183258846024
0.6793046875,0.07281201171875,0.7003100585937501,0.9783611938735028,-0.1396484375,0.46484375,0.10107421875,45.33,305.8183258846024
0.693953125,0.07232373046875,0.6905444335937501,0.9816584316622023,-0.18408203125,0.4921875,-0.05322265625,45.235882352941175,305.8183258846024
0.7222734375,0.06548779296875,0.6798022460937501,0.9940315202950516,-0.1708984375,0.4208984375,-0.015625,45.37705882352941,306.0576407645749
0.73496875,0.06499951171875,0.6763842773437501,1.0009493946439376,-0.154296875,0.30859375,0.21533203125,45.235882352941175,306.0576407645749
0.7203203125,0.07281201171875,0.6773608398437501,0.9914538057844446,-0.09423828125,0.2275390625,0.1396484375,45.09470588235294,306.0576407645749
0.713484375,0.06939404296875,0.7051928710937501,1.0055707195469326,-0.0869140625,0.32861328125,0.09033203125,45.18882352941176,306.0576407645749
0.701765625,0.06939404296875,0.7017749023437501,0.9948761426382527,-0.13671875,0.49853515625,0.02099609375,45.09470588235294,305.94899819414786
0.71104296875,0.06646435546875,0.6934741210937501,0.995442600345916,-0.00048828125,0.6357421875,-0.0146484375,45.33,305.94899819414786
0.72080859375,0.07330029296875,0.6827319335937501,0.995520394026068,-0.10791015625,0.58251953125,0.0341796875,45.33,305.94899819414786
0.717390625,0.07134716796875,0.6788256835937501,0.9902242351717986,-0.0927734375,0.39892578125,-0.125,45.00058823529412,305.94899819414786
0.71787890625,0.06841748046875,0.6910327148437501,0.9987778975611702,-0.095703125,0.3408203125,-0.00732421875,45.00058823529412,305.94899819414786
0.71494921875,0.06304638671875,0.6988452148437501,1.0017543943400162,-0.1015625,0.4296875,0.01611328125,45.37705882352941,305.76438562437977
0.7144609375,0.06890576171875,0.6924975585937501,0.9973742045339474,-0.12451171875,0.5029296875,0.048828125,45.04764705882353,305.76438562437977
0.71494921875,0.07085888671875,0.6915209960937501,0.9971833609004656,-0.11328125,0.65185546875,-0.0078125,45.04764705882353,305.76438562437977
0.7086015625,0.06988232421875,0.6798022460937501,0.9844444156018984,-0.25,0.57421875,-0.025390625,45.235882352941175,305.76438562437977
0.71494921875,0.06841748046875,0.6788256835937501,0.9882497891380748,-0.12255859375,0.55029296875,-0.00244140625,45.09470588235294,305.76438562437977
0.71787890625,0.06499951171875,0.6837084960937501,0.993495026758136,-0.12060546875,0.43310546875,0.00927734375,45.00058823529412,305.8517527939695
0.71006640625,0.06939404296875,0.6890795898437501,0.9918873502689554,-0.12109375,0.388671875,0.02294921875,45.00058823529412,305.8517527939695
0.7086015625,0.06695263671875,0.6885913085937501,0.990331671821056,-0.15966796875,0.4287109375,-0.0244140625,45.00058823529412,305.8517527939695
0.7164140625,0.06597607421875,0.6924975585937501,0.9985763966644596,-0.13623046875,0.4873046875,0.00341796875,45.04764705882353,305.8517527939695
0.72178515625,0.07037060546875,0.6773608398437501,0.992342451601616,-0.11767578125,0.4873046875,0.00732421875,45.09470588235294,305.7978122276041
0.71299609375,0.07232373046875,0.6832202148437501,0.99014343085374,-0.0966796875,0.4609375,-0.01611328125,45.18882352941176,305.7978122276041
0.7027421875,0.06451123046875,0.6812670898437501,0.980883850745362,-0.068359375,0.46142578125,-0.05517578125,45.00058823529412,305.7978122276041
0.7320390625,0.07232373046875,0.6876147460937501,1.0069389008576275,-0.13818359375,0.203125,-0.025390625,45.235882352941175,305.7978122276041
0.7261796875,0.06792919921875,0.6778491210937501,0.9957061542501722,-0.07861328125,0.220703125,-0.0166015625,45.235882352941175,305.7978122276041
0.75303515625,0.07964794921875,0.6832202148437501,1.0198998011247744,-0.0859375,0.30712890625,-0.20263671875,45.235882352941175,305.8411165406175
0.725203125,0.05914013671875,0.7017749023437501,1.0108932395858912,0.0126953125,1.013671875,0.02734375,45.18882352941176,305.8411165406175
0.707625,0.07330029296875,0.8243334960937501,1.0888672032697326,-0.19140625,1.07373046875,0.1328125,45.04764705882353,305.8411165406175
0.67100390625,0.07964794921875,0.6519702148437501,0.9389649615725376,-0.0927734375,1.06640625,-0.080078125,45.235882352941175,305.8411165406175
0.7242265625,0.07867138671875,0.6700366210937501,0.9897688490377676,-0.16259765625,0.40869140625,-0.18115234375,45.235882352941175,305.9391219176936
0.7457109375,0.06646435546875,0.6778491210937501,1.0099414556411548,-0.09521484375,0.259765625,-0.173828125,45.235882352941175,305.9391219176936
0.744734375,0.05376904296875,0.7032397460937501,1.0257029490912162,-0.0654296875,0.6982421875,0.19287109375,45.235882352941175,305.9391219176936
0.70420703125,0.06744091796875,0.6978686523437501,0.9937185095400448,-0.1064453125,1.08447265625,0.26953125,45.04764705882353,305.9391219176936
0.6841875,0.08355419921875,0.6807788085937501,0.9687897736834664,-0.16796875,0.9140625,0.01904296875,45.09470588235294,305.9391219176936
0.70225390625,0.08062451171875,0.6734545898437501,0.9763206160452028,-0.1162109375,0.74951171875,-0.2353515625,45.04764705882353,305.94823871432453
0.74815234375,0.06158154296875,0.6729663085937501,1.0081705552114328,-0.1064453125,0.447265625,-0.09619140625,45.235882352941175,305.94823871432453
0.7437578125,0.06695263671875,0.6910327148437501,1.0174401958850956,0.021484375,0.7060546875,0.21630859375,45.33,305.94823871432453
0.692,0.06597607421875,0.6998217773437501,0.98639107985316,-0.099609375,0.76953125,0.1826171875,45.09470588235294,305.94823871432453
0.66905078125,0.08355419921875,0.6783374023437501,0.9564266221288428,-0.08837890625,0.8974609375,-0.046875,45.235882352941175,305.60256591422586
0.6968828125,0.06890576171875,0.6856616210937501,0.9800640371918872,-0.14013671875,0.7138671875,-0.18115234375,45.09470588235294,305.60256591422586
0.73057421875,0.07232373046875,0.6705249023437501,0.9942701120692428,-0.11279296875,0.5146484375,-0.0185546875,45.09470588235294,305.60256591422586
0.738875,0.06109326171875,0.6715014648437501,1.0002913923151282,-0.09033203125,0.39892578125,0.11083984375,44.85941176470588,305.60256591422586
0.713484375,0.06841748046875,0.6900561523437501,0.9949464299098184,0.0078125,0.52490234375,0.1689453125,45.18882352941176,305.60256591422586
0.6998125,0.07622998046875,0.7056811523437501,0.9967619745213592,-0.103515625,0.494140625,0.0048828125,45.235882352941175,305.6785366297301
0.692,0.07134716796875,0.6900561523437501,0.97986321074149,-0.09716796875,0.76123046875,-0.115234375,45.33,305.6785366297301
0.7281328125,0.06890576171875,0.6832202148437501,1.0008572618552265,-0.1103515625,0.79541015625,-0.0419921875,45.04764705882353,305.6785366297301
0.7242265625,0.06841748046875,0.6729663085937501,0.9909938031928134,-0.06787109375,0.62646484375,0.00634765625,45.18882352941176,305.6785366297301
0.7154375,0.07330029296875,0.6812670898437501,0.9906304038639876,-0.06103515625,0.44970703125,0.0126953125,45.09470588235294,305.6785366297301
0.7144609375,0.07867138671875,0.6939624023437501,0.9991133239869934,-0.060546875,0.46826171875,-0.00927734375,45.04764705882353,305.6785366297301
0.71153125,0.07183544921875,0.6949389648437501,0.9971846450628514,-0.10595703125,0.66552734375,-0.00830078125,45.00058823529412,305.6785366297301
0.7125078125,0.07232373046875,0.6939624023437501,0.9972371436770496,-0.12353515625,0.81982421875,0.0068359375,45.04764705882353,305.6785366297301
0.71299609375,0.07232373046875,0.6851733398437501,0.991492136793991,-0.10498046875,0.75732421875,0.00927734375,45.04764705882353,305.6785366297301
0.70713671875,0.06792919921875,0.6763842773437501,0.9808936770867902,-0.09326171875,0.58935546875,0.12060546875,45.04764705882353,305.8616299839184
0.71494921875,0.07622998046875,0.6851733398437501,0.9931897607940492,-0.08935546875,0.51416015625,-0.041015625,45.09470588235294,305.8616299839184
0.721296875,0.07183544921875,0.6929858398437501,1.0028254523461062,-0.09521484375,0.57763671875,0.03125,44.906470588235294,305.8616299839184
0.717390625,0.07476513671875,0.6885913085937501,0.9971946273307518,-0.08984375,0.65625,0.0224609375,45.00058823529412,305.8616299839184
0.71299609375,0.07037060546875,0.6915209960937501,0.9957493358548072,-0.1044921875,0.7705078125,0.05419921875,45.04764705882353,306.0044598493715
0.7086015625,0.07183544921875,0.6881030273437501,0.990334429564849,-0.10693359375,0.705078125,0.037109375,44.906470588235294,306.0044598493715
0.70420703125,0.07183544921875,0.6807788085937501,0.9821036914993874,-0.087890625,0.6435546875,0.12353515625,45.235882352941175,306.0044598493715
0.69834765625,0.07281201171875,0.6876147460937501,0.9827538232365072,-0.0703125,0.53515625,-0.095703125,45.09470588235294,306.0044598493715
0.70518359375,0.06890576171875,0.6876147460937501,0.9873428705053672,-0.0546875,0.5390625,-0.0888671875,45.04764705882353,306.0044598493715
0.7339921875,0.07769482421875,0.6998217773437501,1.017119234439101,-0.15478515625,0.3359375,0.05859375,45.18882352941176,305.8411165406175
0.73448046875,0.07818310546875,0.6773608398437501,1.002193526375913,-0.09912109375,0.20849609375,0.1357421875,45.04764705882353,305.8411165406175
0.74033984375,0.07134716796875,0.6920092773437501,1.0159086290364672,-0.0244140625,0.31201171875,-0.197265625,45.18882352941176,305.8411165406175
0.70616015625,0.05767529296875,0.7310717773437501,1.0180641184731958,0.02294921875,1.09716796875,0.1298828125,45.04764705882353,305.8411165406175
0.676375,0.09039013671875,0.6846850585937501,0.96666806448882,-0.203125,1.0849609375,0.0166015625,45.235882352941175,305.90797400700944
0.666609375,0.07818310546875,0.6602709960937501,0.9415086006517738,-0.1181640625,0.935546875,-0.2431640625,45.00058823529412,305.90797400700944
0.74278125,0.08013623046875,0.6627124023437501,0.9986658745574156,-0.24951171875,0.376953125,-0.1982421875,45.04764705882353,305.90797400700944
0.7535234375,0.06304638671875,0.6763842773437501,1.0145285153104044,-0.017578125,0.3701171875,0.06640625,45.04764705882353,305.90797400700944
0.72325,0.06646435546875,0.7061694335937501,1.0130070789436736,-0.0439453125,0.57763671875,0.2978515625,45.00058823529412,305.90797400700944
0.66709765625,0.07769482421875,0.6983569335937501,0.968895337682606,-0.09912109375,0.73779296875,0.1435546875,44.906470588235294,305.89733792442064
0.66807421875,0.08013623046875,0.6895678710937501,0.9634567068825304,-0.18115234375,0.609375,-0.1455078125,45.04764705882353,305.89733792442064
0.72373828125,0.06890576171875,0.6754077148437501,0.9923309352303804,-0.14306640625,0.46533203125,-0.19091796875,45.33,305.89733792442064
0.764265625,0.06353466796875,0.6841967773437501,1.0277469677494129,-0.07177734375,0.36865234375,0.0634765625,45.09470588235294,305.89733792442064
0.74326953125,0.06744091796875,0.6973803710937501,1.0214388163213295,-0.0400390625,0.4169921875,0.25732421875,45.37705882352941,305.983187576499
0.6949296875,0.08013623046875,0.6993334960937501,0.9891493440129732,-0.0595703125,0.5693359375,0.17626953125,45.235882352941175,305.983187576499
0.6793046875,0.07671826171875,0.6939624023437501,0.9741274896066368,-0.107421875,0.6435546875,-0.0419921875,45.09470588235294,305.983187576499
0.70030078125,0.07671826171875,0.6832202148437501,0.9813749221738076,-0.13720703125,0.67529296875,-0.1142578125,45.00058823529412,305.983187576499
0.72471484375,0.06646435546875,0.6734545898437501,0.991549393565987,-0.1162109375,0.5634765625,0.0380859375,45.33,305.983187576499
0.729109375,0.07183544921875,0.6666186523437501,0.9905257392566574,-0.076171875,0.31494140625,0.138671875,44.906470588235294,305.89733792442064
0.72325,0.07281201171875,0.6929858398437501,1.0043015113871323,-0.0146484375,0.25732421875,0.068359375,44.906470588235294,305.89733792442064
0.71153125,0.06939404296875,0.7022631835937501,1.0021306461521573,-0.05615234375,0.43701171875,0.017578125,45.04764705882353,305.89733792442064
0.7046953125,0.07574169921875,0.6924975585937501,0.9909011843359158,-0.04052734375,0.69384765625,-0.03466796875,44.24764705882353,305.89733792442064
0.709578125,0.07232373046875,0.6837084960937501,0.9880228464454702,-0.05078125,0.77587890625,-0.060546875,45.33,305.7788197196597
0.70811328125,0.07574169921875,0.6734545898437501,0.9801542269789988,-0.02978515625,0.6875,-0.021484375,45.00058823529412,305.7788197196597
0.70616015625,0.08160107421875,0.6827319335937501,0.9856184833582105,-0.0205078125,0.4951171875,-0.0751953125,45.04764705882353,305.7788197196597
0.71494921875,0.07427685546875,0.6939624023437501,0.9991262445338276,-0.0625,0.3955078125,-0.0634765625,45.37705882352941,305.7788197196597
0.717390625,0.07525341796875,0.6939624023437501,1.0009476517883331,-0.0869140625,0.42919921875,-0.0068359375,45.18882352941176,305.7788197196597
0.71934375,0.07427685546875,0.6929858398437501,1.0015996486352896,-0.10888671875,0.47705078125,0.01171875,45.235882352941175,305.7560269931379
0.7222734375,0.07867138671875,0.6915209960937501,1.0030301060510645,-0.14697265625,0.5029296875,0.0556640625,45.09470588235294,305.7560269931379
0.71934375,0.07671826171875,0.6861499023437501,0.997067104477701,-0.15625,0.4658203125,0.0810546875,45.09470588235294,305.7560269931379
0.71104296875,0.07427685546875,0.6876147460937501,0.9919239858541132,-0.16845703125,0.4990234375,0.107421875,45.00058823529412,305.7560269931379
0.71592578125,0.07525341796875,0.6778491210937501,0.9887832078580074,-0.1953125,0.21240234375,0.04150390625,45.235882352941175,305.9072134120263
0.725203125,0.07134716796875,0.6827319335937501,0.9985654129978604,-0.16259765625,0.24365234375,0.10888671875,45.235882352941175,305.9072134120263
0.73252734375,0.07232373046875,0.6924975585937501,1.0106334152345504,-0.19970703125,0.2841796875,0.1796875,45.33,305.9072134120263
0.71153125,0.07085888671875,0.6827319335937501,0.9886458388635658,-0.1572265625,0.39111328125,0.1865234375,45.04764705882353,305.9072134120263
0.70127734375,0.07769482421875,0.6807788085937501,0.980452030849936,-0.16748046875,0.2841796875,0.18798828125,45.09470588235294,305.9072134120263
0.70518359375,0.07671826171875,0.6798022460937501,0.982497168631757,-0.1728515625,0.05712890625,-0.04296875,44.906470588235294,305.7461510279621
0.7154375,0.06304638671875,0.6783374023437501,0.9879105701949984,-0.1064453125,0.1064453125,-0.1201171875,45.00058823529412,305.7461510279621
0.7437578125,0.06499951171875,0.6910327148437501,1.0173135372945672,-0.14501953125,0.13671875,0.02587890625,45.235882352941175,305.7461510279621
0.75205859375,0.07037060546875,0.6700366210937501,1.0096995712359174,-0.12744140625,0.1298828125,0.22265625,45.00058823529412,305.7461510279621
0.75401171875,0.06939404296875,0.6871264648437501,1.0224930238884502,-0.05908203125,0.15185546875,-0.04052734375,45.235882352941175,305.81072792396554
0.72276171875,0.06255810546875,0.7188647460937501,1.021305312737932,0.01416015625,0.79345703125,-0.1328125,45.33,305.81072792396554
0.71983203125,0.07183544921875,0.7105639648437501,1.0140116533415335,-0.18505859375,1.1865234375,0.083984375,45.09470588235294,305.81072792396554
0.69444140625,0.08111279296875,0.6524584960937501,0.9563107450105258,-0.119140625,1.072265625,-0.16943359375,45.37705882352941,305.81072792396554
0.733015625,0.07525341796875,0.6573413085937501,0.9874576342273442,-0.0576171875,0.599609375,-0.2236328125,45.04764705882353,305.81072792396554
0.77647265625,0.07232373046875,0.6871264648437501,1.039366771924866,-0.060546875,0.3515625,-0.14013671875,45.235882352941175,305.84339676021705
0.77549609375,0.06499951171875,0.7125170898437501,1.055130196357109,-0.07275390625,0.63427734375,0.08056640625,45.00058823529412,305.84339676021705
0.7496171875,0.07720654296875,0.7164233398437501,1.0397832369996494,-0.10595703125,1.22021484375,0.16259765625,45.18882352941176,305.84339676021705
0.73496875,0.08892529296875,0.7071459960937501,1.023788176820558,-0.16650390625,1.3837890625,-0.0244140625,45.235882352941175,305.84339676021705
0.76280078125,0.09136669921875,0.6983569335937501,1.0382270042241268,-0.09716796875,1.35205078125,-0.35595703125,44.85941176470588,306.0158568851997
0.80674609375,0.06206982421875,0.7120288085937501,1.077811183430041,-0.02880859375,1.51025390625,-0.44189453125,45.18882352941176,306.0158568851997
0.80869921875,0.05181591796875,0.7305834960937501,1.091068998975945,0.00341796875,2.4736328125,-0.10546875,45.04764705882353,306.0158568851997
0.71592578125,0.04156201171875,0.7159350585937501,1.0133312060724118,0.05859375,3.708984375,0.2421875,45.09470588235294,306.0158568851997
0.6050859375,0.07281201171875,0.6817553710937501,0.914451183402352,0.18115234375,4.45263671875,-0.07763671875,45.09470588235294,306.0158568851997
0.55967578125,0.10064404296875,0.6490405273437501,0.8629135586126495,0.154296875,4.490234375,-0.60791015625,45.04764705882353,305.60408296581073
0.59776171875,0.11382763671875,0.6129077148437501,0.8636733585094063,0.1640625,3.80224609375,-0.96435546875,45.33,305.60408296581073
0.6441484375,0.10259716796875,0.5987475585937501,0.8854106546291812,0.19677734375,2.62548828125,-0.7978515625,45.00058823529412,305.60408296581073
0.63877734375,0.08941357421875,0.5943530273437501,0.8770899630343275,0.2763671875,1.6123046875,-0.34228515625,45.09470588235294,305.60408296581073
0.6109453125,0.10699169921875,0.6226733398437501,0.8788762636000634,0.41455078125,0.40771484375,0.015625,45.00058823529412,305.7879354735749
0.5660234375,0.11480419921875,0.6671069335937501,0.8823798483682811,0.2919921875,-0.78759765625,0.0078125,45.09470588235294,305.7879354735749
0.52842578125,0.11138623046875,0.6900561523437501,0.8762523563535627,0.16015625,-1.390625,-0.12646484375,45.235882352941175,305.7879354735749
0.6265703125,0.08501904296875,0.7569506835937501,0.9863026571832376,0.1259765625,-1.56787109375,-0.6484375,45.04764705882353,305.7879354735749
0.75205859375,0.05279248046875,0.7930834960937501,1.0942397389071354,-0.1181640625,-1.3359375,-0.29248046875,45.235882352941175,305.7879354735749
0.79795703125,0.06206982421875,0.7501147460937501,1.0969321852818208,-0.09326171875,-0.67724609375,0.22265625,45.04764705882353,306.058401406654
0.78916796875,0.07769482421875,0.7364428710937501,1.0822063902029917,0.01806640625,-0.5888671875,0.44140625,45.37705882352941,306.058401406654
0.73838671875,0.08990185546875,0.7598803710937501,1.0633510560566022,-0.04443359375,-1.15087890625,0.26025390625,44.906470588235294,306.058401406654
0.71787890625,0.08990185546875,0.7535327148437501,1.044626258522737,-0.11376953125,-1.4345703125,-0.0048828125,44.906470588235294,306.058401406654
0.7535234375,0.07818310546875,0.7706225585937501,1.0806337476944403,-0.23291015625,-1.1396484375,-0.06884765625,45.235882352941175,305.97255146003204
0.77940234375,0.06939404296875,0.7618334960937501,1.0920960683076226,-0.39306640625,-0.59326171875,0.22705078125,45.235882352941175,305.97255146003204
0.752546875,0.07818310546875,0.7051928710937501,1.034280611098579,-0.43896484375,-0.20263671875,0.43798828125,45.09470588235294,305.97255146003204
0.7339921875,0.09331982421875,0.6812670898437501,1.0057723244389984,-0.388671875,-0.18017578125,0.41259765625,45.235882352941175,305.97255146003204
0.69151171875,0.08599560546875,0.6675952148437501,0.9650217988267356,-0.39892578125,-0.00439453125,0.5556640625,45.00058823529412,305.97255146003204
0.63487109375,0.10162060546875,0.6133959960937501,0.8886184226984045,-0.37255859375,0.31884765625,0.32666015625,45.04764705882353,305.9824269579679
0.64854296875,0.11675732421875,0.6256030273437501,0.9086360123258655,0.07421875,0.47314453125,-0.38720703125,45.04764705882353,305.9824269579679
0.76866015625,0.08697216796875,0.7042163085937501,1.046099040768543,0.13330078125,0.568359375,-0.6123046875,45.18882352941176,305.9824269579679
0.80576953125,0.06841748046875,0.7203295898437501,1.0829682392060267,0.078125,1.3955078125,-0.14990234375,45.18882352941176,305.9824269579679
0.72666796875,0.08306591796875,0.6651538085937501,0.9886232207580464,0.1494140625,2.2890625,0.1748046875,45.09470588235294,306.0910708405321
0.59483203125,0.11138623046875,0.5953295898437501,0.8489106892262378,0.00048828125,2.03076171875,0.220703125,44.906470588235294,306.0910708405321
0.56748828125,0.14165966796875,0.5880053710937501,0.8293736958212469,0.322265625,0.51220703125,-0.65234375,45.00058823529412,306.0910708405321
0.63877734375,0.09380810546875,0.6573413085937501,0.9213761726481132,0.3369140625,-0.83544921875,-1.19677734375,45.235882352941175,306.0910708405321
0.65342578125,0.06792919921875,0.6485522460937501,0.923146599204006,0.263671875,-0.154296875,-0.533203125,45.235882352941175,306.0910708405321
0.6851640625,0.07769482421875,0.6719897460937501,0.962837731451686,0.40087890625,-0.064453125,-0.1611328125,44.85941176470588,305.7780592904369
0.67979296875,0.08697216796875,0.6895678710937501,0.9722070186991502,0.25146484375,-0.94140625,-0.1142578125,45.18882352941176,305.7780592904369
0.58018359375,0.10357373046875,0.6920092773437501,0.9089649938417308,0.232421875,-1.267578125,-0.0771484375,45.04764705882353,305.7780592904369
0.7847734375,0.08404248046875,0.7437670898437501,1.084491572426244,0.09423828125,-1.724609375,-0.05517578125,45.00058823529412,305.7780592904369
0.82432421875,0.07134716796875,0.7759936523437501,1.134357520569574,-0.16162109375,-1.298828125,0.2529296875,45.04764705882353,305.88594114149043
0.81651171875,0.07574169921875,0.7711108398437501,1.1256287661485718,-0.41064453125,-0.98095703125,0.70654296875,45.09470588235294,305.88594114149043
0.75010546875,0.07915966796875,0.7242358398437501,1.0456777797179024,-0.7255859375,-1.11328125,0.90234375,45.235882352941175,305.88594114149043
0.71494921875,0.08404248046875,0.6680834960937501,0.9821156152243092,-0.78466796875,-1.6630859375,0.5888671875,45.18882352941176,305.88594114149043
0.75059375,0.07232373046875,0.6636889648437501,1.0045420556568787,-0.7138671875,-1.9580078125,0.35302734375,45.235882352941175,305.88594114149043
0.80381640625,0.07622998046875,0.6588061523437501,1.0420927843742644,-0.5830078125,-1.6748046875,0.482421875,45.09470588235294,305.98547206554065
0.8179765625,0.08355419921875,0.6592944335937501,1.0539146602899625,-0.49365234375,-1.14501953125,0.611328125,45.235882352941175,305.98547206554065
0.7945390625,0.07671826171875,0.6656420898437501,1.0393543213414185,-0.4072265625,-0.5625,0.4208984375,45.09470588235294,305.98547206554065
0.775984375,0.07525341796875,0.6846850585937501,1.037597444398186,-0.39990234375,0.2802734375,0.33984375,45.04764705882353,305.98547206554065
0.748640625,0.08843701171875,0.6500170898437501,0.9953924389561488,-0.4375,0.91259765625,0.28173828125,45.04764705882353,306.1366625491119
0.7476640625,0.08990185546875,0.6324389648437501,0.983393582561612,-0.330078125,1.27001953125,0.0458984375,45.04764705882353,306.1366625491119
0.77061328125,0.07574169921875,0.6446459960937501,1.0075465718859542,-0.2626953125,1.37890625,-0.0263671875,45.33,306.1366625491119
0.76475390625,0.07769482421875,0.6368334960937501,0.998219376981836,-0.22998046875,1.673828125,0.087890625,45.235882352941175,306.1366625491119
0.7437578125,0.08160107421875,0.6509936523437501,0.991779791264318,-0.21923828125,1.9306640625,0.09814453125,45.00058823529412,306.1366625491119
0.707625,0.08843701171875,0.6378100585937501,0.9567423459375596,-0.18212890625,2.0234375,-0.07861328125,45.37705882352941,305.8221246494795
0.70713671875,0.09185498046875,0.6500170898437501,0.964884393868182,-0.18701171875,1.87548828125,-0.36376953125,45.00058823529412,305.8221246494795
0.73545703125,0.07818310546875,0.6544116210937501,0.9875546631039472,-0.20703125,1.76025390625,-0.4091796875,45.04764705882353,305.8221246494795
0.7515703125,0.07622998046875,0.6534350585937501,0.9988224668843964,-0.16064453125,1.8046875,-0.26220703125,45.18882352941176,305.8221246494795
0.73936328125,0.07330029296875,0.6622241210937501,0.9952747264793078,-0.15625,1.78857421875,-0.03515625,45.09470588235294,305.74539085962607
0.71494921875,0.08160107421875,0.6524584960937501,0.9713460813890212,-0.1806640625,1.59814453125,0.00146484375,45.09470588235294,305.74539085962607
0.692,0.09673779296875,0.6490405273437501,0.953664409906922,-0.13623046875,1.39013671875,-0.1533203125,45.18882352941176,305.74539085962607
0.70420703125,0.09136669921875,0.6578295898437501,0.9679851165498696,-0.1083984375,1.09033203125,-0.27880859375,45.09470588235294,305.74539085962607
0.7320390625,0.08062451171875,0.6544116210937501,0.9852086432519336,-0.11376953125,0.86181640625,-0.20361328125,45.235882352941175,305.74539085962607
0.7515703125,0.08062451171875,0.6622241210937501,1.0049373279362372,-0.0546875,0.77978515625,-0.06591796875,45.18882352941176,305.96267653300697
0.75303515625,0.08355419921875,0.6783374023437501,1.016948810006686,-0.07763671875,0.69091796875,0.1083984375,45.235882352941175,305.96267653300697
0.72764453125,0.09039013671875,0.6881030273437501,1.0055459795124737,-0.119140625,0.7529296875,0.15185546875,45.33,305.96267653300697
0.69053515625,0.09087841796875,0.6763842773437501,0.9708724836493934,-0.24853515625,0.9697265625,0.04296875,45.04764705882353,305.96267653300697
0.7046953125,0.09185498046875,0.6724780273437501,0.9783964013407492,-0.1240234375,1.07421875,-0.138671875,44.85941176470588,305.8654297565557
0.72276171875,0.09185498046875,0.6758959960937501,0.9938094571208964,-0.1416015625,0.970703125,-0.29248046875,45.18882352941176,305.8654297565557
0.72666796875,0.08160107421875,0.6573413085937501,0.983261241026335,-0.099609375,1.03271484375,-0.30029296875,45.00058823529412,305.8654297565557
0.76377734375,0.08306591796875,0.6793139648437501,1.025535587088782,-0.07177734375,0.88720703125,-0.005859375,45.00058823529412,305.8654297565557
0.7457109375,0.08453076171875,0.6700366210937501,1.0060712328610786,-0.2109375,0.61376953125,0.09228515625,45.18882352941176,305.8654297565557
0.7164140625,0.09478466796875,0.6588061523437501,0.9778848544668622,-0.0615234375,0.77734375,-0.17822265625,45.09470588235294,305.77958058779296
0.70420703125,0.08794873046875,0.6881030273437501,0.9884980011576336,-0.00732421875,1.10595703125,-0.40087890625,45.18882352941176,305.77958058779296
0.70713671875,0.07574169921875,0.7125170898437501,1.0067073791944046,-0.1806640625,1.2666015625,-0.1318359375,45.04764705882353,305.77958058779296
0.68809375,0.09185498046875,0.6622241210937501,0.9594014450605995,-0.216796875,1.48046875,-0.171875,45.09470588235294,305.77958058779296
0.580671875,0.09136669921875,0.6612475585937501,0.8847463104689051,-0.1357421875,1.6083984375,-0.10400390625,45.09470588235294,305.7575476500363
0.73838671875,0.09185498046875,0.6592944335937501,0.9941435681183124,-0.26171875,0.95556640625,-0.0322265625,45.235882352941175,305.7575476500363
0.7222734375,0.08746044921875,0.6451342773437501,0.9723818614615632,-0.13720703125,0.67236328125,0.00830078125,45.09470588235294,305.7575476500363
0.69737109375,0.07720654296875,0.6695483398437501,0.9698362088841488,-0.09130859375,0.7080078125,0.29541015625,45.00058823529412,305.7575476500363
0.65635546875,0.09429638671875,0.6734545898437501,0.945111313278948,-0.12060546875,0.638671875,0.23583984375,45.04764705882353,305.7575476500363
0.650984375,0.09869091796875,0.6680834960937501,0.9380064560206944,-0.12890625,0.33447265625,-0.111328125,45.09470588235294,305.768944605653
0.697859375,0.09136669921875,0.6671069335937501,0.9697356556558988,-0.14306640625,0.0234375,-0.23193359375,45.18882352941176,305.768944605653
0.7466875,0.07671826171875,0.6627124023437501,1.0013069671971833,-0.08447265625,-0.1728515625,0.00634765625,45.04764705882353,305.768944605653
0.7623125,0.07964794921875,0.6768725585937501,1.0225559173210297,-0.0458984375,-0.2646484375,0.259765625,45.04764705882353,305.768944605653
0.738875,0.07964794921875,0.6968920898437501,1.018792739631836,-0.01708984375,-0.18115234375,0.3037109375,45.33,305.9322925064416
0.71201953125,0.08501904296875,0.7086108398437501,1.0081316247856014,-0.04931640625,0.1796875,0.24951171875,45.235882352941175,305.9322925064416
0.7125078125,0.08306591796875,0.7012866210937501,1.00318007083804,-0.19140625,0.4931640625,0.2685546875,45.235882352941175,305.9322925064416
0.721296875,0.08160107421875,0.6685717773437501,0.9868718957691522,-0.1943359375,0.5439453125,0.27685546875,45.235882352941175,305.9322925064416
0.72471484375,0.08062451171875,0.6514819335937501,0.9778244353873168,-0.1162109375,0.45703125,0.2216796875,45.09470588235294,305.9322925064416
0.72959765625,0.07769482421875,0.6651538085937501,0.9903427764176638,-0.091796875,0.138671875,0.2548828125,45.09470588235294,305.6071223357149
0.721296875,0.08453076171875,0.6627124023437501,0.9831593765924944,-0.064453125,-0.048828125,0.23876953125,44.81235294117647,305.6071223357149
0.70518359375,0.08648388671875,0.6729663085937501,0.9785944083523292,-0.0537109375,-0.0078125,0.15087890625,45.04764705882353,305.6071223357149
0.72471484375,0.08453076171875,0.6885913085937501,1.0032522338371304,-0.05859375,0.0595703125,0.02001953125,45.33,305.6071223357149
0.74326953125,0.08355419921875,0.6885913085937501,1.0166557384692885,-0.08642578125,0.2060546875,-0.02978515625,45.04764705882353,305.86619102779804
0.7574296875,0.07818310546875,0.6783374023437501,1.0197813299455682,-0.056640625,0.447265625,0.09521484375,45.00058823529412,305.86619102779804
0.7496171875,0.07671826171875,0.6841967773437501,1.0178098297836045,-0.0498046875,0.6083984375,0.1494140625,45.04764705882353,305.86619102779804
0.7242265625,0.08062451171875,0.6744311523437501,0.99290573821092,-0.0390625,0.71630859375,0.15576171875,45.235882352941175,305.86619102779804
0.7105546875,0.08550732421875,0.6734545898437501,0.9827209934690958,-0.06298828125,0.74951171875,0.037109375,45.00058823529412,305.86619102779804
0.7154375,0.08355419921875,0.6719897460937501,0.985090015921631,-0.06787109375,0.52685546875,-0.05517578125,45.00058823529412,305.62839426984044
0.736921875,0.08062451171875,0.6719897460937501,1.0005620323590865,-0.04736328125,0.49853515625,-0.12109375,45.09470588235294,305.62839426984044
0.744734375,0.07867138671875,0.6827319335937501,1.0133811570892526,-0.0302734375,0.58642578125,-0.02294921875,45.235882352941175,305.62839426984044
0.74033984375,0.08111279296875,0.6837084960937501,1.0110092368805257,-0.0498046875,0.6533203125,0.04248046875,45.235882352941175,305.62839426984044
0.72178515625,0.08697216796875,0.6710131835937501,0.9893415296754912,-0.072265625,0.69189453125,0.05908203125,45.04764705882353,305.9535642901397
0.71494921875,0.08941357421875,0.6812670898437501,0.9916007363601438,-0.0966796875,0.6044921875,-0.02001953125,45.33,305.9535642901397
0.71592578125,0.08257763671875,0.6661303710937501,0.9813758004138752,-0.125,0.4541015625,-0.02685546875,45.33,305.9535642901397
0.7281328125,0.08111279296875,0.6680834960937501,0.99151007840324,-0.111328125,0.310546875,-0.0224609375,45.09470588235294,305.9535642901397
0.725203125,0.08208935546875,0.6739428710937501,0.9934068795257698,-0.11083984375,0.23388671875,-0.02587890625,45.18882352941176,305.9535642901397
0.72666796875,0.08941357421875,0.6793139648437501,0.9987535165863288,-0.10986328125,0.1494140625,-0.03173828125,45.235882352941175,306.1146281287502
0.744734375,0.08013623046875,0.6807788085937501,1.012181254010717,-0.24853515625,-0.02880859375,0.09716796875,45.00058823529412,306.1146281287502
0.75108203125,0.08697216796875,0.6588061523437501,1.0028528915218755,-0.1357421875,-0.14892578125,0.1376953125,45.09470588235294,306.1146281287502
0.75205859375,0.08160107421875,0.6871264648437501,1.0219557927990577,-0.1328125,0.03125,-0.13525390625,45.235882352941175,306.1146281287502
0.73741015625,0.06988232421875,0.7154467773437501,1.029816182136609,-0.16259765625,0.74658203125,0.1865234375,45.235882352941175,305.6169978546408
0.70323046875,0.09527294921875,0.6505053710937501,0.9626875219161204,-0.31640625,0.7607421875,0.056640625,45.09470588235294,305.6169978546408
0.693953125,0.08501904296875,0.6353686523437501,0.9447182128792166,-0.22216796875,0.52587890625,-0.03173828125,45.235882352941175,305.6169978546408
0.7515703125,0.08648388671875,0.6422045898437501,0.992352826624537,-0.20849609375,-0.107421875,-0.05224609375,45.235882352941175,305.6169978546408
0.770125,0.07232373046875,0.6685717773437501,1.0224047432766032,-0.13330078125,-0.04541015625,0.19775390625,45.09470588235294,305.6169978546408
0.74033984375,0.07915966796875,0.6866381835937501,1.0128382558166045,-0.15673828125,0.3056640625,0.3603515625,44.85941176470588,306.0918321824182
0.70908984375,0.08404248046875,0.6822436523437501,0.9875869309565002,-0.21630859375,0.474609375,0.22021484375,45.18882352941176,306.0918321824182
0.70713671875,0.08404248046875,0.6539233398437501,0.9668098116590778,-0.22802734375,0.34033203125,-0.01123046875,45.235882352941175,306.0918321824182
0.75303515625,0.07378857421875,0.6465991210937501,0.9952874577894106,-0.16796875,0.2236328125,-0.078125,45.04764705882353,306.0918321824182
0.78526171875,0.06939404296875,0.6553881835937501,1.0251756782757129,-0.072265625,0.3115234375,0.1435546875,45.09470588235294,306.0173799607866
0.760359375,0.07330029296875,0.6685717773437501,1.0151391695527645,-0.05419921875,0.51806640625,0.27978515625,45.18882352941176,306.0173799607866
0.717390625,0.08306591796875,0.6675952148437501,0.9834798556392268,-0.04638671875,0.748046875,0.17041015625,45.00058823529412,306.0173799607866
0.6968828125,0.08550732421875,0.6734545898437501,0.9728814118044266,-0.10107421875,0.7802734375,-0.07470703125,45.00058823529412,306.0173799607866
0.72764453125,0.07671826171875,0.6612475585937501,0.98620514563927,-0.1298828125,0.65673828125,-0.17919921875,45.235882352941175,306.0173799607866
0.76573046875,0.07720654296875,0.6505053710937501,1.0077009669892638,-0.10888671875,0.4755859375,-0.00048828125,45.09470588235294,306.0834829479591
0.75205859375,0.07525341796875,0.6465991210937501,0.9946585488238748,-0.0244140625,0.49169921875,0.14208984375,45.18882352941176,306.0834829479591
0.73252734375,0.07427685546875,0.6680834960937501,0.9942076837123136,-0.01806640625,0.55126953125,0.08251953125,45.00058823529412,306.0834829479591
0.71885546875,0.09039013671875,0.6851733398437501,0.9971890830732432,-0.068359375,0.66064453125,-0.02587890625,44.906470588235294,306.0834829479591
0.713484375,0.07622998046875,0.6641772460937501,0.9777537407343856,-0.13818359375,0.6923828125,-0.15673828125,45.33,305.78110364075184
0.7359453125,0.08404248046875,0.6485522460937501,0.9845296630509976,-0.03857421875,0.71533203125,-0.11962890625,44.906470588235294,305.78110364075184
0.76084765625,0.08794873046875,0.6607592773437501,1.0115468144421285,-0.07470703125,0.39501953125,-0.044921875,45.00058823529412,305.78110364075184
0.7437578125,0.08013623046875,0.6622241210937501,0.9990687091721548,-0.0498046875,0.38818359375,-0.1240234375,45.00058823529412,305.78110364075184
0.73350390625,0.08160107421875,0.6744311523437501,0.9997720215376008,-0.04931640625,0.59619140625,0.046875,45.235882352941175,305.78110364075184
0.7320390625,0.08306591796875,0.6675952148437501,0.9942155232323334,-0.10302734375,0.640625,0.00341796875,45.04764705882353,305.9003849307776
0.73155078125,0.08306591796875,0.6671069335937501,0.993528134037649,-0.12646484375,0.662109375,-0.04541015625,45.00058823529412,305.9003849307776
0.73643359375,0.08648388671875,0.6519702148437501,0.9873596415232532,-0.0986328125,0.6396484375,-0.03759765625,45.37705882352941,305.9003849307776
0.733015625,0.08355419921875,0.6544116210937501,0.9861783715554592,-0.0869140625,0.51513671875,-0.005859375,45.00058823529412,305.9003849307776
0.73252734375,0.09087841796875,0.6514819335937501,0.9845221714075232,-0.0849609375,0.40185546875,-0.00146484375,45.00058823529412,305.7370367391496
0.73643359375,0.08404248046875,0.6588061523437501,0.9916769246548276,-0.0966796875,0.39599609375,-0.0439453125,45.09470588235294,305.7370367391496
0.74131640625,0.08257763671875,0.6641772460937501,0.9987494653265886,-0.109375,0.486328125,-0.013671875,45.18882352941176,305.7370367391496
0.7437578125,0.08794873046875,0.6632006835937501,1.0003728352794607,-0.09814453125,0.60595703125,0.00439453125,45.235882352941175,305.7370367391496
0.7418046875,0.08160107421875,0.6607592773437501,0.9967626358900404,-0.091796875,0.63134765625,0.01220703125,45.09470588235294,305.7370367391496
0.736921875,0.08501904296875,0.6588061523437501,0.9921227917384088,-0.06982421875,0.615234375,0.00390625,45.00058823529412,305.5858504548489
0.73252734375,0.08355419921875,0.6568530273437501,0.9874378527680444,-0.0791015625,0.59912109375,-0.03857421875,44.85941176470588,305.5858504548489
0.71885546875,0.08062451171875,0.6675952148437501,0.9843459085727648,-0.060546875,0.7021484375,-0.125,45.18882352941176,305.5858504548489
0.738875,0.08892529296875,0.6568530273437501,0.9926227243445656,-0.03857421875,0.6728515625,-0.02783203125,44.906470588235294,305.5858504548489
0.73448046875,0.08404248046875,0.6514819335937501,0.9853696805248328,-0.13330078125,0.31396484375,-0.05078125,45.09470588235294,305.6078832754316
0.75840625,0.09039013671875,0.6475756835937501,1.0013514282393616,-0.05615234375,0.0947265625,-0.1455078125,45.18882352941176,305.6078832754316
0.7339921875,0.08404248046875,0.6632006835937501,0.9927954555464044,0.03955078125,0.52490234375,-0.2626953125,45.235882352941175,305.6078832754316
0.740828125,0.08404248046875,0.7110522460937501,1.030283818173091,-0.05517578125,0.9296875,-0.01416015625,45.37705882352941,305.6078832754316
0.69346484375,0.10015576171875,0.6319506835937501,0.9435498569854603,-0.1708984375,0.85986328125,-0.17822265625,45.18882352941176,305.6078832754316
0.70713671875,0.09673779296875,0.6231616210937501,0.947486646659029,-0.03125,0.46875,-0.29150390625,45.04764705882353,305.69677976543545
0.76768359375,0.10210888671875,0.6368334960937501,1.0026570832577038,-0.06787109375,-0.32470703125,-0.28515625,45.00058823529412,305.69677976543545
0.7828203125,0.07915966796875,0.6729663085937501,1.0353538270551854,-0.0029296875,-0.240234375,-0.13330078125,45.09470588235294,305.69677976543545
0.772078125,0.06939404296875,0.7007983398437501,1.0450064485115969,-0.07080078125,0.29052734375,0.2216796875,45.09470588235294,305.69677976543545
0.7183671875,0.09185498046875,0.6675952148437501,0.9849731592261016,-0.1455078125,0.68701171875,0.2451171875,45.09470588235294,305.80237540761664
0.70420703125,0.10259716796875,0.6465991210937501,0.9615217860955396,-0.1728515625,0.38720703125,-0.04248046875,45.235882352941175,305.80237540761664
0.733015625,0.09722607421875,0.6304858398437501,0.9717392707128848,-0.13134765625,-0.13720703125,-0.26318359375,45.00058823529412,305.80237540761664
0.77842578125,0.07867138671875,0.6402514648437501,1.0109687543329378,-0.02197265625,-0.18505859375,-0.1435546875,45.09470588235294,305.80237540761664
0.7886796875,0.07281201171875,0.6641772460937501,1.0336578992850134,-0.03955078125,0.00830078125,0.1630859375,44.906470588235294,305.80237540761664
0.74424609375,0.08843701171875,0.6685717773437501,1.004346341938107,-0.05419921875,0.4462890625,0.255859375,45.09470588235294,305.9535642901397
0.7125078125,0.09478466796875,0.6607592773437501,0.9763474477619716,-0.1337890625,0.58642578125,0.08154296875,45.00058823529412,305.9535642901397
0.71397265625,0.09039013671875,0.6363452148437501,0.9606573599068782,-0.1572265625,0.47509765625,-0.0458984375,45.235882352941175,305.9535642901397
0.74717578125,0.08648388671875,0.6241381835937501,0.977394282246543,-0.1083984375,0.2705078125,-0.078125,45.04764705882353,305.9535642901397
0.7671953125,0.08257763671875,0.6402514648437501,1.0026612847031615,0.0078125,0.1357421875,0.02197265625,45.09470588235294,305.9216566345741
0.75889453125,0.08062451171875,0.6622241210937501,1.0104266465258296,0.01025390625,0.16162109375,0.08154296875,45.33,305.9216566345741
0.73496875,0.08550732421875,0.6558764648437501,0.9887691859617934,0.0283203125,0.4345703125,0.03125,45.235882352941175,305.9216566345741
0.7300859375,0.09234326171875,0.6524584960937501,0.983491150567726,-0.0400390625,0.59033203125,-0.09619140625,45.09470588235294,305.9216566345741
0.7418046875,0.08990185546875,0.6451342773437501,0.987195408122191,-0.0224609375,0.61181640625,-0.1728515625,45.00058823529412,305.9216566345741
0.760359375,0.08746044921875,0.6368334960937501,0.9956669177365112,0.0439453125,0.5625,-0.1923828125,45.235882352941175,305.9110207760178
0.7652421875,0.08843701171875,0.6485522460937501,1.00699390588264,0.0830078125,0.5361328125,-0.11962890625,45.235882352941175,305.9110207760178
0.752546875,0.08843701171875,0.6583178710937501,1.0037581000995286,0.06298828125,0.5595703125,-0.0830078125,45.37705882352941,305.9110207760178
0.73545703125,0.09673779296875,0.6539233398437501,0.9888735914139546,0.0576171875,0.677734375,-0.10498046875,45.235882352941175,305.9110207760178
0.73155078125,0.09380810546875,0.6402514648437501,0.9766721273967478,0.0341796875,0.67041015625,-0.17626953125,45.04764705882353,305.6071223357149
0.7378984375,0.08941357421875,0.6461108398437501,0.984859436002473,0.0302734375,0.5068359375,-0.24755859375,44.906470588235294,305.6071223357149
