AccX,AccY,AccZ,Magnitude,GyroX,GyroY,GyroZ,Temperature,Altitude
0.15534521484375,0.8324755859375,0.0703662109375,0.8497641676362541,-1.68408203125,-2.8486328125,0.05419921875,31.824117647058824,311.1524147020337
0.15534521484375,0.8446826171875,0.0503466796875,0.8603229903409134,-1.9365234375,-1.88671875,1.20263671875,31.871176470588235,311.1524147020337
0.19001318359375,0.8495654296875,0.0649951171875,0.8729781180062623,-2.06640625,-0.96142578125,2.275390625,31.824117647058824,311.1524147020337
0.2569077148437499,0.8783740234375,0.0923388671875,0.919820072291038,-2.08740234375,-0.53857421875,3.08251953125,31.77705882352941,311.06614011769864
0.3247788085937499,0.9022998046875,0.1216357421875,0.9666547811024266,-2.12060546875,-0.671875,3.5029296875,31.824117647058824,311.06614011769864
0.3906967773437499,0.9057177734375,0.1201708984375,0.9936849107129736,-2.0654296875,-1.08642578125,3.85546875,31.871176470588235,311.06614011769864
0.4458725585937499,0.8959521484375,0.1108935546875,1.0068912410324855,-2.26318359375,-1.60546875,3.7373046875,31.77705882352941,311.06614011769864
0.4873764648437499,0.8783740234375,0.1182177734375,1.0114604221075054,-2.77490234375,-2.0390625,3.03564453125,31.824117647058824,311.06614011769864
0.4619858398437499,0.8856982421875,0.1187060546875,1.0059738663850242,-3.20654296875,-1.955078125,2.51806640625,31.871176470588235,311.06614011769864
0.4024155273437499,0.9184130859375,0.1314013671875,1.0112799673519368,-3.28955078125,-1.5830078125,2.28125,31.824117647058824,311.06614011769864
0.3360092773437499,0.9643115234375,0.1592333984375,1.033515468618335,-2.9580078125,-0.9267578125,2.3876953125,31.91823529411765,310.6856853874784
0.2520249023437499,1.0082568359375,0.1636279296875,1.052080081547927,-2.61669921875,-0.16162109375,3.07666015625,31.824117647058824,310.6856853874784
0.22761083984375,1.0414599609375,0.1797412109375,1.08108854751107,-2.23876953125,0.4296875,3.6474609375,31.77705882352941,310.6856853874784
0.3052475585937499,1.0741748046875,0.1992724609375,1.1343443466341958,-1.89111328125,0.49853515625,3.58984375,31.824117647058824,310.6856853874784
0.4414780273437499,1.0971240234375,0.2197802734375,1.2028663018071788,-1.7216796875,-0.119140625,2.9814453125,31.824117647058824,310.6856853874784
0.55720068359375,1.0829638671875,0.2065966796875,1.235299772318018,-1.72900390625,-0.48681640625,1.83740234375,31.824117647058824,310.6856853874784
0.61139990234375,1.0844287109375,0.2344287109375,1.2667881789010085,-1.6640625,-0.962890625,0.40087890625,31.91823529411765,310.6856853874784
0.65973974609375,1.0561083984375,0.2217333984375,1.2648269374933117,-1.74560546875,-1.4423828125,-0.7958984375,31.73,310.6856853874784
0.68415380859375,1.0429248046875,0.2231982421875,1.267113269349423,-1.978515625,-1.9521484375,-2.06884765625,31.824117647058824,310.8743763654591
0.67536474609375,1.0673388671875,0.2319873046875,1.284191538366276,-1.98828125,-2.18115234375,-3.0673828125,31.824117647058824,310.8743763654591
0.65827490234375,1.0849169921875,0.2461474609375,1.292655909172593,-1.9404296875,-2.14404296875,-3.74365234375,31.73,310.8743763654591
0.64313818359375,1.0819873046875,0.2564013671875,1.2845485245006545,-1.853515625,-1.82763671875,-4.001953125,31.77705882352941,310.8743763654591
0.60651708984375,1.0893115234375,0.2622607421875,1.27406564676197,-1.63720703125,-1.3193359375,-4.2021484375,31.68294117647059,310.8743763654591
0.58063818359375,1.0707568359375,0.2603076171875,1.2455604993414688,-1.2666015625,-0.4716796875,-4.0927734375,31.871176470588235,310.8743763654591
0.55866552734375,1.0424365234375,0.2783740234375,1.2150198244323067,-0.84765625,0.50244140625,-3.83203125,31.73,310.8743763654591
0.53962255859375,1.0106982421875,0.2915576171875,1.182247557258724,-0.41796875,1.55810546875,-3.31640625,31.824117647058824,310.8743763654591
0.52643896484375,0.9701708984375,0.2827685546875,1.1394417981629612,-0.232421875,2.26025390625,-2.677734375,31.871176470588235,310.8743763654591
0.51227880859375,0.9408740234375,0.2798388671875,1.1072413003959365,-0.2666015625,3.09619140625,-1.92919921875,31.77705882352941,310.88859432759125
0.55085302734375,0.8964404296875,0.2842333984375,1.089877574087757,-0.623046875,3.3447265625,-1.52490234375,31.91823529411765,310.88859432759125
0.56110693359375,0.9018115234375,0.2944873046875,1.1021922642414772,-1.06103515625,3.59619140625,-1.26806640625,31.73,310.88859432759125
0.52595068359375,0.9379443359375,0.3149951171875,1.120529170857206,-1.1484375,4.04296875,-1.126953125,31.871176470588235,310.88859432759125
0.50544287109375,0.9477099609375,0.3359912109375,1.1253962679105074,-1.11279296875,4.79296875,-1.53662109375,31.824117647058824,310.88859432759125
0.50202490234375,0.9574755859375,0.3433154296875,1.1343077115585187,-0.8251953125,5.185546875,-2.36962890625,31.824117647058824,310.88859432759125
0.4683334960937499,0.9745654296875,0.3052294921875,1.1235119417284425,-0.84912109375,5.3642578125,-2.9814453125,31.871176470588235,310.88859432759125
0.4258530273437499,1.0175341796875,0.2896044921875,1.1404373589221504,-0.939453125,5.0576171875,-3.36328125,31.871176470588235,310.88859432759125
0.4029038085937499,1.0795458984375,0.2754443359375,1.184744870431026,-0.9912109375,4.6650390625,-3.64404296875,31.824117647058824,310.88859432759125
0.4336655273437499,1.1269091796875,0.2617724609375,1.2355221204719733,-0.9814453125,3.884765625,-4.43896484375,31.824117647058824,311.2472161018266
0.4829819335937499,1.1625537109375,0.2539599609375,1.284250108332441,-0.94970703125,3.09228515625,-5.40625,31.824117647058824,311.2472161018266
0.53425146484375,1.1703662109375,0.2612841796875,1.3128027719146784,-0.9443359375,1.80615234375,-7.16357421875,31.77705882352941,311.2472161018266
0.55134130859375,1.1444873046875,0.2554248046875,1.295789435055856,-1.05859375,0.404296875,-8.990234375,31.824117647058824,311.2472161018266
0.53278662109375,1.1098193359375,0.2588427734375,1.2579984592192732,-1.33447265625,-1.17431640625,-10.16943359375,31.77705882352941,311.2472161018266
0.50397802734375,1.0736865234375,0.2861865234375,1.2201226695926295,-1.62646484375,-2.9306640625,-10.853515625,31.824117647058824,311.2472161018266
0.4551499023437499,1.0277880859375,0.3223193359375,1.1693586009081158,-2.14306640625,-4.7373046875,-10.4208984375,31.91823529411765,311.2472161018266
0.3950913085937499,0.9794482421875,0.3667529296875,1.1179998715048538,-2.73388671875,-6.03662109375,-9.55615234375,31.824117647058824,311.10818758354
0.3169663085937499,0.9311083984375,0.4238818359375,1.071030485682896,-3.0068359375,-6.74951171875,-8.5146484375,31.871176470588235,311.10818758354
0.21784521484375,0.8778857421875,0.5059130859375001,1.0363821517612226,-2.90380859375,-6.05908203125,-7.59716796875,31.824117647058824,311.10818758354
0.12995458984375,0.8564013671875,0.5254443359375001,1.0131156139902675,-2.7431640625,-4.59814453125,-6.98779296875,31.871176470588235,311.10818758354
0.09089208984375,0.8520068359375,0.5381396484375001,1.0118158437684353,-2.423828125,-2.5341796875,-6.7763671875,31.965294117647066,311.10818758354
0.09919287109375,0.8524951171875,0.5391162109375001,1.0135252534594084,-2.2568359375,-0.48876953125,-6.90478515625,31.91823529411765,311.10818758354
0.09723974609375,0.8637255859375,0.5352099609375001,1.0207483325042344,-2.3818359375,1.4990234375,-7.05908203125,31.871176470588235,311.10818758354
0.09284521484375,0.9057177734375,0.5230029296875001,1.0499890397054974,-2.7333984375,2.95361328125,-6.85400390625,31.871176470588235,311.04184920858285
0.09919287109375,0.9237841796875,0.5024951171875001,1.0562754276768953,-2.90478515625,3.65380859375,-6.2490234375,31.824117647058824,311.04184920858285
0.09626318359375,0.9276904296875,0.4795458984375,1.0487327603148533,-3.05224609375,4.2880859375,-5.599609375,31.824117647058824,311.04184920858285
0.10358740234375,0.9203662109375,0.4380419921875,1.0245414091579563,-3.14794921875,4.3701171875,-5.1904296875,31.824117647058824,311.04184920858285
0.12360693359375,0.9164599609375,0.4292529296875,1.0195271510260606,-3.42529296875,3.9765625,-5.13037109375,31.77705882352941,311.04184920858285
0.12848974609375,0.9189013671875,0.4175341796875,1.0174596447415527,-3.56201171875,3.408203125,-5.4921875,31.91823529411765,311.04184920858285
0.13044287109375,0.8998583984375,0.4004443359375,0.993537189058421,-3.66845703125,2.740234375,-5.92529296875,31.91823529411765,311.04184920858285
0.09772802734375,0.8793505859375,0.4009326171875,0.9713676872543908,-3.7314453125,1.6533203125,-6.22998046875,31.824117647058824,311.24525105818446
0.0562241210937499,0.8695849609375,0.4263232421875,0.9700982748725512,-3.658203125,0.66162109375,-5.93896484375,31.77705882352941,311.24525105818446
0.0528061523437499,0.8686083984375,0.4585498046875,0.983634567784426,-3.470703125,-0.4736328125,-5.64501953125,31.824117647058824,311.24525105818446
0.06501318359375,0.8559130859375,0.4746630859375,0.9808766333600568,-3.35888671875,-1.68115234375,-5.46533203125,31.965294117647066,311.24525105818446
0.0523178710937499,0.8549365234375,0.5000537109375001,0.9918202118154008,-3.451171875,-2.86181640625,-5.29052734375,31.77705882352941,311.24525105818446
0.0508530273437499,0.8564013671875,0.5239794921875001,1.005268044027917,-3.56591796875,-3.533203125,-5.30224609375,31.824117647058824,311.24525105818446
0.0342514648437499,0.8500537109375,0.5581591796875001,1.017499948005886,-3.74267578125,-3.74365234375,-5.4072265625,31.871176470588235,311.24525105818446
-0.01360009765625,0.8495654296875,0.5918505859375001,1.035487082512828,-3.86962890625,-3.41650390625,-5.43603515625,31.77705882352941,311.0398823481143
-0.06389306640625,0.8642138671875,0.6343310546875001,1.0739291499512076,-3.80029296875,-2.57568359375,-5.46923828125,31.73,311.0398823481143
-0.10246728515625,0.8583544921875,0.6572802734375001,1.085950890526744,-3.63134765625,-1.16650390625,-5.58935546875,31.871176470588235,311.0398823481143
-0.11418603515625,0.8358935546875,0.6543505859375001,1.0676755943214018,-3.34521484375,0.2138671875,-5.7802734375,31.824117647058824,311.0398823481143
-0.11369775390625,0.8134326171875,0.6377490234375001,1.039867115954398,-2.94482421875,1.7021484375,-6.091796875,31.871176470588235,311.0398823481143
-0.11369775390625,0.7733935546875,0.5923388671875001,0.9807803542365968,-2.55615234375,2.7724609375,-6.2861328125,31.824117647058824,311.0398823481143
-0.10100244140625,0.7094287109375,0.5415576171875001,0.8982066810073663,-2.1865234375,3.80810546875,-6.6376953125,31.824117647058824,311.0398823481143
-0.08391259765625,0.6508349609375,0.4814990234375,0.8139218512825437,-1.77197265625,4.5048828125,-6.98681640625,31.824117647058824,310.9536190831844
-0.08440087890625,0.6083544921875,0.3042529296875,0.685411220909233,-1.29052734375,5.0107421875,-7.23974609375,31.871176470588235,310.9536190831844
-0.10442041015625,0.5356005859375,0.3750537109375,0.6621456756649421,-1.11865234375,4.82666015625,-7.2021484375,31.824117647058824,310.9536190831844
-0.14104150390625,0.4691943359375,0.3594287109375,0.6076388968344286,-0.9326171875,3.41943359375,-6.833984375,31.77705882352941,310.9536190831844
-0.18108056640625,0.4106005859375,0.3433154296875,0.5650207933905967,-1.11181640625,1.20947265625,-6.14599609375,31.77705882352941,310.9536190831844
-0.22844384765625,0.4027880859375,0.3682177734375,0.5916157218841104,-1.48193359375,-1.279296875,-5.6025390625,31.824117647058824,310.9536190831844
-0.26799462890625,0.4247607421875,0.3867724609375,0.6339051551816915,-1.98046875,-3.42626953125,-4.693359375,31.91823529411765,310.9536190831844
-0.26555322265625,0.4945849609375,0.4370654296875,0.711448513580981,-2.4677734375,-5.361328125,-4.23095703125,31.824117647058824,310.88793912312394
-0.22942041015625,0.5580615234375,0.4902880859375,0.7774630510512399,-2.7783203125,-6.26806640625,-4.30126953125,31.824117647058824,310.88793912312394
-0.19621728515625,0.6083544921875,0.5552294921875001,0.8466854198305231,-3.3330078125,-6.890625,-4.7841796875,31.824117647058824,310.88793912312394
-0.17277978515625,0.6410693359375,0.6240771484375001,0.9112052649320396,-3.83837890625,-6.9921875,-5.31396484375,31.871176470588235,310.88793912312394
-0.17229150390625,0.6630419921875,0.6831591796875001,0.9674789457727462,-4.27587890625,-6.47021484375,-5.84375,31.91823529411765,310.88793912312394
-0.22063134765625,0.6596240234375,0.7246630859375001,1.0044494173351637,-4.4443359375,-5.36083984375,-6.29052734375,31.824117647058824,310.88793912312394
-0.25676416015625,0.6317919921875,0.7642138671875001,1.0242615828657582,-4.4609375,-3.81884765625,-6.6015625,31.871176470588235,310.88793912312394
-0.28654931640625,0.5917529296875,0.7651904296875001,1.0088599675931094,-4.4365234375,-2.470703125,-6.72509765625,31.871176470588235,310.8899060643255
-0.32805322265625,0.5429248046875,0.7969287109375001,1.018568422226321,-4.2548828125,-1.5732421875,-6.873046875,31.824117647058824,310.8899060643255
-0.34367822265625,0.4843310546875,0.7832568359375001,0.982945859295256,-4.1533203125,-1.17333984375,-6.54296875,31.824117647058824,310.8899060643255
-0.35344384765625,0.4213427734375,0.7827685546875001,0.9566498295518672,-4.14013671875,-1.10546875,-6.22509765625,31.871176470588235,310.8899060643255
-0.33879541015625,0.3686083984375,0.7964404296875001,0.9407294187928908,-4.06494140625,-1.23486328125,-6.02099609375,31.824117647058824,310.8899060643255
-0.32951806640625,0.3275927734375,0.8125537109375001,0.9360249539701864,-3.85498046875,-1.50732421875,-5.8359375,31.77705882352941,310.8899060643255
-0.32463525390625,0.2895068359375,0.8145068359375001,0.92337621905821,-3.697265625,-2.169921875,-5.61083984375,31.77705882352941,310.8899060643255
-0.30266259765625,0.2611865234375,0.8355029296875001,0.9262225399771874,-3.64404296875,-3.05322265625,-5.216796875,31.824117647058824,311.0933063380256
-0.28703759765625,0.2367724609375,0.8535693359375001,0.931145741535371,-3.7509765625,-3.81201171875,-5.06640625,31.871176470588235,311.0933063380256
-0.27141259765625,0.2372607421875,0.9004443359375001,0.969926523027287,-3.98974609375,-4.50146484375,-4.90771484375,31.871176470588235,311.0933063380256
-0.27531884765625,0.2147998046875,0.9302294921875,0.9936127676836524,-4.11376953125,-5.203125,-4.76611328125,31.871176470588235,311.0933063380256
-0.33293603515625,0.2025927734375,0.9512255859375,1.0279690417015497,-4.26611328125,-5.18798828125,-4.552734375,31.73,311.0933063380256
-0.37590478515625,0.1977099609375,0.9937060546875,1.0806689406473526,-4.21435546875,-4.6279296875,-4.33203125,31.824117647058824,311.0933063380256
-0.43401025390625,0.1815966796875,1.0015185546875005,1.1065178127588509,-4.02587890625,-3.54443359375,-4.0458984375,31.824117647058824,311.0933063380256
-0.47307275390625,0.1801318359375,0.9902880859375,1.1121671645739302,-3.99267578125,-2.28515625,-3.6806640625,31.73,310.8126231321115
-0.47600244140625,0.1864794921875,0.9678271484375,1.0945511931764,-4.0400390625,-1.14501953125,-3.3251953125,31.77705882352941,310.8126231321115
-0.46330712890625,0.1830615234375,0.9419482421875,1.0655662851360923,-4.08544921875,-0.0302734375,-3.169921875,31.871176470588235,310.8126231321115
-0.44133447265625,0.2348193359375,1.0264208984375005,1.141690018364943,-3.9794921875,1.09423828125,-3.09326171875,31.871176470588235,310.8126231321115
-0.41154931640625,0.2543505859375,0.8184130859375001,0.9507192222917044,-3.7646484375,1.67578125,-3.0673828125,31.824117647058824,310.8126231321115
-0.37004541015625,0.2763232421875,0.9263232421875,1.0350666107876734,-3.4091796875,1.2822265625,-3.068359375,31.824117647058824,310.8126231321115
-0.40031884765625,0.2826708984375,0.7676318359375001,0.910723147919865,-2.96533203125,0.25390625,-2.91748046875,31.824117647058824,310.8126231321115
-0.43742822265625,0.2953662109375,0.7686083984375001,0.932385927976415,-2.48828125,-1.5986328125,-2.8330078125,31.73,311.01798899384545
-0.39201806640625,0.3075732421875,0.7905810546875001,0.9345040758228,-1.91796875,-3.73828125,-2.88671875,31.68294117647059,311.01798899384545
-0.39836572265625,0.2792529296875,0.8677294921875001,0.994802452418803,-1.6669921875,-5.5478515625,-3.32958984375,31.871176470588235,311.01798899384545
-0.39055322265625,0.2431201171875,0.9546435546875,1.0597091712422009,-1.57080078125,-6.5947265625,-3.61865234375,31.77705882352941,311.01798899384545
-0.41154931640625,0.1693896484375,1.0230029296875005,1.1156167294288124,-1.7607421875,-6.72509765625,-3.69384765625,31.824117647058824,311.01798899384545
-0.43791650390625,0.0990771484375,1.0566943359375005,1.1481245861570832,-2.02197265625,-6.0556640625,-3.58251953125,31.824117647058824,311.01798899384545
-0.46379541015625,0.0434130859375,1.0640185546875005,1.1615189896131264,-2.32275390625,-5.14111328125,-3.130859375,31.871176470588235,311.01798899384545
-0.50090478515625,0.0238818359375,1.0347216796875005,1.1498369016062655,-2.388671875,-4.31640625,-2.71533203125,31.77705882352941,310.8892499746535
-0.49797509765625,0.0170458984375,1.0073779296875005,1.1238683436064776,-2.6240234375,-4.07177734375,-2.05810546875,31.824117647058824,310.8892499746535
-0.47649072265625,0.0375537109375,0.9834521484375,1.0934495042062926,-2.671875,-4.30224609375,-1.81591796875,31.965294117647066,310.8892499746535
-0.44035791015625,0.0356005859375,0.9858935546875,1.0803557709989002,-2.77685546875,-4.6044921875,-1.92138671875,31.824117647058824,310.8892499746535
-0.39934228515625,0.0238818359375,0.9902880859375,1.0680426470657989,-2.79248046875,-4.94775390625,-2.37109375,31.824117647058824,310.8892499746535
-0.34318994140625,0.0004443359375,0.9780810546875,1.036543333804942,-2.79345703125,-5.296875,-3.0576171875,31.871176470588235,310.8892499746535
-0.30461572265625,-0.0239697265625,0.9849169921875,1.0312258568231027,-2.84423828125,-5.38232421875,-3.64208984375,31.824117647058824,310.8892499746535
-0.30510400390625,-0.0132275390625,0.9927294921875,1.0386410668022552,-2.70849609375,-4.96337890625,-4.10107421875,31.824117647058824,310.921434428657
-0.32707666015625,0.0028857421875,0.9912646484375,1.0438357497081907,-2.31005859375,-4.20751953125,-4.109375,31.871176470588235,310.921434428657
-0.34221337890625,0.0287646484375,0.9375537109375,0.9984710123958748,-2.119140625,-3.50146484375,-4.18115234375,31.824117647058824,310.921434428657
-0.32561181640625,0.0722216796875,0.8882373046875001,0.948791091567989,-1.84033203125,-3.18994140625,-4.49609375,31.824117647058824,310.921434428657
-0.30510400390625,0.0976123046875,0.8398974609375001,0.8989128768213802,-1.7490234375,-3.30224609375,-4.89111328125,31.73,310.921434428657
-0.31145166015625,0.0878466796875,0.7905810546875001,0.8542467909082261,-1.814453125,-3.5029296875,-5.255859375,31.871176470588235,310.921434428657
-0.28850244140625,0.0478076171875,0.7441943359375001,0.7995901678985116,-2.3349609375,-3.919921875,-5.392578125,31.871176470588235,310.921434428657
-0.24699853515625,0.0321826171875,0.7368701171875001,0.7778313228600983,-2.86962890625,-4.27001953125,-5.23291015625,31.871176470588235,310.8351722289576
-0.17424462890625,0.0072802734375,0.7588427734375001,0.7786247799051341,-3.1025390625,-4.7021484375,-4.697265625,31.91823529411765,310.8351722289576
-0.11613916015625,0.0038623046875,0.7998583984375001,0.8082553306166936,-2.77587890625,-5.02099609375,-4.21533203125,31.871176470588235,310.8351722289576
-0.00725244140625,-0.0342236328125,0.8335498046875001,0.8342836039643866,-2.1865234375,-6.01904296875,-3.9921875,31.91823529411765,310.8351722289576
0.10407568359375,-0.1313916015625,0.8091357421875001,0.8263148008852206,-1.8046875,-7.767578125,-3.97705078125,31.824117647058824,310.8351722289576
0.17194677734375,-0.1973095703125,0.7832568359375001,0.8258256667230853,-1.45751953125,-9.70654296875,-3.83935546875,31.77705882352941,310.8351722289576
0.17097021484375,-0.3359814453125,0.7817919921875001,0.8679360950015241,-1.14697265625,-11.7568359375,-3.33740234375,31.73,310.8351722289576
0.13679052734375,-0.4253369140625,0.8223193359375001,0.9358590861298952,-0.8486328125,-13.18603515625,-2.72314453125,31.824117647058824,310.9858039382456
0.16999365234375,-0.3682080078125,0.8711474609375001,0.9609229300793436,-0.03369140625,-13.92822265625,-2.4423828125,31.824117647058824,310.9858039382456
0.3062241210937499,-0.5273876953125,0.9771044921875,1.151800408994398,0.7724609375,-14.12890625,-3.38427734375,31.824117647058824,310.9858039382456
0.3794663085937499,-0.4888134765625,1.0483935546875005,1.2173998273932758,1.4345703125,-13.95849609375,-4.45947265625,31.77705882352941,310.9858039382456
0.21638037109375,-0.4141064453125,1.1387255859375005,1.2308535953202262,1.74462890625,-13.0068359375,-4.02001953125,31.73,310.9858039382456
0.06745458984375,-0.3208447265625,1.2363818359375005,1.2791135619991438,1.97705078125,-11.63916015625,-2.93359375,31.871176470588235,310.9858039382456
0.09089208984375,-0.3594189453125,1.2642138671875005,1.3174521062394975,1.81494140625,-9.96435546875,-1.70703125,31.77705882352941,310.9858039382456
0.08552099609375,-0.1543408203125,1.2583544921875005,1.2706655569409535,1.2421875,-7.79443359375,-1.49951171875,31.871176470588235,310.92077904027275
0.3120834960937499,-0.1006298828125,1.2617724609375005,1.303684097099152,0.67333984375,-6.06298828125,-1.421875,31.824117647058824,310.92077904027275
0.4043686523437499,-0.0776806640625,1.2295458984375005,1.2966616401096978,0.12890625,-4.74072265625,-1.30029296875,31.77705882352941,310.92077904027275
0.4614975585937499,-0.0884228515625,1.1621630859375005,1.253563574607291,-0.10693359375,-4.3701171875,-0.67919921875,31.824117647058824,310.92077904027275
0.4761459960937499,-0.0898876953125,1.1016162109375005,1.20347541876226,-0.18359375,-4.6259765625,0.10791015625,31.824117647058824,310.92077904027275
0.4937241210937499,-0.0586376953125,1.0728076171875005,1.182420428847912,-0.123046875,-5.1875,0.3564453125,31.871176470588235,310.92077904027275
0.4732163085937499,-0.0146923828125,1.0420458984375005,1.1445563311966,0.02490234375,-5.06103515625,0.1240234375,31.871176470588235,310.92077904027275
0.4575913085937499,0.0380419921875,1.0234912109375005,1.1217714819589797,-0.12255859375,-4.451171875,-0.71044921875,31.77705882352941,310.9104877143216
0.4448959960937499,0.0590380859375,0.9897998046875,1.0867941830405732,-0.33837890625,-3.580078125,-1.51025390625,31.91823529411765,310.9104877143216
0.4395249023437499,0.0434130859375,0.9585498046875,1.055407297623692,-0.65673828125,-2.5517578125,-2.4208984375,31.73,310.9104877143216
0.4278061523437499,-0.0117626953125,0.9160693359375,1.0111080522027065,-0.8955078125,-1.8095703125,-2.69970703125,31.91823529411765,310.9104877143216
0.4571030273437499,-0.0576611328125,0.8989794921875001,1.010164398114355,-0.97119140625,-1.61865234375,-2.75732421875,31.824117647058824,310.9104877143216
0.4375717773437499,-0.0708447265625,0.8828662109375001,0.9878971515419112,-0.91357421875,-1.72900390625,-2.57421875,31.871176470588235,310.9104877143216
0.4131577148437499,-0.0718212890625,0.8706591796875001,0.9663876044691484,-0.8759765625,-2.20263671875,-2.2705078125,31.77705882352941,310.9104877143216
0.3916733398437499,-0.0503369140625,0.8398974609375001,0.9280999703431482,-0.7919921875,-2.7978515625,-2.2373046875,31.77705882352941,310.98645925186867
0.3950913085937499,-0.0337353515625,0.8232958984375001,0.9138114425062632,-0.68505859375,-3.12890625,-2.3818359375,31.824117647058824,310.98645925186867
0.4248764648437499,-0.0166455078125,0.7920458984375001,0.8989626179881591,-0.529296875,-3.9638671875,-2.8896484375,31.824117647058824,310.98645925186867
0.4556381835937499,-0.0200634765625,0.7681201171875001,0.8933180910899121,-0.4130859375,-4.62060546875,-3.4521484375,31.91823529411765,310.98645925186867
0.4683334960937499,-0.0137158203125,0.7651904296875001,0.8972406483076769,-0.33251953125,-5.1787109375,-3.724609375,31.824117647058824,310.98645925186867
0.51130224609375,-0.0166455078125,0.7881396484375001,0.9396122419541136,-0.28759765625,-5.72412109375,-3.7587890625,31.871176470588235,310.98645925186867
0.58014990234375,-0.0347119140625,0.8027880859375001,0.9910840212063456,-0.41845703125,-6.25341796875,-3.96728515625,31.77705882352941,310.98645925186867
0.62214208984375,-0.0366650390625,0.8369677734375001,1.0435133726107824,-0.537109375,-6.92333984375,-3.9052734375,31.871176470588235,310.9323811569579
0.69391943359375,-0.0522900390625,0.8833544921875001,1.1245326084076286,-0.578125,-7.55078125,-3.95947265625,31.824117647058824,310.9323811569579
0.75886083984375,-0.0444775390625,0.9170458984375,1.1911428149346577,-0.6455078125,-8.6083984375,-3.9404296875,31.824117647058824,310.9323811569579
0.79841162109375,-0.0161572265625,0.9189990234375,1.2174897854794595,-0.8056640625,-9.203125,-3.85107421875,31.91823529411765,310.9323811569579
0.89802099609375,-0.0098095703125,0.9043505859375,1.274514778015707,-0.93505859375,-9.5380859375,-4.11669921875,31.77705882352941,310.9323811569579
1.02155615234375,-0.0254345703125,0.8901904296875001,1.3552353636418897,-1.0,-9.78955078125,-4.6806640625,31.871176470588235,310.9323811569579
1.17634130859375,-0.0356884765625,0.8618701171875001,1.4587229485286792,-1.22705078125,-10.72607421875,-5.130859375,31.77705882352941,310.9323811569579
1.32233740234375,0.0028857421875,0.8994677734375001,1.599258205730958,-1.1884765625,-12.30810546875,-5.5166015625,31.77705882352941,311.1589864197708
1.41950537109375,0.0053271484375,1.0503466796875005,1.7658573058446814,-0.9638671875,-14.349609375,-5.3837890625,31.824117647058824,311.1589864197708
1.42536474609375,-0.0254345703125,0.9585498046875,1.7178851256240408,-0.76806640625,16.0,-4.9658203125,31.871176470588235,311.1589864197708
1.44098974609375,-0.0615673828125,0.9800341796875,1.7437628807637415,-0.6845703125,16.0,-4.33056640625,31.824117647058824,311.1589864197708
1.45124365234375,-0.0786572265625,0.9668505859375,1.7455930663491477,-0.35693359375,16.0,-4.1083984375,31.91823529411765,311.1589864197708
1.44977880859375,-0.0908642578125,0.8965380859375001,1.7070136047295597,0.26806640625,-13.61474609375,-3.607421875,31.77705882352941,311.1589864197708
1.47809912109375,-0.1103955078125,0.8189013671875001,1.6933882098044892,0.6298828125,-10.12548828125,-2.7802734375,31.824117647058824,311.1589864197708
1.49811865234375,-0.1348095703125,0.7583544921875001,1.6845280207135338,0.77783203125,-7.16357421875,-2.15283203125,31.824117647058824,311.21241098687955
1.53181005859375,-0.1450634765625,0.7510302734375001,1.712171702680836,0.49365234375,-5.4970703125,-1.39794921875,31.824117647058824,311.21241098687955
1.54352880859375,-0.1489697265625,0.7314990234375001,1.7145739948106538,-0.01220703125,-4.4384765625,-0.6484375,31.871176470588235,311.21241098687955
1.49470068359375,-0.1523876953125,0.6982958984375001,1.6567948892343052,-0.57568359375,-3.66796875,0.0751953125,31.824117647058824,311.21241098687955
1.43073583984375,-0.1758251953125,0.6768115234375001,1.5924802607812345,-0.9462890625,-3.34765625,0.826171875,31.871176470588235,311.21241098687955
1.36970068359375,-0.2187939453125,0.6143115234375001,1.517013316016276,-1.25390625,-3.068359375,1.30615234375,31.871176470588235,311.21241098687955
1.33014990234375,-0.2529736328125,0.5869677734375001,1.475745773721754,-1.80712890625,-2.8017578125,1.49072265625,31.871176470588235,311.21241098687955
1.26032568359375,-0.3613720703125,0.5625537109375001,1.426701538380592,-1.9990234375,-2.5166015625,1.4384765625,31.871176470588235,311.33151639957805
1.20856787109375,-0.2056103515625,0.5513232421875001,1.3441983607659511,-1.98583984375,-2.43310546875,1.3603515625,31.91823529411765,311.33151639957805
1.16120458984375,-0.1518994140625,0.5557177734375001,1.2962606895146729,-1.78369140625,-2.79541015625,1.5380859375,31.871176470588235,311.33151639957805
1.13776708984375,-0.1274853515625,0.5459521484375001,1.2683967100154636,-1.5078125,-4.03857421875,1.9296875,31.824117647058824,311.33151639957805
1.09284521484375,-0.1103955078125,0.5005419921875001,1.2070791679484378,-1.41796875,-5.63037109375,2.45703125,31.91823529411765,311.33151639957805
1.06843115234375,-0.0776806640625,0.4722216796875,1.1707146226278498,-1.34912109375,-7.021484375,2.75830078125,31.77705882352941,311.33151639957805
1.07673193359375,-0.0522900390625,0.4614794921875,1.1726249301099334,-1.16748046875,-8.2158203125,3.095703125,31.871176470588235,311.33151639957805
1.09138037109375,-0.0127392578125,0.4429248046875,1.1779031308667978,-0.86181640625,-8.83056640625,3.02587890625,31.871176470588235,310.9645657921038
1.05378271484375,0.0053271484375,0.4365771484375,1.1406515660585217,-0.73193359375,-8.93310546875,2.98388671875,31.824117647058824,310.9645657921038
1.04499365234375,-0.0029736328125,0.4492724609375,1.1374824482547723,-0.0615234375,-9.18994140625,2.751953125,31.871176470588235,310.9645657921038
1.03669287109375,-0.0278759765625,0.4531787109375,1.1317597461886024,0.4267578125,-9.01513671875,2.25244140625,31.824117647058824,310.9645657921038
1.00202490234375,-0.0400830078125,0.4404833984375,1.095301865574668,0.91552734375,-8.4755859375,1.67626953125,31.77705882352941,310.9645657921038
0.99763037109375,-0.0444775390625,0.4053271484375,1.0777451953361634,1.12939453125,-7.568359375,1.04736328125,31.871176470588235,310.9645657921038
1.01716162109375,-0.0615673828125,0.3853076171875,1.0894357557539385,1.32568359375,-6.78173828125,0.46826171875,31.77705882352941,310.9645657921038
1.05524755859375,-0.0552197265625,0.3711474609375,1.119976368447147,1.3515625,-6.041015625,-0.2900390625,31.824117647058824,311.2240121126624
1.07624365234375,-0.0547314453125,0.3726123046875,1.1402350020591108,1.46435546875,-5.33203125,-0.935546875,31.77705882352941,311.2240121126624
1.09382177734375,-0.0713330078125,0.3682177734375,1.1563385348894537,1.712890625,-4.134765625,-1.41845703125,31.77705882352941,311.2240121126624
1.13581396484375,-0.1103955078125,0.3897021484375,1.2058724208539071,1.9384765625,-3.673828125,-1.75390625,31.77705882352941,311.2240121126624
1.12604833984375,-0.1724072265625,0.3750537109375,1.1993224760354608,1.853515625,-3.9169921875,-2.10888671875,31.871176470588235,311.2240121126624
1.05720068359375,-0.1621533203125,0.3984912109375,1.1413861002631387,1.2109375,-4.322265625,-1.8046875,31.91823529411765,311.2240121126624
0.92829443359375,-0.0669384765625,0.4336474609375,1.0267723386725949,0.6728515625,-4.12353515625,-0.91015625,31.824117647058824,311.2240121126624
0.82477880859375,0.0233935546875,0.4639208984375,0.9465885809121616,0.26904296875,-2.4326171875,-0.34521484375,31.871176470588235,311.2890380155521
0.84723974609375,0.0336474609375,0.5132373046875001,0.99114069128022,0.15966796875,-0.35693359375,-1.1083984375,31.77705882352941,311.2890380155521
0.94391943359375,0.0609912109375,0.5625537109375001,1.1005319180365103,0.173828125,1.26806640625,-2.6259765625,31.77705882352941,311.2890380155521
1.07233740234375,0.0648974609375,0.5298388671875001,1.1978515809915722,0.2451171875,1.87939453125,-3.986328125,31.871176470588235,311.2890380155521
1.17389990234375,-0.0098095703125,0.4541552734375,1.2587272225480275,-0.0908203125,2.9267578125,-4.88037109375,31.77705882352941,311.2890380155521
1.25056005859375,-0.0903759765625,0.4194873046875,1.3221338344069455,-0.01220703125,4.5498046875,-5.69091796875,31.871176470588235,311.2890380155521
1.25934912109375,-0.1504345703125,0.4053271484375,1.3314957251171264,0.40087890625,6.45947265625,-5.458984375,31.73,311.2890380155521
1.27888037109375,-0.2222119140625,0.3647998046875,1.3483293499068565,1.21435546875,8.3759765625,-4.35498046875,31.871176470588235,311.2890380155521
1.28278662109375,-0.2700634765625,0.3218310546875,1.3498337024950195,1.462890625,9.583984375,-2.546875,31.77705882352941,311.2890380155521
1.29987646484375,-0.2866650390625,0.3301318359375,1.3714381858380835,1.39697265625,10.1142578125,-0.18408203125,31.871176470588235,311.2890380155521
1.38386083984375,-0.2529736328125,0.3814013671875,1.4575779518927614,1.57568359375,9.57763671875,1.8251953125,31.871176470588235,311.2890380155521
1.43903662109375,-0.1870556640625,0.3892138671875,1.5024325784266757,1.9052734375,8.75537109375,3.02294921875,31.824117647058824,311.2890380155521
1.48444677734375,-0.1191845703125,0.3848193359375,1.5381394988355894,2.3359375,7.716796875,3.39208984375,31.824117647058824,311.2890380155521
1.45954443359375,-0.0542431640625,0.3320849609375,1.497829327981954,2.52099609375,6.88720703125,2.6826171875,31.77705882352941,311.2890380155521
1.40925146484375,-0.0127392578125,0.3066943359375,1.4422944898840917,2.505859375,6.49072265625,1.48828125,31.91823529411765,311.3418093112888
1.33649755859375,-0.0034619140625,0.3252490234375,1.3755088644654667,2.71337890625,5.55078125,0.20166015625,31.871176470588235,311.3418093112888
1.23493505859375,-0.0205517578125,0.3345263671875,1.2796073085274242,2.83056640625,3.72802734375,-1.22412109375,31.871176470588235,311.3418093112888
1.12653662109375,-0.0449658203125,0.3521044921875,1.18113684942953,2.8837890625,1.720703125,-2.0185546875,31.824117647058824,311.3418093112888
1.02057958984375,-0.0767041015625,0.3394091796875,1.078269358582673,3.11865234375,-0.52001953125,-2.50390625,31.871176470588235,311.3418093112888
0.95856787109375,-0.1069775390625,0.3320849609375,1.0200867505452336,3.07275390625,-2.634765625,-2.4228515625,31.77705882352941,311.3418093112888
0.95319677734375,-0.1201611328125,0.3369677734375,1.0181208545711653,2.8955078125,-4.5908203125,-2.02783203125,31.91823529411765,311.3418093112888
0.95417333984375,-0.1123486328125,0.3189013671875,1.01230778904317,2.66552734375,-5.47998046875,-1.46630859375,31.824117647058824,311.36370264572366
0.96198583984375,-0.0820751953125,0.2876513671875,1.0074206682366151,2.60498046875,-4.9541015625,-0.93505859375,31.871176470588235,311.36370264572366
0.99470068359375,-0.0303173828125,0.2886279296875,1.036173091446678,2.70263671875,-3.365234375,-0.32470703125,31.77705882352941,311.36370264572366
1.04499365234375,0.0106982421875,0.2969287109375,1.0864128336887586,2.84130859375,-1.3974609375,0.2060546875,31.824117647058824,311.36370264572366
1.10602880859375,0.0683154296875,0.3560107421875,1.1639202601233438,3.1708984375,-0.361328125,0.61767578125,31.871176470588235,311.36370264572366
1.19880224609375,0.0761279296875,0.3926318359375,1.2637571149194675,3.423828125,-0.455078125,0.70263671875,31.871176470588235,311.36370264572366
1.25495458984375,0.0609912109375,0.4692919921875,1.341218074853165,3.4853515625,-2.587890625,0.4677734375,31.965294117647066,311.2883836410082
1.22712255859375,0.0609912109375,0.6074755859375001,1.3706116478169166,3.71337890625,-5.61669921875,0.38623046875,31.824117647058824,311.2883836410082
1.18952490234375,0.0287646484375,0.6934130859375001,1.3771777684979554,4.01220703125,-8.27197265625,0.79296875,31.871176470588235,311.2883836410082
0.88337255859375,-0.0273876953125,0.6382373046875001,1.090157796021183,3.404296875,-8.44580078125,0.7744140625,31.824117647058824,311.2883836410082
0.76325537109375,-0.0171337890625,0.6816943359375001,1.0235035397497976,2.67822265625,-6.18017578125,0.5966796875,31.824117647058824,311.2883836410082
0.71052099609375,-0.0024853515625,0.6812060546875001,0.9843210613439872,2.35791015625,-1.93896484375,0.244140625,31.965294117647066,311.2883836410082
0.73542333984375,0.0292529296875,0.6563037109375001,0.9861226007310508,2.25048828125,3.59130859375,-0.62060546875,31.824117647058824,311.2883836410082
0.76569677734375,0.0551318359375,0.5640185546875001,0.9526006530546892,1.63037109375,9.46923828125,-1.01318359375,31.91823529411765,311.1885575353782
0.78083349609375,0.1147021484375,0.4990771484375,0.933774882704966,0.81591796875,14.521484375,-0.892578125,31.91823529411765,311.1885575353782
0.77399755859375,0.1767138671875,0.4883349609375,0.9320788838072004,0.16357421875,15.99951171875,-0.19091796875,31.824117647058824,311.1885575353782
0.76618505859375,0.1879443359375,0.4683154296875,0.9174322640427924,-0.18994140625,15.99951171875,0.55078125,31.824117647058824,311.1885575353782
0.79889990234375,0.1684130859375,0.4707568359375,0.9424521314431472,-0.28662109375,15.99951171875,1.23095703125,31.91823529411765,311.1885575353782
0.88190771484375,0.1342333984375,0.4644091796875,1.0057115436023505,-0.29443359375,15.99951171875,1.6044921875,31.871176470588235,311.1885575353782
0.93268896484375,0.1127490234375,0.4585498046875,1.045413301429803,-0.3642578125,15.99951171875,1.7978515625,31.871176470588235,311.1885575353782
0.92975927734375,0.1117724609375,0.4282763671875,1.0297407652036117,-0.025390625,15.99951171875,1.76025390625,31.824117647058824,311.54587777622453
0.88093115234375,0.1020068359375,0.3980029296875,0.972034681370732,0.1357421875,15.99951171875,1.4443359375,31.91823529411765,311.54587777622453
0.83503271484375,0.1044482421875,0.3662646484375,0.9177902063382608,0.2080078125,14.35205078125,0.86181640625,31.824117647058824,311.54587777622453
0.75544287109375,0.1078662109375,0.3418505859375,0.8361763414819827,0.1259765625,12.3505859375,-0.0009765625,31.824117647058824,311.54587777622453
0.68366552734375,0.1103076171875,0.3638232421875,0.7822618968373802,0.0625,10.29931640625,-1.07470703125,31.824117647058824,311.54587777622453
0.70661474609375,0.1078662109375,0.3731005859375,0.8063148058209362,-0.044921875,8.2783203125,-1.83447265625,31.871176470588235,311.54587777622453
0.50788427734375,0.0907763671875,0.4116748046875,0.6600476746623947,-0.04931640625,6.1357421875,-2.33740234375,31.824117647058824,311.54587777622453
0.4619858398437499,0.0771044921875,0.3149951171875,0.5644448093335558,0.07421875,4.25048828125,-2.376953125,31.824117647058824,311.578065445611
0.4683334960937499,0.0346240234375,0.4424365234375,0.6452016458703873,0.1171875,2.99169921875,-2.6640625,31.73,311.578065445611
0.4903061523437499,-0.0034619140625,0.4502490234375,0.6656848285649382,0.1416015625,2.19140625,-2.744140625,31.824117647058824,311.578065445611
0.4990952148437499,-0.0352001953125,0.4639208984375,0.682317878438653,0.306640625,2.45263671875,-2.7099609375,31.824117647058824,311.578065445611
0.50446630859375,-0.0395947265625,0.4526904296875,0.6789570119001771,0.40185546875,3.3173828125,-2.4013671875,31.824117647058824,311.578065445611
0.4839584960937499,-0.0142041015625,0.4546435546875,0.6641674068044953,0.38720703125,4.6337890625,-1.7646484375,31.77705882352941,311.578065445611
0.4624741210937499,0.0058154296875,0.4473193359375,0.6434366481693848,0.33154296875,6.38818359375,-1.10302734375,31.77705882352941,311.578065445611
0.4580795898437499,0.0507373046875,0.4712451171875,0.659153354835907,0.2275390625,8.12744140625,-0.47021484375,31.871176470588235,311.54718282872415
0.4614975585937499,0.1064013671875,0.4995654296875,0.6883798849953544,0.2119140625,9.3994140625,-0.13720703125,31.91823529411765,311.54718282872415
0.4707749023437499,0.1532763671875,0.5064013671875001,0.7082125373814939,0.36572265625,10.41796875,-0.115234375,31.965294117647066,311.54718282872415
0.4683334960937499,0.1947802734375,0.5230029296875001,0.7285654966751376,0.6123046875,11.119140625,-0.42333984375,31.824117647058824,311.54718282872415
0.4824936523437499,0.1923388671875,0.5215380859375001,0.7360681622420123,0.81005859375,11.1162109375,-0.9150390625,31.824117647058824,311.54718282872415
0.4785874023437499,0.1874560546875,0.5220263671875001,0.7325962067606684,0.908203125,10.34716796875,-1.36962890625,31.871176470588235,311.54718282872415
0.4439194335937499,0.1591357421875,0.5122607421875001,0.6962756034432419,0.98876953125,8.95947265625,-1.6396484375,31.824117647058824,311.54718282872415
0.4224350585937499,0.1186083984375,0.5088427734375001,0.6718930710973143,0.72216796875,7.0380859375,-1.7490234375,31.824117647058824,311.43771679220146
0.4077866210937499,0.0844287109375,0.5244677734375001,0.6696899140259724,0.62158203125,4.83349609375,-1.62060546875,31.91823529411765,311.43771679220146
0.3867905273437499,0.0722216796875,0.6743701171875001,0.7807675313531055,0.26025390625,2.61181640625,-1.3134765625,31.824117647058824,311.43771679220146
0.3970444335937499,0.0487841796875,0.5859912109375001,0.7095138319522473,0.14599609375,0.58837890625,-1.25439453125,31.91823529411765,311.43771679220146
0.4307358398437499,0.0507373046875,0.6328662109375001,0.7672204890116276,0.08984375,-1.15869140625,-1.30810546875,31.824117647058824,311.43771679220146
0.4707749023437499,0.0590380859375,0.5645068359375001,0.737416077996743,0.00146484375,-2.8779296875,-1.513671875,31.871176470588235,311.43771679220146
0.53913427734375,0.0722216796875,0.7534716796875001,0.9293015184077524,0.33642578125,-4.5498046875,-2.06884765625,31.77705882352941,311.43771679220146
0.57770849609375,0.0458544921875,0.7915576171875001,0.9810266062855936,0.623046875,-5.81005859375,-2.6611328125,31.824117647058824,311.6012633169209
0.61774755859375,0.0033740234375,0.8638232421875001,1.061985886877043,0.54052734375,-6.568359375,-3.59423828125,31.824117647058824,311.6012633169209
0.61530615234375,-0.0381298828125,0.9043505859375,1.094488707735655,0.5517578125,-6.76171875,-4.25537109375,31.871176470588235,311.6012633169209
0.60212255859375,-0.0713330078125,0.9644091796875,1.1391773520556747,0.52783203125,-6.46875,-4.86474609375,31.824117647058824,311.6012633169209
0.56550146484375,-0.0942822265625,1.0142138671875005,1.165036829195298,0.4775390625,-5.44873046875,-4.984375,31.77705882352941,311.6012633169209
0.56061865234375,-0.1157666015625,1.0674365234375005,1.2112456030720566,0.3330078125,-4.228515625,-4.85107421875,31.824117647058824,311.6012633169209
0.55231787109375,-0.1191845703125,1.1187060546875005,1.2533009332656622,0.142578125,-2.65673828125,-4.5244140625,31.77705882352941,311.6012633169209
0.51472021484375,-0.2349072265625,1.1563037109375005,1.287305937447628,-0.06396484375,-0.806640625,-4.07568359375,31.871176470588235,311.6540394759239
0.51325537109375,-0.1177197265625,1.1943896484375005,1.3053182149472933,-0.279296875,0.76416015625,-3.6943359375,31.824117647058824,311.6540394759239
0.50641943359375,-0.1074658203125,1.2051318359375005,1.3116220062376749,-0.5556640625,2.279296875,-3.48681640625,31.871176470588235,311.6540394759239
0.4990952148437499,-0.0981884765625,1.1802294921875005,1.2851765110827222,-0.85205078125,3.6171875,-3.228515625,31.824117647058824,311.6540394759239
0.4732163085937499,-0.0913525390625,1.1450732421875005,1.2423653613515049,-1.14794921875,4.5732421875,-3.265625,31.77705882352941,311.6540394759239
0.57966162109375,-0.0679150390625,1.0981982421875005,1.243647629613634,-1.4765625,5.02587890625,-3.3466796875,31.91823529411765,311.6540394759239
0.4126694335937499,-0.0493603515625,1.0537646484375005,1.1327631879724769,-1.6298828125,5.1494140625,-3.42822265625,31.77705882352941,311.6540394759239
0.3623764648437499,-0.0210400390625,1.0088427734375005,1.0721581632545976,-1.9541015625,5.0234375,-3.43701171875,31.824117647058824,311.63410342606875
0.3213608398437499,0.0111865234375,0.9590380859375,1.011509751792024,-2.021484375,4.85205078125,-3.4169921875,31.871176470588235,311.63410342606875
0.2964584960937499,0.0492724609375,0.9292529296875,0.9766403752895984,-1.953125,4.60107421875,-3.48681640625,31.824117647058824,311.63410342606875
0.2969467773437499,0.0756396484375,0.8794482421875001,0.9313044376986888,-1.7890625,4.26806640625,-3.658203125,31.824117647058824,311.63410342606875
0.2857163085937499,0.0927294921875,0.8433154296875001,0.8952170025568121,-1.59033203125,3.97021484375,-3.931640625,31.73,311.63410342606875
0.2935288085937499,0.1151904296875,0.8086474609375001,0.8679508699498624,-1.3095703125,3.5400390625,-4.34619140625,31.871176470588235,311.63410342606875
0.3169663085937499,0.1186083984375,0.8047412109375001,0.8730085964895254,-1.11865234375,2.955078125,-4.8671875,31.91823529411765,311.63410342606875
0.3150131835937499,0.1273974609375,0.7881396484375001,0.8582700765670312,-0.740234375,1.861328125,-5.34423828125,31.871176470588235,311.6115573332252
0.3115952148437499,0.1308154296875,0.6787646484375001,0.7582385525191468,-0.32373046875,0.57177734375,-5.6474609375,31.824117647058824,311.6115573332252
0.3247788085937499,0.1210498046875,0.8203662109375001,0.8905812988011866,-0.134765625,-1.29052734375,-5.89892578125,31.824117647058824,311.6115573332252
0.3501694335937499,0.1068896484375,0.8599169921875001,0.934612894528669,-0.08349609375,-3.26220703125,-6.05517578125,31.871176470588235,311.6115573332252
0.3843491210937499,0.1005419921875,0.9082568359375,0.9913442485361824,-0.18994140625,-5.07958984375,-6.3203125,31.871176470588235,311.6115573332252
0.4214584960937499,0.0873583984375,0.9644091796875,1.056098394834822,-0.3330078125,-6.6064453125,-6.62548828125,31.77705882352941,311.6115573332252
0.4458725585937499,0.0707568359375,1.0107958984375005,1.107030811060332,-0.6083984375,-7.486328125,-7.0966796875,31.824117647058824,311.6115573332252
0.4536850585937499,0.0414599609375,1.0508349609375005,1.1453397643846437,-0.9736328125,-7.55517578125,-7.328125,31.824117647058824,311.7519070123449
0.4409897460937499,0.0375537109375,1.1045458984375005,1.1899175934156585,-1.2802734375,-6.876953125,-7.35498046875,31.824117647058824,311.7519070123449
0.4092514648437499,0.0272998046875,1.1343310546875005,1.206208515324439,-1.494140625,-5.41748046875,-7.36865234375,31.91823529411765,311.7519070123449
0.3936264648437499,0.0263232421875,1.1606982421875005,1.2259099136240814,-1.5556640625,-3.35009765625,-7.05322265625,31.824117647058824,311.7519070123449
0.3955795898437499,0.0121630859375,1.1602099609375005,1.2258541128613425,-1.5927734375,-1.1396484375,-6.927734375,31.824117647058824,311.7519070123449
0.4029038085937499,0.0023974609375,1.1480029296875005,1.2166544099987389,-1.625,0.80322265625,-6.8037109375,31.824117647058824,311.7519070123449
0.3823959960937499,-0.0078564453125,1.1304248046875005,1.1933769985273943,-1.65771484375,2.27490234375,-6.67138671875,31.871176470588235,311.7519070123449
0.3750717773437499,-0.0205517578125,1.0830615234375005,1.146352247984773,-1.65380859375,3.5009765625,-6.60302734375,31.824117647058824,311.51434287103666
0.3740952148437499,-0.0444775390625,1.0420458984375005,1.1080546627763743,-1.63037109375,4.166015625,-6.50732421875,31.824117647058824,311.51434287103666
0.3897202148437499,-0.0854931640625,0.8291552734375001,0.9201572661390508,-1.87353515625,3.0517578125,-6.6318359375,31.77705882352941,311.51434287103666
0.4087631835937499,-0.0830517578125,0.7900927734375001,0.8934380366738394,-1.8134765625,2.0048828125,-6.5634765625,31.871176470588235,311.51434287103666
0.4243881835937499,-0.0659619140625,0.7642138671875001,0.8766294195853029,-1.73974609375,0.66748046875,-6.19189453125,31.871176470588235,311.51434287103666
0.4732163085937499,-0.0449658203125,0.7554248046875001,0.8925369657625497,-1.64013671875,-1.3427734375,-5.71875,31.871176470588235,311.7113845036626
0.50397802734375,-0.0195751953125,0.7412646484375001,0.896577001344553,-1.60595703125,-3.45751953125,-5.27685546875,31.824117647058824,311.7113845036626
0.53815771484375,0.0258349609375,0.7744677734375001,0.9434413089035948,-1.47021484375,-5.888671875,-4.80419921875,31.68294117647059,311.7113845036626
0.57722021484375,0.0727099609375,0.8374560546875001,1.0197070944033635,-1.26611328125,-8.0478515625,-4.47412109375,31.824117647058824,311.7113845036626
0.60798193359375,0.1156787109375,0.8076708984375001,1.0175243859109202,-0.99560546875,-9.65966796875,-4.41455078125,31.824117647058824,311.7113845036626
0.64411474609375,0.1444873046875,1.0059130859375005,1.2031714440642196,-0.43115234375,-10.62109375,-4.5244140625,31.824117647058824,311.7113845036626
0.63972021484375,0.1547412109375,1.0630419921875005,1.250297993598369,-0.22802734375,-10.5595703125,-4.89013671875,31.77705882352941,311.7113845036626
0.65046240234375,0.1508349609375,1.1016162109375005,1.288181197853825,-0.28125,-9.83251953125,-5.45361328125,31.824117647058824,311.7113845036626
0.65827490234375,0.2592333984375,1.1357958984375005,1.338118128129418,-0.470703125,-8.10595703125,-5.8662109375,31.77705882352941,311.37334270222675
0.67048193359375,0.1020068359375,1.0908740234375005,1.2845067352350916,-0.78955078125,-5.70849609375,-6.08740234375,31.871176470588235,311.37334270222675
0.66901708984375,0.0658740234375,1.0625537109375005,1.2573558136398373,-1.248046875,-2.6298828125,-6.14453125,31.77705882352941,311.37334270222675
0.68024755859375,0.0321826171875,1.0298388671875005,1.2346418728488957,-1.509765625,0.07568359375,-5.8251953125,31.91823529411765,311.37334270222675
0.67292333984375,-0.0132275390625,0.9517138671875,1.1656586438975622,-2.0244140625,2.11669921875,-5.4990234375,31.824117647058824,311.37334270222675
0.69050146484375,-0.0352001953125,1.0474169921875005,1.2550353310662263,-2.3349609375,3.2666015625,-4.81787109375,31.824117647058824,311.37334270222675
0.68171240234375,-0.0435009765625,0.8848193359375001,1.117823506516148,-2.58154296875,4.0654296875,-4.16796875,31.824117647058824,311.37334270222675
0.70075537109375,-0.0200634765625,0.8330615234375001,1.0887847055504232,-2.775390625,4.2099609375,-3.7314453125,31.871176470588235,311.37334270222675
0.71638037109375,0.0180224609375,0.7949755859375001,1.0702858624794285,-2.84521484375,3.796875,-3.18701171875,31.77705882352941,311.5922769480625
0.73395849609375,0.0478076171875,0.7720263671875001,1.0663045314927977,-2.9990234375,3.13916015625,-3.06396484375,31.871176470588235,311.5922769480625
0.77741552734375,0.0922412109375,0.7705615234375001,1.098475491102418,-2.76953125,2.1318359375,-3.14990234375,31.824117647058824,311.5922769480625
0.81550146484375,0.1239794921875,0.7529833984375001,1.1168695322050195,-2.5693359375,0.89697265625,-3.62841796875,31.824117647058824,311.5922769480625
0.82819677734375,0.1586474609375,0.7588427734375001,1.134425525833585,-2.43212890625,-0.1748046875,-4.1923828125,31.871176470588235,311.5922769480625
0.82038427734375,0.1898974609375,0.7637255859375001,1.1368237237139776,-2.326171875,-1.41455078125,-4.80908203125,31.871176470588235,311.5922769480625
0.80231787109375,0.2128466796875,0.7871630859375001,1.143959526903399,-2.1728515625,-2.56103515625,-5.20166015625,31.77705882352941,311.5922769480625
0.77497412109375,0.2265185546875,0.7964404296875001,1.134113266840466,-2.06396484375,-3.33447265625,-5.38818359375,31.824117647058824,311.5922769480625
0.74518896484375,0.2274951171875,0.8208544921875001,1.1317520572163553,-2.02880859375,-3.7080078125,-5.41552734375,31.824117647058824,311.5922769480625
0.70661474609375,0.2167529296875,0.8345263671875001,1.1147737391311363,-2.0771484375,-3.52392578125,-5.42333984375,31.91823529411765,311.63737404240493
0.67927099609375,0.2143115234375,0.8442919921875001,1.1046119152373086,-2.13916015625,-3.20654296875,-5.5458984375,31.77705882352941,311.63737404240493
0.65681005859375,0.2089404296875,0.8633349609375001,1.1047184306441515,-2.5078125,-2.318359375,-5.79736328125,31.871176470588235,311.63737404240493
0.63923193359375,0.2025927734375,0.8530810546875001,1.0850845969977825,-3.08837890625,-1.140625,-6.18798828125,31.871176470588235,311.63737404240493
0.64313818359375,0.1947802734375,0.8511279296875001,1.0844283428658554,-3.40087890625,-0.0966796875,-6.669921875,31.824117647058824,311.63737404240493
0.64313818359375,0.1737841796875,0.8272021484375001,1.0621163112792973,-3.958984375,1.10986328125,-7.42822265625,31.824117647058824,311.63737404240493
0.65632177734375,0.1645068359375,0.8149951171875001,1.0592628642245954,-4.33349609375,1.90869140625,-7.9521484375,31.77705882352941,311.63737404240493
0.66169287109375,0.1503466796875,0.7803271484375001,1.034094791756513,-4.58349609375,2.72216796875,-8.333984375,31.871176470588235,311.63737404240493
0.67829443359375,0.1410693359375,0.7651904296875001,1.0322307348027642,-4.70947265625,3.20166015625,-8.51220703125,31.824117647058824,311.68116227638853
0.69001318359375,0.1386279296875,0.7485888671875001,1.0274829383010158,-4.66748046875,3.2998046875,-8.5205078125,31.871176470588235,311.68116227638853
0.69294287109375,0.1498583984375,0.7500537109375001,1.0320891102385574,-4.45751953125,3.14111328125,-8.36474609375,31.73,311.68116227638853
0.68464208984375,0.1518115234375,0.7354052734375001,1.0161704807923306,-4.04345703125,2.81640625,-8.09326171875,31.871176470588235,311.68116227638853
0.69001318359375,0.1586474609375,0.7305224609375001,1.0173250593243437,-3.71875,2.21240234375,-7.83251953125,31.77705882352941,311.68116227638853
0.70710302734375,0.1625537109375,0.7319873046875001,1.0306424280233757,-3.427734375,1.28662109375,-7.64111328125,31.871176470588235,311.68116227638853
0.72419287109375,0.1664599609375,0.7329638671875001,1.04374338979501,-3.22900390625,0.3037109375,-7.58349609375,31.824117647058824,311.68116227638853
0.76227880859375,0.1772021484375,0.7515185546875001,1.0850113923280076,-3.00244140625,-0.55419921875,-7.67431640625,31.871176470588235,311.68116227638853
0.78864599609375,0.1772021484375,0.7769091796875001,1.1211382528699452,-2.7802734375,-1.70703125,-7.89599609375,31.824117647058824,311.68116227638853
0.80329443359375,0.1708544921875,0.7715380859375001,1.1268292783715967,-2.6865234375,-2.4208984375,-8.14892578125,31.77705882352941,311.9077758932441
0.80182958984375,0.1610888671875,0.7866748046875001,1.1347852495564368,-2.64697265625,-2.6357421875,-8.29931640625,31.824117647058824,311.9077758932441
0.78278662109375,0.1483935546875,0.8076708984375001,1.1345077440982942,-2.72900390625,-2.83544921875,-8.2509765625,31.91823529411765,311.9077758932441
0.75397802734375,0.1405810546875,0.8110888671875001,1.116293442213885,-2.8603515625,-2.7392578125,-8.10791015625,31.871176470588235,311.9077758932441
0.74763037109375,0.1220263671875,0.8281787109375001,1.1223731925348432,-3.04736328125,-2.27099609375,-7.9453125,31.824117647058824,311.9077758932441
0.74177099609375,0.1078662109375,0.8369677734375001,1.12355435288234,-3.19970703125,-1.986328125,-7.85791015625,31.871176470588235,311.9077758932441
0.72028662109375,0.0922412109375,0.8550341796875001,1.121786390519935,-3.3125,-1.57177734375,-7.83935546875,31.91823529411765,311.9077758932441
0.72370458984375,0.0771044921875,0.8696826171875001,1.1340376055116084,-3.3505859375,-1.35791015625,-7.935546875,31.91823529411765,311.9077758932441
0.72175146484375,0.0619677734375,0.8638232421875001,1.127366744095383,-3.31591796875,-1.15283203125,-8.0849609375,31.77705882352941,311.9077758932441
0.71931005859375,0.0497607421875,0.8628466796875001,1.1244498585997236,-3.21630859375,-0.921875,-8.21240234375,31.824117647058824,311.7790308148143
0.71931005859375,0.0434130859375,0.8472216796875001,1.1122392867352195,-3.0576171875,-0.74365234375,-8.2578125,31.824117647058824,311.7790308148143
0.70173193359375,0.0312060546875,0.8286669921875001,1.0863197081961924,-2.98876953125,-0.34326171875,-8.17578125,31.77705882352941,311.7790308148143
0.69196630859375,0.0272998046875,0.8154833984375001,1.0698485054866465,-2.63232421875,-0.1494140625,-7.923828125,31.824117647058824,311.7790308148143
0.68073583984375,0.0380419921875,0.7886279296875001,1.0424886034391752,-2.39697265625,-0.00048828125,-7.7255859375,31.77705882352941,311.7790308148143
0.67780615234375,0.0443896484375,0.7808154296875001,1.0349223914291923,-2.17919921875,-0.361328125,-7.2919921875,31.824117647058824,311.7790308148143
0.66755224609375,0.0492724609375,0.7764208984375001,1.0251259377277226,-1.98681640625,-0.857421875,-7.0380859375,31.824117647058824,311.7790308148143
0.66706396484375,0.0888232421875,0.7656787109375001,1.0193761768496823,-1.85791015625,-1.60888671875,-6.7333984375,31.73,311.7790308148143
0.66608740234375,0.1171435546875,0.7598193359375001,1.017212103364078,-1.7841796875,-2.42138671875,-6.44189453125,31.871176470588235,311.39084075794034
0.67682958984375,0.1479052734375,0.7793505859375001,1.0427663206106177,-1.79931640625,-3.30224609375,-6.21337890625,31.824117647058824,311.39084075794034
0.68952490234375,0.1840380859375,0.6841357421875001,0.9886133327879704,-1.76416015625,-4.04248046875,-6.08251953125,31.965294117647066,311.39084075794034
0.70222021484375,0.1981982421875,0.8442919921875001,1.1158963847120194,-1.6796875,-4.5634765625,-5.91259765625,31.965294117647066,311.39084075794034
0.69294287109375,0.2035693359375,0.8731005859375001,1.1330997000697205,-1.56884765625,-4.72998046875,-5.92626953125,31.91823529411765,311.39084075794034
0.69489599609375,0.2074755859375,0.8970263671875001,1.1535089369297655,-1.4736328125,-4.595703125,-5.99609375,31.824117647058824,311.39084075794034
0.67634130859375,0.1972216796875,0.8037646484375001,1.0688178360819598,-1.4130859375,-4.349609375,-5.8486328125,31.68294117647059,311.39084075794034
0.66559912109375,0.1903857421875,0.9302294921875,1.159567086875301,-1.39013671875,-3.75,-5.81396484375,31.824117647058824,311.39084075794034
0.64899755859375,0.1967333984375,0.9307177734375,1.1515804074895828,-1.3681640625,-2.7939453125,-5.7763671875,31.77705882352941,311.83311107458576
0.64313818359375,0.1889208984375,1.0488818359375005,1.2447774639759197,-1.3603515625,-2.087890625,-5.7509765625,31.77705882352941,311.83311107458576
0.63337255859375,0.2006396484375,0.8999560546875001,1.1186321856952837,-1.388671875,-1.24267578125,-5.70458984375,31.824117647058824,311.83311107458576
0.62653662109375,0.2069873046875,0.8814013671875001,1.101026907915226,-1.4296875,-0.4150390625,-5.580078125,31.824117647058824,311.83311107458576
0.62165380859375,0.2133349609375,0.8369677734375001,1.0641805848023378,-1.53857421875,0.10205078125,-5.439453125,31.871176470588235,311.83311107458576
0.63141943359375,0.2113818359375,0.8159716796875001,1.0531773657538412,-1.64453125,0.40380859375,-5.2578125,31.91823529411765,311.83311107458576
0.65046240234375,0.2226123046875,0.8076708984375001,1.0606553894851622,-1.705078125,0.50390625,-5.248046875,31.824117647058824,311.83311107458576
0.66511083984375,0.2211474609375,0.7876513671875001,1.0543591916368442,-1.71142578125,0.39453125,-4.9501953125,31.824117647058824,311.83311107458576
0.68122412109375,0.2118701171875,0.7881396484375001,1.0630707197341969,-1.6513671875,0.2001953125,-4.7666015625,31.871176470588235,311.83311107458576
0.68073583984375,0.1874560546875,0.7822802734375001,1.0538042903197105,-1.556640625,0.0341796875,-4.4638671875,31.871176470588235,311.59555297763006
0.67389990234375,0.1825732421875,0.7793505859375001,1.0463562504916268,-1.6162109375,-0.0234375,-4.154296875,31.91823529411765,311.59555297763006
0.67048193359375,0.1552294921875,0.7725146484375001,1.0346115698999878,-1.43896484375,-0.04248046875,-3.810546875,31.824117647058824,311.59555297763006
0.66706396484375,0.1444873046875,0.7876513671875001,1.0422310639398829,-1.38671875,-0.0048828125,-3.54638671875,31.824117647058824,311.59555297763006
0.66852880859375,0.1249560546875,0.7900927734375001,1.042492865280624,-1.25146484375,-0.3037109375,-3.3935546875,31.824117647058824,311.59555297763006
0.66706396484375,0.1151904296875,0.7998583984375001,1.0478628850358511,-1.37451171875,-0.5205078125,-3.31787109375,31.824117647058824,311.59555297763006
0.67634130859375,0.1083544921875,0.8237841796875001,1.0713536467436533,-1.45654296875,-0.73388671875,-3.32275390625,31.871176470588235,311.59555297763006
0.68024755859375,0.1117724609375,0.8374560546875001,1.0846946425282715,-1.55322265625,-0.884765625,-3.3486328125,31.824117647058824,311.59555297763006
0.68024755859375,0.1064013671875,0.8481982421875001,1.0924734550377375,-1.71533203125,-0.78271484375,-3.380859375,31.73,311.59555297763006
0.67829443359375,0.1166552734375,0.8574755859375001,1.0995254303306965,-1.95263671875,-0.4765625,-3.40478515625,31.824117647058824,311.3682893699149
0.67097021484375,0.1054248046875,0.8804248046875001,1.111963693364081,-2.1123046875,0.3408203125,-3.3984375,31.77705882352941,311.3682893699149
0.67731787109375,0.1029833984375,0.8945849609375001,1.1267862846131271,-2.16845703125,1.19677734375,-3.26953125,31.77705882352941,311.3682893699149
0.65534521484375,0.0927294921875,0.9126513671875,1.1273901841727936,-2.125,1.7626953125,-2.96435546875,31.73,311.3682893699149
0.63386083984375,0.0839404296875,0.9126513671875,1.1143419933093963,-2.01953125,2.31494140625,-2.62353515625,31.871176470588235,311.3682893699149
0.61286474609375,0.0761279296875,0.9092333984375,1.0991378582858782,-1.892578125,2.43408203125,-2.11474609375,31.871176470588235,311.3682893699149
0.62263037109375,0.0697802734375,0.8984912109375001,1.095364926269455,-1.70947265625,2.2685546875,-1.74169921875,31.77705882352941,311.3682893699149
0.62604833984375,0.0565966796875,0.8945849609375001,1.0933535385721826,-1.50439453125,1.9873046875,-1.43408203125,31.871176470588235,311.3682893699149
0.63337255859375,0.0605029296875,0.8691943359375001,1.0771815984810529,-1.34716796875,1.25048828125,-1.333984375,31.871176470588235,311.2073691988024
0.63727880859375,0.0683154296875,0.8491748046875001,1.0639027806769334,-1.26513671875,0.68994140625,-1.228515625,31.824117647058824,311.2073691988024
0.62946630859375,0.0790576171875,0.8384326171875001,1.0514024890848834,-1.26025390625,0.35400390625,-1.072265625,31.824117647058824,311.2073691988024
0.63190771484375,0.0897998046875,0.8135302734375001,1.034022664548634,-1.3388671875,-0.1220703125,-0.83740234375,31.91823529411765,311.2073691988024
0.63190771484375,0.1049365234375,0.8276904296875001,1.046609039434725,-1.41943359375,-0.35498046875,-0.544921875,31.871176470588235,311.2073691988024
0.64020849609375,0.1171435546875,0.8232958984375001,1.0494787597943347,-1.48046875,-0.4638671875,-0.357421875,31.77705882352941,311.2073691988024
0.64509130859375,0.1225146484375,0.8203662109375001,1.050787017217529,-1.55029296875,-0.484375,0.0576171875,31.91823529411765,311.2073691988024
0.64313818359375,0.1366748046875,0.8232958984375001,1.0536236813097193,-1.5986328125,-0.45458984375,0.2861328125,31.824117647058824,311.2073691988024
0.66022802734375,0.1317919921875,0.8394091796875001,1.0760473726739967,-1.748046875,-0.5400390625,0.3779296875,31.77705882352941,311.2073691988024
0.69001318359375,0.1181201171875,0.8779833984375001,1.122909347876948,-1.56005859375,-0.77001953125,0.30078125,31.91823529411765,311.3792364872462
0.71296240234375,0.1034716796875,0.8945849609375001,1.1486096064323474,-1.451171875,-0.96875,0.0654296875,31.73,311.3792364872462
0.74079443359375,0.0849169921875,1.0513232421875005,1.28890179919546,-1.34423828125,-1.017578125,-0.2900390625,31.824117647058824,311.3792364872462
0.74811865234375,0.0717333984375,0.9531787109375,1.2138273573373175,-1.25341796875,-0.7998046875,-0.703125,31.824117647058824,311.3792364872462
0.72126318359375,0.0546435546875,0.9741748046875,1.2133519885691069,-1.13720703125,-0.05908203125,-0.93603515625,31.824117647058824,311.3792364872462
0.66315771484375,0.0429248046875,0.9897998046875,1.1921930829247658,-1.38037109375,1.03662109375,-0.990234375,31.77705882352941,311.3792364872462
0.58845068359375,0.0522021484375,1.0064013671875005,1.1669802839809729,-1.38037109375,2.474609375,-0.55615234375,31.91823529411765,311.3792364872462
0.54059912109375,0.0688037109375,1.0010302734375005,1.139755661843565,-1.45458984375,3.5546875,-0.2568359375,31.824117647058824,311.3792364872462
0.50690771484375,0.0883349609375,0.9722216796875,1.0999879504550611,-1.2587890625,4.5517578125,-0.0986328125,31.68294117647059,311.62773824114737
0.51520849609375,0.0844287109375,0.9434130859375,1.078237567698264,-1.1083984375,5.0791015625,-0.1123046875,31.824117647058824,311.62773824114737
0.50348974609375,0.0858935546875,0.9009326171875,1.035644344295242,-1.14990234375,4.828125,0.28076171875,31.77705882352941,311.62773824114737
0.4873764648437499,0.0937060546875,0.8809130859375001,1.0111006419464963,-1.0908203125,4.474609375,0.693359375,31.77705882352941,311.62773824114737
0.4873764648437499,0.1029833984375,0.8584521484375001,0.9925127152809116,-0.8134765625,4.19970703125,0.99072265625,31.77705882352941,311.62773824114737
0.4966538085937499,0.1151904296875,0.8442919921875001,0.9862873864924998,-0.41064453125,3.98291015625,1.2021484375,31.824117647058824,311.62773824114737
0.50837255859375,0.1186083984375,0.8433154296875001,0.9918122425439592,-0.1181640625,3.37451171875,1.36865234375,31.91823529411765,311.62773824114737
0.55622412109375,0.1107958984375,0.8115771484375001,0.9901103331765766,0.36767578125,2.4677734375,1.31201171875,31.824117647058824,311.62773824114737
0.60847021484375,0.0810107421875,0.8096240234375001,1.0160166347205617,0.68994140625,1.3544921875,1.02880859375,31.871176470588235,311.42236821560493
0.64899755859375,0.0531787109375,0.8018115234375001,1.0329218389959556,0.92333984375,0.45263671875,0.65283203125,31.871176470588235,311.42236821560493
0.65436865234375,0.0312060546875,0.7832568359375001,1.0211089178252035,1.08837890625,-0.2900390625,0.3662109375,31.824117647058824,311.42236821560493
0.63581396484375,-0.0268994140625,0.7573779296875001,0.989244309938126,1.24755859375,-1.08642578125,-0.01123046875,31.824117647058824,311.42236821560493
0.61579443359375,-0.0605908203125,0.7402880859375001,0.964831841375582,1.00048828125,-1.8115234375,-0.37451171875,31.91823529411765,311.42236821560493
0.56891943359375,-0.0874462890625,0.7578662109375001,0.951670830209794,0.693359375,-2.5244140625,-0.56298828125,31.871176470588235,311.42236821560493
0.51716162109375,-0.0806103515625,0.7754443359375001,0.9355576354500538,0.34716796875,-3.71044921875,-0.81787109375,31.77705882352941,311.42236821560493
0.4610092773437499,-0.0654736328125,0.8355029296875001,0.956494378398048,-0.3564453125,-4.76904296875,-1.25439453125,31.871176470588235,311.42236821560493
0.4463608398437499,-0.0303173828125,0.9224169921875,1.0251879098598715,-0.90625,-5.90478515625,-2.181640625,31.871176470588235,311.42236821560493
0.4512436523437499,0.0214404296875,1.0420458984375005,1.1357553346809024,-1.5830078125,-6.642578125,-3.43212890625,31.871176470588235,311.7796866203418
0.4849350585937499,0.0663623046875,1.1504443359375005,1.2502352325172397,-1.98193359375,-6.9951171875,-4.76025390625,31.871176470588235,311.7796866203418
0.53913427734375,0.0981005859375,1.2222216796875005,1.339445903449028,-2.3447265625,-6.548828125,-5.93310546875,31.77705882352941,311.7796866203418
0.57331396484375,0.1103076171875,1.2656787109375005,1.3938433455789991,-2.47998046875,-5.35693359375,-6.53173828125,31.91823529411765,311.7796866203418
0.60065771484375,0.1249560546875,1.2676318359375005,1.408294776489162,-2.3232421875,-3.404296875,-6.55419921875,31.824117647058824,311.7796866203418
0.61725927734375,0.1210498046875,1.2383349609375005,1.3889332403545862,-1.90234375,-0.927734375,-5.93408203125,31.871176470588235,311.7796866203418
0.65241552734375,0.1000537109375,1.1802294921875005,1.3522567876038756,-1.3291015625,1.19775390625,-4.908203125,31.824117647058824,311.7796866203418
0.67585302734375,0.0478076171875,1.1050341796875005,1.2962111792098097,-1.115234375,2.8662109375,-3.6357421875,31.91823529411765,311.7796866203418
0.66413427734375,-0.0005322265624999,1.0298388671875005,1.2254153230550255,-0.853515625,3.8232421875,-2.58251953125,31.91823529411765,311.7796866203418
0.65632177734375,-0.0439892578125,0.9478076171875,1.1537038655639498,-0.89013671875,4.25,-1.798828125,31.871176470588235,311.49834152307443
0.63434912109375,-0.0806103515625,0.8940966796875001,1.099229597872826,-0.98974609375,4.51025390625,-1.5966796875,31.871176470588235,311.49834152307443
0.58600927734375,-0.1055126953125,0.8301318359375001,1.0215961369553122,-1.1142578125,4.7109375,-1.78515625,31.73,311.49834152307443
0.52253271484375,-0.1172314453125,0.7773974609375001,0.9439970667984672,-1.29541015625,4.63134765625,-2.220703125,31.73,311.49834152307443
0.4419663085937499,-0.1157666015625,0.7310107421875001,0.8620399231838606,-1.6015625,4.361328125,-2.806640625,31.871176470588235,311.49834152307443
0.3848374023437499,-0.1133251953125,0.7173388671875001,0.8218987020996855,-1.75390625,3.57275390625,-3.43359375,31.77705882352941,311.49834152307443
0.3394272460937499,-0.1016064453125,0.7061083984375001,0.790015060276575,-2.05224609375,2.6474609375,-3.884765625,31.871176470588235,311.49834152307443
0.3189194335937499,-0.0723095703125,0.7070849609375001,0.7790426310969911,-2.1083984375,1.5166015625,-4.25927734375,31.824117647058824,311.32581502604984
0.3291733398437499,-0.0542431640625,0.7095263671875001,0.7840440512150395,-2.11572265625,0.47509765625,-4.67578125,31.91823529411765,311.32581502604984
0.3765366210937499,-0.0361767578125,0.7139208984375001,0.8079428408348761,-2.21337890625,-0.9091796875,-4.9072265625,31.824117647058824,311.32581502604984
0.4405014648437499,-0.0005322265624999,0.7290576171875001,0.8518021090451224,-2.25439453125,-2.1767578125,-5.109375,31.91823529411765,311.32581502604984
0.51667333984375,0.0482958984375,0.7700732421875001,0.9285992850763716,-2.4453125,-3.39599609375,-5.47802734375,31.77705882352941,311.32581502604984
0.60505224609375,0.0790576171875,0.8242724609375001,1.025555175111715,-2.345703125,-4.556640625,-6.01806640625,31.871176470588235,311.32581502604984
0.69391943359375,0.1010302734375,0.8721240234375001,1.1190762300785144,-2.146484375,-5.67578125,-6.75439453125,31.871176470588235,311.32581502604984
0.73493505859375,0.0897998046875,0.9404833984375,1.1969555413667885,-1.791015625,-6.40673828125,-7.46923828125,31.871176470588235,311.5826390643546
0.74128271484375,0.0736865234375,0.9946826171875,1.2427080413344884,-1.345703125,-6.83251953125,-7.91064453125,31.824117647058824,311.5826390643546
0.72321630859375,0.0365771484375,1.0430224609375005,1.2697541379432116,-0.8193359375,-6.640625,-8.10791015625,31.824117647058824,311.5826390643546
0.69538427734375,-0.0205517578125,1.0508349609375005,1.2602522696089822,-0.5244140625,-6.1181640625,-8.03076171875,31.824117647058824,311.5826390643546
0.69929052734375,-0.0810986328125,1.0513232421875005,1.2652528559305425,-0.619140625,-4.9052734375,-7.79638671875,31.871176470588235,311.5826390643546
0.69782568359375,-0.1240673828125,1.0181201171875005,1.2405329391769158,-1.0888671875,-3.30078125,-7.505859375,31.91823529411765,311.5826390643546
0.58356787109375,-0.1377392578125,1.0064013671875005,1.17148080444901,-1.6806640625,-1.05810546875,-7.41552734375,31.824117647058824,311.5826390643546
0.74372412109375,-0.1230908203125,0.9658740234375,1.2252304058801426,-2.58251953125,1.205078125,-7.57421875,31.871176470588235,311.7094248300618
0.74811865234375,-0.0874462890625,0.9351123046875,1.2007345226291275,-3.13916015625,3.1279296875,-7.76904296875,31.91823529411765,311.7094248300618
0.72614599609375,-0.0503369140625,0.9282763671875,1.1796265622811068,-3.724609375,4.7373046875,-7.72607421875,31.871176470588235,311.7094248300618
0.67487646484375,-0.0083447265625,0.8970263671875001,1.122579253634684,-3.97705078125,5.30810546875,-7.20263671875,31.871176470588235,311.7094248300618
0.61335302734375,0.0399951171875,0.8833544921875001,1.0761583082513562,-3.890625,5.4521484375,-6.48388671875,31.824117647058824,311.7094248300618
0.57380224609375,0.0717333984375,0.8735888671875001,1.047641258708135,-3.60791015625,4.75439453125,-5.154296875,31.77705882352941,311.7094248300618
0.56354833984375,0.1024951171875,0.8691943359375001,1.0409566628893625,-2.890625,3.65625,-3.93505859375,31.871176470588235,311.7094248300618
0.57477880859375,0.1249560546875,0.8501513671875001,1.0337998072848975,-2.36181640625,2.43505859375,-3.169921875,31.965294117647066,311.8388283298176
0.57917333984375,0.1469287109375,0.8213427734375001,1.0156937309846523,-1.71337890625,1.177734375,-2.7412109375,31.871176470588235,311.8388283298176
0.59870458984375,0.1508349609375,0.7944873046875001,1.0061850966152297,-1.11767578125,0.28173828125,-2.80615234375,31.824117647058824,311.8388283298176
0.63190771484375,0.1488818359375,0.7715380859375001,1.0083373340322532,-0.5693359375,-0.21337890625,-3.23193359375,31.824117647058824,311.8388283298176
0.66999365234375,0.1293505859375,0.7358935546875001,1.0035748064264551,-0.39306640625,-0.47509765625,-3.77978515625,31.871176470588235,311.8388283298176
0.68806005859375,0.1039599609375,0.7061083984375001,0.991374494353235,-0.4423828125,-0.51220703125,-4.62451171875,31.77705882352941,311.8388283298176
0.70661474609375,0.0751513671875,0.7046435546875001,1.0007370616450262,-0.51904296875,-0.544921875,-5.322265625,31.871176470588235,311.8388283298176
0.72272802734375,0.0443896484375,0.7144091796875001,1.0171955163184507,-0.75537109375,-0.8359375,-5.716796875,31.91823529411765,311.9360448876445
0.72028662109375,0.0365771484375,0.7441943359375001,1.0363280918492592,-1.10498046875,-1.48779296875,-5.84130859375,31.824117647058824,311.9360448876445
0.70124365234375,0.0473193359375,0.7881396484375001,1.0560046803613867,-1.14208984375,-2.36376953125,-5.53662109375,31.871176470588235,311.9360448876445
0.68806005859375,0.0546435546875,0.8193896484375001,1.0713598640361,-1.5,-3.12353515625,-5.06396484375,31.824117647058824,311.9360448876445
0.69587255859375,0.0707568359375,0.8628466796875001,1.110742787635122,-1.7294921875,-3.630859375,-4.5078125,31.77705882352941,311.9360448876445
0.69245458984375,0.1049365234375,0.9087451171875,1.1473110829060045,-1.86865234375,-4.03662109375,-4.05517578125,31.824117647058824,311.9360448876445
0.68952490234375,0.1493701171875,0.9585498046875,1.1901990383659409,-1.75244140625,-3.77392578125,-3.71337890625,31.824117647058824,311.9360448876445
0.67829443359375,0.1820849609375,0.9981005859375,1.2204274051710975,-1.8701171875,-3.138671875,-3.6171875,31.824117647058824,311.61221000599653
0.67145849609375,0.2069873046875,1.0298388671875005,1.2467029913529164,-1.5478515625,-2.35546875,-3.65185546875,31.91823529411765,311.61221000599653
0.65973974609375,0.2177294921875,1.0405810546875005,1.2511880736798215,-1.3203125,-1.1611328125,-3.81982421875,31.824117647058824,311.61221000599653
0.64606787109375,0.2030810546875,1.0313037109375005,1.233788050284998,-1.1669921875,0.1240234375,-4.10546875,31.824117647058824,311.61221000599653
0.62897802734375,0.1884326171875,0.9981005859375,1.1947070727798288,-1.11181640625,1.16943359375,-4.43505859375,31.77705882352941,311.61221000599653
0.63727880859375,0.1664599609375,0.9629443359375,1.166659758709495,-1.16748046875,2.16162109375,-4.6474609375,31.871176470588235,311.61221000599653
0.64069677734375,0.1381396484375,0.9165576171875,1.12678870627706,-1.35009765625,2.74462890625,-5.1142578125,31.77705882352941,311.61221000599653
0.65046240234375,0.1054248046875,0.8760302734375001,1.0961955876052327,-1.58447265625,2.9541015625,-5.27734375,31.871176470588235,311.5465300811621
0.63581396484375,0.0976123046875,0.8286669921875001,1.0490360069405686,-1.798828125,2.9189453125,-5.267578125,31.824117647058824,311.5465300811621
0.62800146484375,0.0849169921875,0.7954638671875001,1.0170346598857682,-1.87890625,2.61865234375,-5.07568359375,31.824117647058824,311.5465300811621
0.61286474609375,0.0800341796875,0.7876513671875001,1.0012009504365973,-2.05810546875,1.78369140625,-4.79345703125,31.91823529411765,311.5465300811621
0.60700537109375,0.0834521484375,0.7930224609375001,1.0021498915665583,-1.94970703125,0.95556640625,-4.46044921875,31.77705882352941,311.5465300811621
0.59968115234375,0.0902880859375,0.8027880859375001,1.0061004591300913,-1.86181640625,-0.02587890625,-4.2421875,31.77705882352941,311.5465300811621
0.58698583984375,0.0961474609375,0.8164599609375001,1.0101502750758744,-1.484375,-1.0283203125,-3.78125,31.871176470588235,311.5465300811621
0.57526708984375,0.1044482421875,0.8384326171875001,1.022159925607161,-1.28662109375,-1.6328125,-3.529296875,31.871176470588235,311.5465300811621
0.56501318359375,0.1049365234375,0.8687060546875001,1.041586185121815,-1.18408203125,-2.15478515625,-3.33740234375,31.91823529411765,311.5465300811621
0.55134130859375,0.1225146484375,0.8960498046875001,1.0591941890532348,-1.1474609375,-2.2802734375,-3.2158203125,31.824117647058824,311.5465300811621
0.55231787109375,0.1337451171875,0.9243701171875,1.0850819787694674,-1.126953125,-2.2490234375,-3.1904296875,31.77705882352941,311.5465300811621
0.56745458984375,0.1503466796875,0.9614794921875,1.1265219258962194,-1.091796875,-1.716796875,-3.2412109375,31.77705882352941,311.5465300811621
0.59479833984375,0.1566943359375,0.9785693359375,1.155827030845418,-1.03466796875,-1.16455078125,-3.34521484375,31.871176470588235,311.5465300811621
0.61335302734375,0.1562060546875,0.9688037109375,1.1572307021502015,-1.02294921875,-0.4248046875,-3.44384765625,31.871176470588235,311.5465300811621
0.64313818359375,0.1498583984375,0.9502490234375,1.1571765074190037,-1.0205078125,0.40185546875,-3.494140625,31.871176470588235,311.59031664182544
0.63874365234375,0.1425341796875,0.9380419921875,1.1437797973804729,-1.05224609375,1.32470703125,-3.61865234375,31.91823529411765,311.59031664182544
0.63386083984375,0.1308154296875,0.9375537109375,1.1392537916655914,-1.099609375,1.91162109375,-3.40087890625,31.77705882352941,311.59031664182544
0.61823583984375,0.1205615234375,0.9087451171875,1.1056981154967214,-1.1396484375,2.44970703125,-3.251953125,31.824117647058824,311.59031664182544
0.60114599609375,0.1181201171875,0.8872607421875001,1.0782209863154442,-1.1455078125,2.69873046875,-3.0556640625,31.871176470588235,311.59031664182544
0.58063818359375,0.1132373046875,0.8579638671875001,1.0421446084009978,-1.1328125,2.67138671875,-2.84326171875,31.871176470588235,311.59031664182544
0.55378271484375,0.1064013671875,0.8384326171875001,1.0104285228371992,-1.0986328125,2.4130859375,-2.58740234375,31.824117647058824,311.59031664182544
0.53571630859375,0.1064013671875,0.8262255859375001,0.990435224075986,-1.03955078125,2.10693359375,-2.4794921875,31.824117647058824,311.25554358593644
0.52302099609375,0.1073779296875,0.8086474609375001,0.9690158400250936,-0.97265625,1.5888671875,-2.16357421875,31.91823529411765,311.25554358593644
0.52057958984375,0.1220263671875,0.7954638671875001,0.9584656006616816,-0.8935546875,0.9580078125,-2.0078125,31.824117647058824,311.25554358593644
0.52253271484375,0.2626513671875,0.7847216796875001,0.9786798727566712,-0.8408203125,0.26513671875,-1.96923828125,31.824117647058824,311.25554358593644
0.54011083984375,0.1552294921875,0.7871630859375001,0.967182319123007,-0.87890625,-0.31103515625,-2.05078125,31.871176470588235,311.25554358593644
0.56501318359375,0.1723193359375,0.7969287109375001,0.9919824703537816,-0.91552734375,-0.62744140625,-2.2255859375,31.77705882352941,311.25554358593644
0.4590561523437499,0.1889208984375,0.8106005859375001,0.9505245745341352,-0.95947265625,-1.03955078125,-2.48388671875,31.965294117647066,311.25554358593644
0.58698583984375,0.2025927734375,0.8179248046875001,1.0269358276685334,-0.9833984375,-1.1162109375,-2.615234375,31.871176470588235,311.58901198412644
0.59382177734375,0.2177294921875,0.8413623046875001,1.052578245435929,-0.9716796875,-1.11767578125,-2.61669921875,31.824117647058824,311.58901198412644
0.58649755859375,0.2235888671875,0.8735888671875001,1.075699250088313,-0.884765625,-1.0634765625,-2.4560546875,31.824117647058824,311.58901198412644
0.58259130859375,0.2270068359375,0.9053271484375,1.1002554167598124,-0.6982421875,-0.916015625,-2.208984375,31.91823529411765,311.58901198412644
0.56940771484375,0.2362841796875,0.9360888671875,1.12085580096931,-0.6162109375,-0.64404296875,-1.9228515625,31.77705882352941,311.58901198412644
0.55427099609375,0.2362841796875,0.9653857421875,1.1379877775706833,-0.2724609375,-0.33154296875,-1.65771484375,31.871176470588235,311.58901198412644
0.53962255859375,0.2357958984375,1.0083544921875005,1.1677204260343843,-0.06298828125,-0.05322265625,-1.4287109375,31.73,311.58901198412644
0.52741552734375,0.2357958984375,1.0303271484375005,1.1812454770328582,0.09814453125,0.13134765625,-1.33447265625,31.871176470588235,311.6225039749639
0.51472021484375,0.2426318359375,1.0283740234375005,1.175312826212762,0.17431640625,0.64501953125,-1.3203125,31.91823529411765,311.6225039749639
0.50641943359375,0.2372607421875,1.0366748046875005,1.177899806086513,0.2392578125,1.46923828125,-1.4599609375,31.824117647058824,311.6225039749639
0.4903061523437499,0.2260302734375,1.0283740234375005,1.16148307762851,-0.05078125,1.98876953125,-1.650390625,31.91823529411765,311.6225039749639
0.4766342773437499,0.2274951171875,1.0068896484375005,1.1369964937561354,-0.265625,2.3955078125,-1.80859375,31.635882352941177,311.6225039749639
0.4639389648437499,0.2250537109375,0.9985888671875,1.1238630973467565,-0.42138671875,2.6572265625,-1.869140625,31.824117647058824,311.6225039749639
0.4658920898437499,0.2265185546875,0.9844287109375,1.1124144829670093,-0.4716796875,2.63134765625,-1.78662109375,31.824117647058824,311.6225039749639
0.4654038085937499,0.2201708984375,0.9722216796875,1.1001322302463137,-0.46044921875,2.46533203125,-1.732421875,31.73,311.6875314595794
0.4658920898437499,0.2094287109375,0.9458544921875,1.0749681598704184,-0.4775390625,2.3583984375,-1.70703125,31.824117647058824,311.6875314595794
0.4790756835937499,0.1874560546875,0.9170458984375,1.0514877378699494,-0.431640625,1.97607421875,-1.7353515625,31.871176470588235,311.6875314595794
0.50934912109375,0.1689013671875,0.9038623046875,1.0511571075875297,-0.36767578125,1.42822265625,-1.75244140625,31.871176470588235,311.6875314595794
0.54889990234375,0.1425341796875,0.9121630859375,1.0740803463983457,-0.216796875,0.8955078125,-2.091796875,31.824117647058824,311.6875314595794
0.61091162109375,0.1078662109375,0.9004443359375001,1.0934569632003504,-0.0625,0.328125,-2.2666015625,31.824117647058824,311.6875314595794
0.67927099609375,0.0683154296875,0.8940966796875001,1.1249377568095913,0.16064453125,-0.171875,-2.64111328125,31.77705882352941,311.6875314595794
0.71686865234375,0.0326708984375,0.8735888671875001,1.1305421536554032,0.3330078125,-0.3525390625,-3.03759765625,31.871176470588235,311.69847813783787
0.71589208984375,-0.0107861328125,0.8643115234375001,1.1223422982801428,0.404296875,-0.26513671875,-3.158203125,31.824117647058824,311.69847813783787
0.70856787109375,-0.0620556640625,0.8477099609375001,1.1065855191810638,0.3818359375,-0.22021484375,-3.03369140625,31.824117647058824,311.69847813783787
0.67536474609375,-0.0898876953125,0.8301318359375001,1.073925604067541,0.28271484375,-0.1591796875,-2.66455078125,31.871176470588235,311.69847813783787
0.63972021484375,-0.1064892578125,0.8232958984375001,1.0480448710304349,0.17724609375,0.09033203125,-2.13330078125,31.871176470588235,311.69847813783787
0.59333349609375,-0.1113720703125,0.8101123046875001,1.0103119923264383,0.11181640625,0.4736328125,-1.51611328125,31.91823529411765,311.69847813783787
0.55475927734375,-0.1001416015625,0.8164599609375001,0.9921658449959494,0.0283203125,0.97119140625,-0.8291015625,31.871176470588235,311.69847813783787
0.50983740234375,-0.0854931640625,0.7993701171875001,0.9519642021538404,-0.111328125,1.3076171875,-0.37646484375,31.77705882352941,311.69717402453057
0.4756577148437499,-0.0688916015625,0.8018115234375001,0.9348251352918304,-0.2041015625,1.58349609375,-0.0703125,31.77705882352941,311.69717402453057
0.4424545898437499,-0.0601025390625,0.8179248046875001,0.9318687490192196,-0.31494140625,1.6357421875,0.10888671875,31.77705882352941,311.69717402453057
0.4175522460937499,-0.0454541015625,0.8389208984375001,0.9381919992208269,-0.41259765625,1.44677734375,0.14892578125,31.77705882352941,311.69717402453057
0.3999741210937499,-0.0239697265625,0.8608935546875001,0.9495744087951604,-0.46044921875,0.97998046875,0.05517578125,31.871176470588235,311.69717402453057
0.4238999023437499,0.0082568359375,0.9331591796875,1.0249611491084858,-0.4375,-0.3125,-0.1455078125,31.77705882352941,311.69717402453057
0.4541733398437499,0.0248583984375,0.9819873046875,1.0822155188155107,-0.27978515625,-1.49658203125,-0.7529296875,31.871176470588235,311.69717402453057
0.53962255859375,0.0487841796875,1.0352099609375005,1.168431455052143,-0.22265625,-2.86767578125,-1.58203125,31.871176470588235,311.69717402453057
0.62018896484375,0.0805224609375,1.0923388671875005,1.2586987008803436,-0.18310546875,-3.77978515625,-2.21875,31.824117647058824,311.2439432421596
0.65876318359375,0.0922412109375,1.1245654296875005,1.3065698522092193,-0.13525390625,-3.828125,-2.509765625,31.91823529411765,311.2439432421596
0.68708349609375,0.1161669921875,1.1460498046875005,1.3412712833362823,-0.04443359375,-3.1015625,-2.83203125,31.824117647058824,311.2439432421596
0.68952490234375,0.1132373046875,1.1475146484375005,1.343524151812571,0.123046875,-1.7451171875,-2.77880859375,31.77705882352941,311.2439432421596
0.67780615234375,0.0956591796875,1.1279833984375005,1.3194386707854733,0.390625,0.0205078125,-2.615234375,31.91823529411765,311.2439432421596
0.65925146484375,0.0502490234375,1.0815966796875005,1.2676706337870565,0.91650390625,1.8447265625,-2.05712890625,31.871176470588235,311.2439432421596
0.63044287109375,0.0111865234375,1.0259326171875005,1.204209735481632,1.1328125,3.16015625,-1.57275390625,31.91823529411765,311.2439432421596
0.59919287109375,-0.0225048828125,0.9678271484375,1.1385200726261433,1.15576171875,3.96435546875,-1.09765625,31.77705882352941,311.2439432421596
0.56843115234375,-0.0435009765625,0.9077685546875,1.071937525603133,1.11767578125,4.15380859375,-0.6650390625,31.871176470588235,311.5813301030205
0.53083349609375,-0.0488720703125,0.8677294921875001,1.0183943987688266,0.671875,3.828125,-0.447265625,31.871176470588235,311.5813301030205
0.4917709960937499,-0.0552197265625,0.8272021484375001,0.9639249582723192,0.14599609375,3.21630859375,-0.48095703125,31.91823529411765,311.5813301030205
0.4522202148437499,-0.0625439453125,0.8232958984375001,0.941398430098856,-0.38916015625,2.19775390625,-0.82470703125,31.91823529411765,311.5813301030205
0.4175522460937499,-0.0776806640625,0.8218310546875001,0.9250894260750662,-1.09765625,1.13037109375,-1.4501953125,31.871176470588235,311.5813301030205
0.3858139648437499,-0.0864697265625,0.8447802734375001,0.9327288670719832,-1.37744140625,0.361328125,-2.021484375,31.77705882352941,311.5813301030205
0.3809311523437499,0.0111865234375,0.8555224609375001,0.936564126101951,-1.564453125,-0.4248046875,-2.72705078125,31.824117647058824,311.5813301030205
0.3858139648437499,-0.1260205078125,0.8750537109375001,0.9645996998150396,-1.390625,-0.91259765625,-2.8759765625,31.77705882352941,311.5813301030205
0.4063217773437499,-0.1440869140625,0.8823779296875001,0.9820637638908366,-1.05908203125,-1.23974609375,-2.98486328125,31.91823529411765,311.5813301030205
0.4424545898437499,-0.1475048828125,0.8980029296875001,1.0118957536498825,-0.513671875,-1.3583984375,-2.8583984375,31.824117647058824,311.52921455442106
0.4697983398437499,-0.1533642578125,0.8945849609375001,1.0220143482504886,-0.0498046875,-1.2939453125,-2.32763671875,31.77705882352941,311.52921455442106
0.51179052734375,-0.1504345703125,0.8770068359375001,1.026499436972571,0.3505859375,-1.05859375,-1.796875,31.77705882352941,311.52921455442106
0.54401708984375,-0.1470166015625,0.8799365234375001,1.0449194995100453,0.55224609375,-0.9111328125,-1.3623046875,31.77705882352941,311.52921455442106
0.55231787109375,-0.1431103515625,0.8887255859375001,1.0561102075796007,0.57763671875,-0.93310546875,-0.67822265625,31.77705882352941,311.52921455442106
0.55671240234375,-0.1421337890625,0.9106982421875,1.0768017464881894,0.46484375,-1.05615234375,-0.2734375,31.871176470588235,311.52921455442106
0.55573583984375,-0.1265087890625,0.9224169921875,1.084296963415988,0.3095703125,-1.0927734375,-0.14501953125,31.824117647058824,311.52921455442106
0.54841162109375,-0.1245556640625,0.9409716796875,1.0962194677958608,0.06884765625,-1.0712890625,-0.318359375,31.824117647058824,311.52921455442106
0.53522802734375,-0.1318798828125,0.9614794921875,1.1082888426046946,-0.2001953125,-0.93212890625,-0.63525390625,31.824117647058824,311.6695600044848
0.50593115234375,-0.1367626953125,0.9741748046875,1.1062038310496594,-0.453125,-0.67333984375,-1.185546875,31.77705882352941,311.6695600044848
0.4717514648437499,-0.1255322265625,0.9971240234375,1.1102090355442755,-0.64599609375,-0.35205078125,-1.5810546875,31.871176470588235,311.6695600044848
0.4395249023437499,-0.1279736328125,0.9878466796875,1.0887609714924251,-0.7646484375,0.36328125,-1.8017578125,31.824117647058824,311.6695600044848
0.4248764648437499,-0.1138134765625,0.9805224609375,1.0746617208351177,-0.7919921875,0.81005859375,-1.75830078125,31.91823529411765,311.6695600044848
0.4092514648437499,-0.1025830078125,0.9824755859375,1.0692372570818176,-0.7333984375,1.029296875,-1.47412109375,31.91823529411765,311.6695600044848
0.4224350585937499,-0.0732861328125,0.9590380859375,1.0505123922497916,-0.60546875,0.94091796875,-1.0546875,31.824117647058824,311.6695600044848
0.4614975585937499,-0.0371533203125,0.9668505859375,1.071989002427694,-0.4892578125,0.65234375,-0.63671875,31.871176470588235,311.58329420896087
0.51520849609375,0.0009326171875,0.9702685546875,1.0985725886064026,-0.10400390625,0.39208984375,-0.28173828125,31.77705882352941,311.58329420896087
0.56013037109375,0.0531787109375,0.9507373046875,1.1047512980046903,0.37890625,0.1865234375,0.1630859375,31.77705882352941,311.58329420896087
0.60065771484375,0.0917529296875,0.9795458984375,1.1527005064860882,0.8876953125,-0.1455078125,0.52099609375,31.77705882352941,311.58329420896087
0.61384130859375,0.1195849609375,0.9785693359375,1.1613352919186046,1.09765625,-0.560546875,1.00439453125,31.824117647058824,311.58329420896087
0.61384130859375,0.1479052734375,0.9692919921875,1.156807714430329,1.13427734375,-0.560546875,1.47509765625,31.824117647058824,311.58329420896087
0.58845068359375,0.1684130859375,0.9834521484375,1.1583675162932003,1.0830078125,0.0693359375,1.33056640625,31.77705882352941,311.58329420896087
0.55280615234375,0.1718310546875,0.9775927734375,1.1361373966652728,1.02392578125,1.24853515625,0.85205078125,31.91823529411765,311.7203715362609
0.51911474609375,0.1498583984375,0.9751513671875,1.1148353457447793,0.8955078125,2.224609375,-0.19970703125,31.824117647058824,311.7203715362609
0.4746811523437499,0.1078662109375,0.9844287109375,1.0982063570980054,0.77392578125,3.11962890625,-1.03173828125,31.871176470588235,311.7203715362609
0.4126694335937499,0.0546435546875,0.9546435546875,1.041453933689752,0.68408203125,3.38623046875,-1.85400390625,31.91823529411765,311.7203715362609
0.3760483398437499,-0.0122509765625,0.9434130859375,1.0156725314017765,0.7470703125,3.64013671875,-2.30908203125,31.965294117647066,311.7203715362609
0.3516342773437499,-0.0918408203125,0.9287646484375,0.9973390463959422,0.64306640625,3.5537109375,-2.4384765625,31.824117647058824,311.7203715362609
0.3555405273437499,-0.1450634765625,0.9136279296875,0.9910441325800472,0.69189453125,3.3115234375,-2.19775390625,31.824117647058824,311.7203715362609
0.3653061523437499,-0.1880322265625,0.8911669921875001,0.9813171307639352,0.744140625,2.84716796875,-1.69482421875,31.824117647058824,311.6656381449933
0.3775131835937499,-0.2246533203125,0.8721240234375001,0.976517091694422,0.810546875,2.4931640625,-1.06591796875,31.91823529411765,311.6656381449933
0.3819077148437499,-0.2393017578125,0.8726123046875001,0.9821257904369266,0.80029296875,1.763671875,-0.31689453125,31.824117647058824,311.6656381449933
0.4175522460937499,-0.2500439453125,0.8779833984375001,1.003855916323273,0.68603515625,0.9189453125,0.4326171875,31.871176470588235,311.6656381449933
0.4737045898437499,-0.2368603515625,0.8872607421875001,1.0333104515141904,0.5537109375,-0.115234375,1.11767578125,32.57705882352941,311.6656381449933
0.51325537109375,-0.2041455078125,0.8042529296875001,0.97566861137762,0.46240234375,-1.02099609375,1.5078125,31.824117647058824,311.6656381449933
0.55524755859375,-0.1548291015625,0.9570849609375,1.117266093850389,0.47021484375,-1.80517578125,1.96484375,31.824117647058824,311.6656381449933
0.57673193359375,-0.0972119140625,1.0000537109375005,1.1585237607500098,0.57666015625,-1.9716796875,2.10595703125,31.824117647058824,311.6656381449933
0.58845068359375,-0.0483837890625,1.0278857421875005,1.1853962616181748,0.79248046875,-1.65673828125,2.09326171875,31.91823529411765,311.6656381449933
0.59675146484375,0.0038623046875,1.0420458984375005,1.2008275823951904,0.92724609375,-0.939453125,2.11669921875,31.824117647058824,311.52725004022136
0.58356787109375,0.0360888671875,1.0532763671875005,1.204676293525969,0.9453125,-0.19921875,1.837890625,31.871176470588235,311.52725004022136
0.57136083984375,0.0429248046875,0.9312060546875,1.0933620006434623,0.90283203125,0.755859375,1.66650390625,31.91823529411765,311.52725004022136
0.54841162109375,0.0546435546875,1.0391162109375005,1.176224351071116,0.82958984375,1.67041015625,1.46484375,31.824117647058824,311.52725004022136
0.52009130859375,0.0644091796875,1.0254443359375005,1.1515987138795687,0.82275390625,2.6025390625,1.27490234375,31.91823529411765,311.52725004022136
0.4966538085937499,0.0644091796875,1.0098193359375005,1.127186159980661,0.86083984375,3.2177734375,1.2431640625,31.824117647058824,311.52725004022136
0.58210302734375,0.0561083984375,0.9883349609375,1.148389342439797,0.888671875,3.556640625,1.0400390625,31.871176470588235,311.52725004022136
0.4302475585937499,0.0497607421875,0.9756396484375,1.067455768049516,0.93896484375,3.638671875,1.00830078125,31.77705882352941,311.52725004022136
0.4087631835937499,0.0439013671875,0.9761279296875,1.0591696773504398,1.02490234375,3.44287109375,0.9833984375,31.824117647058824,311.52725004022136
0.3858139648437499,0.0336474609375,0.9512255859375,1.0270417140691683,1.119140625,3.0224609375,0.92041015625,31.965294117647066,311.6257720716364
0.3653061523437499,0.0282763671875,0.9448779296875,1.0134310237465862,1.15673828125,2.6943359375,0.80908203125,31.824117647058824,311.6257720716364
0.3452866210937499,0.0238818359375,0.9316943359375,0.993905190856806,1.16259765625,2.39697265625,0.64404296875,31.871176470588235,311.6257720716364
0.3491928710937499,0.0272998046875,0.9214404296875,0.9857653909634668,1.1806640625,2.09716796875,0.48095703125,31.871176470588235,311.6257720716364
0.3570053710937499,0.0214404296875,0.9150927734375,0.9825005399553256,1.16943359375,1.5947265625,0.03564453125,31.77705882352941,311.6257720716364
0.3701889648437499,0.0170458984375,0.9204638671875,0.992262144366798,1.181640625,0.88037109375,-0.17333984375,31.91823529411765,311.6257720716364
0.3701889648437499,0.0023974609375,0.9409716796875,1.011174228056149,1.2109375,0.2421875,-0.2314453125,31.871176470588235,311.6257720716364
0.3799545898437499,-0.0107861328125,0.9619677734375,1.0343422200300452,1.1533203125,-0.7998046875,-0.19677734375,31.871176470588235,311.6257720716364
0.3838608398437499,-0.0210400390625,0.9912646484375,1.0632015005873634,1.07666015625,-1.56103515625,-0.095703125,31.824117647058824,311.58329420896087
0.3882553710937499,-0.0205517578125,1.0190966796875005,1.0907440811127131,1.013671875,-1.68896484375,0.01318359375,31.871176470588235,311.58329420896087
0.4092514648437499,-0.0015087890625,1.0317919921875005,1.1099926815359824,0.921875,-1.3251953125,0.14111328125,31.77705882352941,311.58329420896087
0.4336655273437499,-0.0015087890625,1.0420458984375005,1.1286840658488917,0.99755859375,-0.74951171875,0.28466796875,31.871176470588235,311.58329420896087
0.4434311523437499,0.0063037109375,1.0469287109375005,1.1369831350665434,0.86328125,0.02294921875,0.4580078125,31.824117647058824,311.58329420896087
0.4448959960937499,0.0043505859375,1.0420458984375005,1.133053851054162,0.9052734375,0.830078125,0.6474609375,31.824117647058824,311.58329420896087
0.4258530273437499,0.0126513671875,1.0425341796875005,1.1262274964705128,0.966796875,1.2626953125,0.828125,31.91823529411765,311.58329420896087
0.4063217773437499,0.0116748046875,1.0171435546875005,1.0953605336374863,0.9970703125,1.80810546875,0.98095703125,31.77705882352941,311.58329420896087
0.3892319335937499,0.0097216796875,0.9985888671875,1.0718095609089753,1.0087890625,2.00048828125,1.0400390625,31.824117647058824,311.6599237052132
0.3819077148437499,-0.1113720703125,0.9902880859375,1.067205572442641,1.07568359375,2.33447265625,1.033203125,31.824117647058824,311.6599237052132
0.3687241210937499,0.0111865234375,0.9736865234375,1.0412243090260531,1.08642578125,2.4404296875,0.95947265625,31.77705882352941,311.6599237052132
0.3633530273437499,0.0160693359375,0.9668505859375,1.032997435410673,1.017578125,2.341796875,0.8232421875,31.871176470588235,311.6599237052132
0.3667709960937499,0.0209521484375,0.9473193359375,1.0160580103226462,0.93212890625,2.134765625,0.63916015625,31.824117647058824,311.6599237052132
0.3662827148437499,0.0253466796875,0.9351123046875,1.0046096275382077,0.8525390625,1.837890625,0.43115234375,31.824117647058824,311.6599237052132
0.3648178710937499,0.0258349609375,0.9375537109375,1.0063629987080682,0.83154296875,1.43701171875,0.2529296875,31.824117647058824,311.6599237052132
0.3672592773437499,0.1381396484375,0.9399951171875,1.0186033377138677,0.80908203125,0.904296875,0.169921875,31.824117647058824,311.6599237052132
0.3609116210937499,0.0106982421875,0.9517138671875,1.0179051702508477,0.83349609375,0.400390625,0.21728515625,31.871176470588235,311.6599237052132
0.3526108398437499,0.0077685546875,0.9619677734375,1.024586136910679,0.890625,-0.11669921875,0.34521484375,31.77705882352941,311.81056167940835
0.3472397460937499,-4.394531249999993e-05,0.9917529296875,1.050785095413035,0.96240234375,-0.46533203125,0.47705078125,31.871176470588235,311.81056167940835
0.3428452148437499,0.0043505859375,0.9981005859375,1.0553513863107575,1.0322265625,-0.67529296875,0.57666015625,31.73,311.81056167940835
0.3418686523437499,0.0087451171875,1.0283740234375005,1.0837452581723193,1.0859375,-0.74560546875,0.609375,31.871176470588235,311.81056167940835
0.3360092773437499,0.0023974609375,1.0190966796875005,1.0730638493724889,1.109375,-0.6572265625,0.74853515625,31.824117647058824,311.81056167940835
0.3350327148437499,0.0077685546875,1.0244677734375005,1.0778875123450942,1.08837890625,-0.50146484375,0.5947265625,31.871176470588235,311.81056167940835
0.3379624023437499,0.0180224609375,1.0308154296875005,1.0849533835967462,1.0712890625,-0.271484375,0.55810546875,31.965294117647066,311.81056167940835
0.3306381835937499,0.0229052734375,1.0313037109375005,1.083251403966263,1.05029296875,-0.0126953125,0.568359375,31.871176470588235,311.81056167940835
0.4488022460937499,0.0209521484375,1.0122607421875005,1.1074900716471143,1.07373046875,0.18896484375,0.63525390625,31.77705882352941,311.81056167940835
0.3208725585937499,0.0341357421875,1.0122607421875005,1.0624482377636946,1.1171875,0.29638671875,0.71044921875,31.871176470588235,311.2607895041379
0.3286850585937499,0.0380419921875,1.0054248046875005,1.0584706414413527,1.099609375,0.29833984375,0.74853515625,31.824117647058824,311.2607895041379
0.3238022460937499,0.0316943359375,1.0000537109375005,1.0516462571919047,1.09423828125,0.28125,0.72802734375,31.824117647058824,311.2607895041379
0.3447983398437499,0.0346240234375,0.9761279296875,1.0358139086119724,1.08349609375,0.2080078125,0.6640625,31.824117647058824,311.2607895041379
0.3506577148437499,0.0326708984375,0.9702685546875,1.0322060302088554,1.04443359375,0.0625,0.560546875,31.824117647058824,311.2607895041379
0.3638413085937499,0.0356005859375,0.9624560546875,1.029548229449662,1.02294921875,-0.20166015625,0.43359375,31.824117647058824,311.2607895041379
0.3775131835937499,0.0360888671875,0.9609912109375,1.033113119470026,0.9873046875,-0.40283203125,0.31591796875,31.77705882352941,311.2607895041379
0.3692124023437499,0.0292529296875,0.9565966796875,1.025792737120367,0.9736328125,-0.83544921875,0.27294921875,31.871176470588235,311.4764472401796
0.3736069335937499,0.0189990234375,0.9629443359375,1.0330560961704918,0.99755859375,-1.048828125,0.2587890625,31.824117647058824,311.4764472401796
0.3667709960937499,0.0194873046875,0.9541552734375,1.0224054990306808,0.97607421875,-1.2041015625,0.28955078125,31.91823529411765,311.4764472401796
0.3633530273437499,0.0141162109375,0.9780810546875,1.0434880159492548,0.96240234375,-1.24169921875,0.310546875,31.77705882352941,311.4764472401796
0.3701889648437499,0.0102099609375,0.9951708984375,1.0618423753511317,1.0126953125,-1.20654296875,0.349609375,31.871176470588235,311.4764472401796
0.3662827148437499,0.0004443359375,1.0254443359375005,1.088898209537528,1.09033203125,-1.10009765625,0.43701171875,31.91823529411765,311.4764472401796
0.3540756835937499,0.0048388671875,1.0210498046875005,1.080710742058402,1.1318359375,-0.7529296875,0.56982421875,31.824117647058824,311.4764472401796
0.3404038085937499,0.0009326171875,1.0190966796875005,1.074445747923103,1.126953125,-0.2607421875,0.6513671875,31.824117647058824,311.49637357704944
0.3555405273437499,0.0019091796875,1.0117724609375005,1.0724253933316186,1.05908203125,0.201171875,0.66259765625,31.871176470588235,311.49637357704944
0.3662827148437499,-0.0029736328125,1.0024951171875005,1.0673182888296215,0.9765625,0.43994140625,0.5986328125,31.871176470588235,311.49637357704944
0.3706772460937499,-0.0068798828125,1.0034716796875005,1.0697683700194232,0.9560546875,0.44970703125,0.5947265625,31.77705882352941,311.49637357704944
0.3545639648437499,-0.0054150390625,0.9927294921875,1.0541616443755768,0.99560546875,0.3017578125,0.6865234375,31.824117647058824,311.49637357704944
0.3452866210937499,-0.0039501953125,0.9961474609375,1.0542998713276854,1.0517578125,0.0732421875,0.7998046875,31.77705882352941,311.49637357704944
0.3374741210937499,-4.394531249999993e-05,1.0005419921875005,1.0559228487298309,1.06640625,-0.1953125,0.86279296875,31.77705882352941,311.49637357704944
0.3345444335937499,0.0038623046875,0.9907763671875,1.045740266616583,1.0439453125,-0.29931640625,0.83544921875,31.871176470588235,311.5916230700273
0.3369858398437499,0.0136279296875,0.9883349609375,1.0442945809177095,1.01513671875,-0.22265625,0.78759765625,31.824117647058824,311.5916230700273
0.3452866210937499,0.0204638671875,0.9873583984375,1.0461922517069564,0.986328125,-0.11865234375,0.671875,31.824117647058824,311.5916230700273
0.3604233398437499,0.0272998046875,0.9941943359375,1.0578622976788168,0.96044921875,0.2060546875,0.59521484375,31.824117647058824,311.5916230700273
0.3833725585937499,0.0146044921875,0.9766162109375,1.0492697619490865,0.96875,0.3193359375,0.5830078125,31.91823529411765,311.5916230700273
0.3784897460937499,-0.1084423828125,0.9795458984375,1.0557103795236142,1.01806640625,0.3115234375,0.6796875,31.824117647058824,311.5916230700273
0.3687241210937499,0.1376513671875,0.9775927734375,1.0538467663954612,1.07373046875,0.22900390625,0.87109375,31.871176470588235,311.5916230700273
0.3667709960937499,0.0092333984375,0.9775927734375,1.044171369986522,1.17724609375,0.08154296875,1.03662109375,31.68294117647059,311.7313182564403
0.3740952148437499,0.0106982421875,0.9746630859375,1.0440449287478506,1.13134765625,-0.08349609375,1.099609375,31.73,311.7313182564403
0.3838608398437499,0.0131396484375,0.9873583984375,1.0594330567297183,1.30908203125,-0.2978515625,1.0947265625,31.824117647058824,311.7313182564403
0.3863022460937499,0.0155810546875,0.9834521484375,1.0567167656797092,1.32080078125,-0.45947265625,0.98583984375,31.91823529411765,311.7313182564403
0.3946030273437499,0.0194873046875,0.9917529296875,1.0675510188167006,1.26513671875,-0.61865234375,0.83740234375,31.824117647058824,311.7313182564403
0.3877670898437499,0.0233935546875,0.9995654296875,1.072399935934894,1.2021484375,-0.65087890625,0.71484375,31.91823529411765,311.7313182564403
0.3843491210937499,0.0253466796875,0.9956591796875,1.067569156145261,1.1728515625,-0.6181640625,0.5849609375,31.77705882352941,311.7313182564403
0.3887436523437499,0.0243701171875,0.9941943359375,1.0677724043350707,1.16064453125,-0.5595703125,0.537109375,31.871176470588235,311.63345063068283
0.3858139648437499,0.0219287109375,0.9966357421875,1.0689322178873009,1.146484375,-0.52392578125,0.5595703125,31.91823529411765,311.63345063068283
0.3921616210937499,0.0185107421875,1.0000537109375005,1.07435599751436,1.14404296875,-0.5810546875,0.61962890625,31.824117647058824,311.63345063068283
0.4009506835937499,0.0214404296875,0.9902880859375,1.068593297681226,1.1376953125,-0.67236328125,0.65234375,31.871176470588235,311.63345063068283
0.4038803710937499,0.0248583984375,0.9854052734375,1.065251541677428,1.13916015625,-0.841796875,0.6513671875,31.824117647058824,311.63345063068283
0.3975327148437499,0.0307177734375,0.9834521484375,1.06120401867046,1.140625,-0.99267578125,0.599609375,31.871176470588235,311.63345063068283
0.3931381835937499,0.0302294921875,0.9746630859375,1.0513988704038624,1.1259765625,-1.10546875,0.4931640625,31.91823529411765,311.63345063068283
0.3980209960937499,0.0312060546875,0.9727099609375,1.0514557524155037,1.0654296875,-1.1748046875,0.38671875,31.91823529411765,311.63345063068283
0.4009506835937499,0.0321826171875,0.9702685546875,1.0503419632380222,1.02099609375,-1.2705078125,0.27001953125,31.77705882352941,311.63345063068283
0.4019272460937499,0.0312060546875,0.9697802734375,1.0502347869644089,1.01513671875,-1.35888671875,0.19287109375,31.871176470588235,311.63345063068283
0.4024155273437499,0.0316943359375,0.9736865234375,1.0540437531249227,1.00439453125,-1.43896484375,0.1796875,31.77705882352941,311.63345063068283
0.4107163085937499,0.0297412109375,0.9668505859375,1.050891279486414,1.01708984375,-1.55322265625,0.20556640625,31.824117647058824,311.63345063068283
0.4204819335937499,0.0370654296875,0.9766162109375,1.063935207624307,1.0478515625,-1.669921875,0.2431640625,31.73,311.63345063068283
0.4219467773437499,0.0409716796875,0.9683154296875,1.057048973708446,1.06591796875,-1.78125,0.2763671875,31.91823529411765,311.63345063068283
0.4263413085937499,0.0404833984375,0.9702685546875,1.0605785615303804,1.08251953125,-1.83642578125,0.2880859375,31.824117647058824,311.3739957967507
0.4297592773437499,0.0458544921875,0.9790576171875,1.0702100208322014,1.06298828125,-1.8525390625,0.26123046875,31.77705882352941,311.3739957967507
0.4341538085937499,0.0414599609375,0.9722216796875,1.0655625051266495,1.04443359375,-1.81640625,0.19921875,31.871176470588235,311.3739957967507
0.4302475585937499,0.0429248046875,0.9883349609375,1.078777778573823,1.04296875,-1.70849609375,0.16845703125,31.871176470588235,311.3739957967507
0.4322006835937499,0.0473193359375,0.9829638671875,1.074827667418678,1.0302734375,-1.5234375,0.11767578125,31.824117647058824,311.3739957967507
0.4322006835937499,0.0414599609375,0.9863818359375,1.0777130812638755,1.01318359375,-1.3046875,0.10205078125,31.91823529411765,311.3739957967507
0.4356186523437499,0.0463427734375,0.9795458984375,1.073043069995512,1.00390625,-1.05078125,0.08447265625,31.91823529411765,311.3739957967507
0.4395249023437499,0.0424365234375,0.9761279296875,1.0713583590086695,0.9716796875,-0.99853515625,0.0703125,31.871176470588235,311.6649860509443
0.4507553710937499,0.0380419921875,0.9858935546875,1.0847182578503105,0.9755859375,-0.7685546875,0.00537109375,31.871176470588235,311.6649860509443
0.4610092773437499,0.0346240234375,0.9897998046875,1.09244314733327,0.9755859375,-0.77978515625,-0.05810546875,31.871176470588235,311.6649860509443
0.3340561523437499,0.0429248046875,0.9775927734375,1.0339843724415732,0.9453125,-0.732421875,-0.1103515625,31.91823529411765,311.6649860509443
0.4453842773437499,0.0419482421875,0.9712451171875,1.0693193569688133,0.9228515625,-0.52880859375,-0.13330078125,31.77705882352941,311.6649860509443
0.4405014648437499,0.0395068359375,0.9717333984375,1.0676460688140876,0.8720703125,-0.33984375,-0.16650390625,31.91823529411765,311.6649860509443
0.4458725585937499,0.0282763671875,0.9570849609375,1.0562260713980671,0.84130859375,-0.37451171875,-0.181640625,31.824117647058824,311.6649860509443
0.4419663085937499,0.0268115234375,0.9531787109375,1.051000823361,0.81884765625,-0.27783203125,-0.1435546875,31.824117647058824,311.86006985406755
0.4507553710937499,0.0302294921875,0.9551318359375,1.0565846160100565,0.82275390625,-0.2548828125,-0.08251953125,31.77705882352941,311.86006985406755
0.4453842773437499,0.0336474609375,0.9575732421875,1.0566199980532431,0.84423828125,-0.5703125,-0.00439453125,31.871176470588235,311.86006985406755
0.4541733398437499,0.0268115234375,0.9619677734375,1.064130761488534,0.85205078125,-0.74853515625,0.0078125,31.871176470588235,311.86006985406755
0.4536850585937499,0.0258349609375,0.9629443359375,1.064781372729618,0.85107421875,-0.90087890625,-0.0322265625,31.824117647058824,311.86006985406755
0.4566147460937499,0.0277880859375,0.9522021484375,1.0563891970099468,0.81494140625,-0.93212890625,-0.068359375,31.824117647058824,311.86006985406755
0.58112646484375,0.0297412109375,0.9478076171875,1.1121743509758124,0.80322265625,-0.919921875,-0.09619140625,31.824117647058824,311.86006985406755
0.4668686523437499,0.0258349609375,0.9497607421875,1.0586213917867249,0.79541015625,-0.9189453125,-0.08056640625,31.91823529411765,311.68622746888667
0.4746811523437499,0.0224169921875,0.9487841796875,1.0611390755006656,0.80908203125,-0.9130859375,-0.05908203125,31.77705882352941,311.68622746888667
0.4859116210937499,0.0146044921875,0.9487841796875,1.0660744881720474,0.84033203125,-0.9208984375,-0.0205078125,31.77705882352941,311.68622746888667
0.4810288085937499,0.1381396484375,0.9605029296875,1.0830683981659834,0.85205078125,-0.9228515625,0.03369140625,31.871176470588235,311.68622746888667
0.4824936523437499,0.0121630859375,0.9556201171875,1.07058763003548,0.75341796875,-0.8837890625,0.1015625,31.824117647058824,311.68622746888667
0.4834702148437499,0.0155810546875,0.9600146484375,1.0749950433005788,0.9169921875,-0.85498046875,0.1240234375,31.73,311.68622746888667
0.4849350585937499,0.0092333984375,0.9590380859375,1.0747098757239988,0.9150390625,-0.7890625,0.130859375,31.824117647058824,311.68622746888667
0.4766342773437499,0.0072802734375,0.9648974609375,1.0762250447020634,0.8984375,-0.7197265625,0.125,31.824117647058824,311.92444685626333
0.4790756835937499,0.0160693359375,0.9585498046875,1.0717226610624295,0.8701171875,-0.583984375,0.11865234375,31.871176470588235,311.92444685626333
0.4751694335937499,0.0170458984375,0.9678271484375,1.0783162534841109,0.833984375,-0.4423828125,0.111328125,31.871176470588235,311.92444685626333
0.4727280273437499,0.0204638671875,0.9644091796875,1.0742325742417689,0.8134765625,-0.34130859375,0.1181640625,31.77705882352941,311.92444685626333
0.4878647460937499,0.0272998046875,0.9531787109375,1.07112415004124,0.80712890625,-0.22509765625,0.13134765625,31.824117647058824,311.92444685626333
0.4849350585937499,0.0253466796875,0.9609912109375,1.0767119265261378,0.8154296875,-0.20166015625,0.16455078125,31.824117647058824,311.92444685626333
0.4912827148437499,0.0268115234375,0.9526904296875,1.072239067797587,0.822265625,-0.185546875,0.193359375,31.824117647058824,311.92444685626333
0.4971420898437499,0.0277880859375,0.9487841796875,1.0715007488749428,0.86181640625,-0.2080078125,0.20068359375,31.91823529411765,311.7525591542177
0.4942124023437499,0.0326708984375,0.9517138671875,1.0728805018416918,0.880859375,-0.37158203125,0.20556640625,31.871176470588235,311.7525591542177
0.4971420898437499,0.0233935546875,0.9448779296875,1.06793811520409,0.90087890625,-0.25048828125,0.19384765625,31.871176470588235,311.7525591542177
0.4971420898437499,0.0272998046875,0.9404833984375,1.0641449899176034,0.95068359375,-0.48046875,0.16650390625,31.77705882352941,311.7525591542177
0.4981186523437499,0.0253466796875,0.9409716796875,1.0649846702924175,0.96875,-0.5810546875,0.15087890625,31.824117647058824,311.7525591542177
0.4966538085937499,0.0292529296875,0.9439013671875,1.0669913450747437,0.9931640625,-0.64111328125,0.1240234375,31.871176470588235,311.7525591542177
0.4912827148437499,0.0248583984375,0.9482958984375,1.0682891728696442,0.98193359375,-0.6435546875,0.24853515625,31.77705882352941,311.7525591542177
0.4907944335937499,0.0233935546875,0.9312060546875,1.0528870550700993,0.9619140625,-0.7421875,0.15185546875,31.824117647058824,311.5136903073965
0.4961655273437499,0.0209521484375,0.9336474609375,1.0575049902310103,0.94775390625,-0.58447265625,0.14892578125,31.824117647058824,311.5136903073965
0.4995834960937499,0.0272998046875,0.9365771484375,1.0618407149288205,0.93310546875,-0.56884765625,0.1611328125,31.91823529411765,311.5136903073965
0.4942124023437499,0.0233935546875,0.9487841796875,1.0700395210722733,0.904296875,-0.54345703125,0.15087890625,31.871176470588235,311.5136903073965
0.50397802734375,0.0292529296875,0.9365771484375,1.0639672649644436,0.75,-0.53759765625,0.1357421875,31.824117647058824,311.5136903073965
0.50153662109375,0.0268115234375,0.9448779296875,1.0700710920764618,0.85498046875,-0.513671875,0.06884765625,31.824117647058824,311.5136903073965
0.50300146484375,0.0214404296875,0.9385302734375,1.0650395484763988,0.841796875,-0.6142578125,0.02587890625,31.824117647058824,311.5136903073965
0.50300146484375,0.0243701171875,0.9531787109375,1.0780324815288105,0.8671875,-0.47314453125,0.009765625,31.824117647058824,311.37334270222675
0.4937241210937499,0.0214404296875,0.9439013671875,1.0654449731231606,0.90771484375,-0.44384765625,0.0078125,31.824117647058824,311.37334270222675
0.50153662109375,0.0233935546875,0.9473193359375,1.072147454849434,0.912109375,-0.41357421875,0.04296875,31.824117647058824,311.37334270222675
0.50690771484375,0.0180224609375,0.9399951171875,1.06811565890717,0.9453125,-0.3837890625,0.0595703125,31.871176470588235,311.37334270222675
0.50544287109375,0.0189990234375,0.9385302734375,1.066148457293702,0.98291015625,-0.34033203125,0.10205078125,31.824117647058824,311.37334270222675
0.51667333984375,0.0170458984375,0.9536669921875,1.0847684705718497,0.98388671875,-0.39306640625,0.0986328125,31.871176470588235,311.37334270222675
0.51667333984375,-0.1103955078125,0.9478076171875,1.0851164856590845,0.982421875,-0.484375,0.12255859375,31.871176470588235,311.37334270222675
0.50300146484375,0.0204638671875,0.9395068359375,1.065881015061493,0.98046875,-0.40478515625,0.130859375,31.871176470588235,311.8484718457079
0.4995834960937499,0.0209521484375,0.9487841796875,1.072480340947415,0.95361328125,-0.21533203125,0.11474609375,31.871176470588235,311.8484718457079
0.50007177734375,0.0160693359375,0.9360888671875,1.061410558325847,0.9326171875,-0.04736328125,0.11962890625,31.871176470588235,311.8484718457079
0.50934912109375,0.0233935546875,0.9448779296875,1.073675038161188,0.92236328125,0.04248046875,0.115234375,31.73,311.8484718457079
0.50690771484375,0.0185107421875,0.9429248046875,1.0707031643921694,0.89404296875,0.17236328125,0.10888671875,31.91823529411765,311.8484718457079
0.50300146484375,0.0219287109375,0.9522021484375,1.077116648041116,0.8896484375,0.31396484375,0.1025390625,31.871176470588235,311.8484718457079
0.4976303710937499,0.0272998046875,0.9536669921875,1.0760399609488638,0.8876953125,0.38134765625,0.0869140625,31.77705882352941,311.8484718457079
0.50104833984375,0.0243701171875,0.9595263671875,1.082743825103589,0.8310546875,0.3876953125,0.09716796875,31.824117647058824,311.82657872496554
0.4917709960937499,0.0341357421875,0.9517138671875,1.0718037350610032,0.787109375,0.40771484375,0.060546875,31.824117647058824,311.82657872496554
0.4956772460937499,0.0390185546875,0.9644091796875,1.085036149522449,0.75146484375,0.4853515625,0.02197265625,31.91823529411765,311.82657872496554
0.51130224609375,0.0336474609375,0.9639208984375,1.0916527089384296,0.7431640625,0.630859375,-0.01513671875,31.77705882352941,311.82657872496554
0.50495458984375,0.0375537109375,0.9648974609375,1.0896864361517409,0.73876953125,0.787109375,-0.029296875,31.824117647058824,311.82657872496554
0.50593115234375,0.0356005859375,0.9731982421875,1.0974281531051626,0.7353515625,0.97607421875,0.0361328125,31.871176470588235,311.82657872496554
0.4986069335937499,0.0360888671875,0.9805224609375,1.1006069130100766,0.78515625,1.2470703125,0.1220703125,31.871176470588235,311.82657872496554
0.4854233398437499,0.0263232421875,0.9917529296875,1.1044920124147852,0.85498046875,1.478515625,0.2314453125,31.871176470588235,311.57936998069545
0.4800522460937499,0.0160693359375,0.9858935546875,1.0966742833273155,0.90380859375,1.64208984375,0.3095703125,31.871176470588235,311.57936998069545
0.4673569335937499,0.0155810546875,0.9829638671875,1.088523420436847,0.98046875,2.0380859375,0.38330078125,31.871176470588235,311.57936998069545
0.4561264648437499,0.0097216796875,0.9893115234375,1.089441670486782,1.00244140625,2.57275390625,0.43896484375,31.824117647058824,311.57936998069545
0.4580795898437499,0.0038623046875,0.9790576171875,1.0809281409056677,1.01904296875,2.9892578125,0.4970703125,31.91823529411765,311.57936998069545
0.4585678710937499,0.0053271484375,0.9702685546875,1.073188678250614,1.0458984375,3.326171875,0.52685546875,31.965294117647066,311.57936998069545
0.4546616210937499,0.0009326171875,0.9629443359375,1.0648849015666098,1.0390625,3.54296875,0.58447265625,31.91823529411765,311.57936998069545
0.4634506835937499,0.0014208984375,0.9492724609375,1.0563648802237895,1.04638671875,3.50927734375,0.60693359375,31.824117647058824,311.79373914864937
0.4624741210937499,0.0023974609375,0.9419482421875,1.0493591146316426,1.0185546875,3.22705078125,0.61181640625,31.73,311.79373914864937
0.4712631835937499,-0.0010205078125,0.9321826171875,1.0445355242564272,1.0048828125,2.85302734375,0.56787109375,31.91823529411765,311.79373914864937
0.4605209960937499,0.0053271484375,0.9326708984375,1.0401841044477984,0.97021484375,2.3505859375,0.50341796875,31.824117647058824,311.79373914864937
0.4536850585937499,0.0092333984375,0.9346240234375,1.0389597938440258,0.97119140625,1.72119140625,0.4130859375,31.871176470588235,311.79373914864937
0.4492905273437499,0.0146044921875,0.9390185546875,1.0410720989442956,0.9853515625,1.27392578125,0.3125,31.91823529411765,311.79373914864937
0.4326889648437499,0.0165576171875,0.9424365234375,1.0371501799129408,0.97607421875,0.98779296875,0.26123046875,31.871176470588235,311.79373914864937
0.4302475585937499,0.0209521484375,0.9590380859375,1.0513353434935464,0.98828125,0.54833984375,0.2080078125,31.77705882352941,311.6417902998834
0.4273178710937499,0.0248583984375,0.9683154296875,1.058703581886762,1.0205078125,0.49169921875,0.208984375,31.77705882352941,311.6417902998834
0.4268295898437499,0.0219287109375,0.9707568359375,1.0606758230717577,1.03076171875,0.3369140625,0.21728515625,31.871176470588235,311.6417902998834
0.4165756835937499,0.0287646484375,0.9810107421875,1.0661823396814465,1.0283203125,0.4208984375,0.25537109375,31.871176470588235,311.6417902998834
0.4131577148437499,0.0243701171875,1.0010302734375005,1.0832150332620936,1.0634765625,0.60400390625,0.27587890625,31.871176470588235,311.6417902998834
0.4048569335937499,0.1371630859375,0.9961474609375,1.0839892124717203,1.08544921875,0.77099609375,0.27001953125,31.73,311.6417902998834
0.4097397460937499,-0.1108837890625,0.9907763671875,1.077877397472963,1.0888671875,0.99755859375,0.25390625,31.824117647058824,311.6417902998834
