AccX,AccY,AccZ,Magnitude,GyroX,GyroY,GyroZ,Temperature,Altitude
0.4644272460937499,-0.9204541015625,-0.0888134765624999,1.0348025191390728,0.9931640625,0.0283203125,-0.01171875,30.788823529411765,323.1500610998686
0.4605209960937499,-0.9243603515625,-0.0795361328124999,1.035783589272728,1.0322265625,0.01123046875,-0.01025390625,30.835882352941177,323.1500610998686
0.4610092773437499,-0.9189892578125,-0.0863720703124999,1.0317610887709632,1.10400390625,0.013671875,-0.0595703125,30.741764705882357,323.1500610998686
0.4673569335937499,-0.9141064453125,-0.0976025390624999,1.0312804431246885,1.109375,-0.0830078125,-0.154296875,30.741764705882357,323.1500610998686
0.4634506835937499,-0.9204541015625,-0.0810009765624999,1.03372309996963,1.1640625,-0.1083984375,-0.205078125,30.835882352941177,323.1500610998686
0.58161474609375,-0.9194775390625,-0.0936962890624999,1.0920135769752186,1.13525390625,-0.13037109375,-0.2197265625,30.69470588235294,323.0645889777793
0.4595444335937499,-0.9297314453125,-0.0849072265624999,1.0405723828607052,1.3447265625,-0.19921875,-0.287109375,30.788823529411765,323.0645889777793
0.4654038085937499,-0.9199658203125,-0.1039501953124999,1.036215932468868,1.412109375,-0.2587890625,-0.43017578125,30.69470588235294,323.0645889777793
0.4522202148437499,-0.9111767578125,-0.1078564453124999,1.022926790873362,1.46923828125,-0.27685546875,-0.525390625,30.788823529411765,323.0645889777793
0.4468491210937499,-0.9028759765625,-0.1337353515624999,1.0162402817904288,1.50732421875,-0.25830078125,-0.603515625,30.64764705882353,323.0645889777793
0.4497788085937499,-0.8945751953125,-0.1312939453124999,1.009853383815756,1.509765625,-0.5791015625,-0.69580078125,30.741764705882357,323.0645889777793
0.4488022460937499,-0.8833447265625,-0.1249462890624999,0.998665578256837,1.53076171875,-0.6142578125,-0.84423828125,30.741764705882357,323.0645889777793
0.4580795898437499,-0.8911572265625,-0.1205517578124999,1.0092228888593782,1.4658203125,-0.57080078125,-0.99951171875,30.741764705882357,323.1254610156431
0.4697983398437499,-0.9087353515625,-0.1098095703124999,1.02886761103243,1.40087890625,-0.4248046875,-0.806640625,30.69470588235294,323.1254610156431
0.4893295898437499,-0.9145947265625,0.0479052734375,1.0383746320936913,1.44287109375,-0.4326171875,-0.50048828125,30.741764705882357,323.1254610156431
0.51325537109375,-0.9228955078125,-0.0336376953124999,1.0565503721276197,1.68603515625,-0.6904296875,-0.001953125,30.788823529411765,323.1254610156431
0.52448583984375,-0.9326611328125,-0.0409619140624999,1.0708034662156092,1.908203125,-1.00146484375,0.626953125,30.69470588235294,323.1254610156431
0.52888037109375,-0.9707470703125,-0.0687939453124999,1.1076086530721143,1.90380859375,-1.49560546875,1.54638671875,30.835882352941177,323.1254610156431
0.52350927734375,-0.8618603515625,-0.0863720703124999,1.012089602550327,1.69873046875,-1.8662109375,2.25244140625,30.788823529411765,323.1254610156431
0.53327490234375,-1.0063916015625,-0.1552197265624999,1.149477855671612,1.1796875,-2.53173828125,2.70361328125,30.788823529411765,323.05399928531983
0.62458349609375,-1.0146923828125,-0.2230908203124999,1.2122189115164408,0.47216796875,-4.51025390625,2.69580078125,30.69470588235294,323.05399928531983
0.4761459960937499,-0.9448681640625,-0.1435009765624999,1.06774687418383,0.44482421875,-6.2099609375,2.517578125,30.835882352941177,323.05399928531983
0.4590561523437499,-0.8979931640625,-0.1220166015624999,1.015880074007011,0.9736328125,-7.1416015625,2.232421875,30.93,323.05399928531983
0.51276708984375,-0.8965283203125,-0.0731884765624999,1.0353983149738657,1.4970703125,-7.80810546875,1.81982421875,30.882941176470588,323.05399928531983
0.58210302734375,-0.9165478515625,-0.0683056640624999,1.0879198327035002,1.55322265625,-7.91015625,1.724609375,30.788823529411765,323.05399928531983
0.3828842773437499,-0.9219189453125,-0.0277783203124999,0.9986523652615767,1.3984375,-7.5771484375,1.7685546875,30.788823529411765,323.05399928531983
0.3496811523437499,-0.9160595703125,0.0098193359375,0.9805806769582136,1.2119140625,-6.40087890625,1.70361328125,30.788823529411765,322.9379223653217
0.3364975585937499,-0.9053173828125,0.0171435546875,0.9659834739939148,1.05810546875,-5.19873046875,1.447265625,30.788823529411765,322.9379223653217
0.3560288085937499,-0.8921337890625,0.0444873046875,0.961581161636425,0.96728515625,-3.7490234375,0.9765625,30.788823529411765,322.9379223653217
0.3550522460937499,-0.8789501953125,0.0244677734375,0.9482690626784612,0.7646484375,-2.05810546875,0.2109375,30.835882352941177,322.9379223653217
0.3521225585937499,-0.8608837890625,0.0088427734375,0.9301555725701388,0.6123046875,-0.298828125,-0.6865234375,30.741764705882357,322.9379223653217
0.3477280273437499,-0.8486767578125,0.0093310546875,0.9171990453729734,0.37109375,1.38427734375,-1.33642578125,30.788823529411765,322.9379223653217
0.3360092773437499,-0.8784619140625,-0.0116650390624999,0.940602807807711,0.3720703125,2.92138671875,-1.80126953125,30.835882352941177,322.9379223653217
0.3286850585937499,-0.9116650390625,-0.0565869140624999,0.9707569675437429,0.02001953125,4.3623046875,-1.92041015625,30.835882352941177,323.1878889135773
0.3345444335937499,-0.9399853515625,-0.0707470703124999,1.0002487626377956,-0.001953125,5.12744140625,-1.876953125,30.741764705882357,323.1878889135773
0.3408920898437499,-0.9482861328125,-0.1034619140624999,1.012994755299356,-0.20654296875,5.74853515625,-1.53564453125,30.788823529411765,323.1878889135773
0.3574936523437499,-0.9517041015625,-0.1303173828124999,1.0249512323325725,-0.1689453125,6.03173828125,-1.17138671875,30.882941176470588,323.1878889135773
0.4009506835937499,-0.9399853515625,-0.1522900390624999,1.033211579408608,0.05908203125,5.62841796875,-0.83349609375,30.741764705882357,323.1878889135773
0.4507553710937499,-0.9404736328125,-0.0731884765624999,1.0454796084510425,0.34716796875,4.51123046875,-0.6083984375,30.741764705882357,323.1878889135773
0.50251318359375,-0.9292431640625,-0.2343212890624999,1.0820900258991042,0.7177734375,2.81640625,-0.34912109375,30.741764705882357,323.1878889135773
0.53327490234375,-0.9160595703125,-0.2465283203124999,1.088266268220678,1.17236328125,0.9775390625,0.06005859375,30.835882352941177,323.15651011100834
0.55866552734375,-0.9004345703125,-0.2348095703124999,1.0853686568012122,1.5615234375,-0.64990234375,0.48486328125,30.835882352941177,323.15651011100834
0.61091162109375,-0.8984814453125,-0.2069775390624999,1.1060387054866576,1.94384765625,-2.27734375,0.716796875,30.835882352941177,323.15651011100834
0.59479833984375,-0.9058056640625,-0.1913525390624999,1.100402090298929,2.23828125,-3.37158203125,0.8681640625,30.882941176470588,323.15651011100834
0.55329443359375,-0.9145947265625,-0.1669384765624999,1.081890335966992,2.38916015625,-3.9228515625,1.203125,30.69470588235294,323.15651011100834
0.4893295898437499,-0.9268017578125,-0.1337353515624999,1.056546302837002,2.93359375,-4.1220703125,1.84033203125,30.93,323.15651011100834
0.4009506835937499,-0.9409619140625,-0.1234814453124999,1.0302516400020545,3.248046875,-4.1650390625,2.8291015625,30.788823529411765,323.15651011100834
0.3570053710937499,-0.9453564453125,-0.1068798828124999,1.0161569529524883,3.3291015625,-4.419921875,3.79931640625,30.741764705882357,322.96290713131094
0.3330795898437499,-0.9307080078125,-0.0941845703124999,0.9929905046181174,3.25244140625,-4.6533203125,4.15283203125,30.788823529411765,322.96290713131094
0.3472397460937499,-0.9141064453125,0.0503466796875,0.9791326890593848,3.37451171875,-4.673828125,3.814453125,30.882941176470588,322.96290713131094
0.3765366210937499,-0.9219189453125,-0.0590283203124999,0.9975964671898782,3.33642578125,-4.6103515625,3.0810546875,30.882941176470588,322.96290713131094
0.4019272460937499,-0.9160595703125,-0.0678173828124999,1.0026514074817654,3.18115234375,-4.30615234375,1.9501953125,30.93,322.96290713131094
0.4072983398437499,-0.9233837890625,-0.0580517578124999,1.0108904817674442,2.92626953125,-3.63037109375,0.5263671875,30.741764705882357,322.96290713131094
0.3946030273437499,-0.9263134765625,-0.0619580078124999,1.008765087015927,2.720703125,-2.98046875,-0.40234375,30.788823529411765,322.96290713131094
0.3906967773437499,-0.9292431640625,-0.0248486328124999,1.0083423448097022,2.7421875,-2.1875,-1.2802734375,30.835882352941177,322.96290713131094
0.3599350585937499,-0.9404736328125,-0.0370556640624999,1.0076790275973495,2.42724609375,-1.45947265625,-1.77685546875,30.69470588235294,322.96290713131094
0.3374741210937499,-0.9341259765625,-0.0316845703124999,0.9937223125666098,2.49169921875,-0.666015625,-2.03173828125,30.835882352941177,323.0106015083361
0.3321030273437499,-0.9429150390625,-0.0321728515624999,1.0002081203623483,2.33349609375,-0.033203125,-1.97705078125,30.835882352941177,323.0106015083361
0.3491928710937499,-0.9658642578125,-0.0536572265624999,1.028449572757346,2.2666015625,0.69677734375,-1.7802734375,30.788823529411765,323.0106015083361
0.3823959960937499,-1.1069775390625,-0.1942822265624999,1.1871695554450017,2.072265625,1.474609375,-1.74560546875,30.788823529411765,323.0106015083361
0.4414780273437499,-1.0102978515625,-0.0634228515624999,1.1043672648170315,1.8876953125,2.24853515625,-1.47314453125,30.788823529411765,323.0106015083361
0.50202490234375,-1.0391064453125,-0.0780712890624999,1.156661719535626,1.76123046875,2.79248046875,-1.43994140625,30.788823529411765,323.0106015083361
0.4624741210937499,-1.0449658203125,-0.0643994140624999,1.1445449588523842,1.88134765625,2.94482421875,-1.466796875,30.741764705882357,323.0106015083361
0.62116552734375,-1.0430126953125,-0.1244580078124999,1.2203326967069028,2.00732421875,2.89404296875,-1.2763671875,30.788823529411765,323.0106015083361
0.55378271484375,-1.0000439453125,-0.1864697265624999,1.158246151187302,2.08154296875,3.24853515625,-0.669921875,30.835882352941177,323.18379295126067
0.53327490234375,-0.9648876953125,-0.2069775390624999,1.121708557385372,2.32373046875,2.25537109375,0.14697265625,30.788823529411765,323.18379295126067
0.52741552734375,-0.9360791015625,-0.2172314453124999,1.0961754985849212,2.6435546875,0.40625,1.57373046875,30.788823529411765,323.18379295126067
0.50837255859375,-0.9155712890625,-0.2143017578124999,1.0689427894364838,3.37744140625,-1.9833984375,3.00390625,30.882941176470588,323.18379295126067
0.53132177734375,-0.9033642578125,-0.1522900390624999,1.0590382756871954,4.5830078125,-4.1259765625,4.47314453125,30.741764705882357,323.18379295126067
0.55378271484375,-0.8931103515625,-0.1034619140624999,1.0559478031556686,5.8759765625,-6.6640625,6.08447265625,30.788823529411765,323.18379295126067
0.54645849609375,-0.8750439453125,-0.0936962890624999,1.0359043337901392,7.00927734375,-8.875,7.2568359375,30.835882352941177,323.18379295126067
0.55524755859375,-0.8833447265625,-0.0590283203124999,1.0450273201543645,8.087890625,-10.82568359375,8.37060546875,30.788823529411765,323.18379295126067
0.56257177734375,-0.8769970703125,-0.0536572265624999,1.0433072241496235,8.9775390625,-12.732421875,8.931640625,30.882941176470588,323.00193284560595
0.56110693359375,-0.8628369140625,-0.0658642578124999,1.0313421506236766,9.45166015625,-13.80859375,8.99072265625,30.741764705882357,323.00193284560595
0.56745458984375,-0.8169384765625,-0.0233837890624999,0.9949572792908832,9.5302734375,-15.55322265625,8.689453125,30.835882352941177,323.00193284560595
0.53718115234375,-0.7788525390625,-0.0082470703124999,0.9461727549481656,9.7265625,16.0,7.89013671875,30.835882352941177,323.00193284560595
0.53571630859375,-0.7544384765625,0.0205615234375,0.9255226385439368,9.71533203125,16.0,6.93603515625,30.788823529411765,323.00193284560595
0.52546240234375,-0.7559033203125,0.0850146484375,0.9245150384851936,9.68701171875,16.0,5.599609375,30.788823529411765,323.00193284560595
0.50397802734375,-0.7983837890625,0.1025927734375,0.949703008231884,9.55029296875,16.0,4.1923828125,30.741764705882357,323.00193284560595
0.4722397460937499,-0.8550244140625,0.1504443359375,0.9882867117639932,9.27294921875,16.0,2.603515625,30.788823529411765,323.00193284560595
0.3496811523437499,-0.9336376953125,0.1826708984375,1.0135703781922856,8.85400390625,16.0,1.21875,30.835882352941177,323.00193284560595
0.11823583984375,-0.9341259765625,0.2656787109375,0.9783436161992436,8.65380859375,16.0,1.01708984375,30.835882352941177,323.1320171883476
-0.00578759765625,-0.9790478515625,0.3149951171875,1.0284892395099448,8.5107421875,16.0,1.12255859375,30.835882352941177,323.1320171883476
0.0039780273437499,-1.0210400390625,0.3970263671875,1.0955220318699224,8.4208984375,-15.12109375,0.79638671875,30.882941176470588,323.1320171883476
-0.03606103515625,-1.0581494140625,0.4028857421875,1.1328272163023474,8.28173828125,-12.41162109375,0.0595703125,30.835882352941177,323.1320171883476
0.15827490234375,-1.0825634765625,0.4053271484375,1.166741069286363,8.22607421875,-9.25537109375,-0.728515625,30.882941176470588,323.1320171883476
0.22077490234375,-1.0908642578125,0.3818896484375,1.1766758644849593,8.12646484375,-5.85009765625,-1.47900390625,30.741764705882357,323.1320171883476
0.2642319335937499,-1.1328564453125,0.3511279296875,1.2151020794251797,7.8544921875,-2.2685546875,-1.90087890625,30.788823529411765,323.1320171883476
0.2886459960937499,-1.2349072265625,0.3774951171875,1.3231836353196194,7.34423828125,0.39892578125,-1.5244140625,30.835882352941177,323.1320171883476
0.2715561523437499,-1.0723095703125,0.4043505859375,1.177747831586847,7.10400390625,2.52392578125,-0.521484375,30.882941176470588,323.1320171883476
0.21296240234375,-1.0371533203125,0.4199755859375,1.139043233345781,7.04541015625,4.30029296875,1.43115234375,30.835882352941177,322.79737523195473
0.21393896484375,-1.0405712890625,0.4224169921875,1.1432386468224134,7.01220703125,4.71533203125,3.14404296875,30.788823529411765,322.79737523195473
0.22077490234375,-1.0767041015625,0.3740771484375,1.1610198072425528,6.58544921875,4.4794921875,4.38916015625,30.835882352941177,322.79737523195473
0.24030615234375,-1.0928173828125,0.3599169921875,1.1753880722113514,5.9931640625,3.78466796875,4.72021484375,30.788823529411765,322.79737523195473
0.2603256835937499,-1.0727978515625,0.3472216796875,1.157250010456115,5.798828125,2.30078125,4.27783203125,30.835882352941177,322.79737523195473
0.23688818359375,-1.0884228515625,0.2622607421875,1.1443605254562603,5.3310546875,0.3916015625,4.10009765625,30.835882352941177,322.79737523195473
0.16120458984375,-1.0239697265625,0.3198779296875,1.0848146434319248,4.73291015625,-1.3046875,4.8271484375,30.788823529411765,322.79737523195473
0.17292333984375,-1.0469189453125,0.3218310546875,1.1088358703064325,4.49951171875,-2.49560546875,5.2763671875,30.741764705882357,322.79737523195473
0.15534521484375,-1.0112744140625,0.3633349609375,1.085734944704166,3.919921875,-3.39013671875,5.86181640625,30.835882352941177,322.9917319444015
0.12800146484375,-1.0019970703125,0.3662646484375,1.07449164566879,3.44482421875,-3.1767578125,5.87890625,30.93,322.9917319444015
0.08796240234375,-0.9565869140625,0.3980029296875,1.039808751848884,2.9365234375,-2.65234375,5.72705078125,30.835882352941177,322.9917319444015
0.0215561523437499,-0.8892041015625,0.4585498046875,1.0007080120186829,2.775390625,-2.048828125,5.55126953125,30.788823529411765,322.9917319444015
-0.01897119140625,-0.8227978515625,0.4795458984375,0.9525337155961816,2.6923828125,-1.34521484375,5.2197265625,30.741764705882357,322.9917319444015
-0.16692041015625,-0.7754345703125,0.5147021484375001,0.9455577707198224,2.71728515625,-0.2841796875,4.84228515625,30.882941176470588,322.9917319444015
-0.04533837890625,-0.7402783203125,0.5488818359375001,0.9226802425264472,2.84619140625,0.548828125,4.48388671875,30.835882352941177,322.9917319444015
-0.02238916015625,-0.7124462890625,0.5410693359375001,0.8948949746105834,2.9951171875,1.1240234375,3.96484375,30.69470588235294,322.9917319444015
0.0205795898437499,-0.6929150390625,0.5371630859375001,0.8769828685732811,3.2373046875,1.333984375,3.25,30.64764705882353,322.9917319444015
0.06306005859375,-0.7173291015625,0.5273974609375001,0.892572513996276,3.46337890625,1.5234375,2.6513671875,30.882941176470588,322.95016288368555
0.20222021484375,-0.7842236328125,0.5034716796875001,0.9536159886455552,3.60546875,1.791015625,2.14892578125,30.835882352941177,322.95016288368555
0.0420639648437499,-0.8174267578125,0.4644091796875,0.9410801069538386,3.60009765625,2.0380859375,1.94189453125,30.788823529411765,322.95016288368555
0.0083725585937499,-0.8643017578125,0.5112841796875001,1.0042405790914362,3.81884765625,2.1494140625,2.0556640625,30.741764705882357,322.95016288368555
-0.05168603515625,-0.8911572265625,0.5098193359375001,1.027982686615146,4.14208984375,2.05810546875,2.60498046875,30.788823529411765,322.95016288368555
-0.09807275390625,-0.9155712890625,0.4966357421875,1.0462007985240944,4.56103515625,1.90478515625,3.0078125,30.835882352941177,322.95016288368555
-0.08830712890625,-0.9370556640625,0.4854052734375,1.0590041293820398,4.66064453125,1.556640625,3.474609375,30.69470588235294,322.95016288368555
-0.02434228515625,-0.9355908203125,0.4995654296875,1.0608903564640888,4.7705078125,1.197265625,3.50537109375,30.835882352941177,322.95016288368555
0.0064194335937499,-0.9219189453125,0.5176318359375001,1.0573166358427375,4.91162109375,0.68798828125,3.423828125,30.788823529411765,322.86318480247206
0.0327866210937499,-0.8813916015625,0.5474169921875001,1.0380710385918988,5.3037109375,0.35791015625,3.31982421875,30.788823529411765,322.86318480247206
0.0396225585937499,-0.8955517578125,0.5332568359375001,1.0430463801503018,5.5908203125,-0.22119140625,3.28125,30.788823529411765,322.86318480247206
-0.00920556640625,-0.8935986328125,0.5186083984375001,1.0332269498745847,5.67236328125,-0.59033203125,3.4091796875,30.835882352941177,322.86318480247206
-0.07610009765625,-0.9053173828125,0.5278857421875001,1.0507398085590045,5.76611328125,-0.90478515625,3.92578125,30.835882352941177,322.86318480247206
-0.10637353515625,-0.9072705078125,0.5522998046875001,1.0674690522848145,5.91650390625,-1.39404296875,4.20068359375,30.882941176470588,322.86318480247206
-0.10637353515625,-0.8935986328125,0.5689013671875001,1.0646514035748105,5.9423828125,-1.953125,4.30908203125,30.835882352941177,322.86318480247206
-0.08000634765625,-0.8711376953125,0.5767138671875001,1.047798064736726,5.8359375,-2.0009765625,4.22509765625,30.788823529411765,322.86318480247206
-0.06682275390625,-0.8496533203125,0.5772021484375001,1.0293388000646515,5.54736328125,-2.1123046875,4.0107421875,30.69470588235294,322.8647227410032
-0.04338525390625,-0.8105908203125,0.5850146484375001,1.0005907740519364,5.21240234375,-1.97265625,3.8984375,30.882941176470588,322.8647227410032
-0.02922509765625,-0.7871533203125,0.6045458984375001,0.9929452146667582,4.98779296875,-1.75634765625,3.81201171875,30.835882352941177,322.8647227410032
-0.05656884765625,-0.7725048828125,0.6152880859375001,0.9892134538060744,4.93212890625,-1.5048828125,3.73486328125,30.741764705882357,322.8647227410032
-0.06242822265625,-0.7812939453125,0.5918505859375001,0.9821428755738912,4.83544921875,-1.29638671875,3.6318359375,30.93,322.8647227410032
-0.16447900390625,-0.7822705078125,0.6011279296875001,1.000177623209797,4.70166015625,-1.2216796875,3.5869140625,30.741764705882357,322.8647227410032
-0.03752587890625,-0.7822705078125,0.5952685546875001,0.983717434622696,4.56103515625,-1.32763671875,3.60791015625,30.741764705882357,322.8647227410032
-0.01994775390625,-0.8115673828125,0.5942919921875001,1.0060926904163563,4.32861328125,-1.5576171875,3.64306640625,30.835882352941177,322.8647227410032
-0.00188134765625,-0.8115673828125,0.5879443359375001,1.002159517479689,4.14990234375,-1.8623046875,3.72998046875,30.835882352941177,322.8647227410032
0.0044663085937499,-0.8218212890625,0.6104052734375001,1.02372104447897,4.162109375,-2.11669921875,3.779296875,30.835882352941177,322.972099620141
-0.02580712890625,-0.8052197265625,0.6162646484375001,1.014311063166308,4.361328125,-2.25146484375,3.9130859375,30.788823529411765,322.972099620141
-0.01897119140625,-0.7920361328125,0.6177294921875001,1.0046247395431689,4.59912109375,-2.79345703125,4.0224609375,30.788823529411765,322.972099620141
-0.01262353515625,-0.8599072265625,0.6274951171875001,1.0645890822417852,4.662109375,-3.27685546875,3.97998046875,30.788823529411765,322.972099620141
0.0186264648437499,-0.6963330078125,0.6514208984375001,0.9537168289816944,4.7080078125,-3.91845703125,3.7265625,30.788823529411765,322.972099620141
0.0117905273437499,-0.6802197265625,0.6689990234375001,0.9541475705047592,4.73876953125,-4.17236328125,3.23095703125,30.741764705882357,322.972099620141
-0.01506494140625,-0.6772900390625,0.6719287109375001,0.9541681937976066,4.71240234375,-4.28564453125,2.7099609375,30.741764705882357,322.972099620141
-0.03606103515625,-0.6802197265625,0.6650927734375001,0.9520229366670157,4.67626953125,-4.29931640625,2.49072265625,30.835882352941177,322.972099620141
-0.02873681640625,-0.6880322265625,0.6719287109375001,0.9621342640130056,4.4560546875,-4.15673828125,2.26806640625,30.835882352941177,323.4039236587153
0.0064194335937499,-0.6973095703125,0.6606982421875001,0.9606268855319012,4.19384765625,-3.845703125,2.07958984375,30.835882352941177,323.4039236587153
-0.01213525390625,-0.6748486328125,0.6338427734375001,0.9259182485701486,3.97265625,-3.2744140625,2.05224609375,30.788823529411765,323.4039236587153
-0.03313134765625,-0.6123486328125,0.6353076171875001,0.8829973401779397,3.9140625,-3.15966796875,2.0380859375,30.788823529411765,323.4039236587153
-0.02483056640625,-0.5874462890625,0.6650927734375001,0.8877263637180903,4.0166015625,-3.35498046875,1.888671875,30.788823529411765,323.4039236587153
-0.01750634765625,-0.5669384765625,0.7163623046875001,0.9137289860743484,4.32958984375,-3.46875,1.77734375,30.741764705882357,323.4039236587153
-0.03215478515625,-0.5723095703125,0.7456591796875001,0.9405210187613876,4.8076171875,-3.4248046875,1.8046875,30.788823529411765,323.4039236587153
-0.02092431640625,-0.6099072265625,0.7720263671875001,0.984098248988869,5.2197265625,-3.32080078125,1.77490234375,30.788823529411765,323.4039236587153
-0.01262353515625,-0.6475048828125,0.7808154296875001,1.0144430305068617,5.478515625,-3.18408203125,1.78369140625,30.788823529411765,323.2197634260785
-0.01945947265625,-0.6797314453125,0.7827685546875001,1.0368896368612417,5.67333984375,-3.13525390625,1.90185546875,30.788823529411765,323.2197634260785
-0.02287744140625,-0.6728955078125,0.7686083984375001,1.021797735321525,5.71923828125,-3.15966796875,2.1630859375,30.788823529411765,323.2197634260785
-0.03606103515625,-0.6426220703125,0.7769091796875001,1.0088862160778926,5.69873046875,-3.13330078125,2.4765625,30.882941176470588,323.2197634260785
-0.00383447265625,-0.6064892578125,0.7754443359375001,0.9844581459666324,5.66064453125,-3.0927734375,2.61328125,30.882941176470588,323.2197634260785
0.0244858398437499,-0.5698681640625,0.7871630859375001,0.9720982484437808,5.74267578125,-3.173828125,2.623046875,30.788823529411765,323.2197634260785
0.0322983398437499,-0.5527783203125,0.8091357421875001,0.980463004630714,5.5771484375,-3.17236328125,2.54443359375,30.788823529411765,323.2197634260785
0.0210678710937499,-0.5215283203125,0.8091357421875001,0.9628791686217524,5.54345703125,-3.0732421875,2.58447265625,30.882941176470588,323.2197634260785
0.0269272460937499,-0.4932080078125,0.8369677734375001,0.9718509501592798,5.52392578125,-2.99072265625,2.6162109375,30.788823529411765,323.2197634260785
0.0347397460937499,-0.4863720703125,0.8843310546875001,1.0098544722005405,5.70361328125,-2.935546875,2.66845703125,30.788823529411765,323.360050213327
0.0410874023437499,-0.4824658203125,0.8965380859375001,1.0189415988846695,5.77880859375,-2.9736328125,2.6982421875,30.788823529411765,323.360050213327
0.0488999023437499,-0.4844189453125,0.9116748046875,1.033539483778387,5.94140625,-3.0458984375,2.685546875,30.741764705882357,323.360050213327
0.06745458984375,-0.4814892578125,1.0498583984375005,1.156972205305544,6.16064453125,-3.1650390625,2.6923828125,30.788823529411765,323.360050213327
0.06940771484375,-0.4722119140625,0.9194873046875,1.0359818657408464,6.0986328125,-3.21240234375,2.70849609375,30.788823529411765,323.360050213327
0.08014990234375,-0.4453564453125,0.9282763671875,1.0326971405527958,6.0234375,-3.30615234375,2.685546875,30.741764705882357,323.360050213327
0.07331396484375,-0.4014111328125,0.9297412109375,1.0153445495507691,5.94287109375,-3.439453125,2.64697265625,30.835882352941177,323.360050213327
0.0274155273437499,-0.3623486328125,0.9302294921875,0.9986866630610616,5.85986328125,-3.4599609375,2.67138671875,30.788823529411765,323.360050213327
-0.00676416015625,-0.3130322265625,0.9497607421875,1.0000401972570137,5.8046875,-3.41845703125,2.5859375,30.835882352941177,323.360050213327
0.0073959960937499,-0.2549267578125,0.9648974609375,0.9980327964203612,5.75537109375,-3.32861328125,2.31396484375,30.788823529411765,322.95016288368555
0.0044663085937499,-0.2261181640625,0.9912646484375,1.0167374170715715,5.7451171875,-3.08837890625,2.05517578125,30.741764705882357,322.95016288368555
0.0093491210937499,-0.2207470703125,1.0044482421875005,1.028461446214848,5.7998046875,-2.83251953125,1.9990234375,30.741764705882357,322.95016288368555
0.0049545898437499,-0.2422314453125,1.0068896484375005,1.0356289804699823,5.7724609375,-2.4091796875,1.69189453125,30.882941176470588,322.95016288368555
0.0425522460937499,-0.2754345703125,0.9800341796875,1.018892481828483,5.77978515625,-2.01171875,1.40966796875,30.835882352941177,322.95016288368555
0.0230209960937499,-0.3057080078125,0.9722216796875,1.0194127460240134,5.60791015625,-1.62646484375,1.3125,30.788823529411765,322.95016288368555
0.0371811523437499,-0.3227978515625,0.9414599609375,0.9959556963597398,5.41552734375,-1.474609375,1.251953125,30.93,322.95016288368555
0.0171616210937499,-0.3257275390625,0.9424365234375,0.9972860931805072,5.30078125,-1.576171875,1.83642578125,30.788823529411765,322.95016288368555
-0.00285791015625,-0.3061962890625,0.9155810546875,0.9654289216657964,5.2021484375,-2.08251953125,2.4833984375,30.882941176470588,322.8733847467114
0.0249741210937499,-0.2920361328125,0.9287646484375,0.9739161061301526,5.1298828125,-2.6943359375,2.8125,30.835882352941177,322.8733847467114
0.0518295898437499,-0.2671337890625,0.9580615234375,0.99595614880056,5.29052734375,-3.28125,2.947265625,30.93,322.8733847467114
0.10505224609375,-0.1177197265625,0.9648974609375,0.9777121348101014,5.35302734375,-3.9189453125,2.75732421875,30.788823529411765,322.8733847467114
0.12458349609375,-0.2212353515625,0.9897998046875,1.0218462612542738,5.1796875,-4.0322265625,2.5908203125,30.788823529411765,322.8733847467114
0.14167333984375,-0.1797314453125,1.0147021484375005,1.0401899719283405,5.16552734375,-3.84716796875,2.5556640625,30.835882352941177,322.8733847467114
0.12800146484375,-0.1543408203125,1.0420458984375005,1.0611621545585286,5.34375,-3.44970703125,2.54150390625,30.93,322.8733847467114
0.10407568359375,-0.1191845703125,1.0366748046875005,1.048680771440932,5.7451171875,-3.306640625,2.54150390625,30.835882352941177,322.8733847467114
0.12165380859375,-0.1118603515625,0.9888232421875,1.002538673412278,5.88720703125,-3.451171875,2.48193359375,30.788823529411765,322.8733847467114
0.14313818359375,-0.1084423828125,0.9414599609375,0.958433695171977,5.70751953125,-3.5732421875,2.349609375,30.788823529411765,322.99326781371
0.13923193359375,-0.1060009765625,0.9238818359375,0.9403081330817596,5.412109375,-3.86767578125,2.26171875,30.788823529411765,322.99326781371
0.12653662109375,-0.0723095703125,0.9380419921875,0.949296038938168,5.283203125,-3.9833984375,2.58349609375,30.788823529411765,322.99326781371
0.10847021484375,-0.0737744140625,0.9321826171875,0.941367560236198,5.25537109375,-3.88525390625,2.62744140625,30.835882352941177,322.99326781371
0.11237646484375,-0.0659619140625,0.9419482421875,0.9509184691221896,5.25537109375,-3.54931640625,2.95947265625,30.788823529411765,322.99326781371
0.13337255859375,-0.0596142578125,0.9375537109375,0.9488672509961844,5.3583984375,-3.3681640625,3.15625,30.788823529411765,322.99326781371
0.17048193359375,-0.0532666015625,0.9424365234375,0.9592121878045772,5.341796875,-3.23681640625,3.310546875,30.741764705882357,322.99326781371
0.18415380859375,-0.0693798828125,0.9146044921875,0.9355359803279694,5.224609375,-3.369140625,3.48876953125,30.788823529411765,323.0677421693889
0.23347021484375,-0.0630322265625,0.9419482421875,0.972495703725592,4.9091796875,-3.3828125,3.5830078125,30.788823529411765,323.0677421693889
0.23591162109375,-0.0522900390625,0.9546435546875,0.9847501498647384,4.9169921875,-3.5029296875,3.861328125,30.835882352941177,323.0677421693889
0.24030615234375,-0.0395947265625,0.9785693359375,1.0084209113574434,4.931640625,-3.63916015625,4.068359375,30.835882352941177,323.0677421693889
0.2710678710937499,-0.0444775390625,0.9839404296875,1.0215648835947604,4.9951171875,-3.9990234375,4.166015625,30.788823529411765,323.0677421693889
0.2627670898437499,-0.0225048828125,1.0049365234375005,1.038966038614356,5.041015625,-4.19873046875,4.32666015625,30.69470588235294,323.0677421693889
0.2837631835937499,-0.0049267578125,1.1343310546875005,1.1692958389279675,5.22021484375,-4.36572265625,4.3974609375,30.882941176470588,323.0677421693889
0.2886459960937499,-0.0244580078125,0.9819873046875,1.0238231154718722,4.8095703125,-4.4794921875,4.49755859375,30.788823529411765,323.0677421693889
0.3115952148437499,-0.0229931640625,0.9824755859375,1.0309600091518398,4.560546875,-4.59814453125,4.25244140625,30.788823529411765,323.0677421693889
0.3135483398437499,-0.0107861328125,0.9990771484375,1.047179091946467,4.42236328125,-4.52490234375,4.10595703125,30.788823529411765,323.16568928951835
0.3423569335937499,0.0077685546875,1.0034716796875005,1.0602943140262997,4.330078125,-4.34912109375,3.98388671875,30.788823529411765,323.16568928951835
0.3550522460937499,0.0106982421875,1.0137255859375005,1.0741583279137428,4.2939453125,-4.23388671875,3.888671875,30.835882352941177,323.16568928951835
0.3682358398437499,0.0097216796875,0.9868701171875,1.0533777921520124,4.138671875,-3.81982421875,3.853515625,30.882941176470588,323.16568928951835
0.3745834960937499,0.0131396484375,0.9824755859375,1.0515434954723042,4.083984375,-3.6005859375,3.89111328125,30.788823529411765,323.16568928951835
0.3750717773437499,0.0214404296875,0.9990771484375,1.0673770087063852,4.068359375,-3.62353515625,3.9599609375,30.788823529411765,323.16568928951835
0.4058334960937499,0.0341357421875,0.9541552734375,1.0374383650487184,3.912109375,-3.9267578125,3.927734375,30.741764705882357,323.16568928951835
0.4229233398437499,0.0277880859375,0.9336474609375,1.025345751646586,3.5810546875,-4.23583984375,3.8876953125,30.882941176470588,323.16568928951835
0.4102280273437499,0.0492724609375,0.9346240234375,1.0218790902115975,3.34765625,-4.54296875,3.9443359375,30.835882352941177,323.16568928951835
0.3877670898437499,0.0761279296875,0.9653857421875,1.0431339362053689,3.34716796875,-4.857421875,4.0703125,30.788823529411765,323.03637291930346
0.3755600585937499,0.0976123046875,0.9287646484375,1.006567082625187,3.05517578125,-5.06103515625,4.16552734375,30.788823529411765,323.03637291930346
0.4009506835937499,0.1190966796875,0.9482958984375,1.0364413059986888,2.9658203125,-5.1376953125,4.23291015625,30.788823529411765,323.03637291930346
0.4419663085937499,0.1234912109375,0.9678271484375,1.0711086249132058,2.8662109375,-5.39013671875,4.126953125,30.69470588235294,323.03637291930346
0.4365952148437499,0.1064013671875,0.9824755859375,1.080367950990339,2.8544921875,-5.28759765625,4.18408203125,30.835882352941177,323.03637291930346
0.4790756835937499,0.1088427734375,0.9785693359375,1.0949694996562898,2.69775390625,-5.07421875,4.01025390625,30.835882352941177,323.03637291930346
0.52839208984375,0.0146044921875,0.9775927734375,1.1113501349614008,2.5927734375,-4.771484375,3.76611328125,30.835882352941177,323.03637291930346
0.56891943359375,0.1552294921875,0.9648974609375,1.130837135616379,2.5048828125,-4.61083984375,3.40380859375,30.835882352941177,323.03637291930346
0.61530615234375,0.1635302734375,0.9409716796875,1.136121258236342,2.49755859375,-4.69970703125,3.06884765625,30.788823529411765,323.0685098694984
0.62263037109375,0.1776904296875,0.9517138671875,1.1510872046929614,2.35400390625,-4.966796875,2.97998046875,30.835882352941177,323.0685098694984
0.62116552734375,0.2035693359375,0.9434130859375,1.1477435853065747,2.46435546875,-5.3505859375,2.9775390625,30.882941176470588,323.0685098694984
0.62409521484375,0.2431201171875,0.9390185546875,1.1534114940555829,2.740234375,-5.544921875,3.06201171875,30.835882352941177,323.0685098694984
0.65095068359375,0.2484912109375,0.8980029296875001,1.1366151222430962,2.76513671875,-5.93701171875,3.00048828125,30.788823529411765,323.0685098694984
0.68024755859375,0.2538623046875,0.8901904296875001,1.1487479322380616,2.79833984375,-6.2333984375,3.1201171875,30.788823529411765,323.0685098694984
0.68464208984375,0.2475146484375,0.8872607421875001,1.147706372293833,2.7978515625,-6.5498046875,3.10498046875,30.788823529411765,323.0685098694984
0.67341162109375,0.2460498046875,0.9028857421875,1.1529208044164794,2.95458984375,-6.77734375,3.3115234375,30.741764705882357,323.0685098694984
0.64460302734375,0.2470263671875,0.9136279296875,1.1450987218801916,3.140625,-6.685546875,3.44677734375,30.882941176470588,323.11238327728967
0.63727880859375,0.2416552734375,0.9326708984375,1.1551608354921994,3.44921875,-6.3916015625,3.2724609375,30.788823529411765,323.11238327728967
0.65778662109375,0.2348193359375,0.9097216796875,1.1469162540977034,3.41162109375,-6.1064453125,2.947265625,30.788823529411765,323.11238327728967
0.67682958984375,0.2235888671875,0.9272998046875,1.169604720831668,3.24072265625,-5.55615234375,2.56494140625,30.788823529411765,323.11238327728967
0.71100927734375,0.2138232421875,0.9375537109375,1.1959354214426183,3.09033203125,-5.2783203125,2.18408203125,30.835882352941177,323.11238327728967
0.71979833984375,0.2235888671875,0.9268115234375,1.1946050525376777,3.07568359375,-5.09765625,2.0478515625,30.882941176470588,323.11238327728967
0.77155615234375,0.2255419921875,0.8818896484375001,1.1932717370660446,3.04150390625,-5.17333984375,2.09521484375,30.788823529411765,323.11238327728967
0.77448583984375,0.2211474609375,0.8384326171875001,1.162627958188458,2.9833984375,-5.2431640625,2.25830078125,30.788823529411765,323.11238327728967
0.79059912109375,0.2084521484375,0.8555224609375001,1.1833925593948005,3.0458984375,-5.5322265625,2.65576171875,30.882941176470588,323.11238327728967
0.81794287109375,0.1825732421875,0.8335498046875001,1.182018953329646,3.07861328125,-6.1923828125,2.771484375,30.835882352941177,323.3381135745509
0.89606787109375,0.1391162109375,0.7690966796875001,1.1890334950952517,2.9951171875,-6.42041015625,2.52490234375,30.741764705882357,323.3381135745509
0.93464208984375,0.0985888671875,0.7427294921875001,1.197882589991986,2.59326171875,-6.681640625,2.37744140625,30.788823529411765,323.3381135745509
1.03473974609375,0.0668505859375,0.7173388671875001,1.2608451107745913,2.13623046875,-7.10595703125,2.15771484375,30.788823529411765,323.3381135745509
1.01862646484375,0.0526904296875,0.6890185546875001,1.230903215108475,1.69677734375,-7.48486328125,2.31005859375,30.835882352941177,323.3381135745509
1.01813818359375,0.1352099609375,0.7246630859375001,1.2569899293744409,1.59326171875,-8.076171875,2.55810546875,30.788823529411765,323.3381135745509
1.03766943359375,-0.0298291015625,0.7725146484375001,1.2939963333662556,1.65625,-9.24755859375,3.0947265625,30.835882352941177,323.3381135745509
0.94196630859375,-0.0801220703125,0.7808154296875001,1.2261291970730377,1.6728515625,-9.75537109375,3.9423828125,30.788823529411765,323.3381135745509
1.11042333984375,-0.0820751953125,0.7715380859375001,1.354639195286861,1.9365234375,-9.89111328125,3.5458984375,30.788823529411765,323.3381135745509
1.33210302734375,-0.0752392578125,0.7095263671875001,1.5111542234692166,1.9443359375,-9.16943359375,2.78857421875,30.882941176470588,323.0254045829099
1.08405615234375,-0.0845166015625,0.6655810546875001,1.274879969931654,1.65673828125,-8.18994140625,2.15966796875,30.788823529411765,323.0254045829099
1.08454443359375,-0.0435009765625,0.6631396484375001,1.2719603597325233,1.845703125,-6.80859375,1.8310546875,30.882941176470588,323.0254045829099
1.24177099609375,-0.0459423828125,0.6514208984375001,1.4030164276298671,2.1650390625,-6.21435546875,1.892578125,30.882941176470588,323.0254045829099
1.08259130859375,-0.0303173828125,0.7979052734375001,1.3452047838610668,2.396484375,-6.45166015625,2.5419921875,30.882941176470588,323.0254045829099
1.14802099609375,-0.0259228515625,0.6758349609375001,1.3324327735876995,2.9560546875,-6.50927734375,3.49365234375,30.93,323.0254045829099
1.09235693359375,-0.0010205078125,0.6982958984375001,1.2964805720029786,3.408203125,-6.6767578125,4.0693359375,30.788823529411765,323.0254045829099
1.06061865234375,0.0316943359375,0.6792529296875001,1.259881343269692,3.72900390625,-6.2666015625,4.14208984375,30.788823529411765,323.0254045829099
1.05720068359375,0.0492724609375,0.6455615234375001,1.2396978427588214,3.77734375,-5.56396484375,3.55517578125,30.835882352941177,323.31464452448125
1.06843115234375,0.0683154296875,0.6094287109375001,1.2319153700424896,3.71484375,-4.73828125,2.82861328125,30.882941176470588,323.31464452448125
1.08747412109375,0.1112841796875,0.5815966796875001,1.238240215192863,3.53271484375,-3.91845703125,1.8515625,30.93,323.31464452448125
1.12897802734375,0.1298388671875,0.5342333984375001,1.2557288089645786,3.42138671875,-3.65625,0.83056640625,30.835882352941177,323.31464452448125
1.15241552734375,0.1713427734375,0.5000537109375001,1.267861825079765,3.37548828125,-3.64599609375,0.42138671875,30.835882352941177,323.31464452448125
1.17682958984375,0.1796435546875,0.4727099609375,1.280880321279901,3.3603515625,-4.0703125,0.125,30.741764705882357,323.31464452448125
1.24177099609375,0.1376513671875,0.4570849609375,1.3303645241600093,3.33447265625,-4.71630859375,-0.31298828125,30.835882352941177,323.31464452448125
1.21247412109375,0.0678271484375,0.4185107421875,1.2844630231009206,3.205078125,-4.71240234375,-0.46435546875,30.741764705882357,323.31464452448125
1.16022802734375,-0.0185986328125,0.4043505859375,1.228810148446237,3.0341796875,-4.1552734375,-0.30615234375,30.835882352941177,323.1970596744599
1.12751318359375,-0.0840283203125,0.3838427734375,1.1940192680658237,2.99365234375,-3.46337890625,0.10400390625,30.788823529411765,323.1970596744599
1.08503271484375,-0.1396923828125,0.3735888671875,1.1560184236349662,2.43310546875,-2.38330078125,0.689453125,30.788823529411765,323.1970596744599
1.06550146484375,-0.1396923828125,0.3750537109375,1.1381883058123556,2.03857421875,-1.79638671875,1.33740234375,30.788823529411765,323.1970596744599
1.04938818359375,-0.1450634765625,0.3521044921875,1.1163496519985152,1.650390625,-1.27294921875,1.81103515625,30.835882352941177,323.1970596744599
1.03376318359375,-0.1431103515625,0.3770068359375,1.1096310408517926,1.37890625,-0.7451171875,2.2744140625,30.741764705882357,323.1970596744599
1.02741552734375,-0.1484814453125,0.4063037109375,1.114769981184777,1.30810546875,-0.1396484375,2.529296875,30.835882352941177,323.1970596744599
1.05134130859375,-0.1489697265625,0.4023974609375,1.1355325812836334,1.34130859375,0.14013671875,2.5869140625,30.788823529411765,323.1970596744599
1.05378271484375,-0.1299267578125,0.4111865234375,1.1386014796915336,1.48388671875,0.52685546875,2.65966796875,30.882941176470588,323.1970596744599
1.05915380859375,-0.1084423828125,0.4053271484375,1.139235110900807,1.5654296875,0.59423828125,2.78271484375,30.788823529411765,323.2291976267482
1.06501318359375,-0.0708447265625,0.3970263671875,1.1388160486893015,1.560546875,0.48876953125,2.89404296875,30.788823529411765,323.2291976267482
1.07575537109375,-0.0244580078125,0.3965380859375,1.146773851368344,1.58154296875,-0.09423828125,3.26220703125,30.835882352941177,323.2291976267482
1.08942724609375,-0.0015087890625,0.3770068359375,1.1528174856929665,1.58544921875,-0.60693359375,3.36279296875,30.835882352941177,323.2291976267482
1.08649755859375,0.0356005859375,0.3862841796875,1.1536723165726557,1.68115234375,-0.97998046875,3.255859375,30.788823529411765,323.2291976267482
1.06403662109375,0.0546435546875,0.3857958984375,1.1331364985511183,1.88916015625,-0.96533203125,3.00830078125,30.788823529411765,323.2291976267482
1.05378271484375,0.0873583984375,0.3760302734375,1.1222692486308756,2.0078125,-0.9638671875,2.8369140625,30.882941176470588,323.2291976267482
1.04108740234375,0.1093310546875,0.3643115234375,1.1083948506499344,2.2724609375,-1.05029296875,2.81982421875,30.882941176470588,323.2291976267482
1.02399755859375,0.1068896484375,0.3545458984375,1.088898154580081,2.1484375,-1.16796875,2.7900390625,30.69470588235294,323.2291976267482
1.00641943359375,0.1161669921875,0.3560107421875,1.0738335508550427,2.142578125,-1.18505859375,2.72900390625,30.788823529411765,323.6829705727114
1.02350927734375,0.1044482421875,0.3276904296875,1.07975075541236,2.11572265625,-0.99365234375,2.35791015625,30.741764705882357,323.6829705727114
1.02497412109375,0.0707568359375,0.3306201171875,1.079299838151043,2.1630859375,-0.5390625,1.71337890625,30.882941176470588,323.6829705727114
1.04548193359375,0.0468310546875,0.3081591796875,1.0909572407659902,2.3125,-0.00830078125,0.8203125,30.835882352941177,323.6829705727114
1.06598974609375,0.0399951171875,0.2798388671875,1.102834321085739,2.3818359375,0.580078125,0.1689453125,30.882941176470588,323.6829705727114
1.09528662109375,0.0365771484375,0.2769091796875,1.1303403752542802,2.2705078125,0.9013671875,-0.435546875,30.882941176470588,323.6829705727114
1.16169287109375,0.0575732421875,0.2788623046875,1.196080762298953,2.19677734375,0.607421875,-0.87890625,30.835882352941177,323.6829705727114
1.20612646484375,0.0961474609375,0.2793505859375,1.2417818380475834,2.1796875,-0.2861328125,-1.22216796875,30.741764705882357,323.61869184327765
1.23737646484375,0.1293505859375,0.4155810546875,1.311693448503409,2.28125,-1.38427734375,-1.28173828125,30.835882352941177,323.61869184327765
1.26911474609375,0.1078662109375,0.3262255859375,1.3148043546987824,2.4658203125,-2.70654296875,-1.453125,30.788823529411765,323.61869184327765
1.29206396484375,0.0556201171875,0.3340380859375,1.3357036832847662,2.6181640625,-3.81982421875,-1.7255859375,30.788823529411765,323.61869184327765
1.25251318359375,0.0014208984375,0.3530810546875,1.3013291379231304,2.748046875,-4.677734375,-1.8232421875,30.882941176470588,323.61869184327765
1.19733740234375,-0.0547314453125,0.3594287109375,1.2513198569524369,2.4208984375,-5.1845703125,-1.740234375,30.741764705882357,323.61869184327765
1.17341162109375,-0.1147900390625,0.3647998046875,1.2341598288252096,2.23681640625,-5.267578125,-1.61328125,30.882941176470588,323.61869184327765
1.13679052734375,-0.1435986328125,0.4038623046875,1.2149148248134929,1.89697265625,-5.00244140625,-1.12939453125,30.882941176470588,323.172059695741
1.12507177734375,-0.1636181640625,0.4082568359375,1.2079863624546043,1.69189453125,-4.2978515625,-0.677734375,30.882941176470588,323.172059695741
1.11286474609375,-0.1602001953125,0.4248583984375,1.2019304074693125,1.3896484375,-3.17431640625,-0.06640625,30.882941176470588,323.172059695741
1.11335302734375,-0.1328564453125,0.4160693359375,1.195959652690691,1.134765625,-1.69091796875,0.57958984375,30.835882352941177,323.172059695741
1.11286474609375,-0.1108837890625,0.4287646484375,1.1977488390830928,1.0,0.15478515625,1.05517578125,30.835882352941177,323.172059695741
1.12018896484375,-0.0854931640625,0.5469287109375001,1.2495052672585598,0.89013671875,2.1123046875,1.26220703125,30.835882352941177,323.172059695741
1.13239599609375,-0.0713330078125,0.4243701171875,1.2114037668483892,0.8134765625,3.3681640625,1.1328125,30.788823529411765,323.172059695741
1.14509130859375,-0.0405712890625,0.4131396484375,1.2180166269900423,0.75390625,4.1474609375,0.681640625,30.882941176470588,323.172059695741
1.15241552734375,0.0009326171875,0.4155810546875,1.2250591946730438,0.8193359375,4.685546875,0.3681640625,30.882941176470588,323.55774123376983
1.13532568359375,0.0434130859375,0.3994677734375,1.204335337799795,0.9990234375,4.80322265625,-0.046875,30.788823529411765,323.55774123376983
1.12165380859375,0.0692919921875,0.3970263671875,1.1918634916618098,0.951171875,4.74609375,-0.2353515625,30.835882352941177,323.55774123376983
1.11628271484375,0.0727099609375,0.3901904296875,1.184745715036852,1.1240234375,4.17236328125,-0.361328125,30.788823529411765,323.55774123376983
1.10407568359375,0.0673388671875,0.3960498046875,1.17489279763309,1.33935546875,3.689453125,-0.44482421875,30.788823529411765,323.55774123376983
1.10407568359375,0.0443896484375,0.3887255859375,1.1713501343124797,1.56787109375,3.1796875,-0.51318359375,30.835882352941177,323.55774123376983
1.07087255859375,0.0292529296875,0.3731005859375,1.1343843342850484,1.73388671875,2.921875,-0.5048828125,30.835882352941177,323.55774123376983
1.05573583984375,0.0097216796875,0.3711474609375,1.11911711288269,1.88623046875,2.86962890625,-0.53076171875,30.835882352941177,323.55774123376983
1.04499365234375,0.0038623046875,0.3750537109375,1.1102666062366369,2.0537109375,2.67724609375,-0.603515625,30.788823529411765,323.4000933565393
1.04255224609375,0.0224169921875,0.3765185546875,1.108685676554821,2.1787109375,2.55029296875,-0.6875,30.882941176470588,323.4000933565393
1.02546240234375,0.0287646484375,0.3848193359375,1.095667132358969,2.2744140625,2.4853515625,-0.70654296875,30.741764705882357,323.4000933565393
1.02399755859375,0.0526904296875,0.3794482421875,1.0933106831481147,2.29248046875,2.103515625,-0.68994140625,30.882941176470588,323.4000933565393
0.96882177734375,-0.1069775390625,0.4087451171875,1.0569448429052457,2.02587890625,1.48583984375,-0.83056640625,30.882941176470588,323.6493010344288
0.95222021484375,0.0009326171875,0.4092333984375,1.036434359585112,1.9169921875,1.5048828125,-0.89208984375,30.882941176470588,323.6493010344288
0.93659521484375,0.0058154296875,0.4121630859375,1.023290195936707,1.73974609375,1.9677734375,-0.8828125,30.882941176470588,323.6493010344288
0.94001318359375,0.0209521484375,0.3931201171875,1.019120799705176,1.46728515625,2.49951171875,-0.8876953125,30.882941176470588,323.6493010344288
0.83600927734375,0.0536669921875,0.4072802734375,0.9314874550881492,1.17236328125,3.04443359375,-0.927734375,30.788823529411765,323.6493010344288
0.96393896484375,0.0688037109375,0.3984912109375,1.0453265153899265,0.9580078125,3.376953125,-0.93408203125,30.93,323.6493010344288
0.98054052734375,0.0746630859375,0.4194873046875,1.0691136052633758,0.837890625,3.630859375,-0.888671875,30.882941176470588,323.6493010344288
0.92878271484375,0.0761279296875,0.4175341796875,1.0211599210105855,0.70849609375,4.189453125,-0.8720703125,30.788823529411765,323.6636123542631
0.89264990234375,0.0614794921875,0.4292529296875,0.9924019617872796,0.5859375,4.404296875,-0.591796875,30.835882352941177,323.6636123542631
0.87946630859375,0.0443896484375,0.4522021484375,0.98990818356624,0.51318359375,4.39013671875,-0.5673828125,30.835882352941177,323.6636123542631
0.86384130859375,0.0336474609375,0.4619677734375,0.9801878298343152,0.4677734375,4.4482421875,-0.72900390625,30.882941176470588,323.6636123542631
0.85700537109375,0.0170458984375,0.4644091796875,0.9748972535170536,0.41748046875,4.65478515625,-0.986328125,30.835882352941177,323.6636123542631
0.83845068359375,-0.0112744140625,0.4487841796875,0.9510698718648708,0.2646484375,4.9697265625,-1.30224609375,30.835882352941177,323.6636123542631
0.81745458984375,-0.0298291015625,0.4624560546875,0.9396740840705184,0.14794921875,5.447265625,-1.6630859375,30.882941176470588,323.6636123542631
0.82184912109375,-0.0444775390625,0.4741748046875,0.9498715569612844,0.05810546875,5.962890625,-2.09375,30.788823529411765,323.6636123542631
0.95514990234375,-0.0391064453125,0.4585498046875,1.0602398659695829,-0.0146484375,6.10791015625,-2.44140625,30.788823529411765,323.4832537675372
0.81598974609375,-0.0498486328125,0.4414599609375,0.9290915181156036,-0.4462890625,6.19873046875,-2.43896484375,30.788823529411765,323.4832537675372
0.80085302734375,-0.0391064453125,0.4448779296875,0.9169576095947212,-0.67236328125,6.31689453125,-2.36181640625,30.741764705882357,323.4832537675372
0.78376318359375,-0.0459423828125,0.4419482421875,0.900951541021004,-0.705078125,6.5244140625,-1.91748046875,30.882941176470588,323.4832537675372
0.75446630859375,-0.0342236328125,0.4453662109375,0.8767791795490985,-0.771484375,6.716796875,-1.51171875,30.882941176470588,323.4832537675372
0.74421240234375,-0.0273876953125,0.4336474609375,0.8617727693738799,-0.755859375,6.798828125,-1.16015625,30.882941176470588,323.4832537675372
0.73395849609375,-0.0137158203125,0.4399951171875,0.8558498120954902,-1.02783203125,6.83251953125,-0.9326171875,30.788823529411765,323.4832537675372
0.72907568359375,0.0063037109375,0.4399951171875,0.851578999464007,-1.1484375,6.90771484375,-0.8857421875,30.835882352941177,323.4832537675372
0.72321630859375,0.0268115234375,0.4507373046875,0.8525988532961806,-1.2216796875,7.0341796875,-1.06005859375,30.835882352941177,323.6368047034384
0.72614599609375,0.0536669921875,0.4536669921875,0.8578938707636806,-1.27197265625,7.05859375,-1.35400390625,30.835882352941177,323.6368047034384
0.72321630859375,0.0658740234375,0.4429248046875,0.8506254161423079,-1.3330078125,7.041015625,-1.72119140625,30.788823529411765,323.6368047034384
0.70514990234375,0.0790576171875,0.4658740234375,0.848837497595747,-1.39697265625,6.884765625,-2.12109375,30.69470588235294,323.6368047034384
0.68220068359375,0.0941943359375,0.4731982421875,0.8355758026820943,-1.46533203125,6.64306640625,-2.39990234375,30.741764705882357,323.6368047034384
0.66950537109375,0.1059130859375,0.4868701171875,0.8345642783550912,-1.5732421875,6.3056640625,-2.71533203125,30.835882352941177,323.6368047034384
0.67243505859375,0.1054248046875,0.4951708984375,0.8417110645160717,-1.625,5.904296875,-3.06103515625,30.788823529411765,323.6368047034384
0.67243505859375,0.1103076171875,0.4966357421875,0.8431985168711417,-1.67041015625,5.60302734375,-3.4140625,30.741764705882357,323.6368047034384
0.65583349609375,0.1098193359375,0.5005419921875001,0.8322981119090297,-1.71728515625,5.0888671875,-3.6513671875,30.788823529411765,323.6368047034384
0.65973974609375,0.1132373046875,0.5020068359375001,0.8367138597374346,-1.76953125,4.54248046875,-3.79443359375,30.835882352941177,323.8750481242664
0.65827490234375,0.1078662109375,0.5244677734375001,0.8485442898824879,-1.80517578125,4.07958984375,-3.88330078125,30.835882352941177,323.8750481242664
0.65388037109375,0.1068896484375,0.5308154296875001,0.8489699388312391,-1.89501953125,3.3740234375,-3.939453125,30.788823529411765,323.8750481242664
0.65778662109375,0.0956591796875,0.5430224609375001,0.8583165561906847,-2.02783203125,2.6337890625,-4.0380859375,30.741764705882357,323.8750481242664
0.64899755859375,0.0912646484375,0.5566943359375001,0.8599044428190626,-2.2265625,2.23486328125,-4.10302734375,30.741764705882357,323.8750481242664
0.64216162109375,0.0956591796875,0.5669482421875001,0.8619469447615291,-2.41943359375,1.7001953125,-4.17431640625,30.882941176470588,323.8750481242664
0.64753271484375,0.1010302734375,0.6045458984375001,0.8916173373490319,-2.63623046875,1.349609375,-4.23779296875,30.835882352941177,323.8750481242664
0.65925146484375,0.1278857421875,0.6274951171875001,0.9190850771542493,-2.740234375,0.90771484375,-4.2763671875,30.788823529411765,323.8750481242664
0.67585302734375,0.1522998046875,0.6489794921875001,0.949287588856774,-2.7529296875,0.470703125,-4.34814453125,30.835882352941177,323.8750481242664
0.69343115234375,0.1918505859375,0.5606005859375001,0.9121000094939212,-2.97900390625,-0.2060546875,-4.3515625,30.882941176470588,323.7668940922712
0.70466162109375,0.2167529296875,0.7100146484375001,1.0235480612879948,-2.96435546875,-0.74560546875,-4.29833984375,30.882941176470588,323.7668940922712
0.69489599609375,0.2533740234375,0.7554248046875001,1.0572348257020194,-2.80615234375,-1.05029296875,-4.203125,30.882941176470588,323.7668940922712
0.66804052734375,0.2680224609375,0.7734912109375001,1.0565996588766575,-2.64111328125,-0.93701171875,-4.09033203125,30.788823529411765,323.7668940922712
0.65143896484375,0.2797412109375,0.7964404296875001,1.0662763375665265,-2.5302734375,-0.43994140625,-4.04296875,30.788823529411765,323.7668940922712
0.64997412109375,0.2660693359375,0.8208544921875001,1.080306135760699,-2.4267578125,0.18505859375,-4.103515625,30.788823529411765,323.7668940922712
0.65192724609375,0.2675341796875,0.8306201171875001,1.0892719819113226,-2.26171875,0.93310546875,-4.138671875,30.882941176470588,323.7668940922712
0.64802099609375,0.2543505859375,0.8481982421875001,1.0972992709352587,-2.0810546875,1.52880859375,-4.357421875,30.882941176470588,324.2513080366863
0.63044287109375,0.2328662109375,0.8457568359375001,1.0802728874892351,-1.94580078125,2.21337890625,-4.30810546875,30.835882352941177,324.2513080366863
0.59919287109375,0.2025927734375,0.8379443359375001,1.0498698199055,-1.8203125,2.52099609375,-4.16845703125,30.882941176470588,324.2513080366863
0.57819677734375,0.1723193359375,0.8589404296875001,1.0496590535123231,-1.71533203125,3.04248046875,-3.9013671875,30.882941176470588,324.2513080366863
0.54157568359375,0.1522998046875,0.8423388671875001,1.0129334720220322,-1.64453125,3.27001953125,-3.56787109375,30.741764705882357,324.2513080366863
0.53571630859375,0.1430224609375,0.8413623046875001,1.0076397746094556,-1.56787109375,3.62548828125,-3.25390625,30.882941176470588,324.2513080366863
0.54206396484375,0.1493701171875,0.8384326171875001,1.0095117767785646,-1.5341796875,3.95654296875,-3.04736328125,30.835882352941177,324.2513080366863
0.55182958984375,0.1581591796875,0.8477099609375001,1.0237882594654044,-1.48828125,3.962890625,-2.93115234375,30.882941176470588,324.2513080366863
0.56794287109375,0.1684130859375,0.8394091796875001,1.027389820508674,-1.44580078125,3.99853515625,-2.89794921875,30.788823529411765,324.2513080366863
0.54743505859375,0.1781787109375,0.8423388671875001,1.0202781795096925,-1.42041015625,3.6669921875,-2.845703125,30.882941176470588,323.6485366619817
0.53034521484375,0.1781787109375,0.8462451171875001,1.014467593520216,-1.42529296875,3.482421875,-2.73876953125,30.882941176470588,323.6485366619817
0.50104833984375,0.1811083984375,0.8569873046875001,1.0090970871230975,-1.419921875,2.89404296875,-2.60791015625,30.835882352941177,323.6485366619817
0.4815170898437499,0.1913623046875,0.8804248046875001,1.021580185876727,-1.40478515625,2.490234375,-2.44140625,30.741764705882357,323.6485366619817
0.4658920898437499,0.2030810546875,0.8980029296875001,1.031846217165764,-1.400390625,1.98681640625,-2.318359375,30.788823529411765,323.6485366619817
0.4702866210937499,0.2050341796875,0.9102099609375,1.04484003264124,-1.33642578125,1.30322265625,-2.369140625,30.835882352941177,323.6485366619817
0.4839584960937499,0.2074755859375,0.9463427734375,1.082971185922697,-1.2373046875,0.7578125,-2.18115234375,30.788823529411765,323.6485366619817
0.4898178710937499,0.1991748046875,0.9595263671875,1.0955742781724835,-1.18017578125,0.16552734375,-2.076171875,30.835882352941177,323.6485366619817
0.50495458984375,0.1903857421875,0.9790576171875,1.1179354571733648,-1.060546875,-0.34130859375,-2.02294921875,30.69470588235294,323.6485366619817
0.53669287109375,0.1615771484375,1.0005419921875005,1.1468350757238714,-0.9228515625,-0.81884765625,-2.00390625,30.788823529411765,323.83193910145127
0.57184912109375,0.1415576171875,1.0044482421875005,1.1644596375628726,-0.7880859375,-1.236328125,-1.9990234375,30.93,323.83193910145127
0.63190771484375,0.1176318359375,0.9902880859375,1.1805994672431606,-0.78125,-1.57861328125,-2.009765625,30.882941176470588,323.83193910145127
0.72272802734375,0.1005419921875,0.9878466796875,1.228122777360162,-0.89453125,-1.98779296875,-2.47265625,30.882941176470588,323.83193910145127
0.80329443359375,0.1078662109375,0.9810107421875,1.272516853637698,-0.99951171875,-2.13427734375,-2.90869140625,30.788823529411765,323.83193910145127
0.80622412109375,0.1479052734375,0.9683154296875,1.268663893517467,-1.11962890625,-1.7294921875,-3.53857421875,30.69470588235294,323.83193910145127
0.74616552734375,0.1698779296875,0.9561083984375,1.2246488373218705,-1.236328125,-0.4580078125,-3.9150390625,30.835882352941177,323.83193910145127
0.64704443359375,0.1869677734375,0.9741748046875,1.1843310337218906,-1.1494140625,0.93994140625,-3.98974609375,30.93,323.83193910145127
0.70368505859375,0.1986865234375,0.9736865234375,1.2176676238644004,-0.88818359375,1.9111328125,-3.77294921875,30.788823529411765,323.52941627569766
0.55671240234375,0.2040576171875,0.9624560546875,1.130437909511273,-0.61474609375,2.265625,-3.44384765625,30.882941176470588,323.52941627569766
0.55085302734375,0.1938037109375,0.9287646484375,1.0970882864629232,-0.0751953125,2.3310546875,-3.14599609375,30.93,323.52941627569766
0.56647802734375,0.1669482421875,0.8975146484375001,1.0743842958609604,0.208984375,2.18994140625,-3.1181640625,30.835882352941177,323.52941627569766
0.56843115234375,0.1581591796875,0.8618701171875001,1.0444847533473438,0.33837890625,2.07666015625,-2.94677734375,30.835882352941177,323.52941627569766
0.56501318359375,0.1439990234375,0.8472216796875001,1.0284746914330014,0.421875,2.0400390625,-2.98046875,30.882941176470588,323.52941627569766
0.55817724609375,0.1366748046875,0.8193896484375001,1.0008202816988168,0.48291015625,2.03955078125,-3.04931640625,30.788823529411765,323.52941627569766
0.56989599609375,0.1151904296875,0.8013232421875001,0.9900349589409282,0.55029296875,2.04052734375,-3.123046875,30.788823529411765,323.52941627569766
0.58112646484375,0.0971240234375,0.7842333984375001,0.9808991116803568,0.5791015625,1.99853515625,-3.19287109375,30.93,323.6814410167293
0.59528662109375,0.0551318359375,0.7842333984375001,0.9861174898620771,0.6201171875,1.5478515625,-3.28369140625,30.835882352941177,323.6814410167293
0.58259130859375,0.0023974609375,0.7725146484375001,0.967572872045532,0.556640625,1.23779296875,-3.27392578125,30.788823529411765,323.6814410167293
0.56891943359375,-0.0537548828125,0.7725146484375001,0.960904673418406,0.40966796875,0.54248046875,-3.15576171875,30.835882352941177,323.6814410167293
0.56013037109375,-0.1025830078125,0.7773974609375001,0.9636472997863657,0.37353515625,-0.12255859375,-2.984375,30.788823529411765,323.6814410167293
0.56159521484375,-0.1509228515625,0.7710498046875001,0.9657560218646252,0.09326171875,-0.8095703125,-2.7998046875,30.97705882352941,323.6814410167293
0.59186865234375,-0.1675244140625,0.7925341796875001,1.003236441177816,0.12451171875,-1.5478515625,-2.74072265625,30.835882352941177,323.6814410167293
0.64216162109375,-0.1968212890625,0.8091357421875001,1.051575397543749,-0.17919921875,-2.30615234375,-2.85986328125,30.882941176470588,323.6814410167293
0.66999365234375,-0.1924267578125,0.8179248046875001,1.074672293039247,-0.4755859375,-2.82568359375,-3.04296875,30.882941176470588,323.6814410167293
0.66022802734375,-0.1645947265625,0.8584521484375001,1.0954143340578315,-0.89013671875,-2.67138671875,-3.14111328125,30.93,323.8107664721781
0.62995458984375,-0.1479931640625,0.9175341796875,1.1227705610538827,-1.53759765625,-2.232421875,-3.19580078125,30.788823529411765,323.8107664721781
0.59675146484375,-0.1123486328125,0.9756396484375,1.1491767704279652,-2.04736328125,-0.994140625,-3.28662109375,30.835882352941177,323.8107664721781
0.70612646484375,-0.0679150390625,1.0142138671875005,1.237682029149255,-2.4296875,0.26171875,-3.46240234375,30.93,323.8107664721781
0.64411474609375,-0.0332470703125,1.0298388671875005,1.2151367273643794,-2.8134765625,1.06787109375,-3.7490234375,30.93,323.8107664721781
0.69196630859375,-0.0098095703125,1.0342333984375005,1.2444084226419228,-2.92138671875,1.556640625,-3.88720703125,30.93,323.8107664721781
0.68073583984375,0.0268115234375,1.0322802734375005,1.2368195924891454,-2.728515625,2.14794921875,-4.068359375,30.788823529411765,323.8107664721781
0.59284521484375,0.0292529296875,1.0059130859375005,1.167982157020705,-2.5537109375,2.9619140625,-3.82177734375,30.741764705882357,323.8107664721781
0.54401708984375,0.0224169921875,1.0024951171875005,1.140812682067296,-2.34912109375,3.31103515625,-3.611328125,30.835882352941177,323.6485366619817
0.51667333984375,0.0131396484375,0.9712451171875,1.1002004672453638,-2.1748046875,3.49072265625,-3.50732421875,30.882941176470588,323.6485366619817
0.4873764648437499,-0.1094189453125,0.9595263671875,1.0817574466602633,-2.095703125,3.6875,-3.568359375,30.882941176470588,323.6485366619817
0.4678452148437499,0.0126513671875,0.9365771484375,1.047003322401236,-1.763671875,3.8662109375,-3.80908203125,30.93,323.6485366619817
0.4624741210937499,0.0063037109375,0.9219287109375,1.03144296861431,-1.51171875,3.8330078125,-4.16748046875,30.788823529411765,323.6485366619817
0.4600327148437499,-0.0117626953125,0.9067919921875,1.016877660696163,-1.33935546875,3.5810546875,-4.560546875,30.741764705882357,323.6485366619817
0.4424545898437499,-0.0259228515625,0.8882373046875001,0.9926749557359889,-1.142578125,3.31494140625,-4.95263671875,30.93,323.6485366619817
0.4224350585937499,-0.0513134765625,0.8731005859375001,0.9712821859637092,-1.001953125,2.958984375,-5.27734375,30.882941176470588,323.6485366619817
0.4346420898437499,-0.0669384765625,0.8496630859375001,0.95672455049146,-0.98193359375,1.90478515625,-5.4873046875,30.835882352941177,323.5090095345185
0.4312241210937499,-0.0933056640625,0.8306201171875001,0.9405264316518688,-1.10302734375,0.94091796875,-5.599609375,30.788823529411765,323.5090095345185
0.4356186523437499,-0.0918408203125,0.8247607421875001,0.9372452338631196,-1.31396484375,0.0400390625,-5.64013671875,30.788823529411765,323.5090095345185
0.4585678710937499,-0.0937939453125,0.8325732421875001,0.9551230288205514,-1.5712890625,-1.06005859375,-5.7099609375,30.788823529411765,323.5090095345185
0.4863999023437499,-0.0840283203125,0.8579638671875001,0.9898220148157344,-1.6357421875,-2.203125,-5.767578125,30.835882352941177,323.5090095345185
0.4951889648437499,-0.0659619140625,0.8770068359375001,1.0093087115897288,-1.8916015625,-2.76806640625,-5.8984375,30.788823529411765,323.5090095345185
0.52106787109375,-0.0459423828125,0.9053271484375,1.0455810224571973,-1.9365234375,-3.13720703125,-6.0947265625,30.835882352941177,323.5090095345185
0.54792333984375,-0.0347119140625,0.9346240234375,1.0839497075556193,-1.99072265625,-3.1826171875,-6.3095703125,30.788823529411765,323.5090095345185
0.55573583984375,-0.0288525390625,0.9844287109375,1.1308292000188442,-2.12451171875,-2.5625,-6.59228515625,30.835882352941177,323.5090095345185
0.4585678710937499,-0.0264111328125,1.0269091796875005,1.124955334074357,-1.919921875,-1.7138671875,-6.8447265625,30.835882352941177,323.971472105785
0.60651708984375,-0.0215283203125,1.0772021484375005,1.236402409188196,-1.82861328125,-0.5546875,-7.1015625,30.835882352941177,323.971472105785
0.61872412109375,-0.0332470703125,1.0981982421875005,1.2609378592346705,-1.7724609375,0.95263671875,-7.35888671875,30.69470588235294,323.971472105785
0.61432958984375,-0.0395947265625,1.1187060546875005,1.2768993006982272,-1.72119140625,2.9521484375,-7.61669921875,30.788823529411765,323.971472105785
0.56110693359375,-0.0752392578125,1.1333544921875005,1.2668837128184829,-1.58203125,4.86767578125,-7.65966796875,30.835882352941177,323.971472105785
0.4903061523437499,0.0097216796875,1.1270068359375005,1.229080567876628,-1.47998046875,6.125,-7.48095703125,30.93,323.971472105785
0.4121811523437499,-0.1626416015625,1.1016162109375005,1.1873937296055306,-1.21337890625,6.92138671875,-6.7509765625,30.835882352941177,323.971472105785
0.3823959960937499,-0.1821728515625,1.1758349609375005,1.2498005845085194,-1.12548828125,7.02099609375,-6.09033203125,30.882941176470588,323.971472105785
0.3775131835937499,-0.1924267578125,1.0142138671875005,1.0991696999575378,-1.49951171875,6.6298828125,-5.78466796875,30.882941176470588,323.91663215122367
0.3843491210937499,-0.1655712890625,0.9819873046875,1.0674442211257584,-1.6220703125,6.2119140625,-5.63037109375,30.835882352941177,323.91663215122367
0.3755600585937499,-0.1138134765625,0.9629443359375,1.0398368425730533,-1.63330078125,5.50048828125,-5.77001953125,30.882941176470588,323.91663215122367
0.3628647460937499,-0.0532666015625,0.9648974609375,1.0322476761530317,-1.671875,4.251953125,-5.72412109375,30.69470588235294,323.91663215122367
0.3628647460937499,-0.0029736328125,0.9580615234375,1.0244811121446646,-1.6337890625,2.8828125,-5.6181640625,30.882941176470588,323.91663215122367
0.3545639648437499,0.0263232421875,0.9512255859375,1.015499204129241,-1.47314453125,1.66064453125,-5.4677734375,30.741764705882357,323.91663215122367
0.3599350585937499,0.0497607421875,0.9551318359375,1.02191301092083,-1.32666015625,0.34423828125,-5.23046875,30.835882352941177,323.91663215122367
0.3628647460937499,0.0976123046875,0.9434130859375,1.0154935926445836,-1.2451171875,-0.671875,-5.08056640625,30.788823529411765,323.91663215122367
0.4014389648437499,0.1518115234375,0.9141162109375,1.0098556472298248,-1.046875,-0.9521484375,-5.14599609375,30.741764705882357,323.91663215122367
0.4800522460937499,0.2040576171875,0.8672412109375001,1.0120261795330376,-1.15185546875,-0.83349609375,-5.44775390625,30.835882352941177,323.5944604160489
0.54011083984375,0.2397021484375,0.8315966796875001,1.020161691571267,-1.22607421875,-0.548828125,-5.8857421875,30.882941176470588,323.5944604160489
0.58356787109375,0.2523974609375,0.8062060546875001,1.0267541775300322,-1.22412109375,-0.23046875,-6.3427734375,30.93,323.5944604160489
0.55085302734375,0.2431201171875,0.7715380859375001,0.9786814942396423,-1.166015625,-0.1923828125,-6.25048828125,30.788823529411765,323.5944604160489
0.50788427734375,0.2064990234375,0.7739794921875001,0.9484896099485988,-1.1044921875,-0.5732421875,-6.14208984375,30.882941176470588,323.5944604160489
0.57819677734375,0.1689013671875,0.7866748046875001,0.9908059514852648,-1.01806640625,-1.19140625,-5.7080078125,30.835882352941177,323.5944604160489
0.4243881835937499,0.1278857421875,0.8052294921875001,0.919159740478982,-0.93212890625,-1.791015625,-5.42822265625,30.788823529411765,323.5944604160489
0.4038803710937499,0.0600146484375,0.8291552734375001,0.9242400011096238,-0.8291015625,-2.5078125,-5.31103515625,30.882941176470588,323.5944604160489
0.3911850585937499,0.1327685546875,0.8809130859375001,0.972965109424142,-0.74462890625,-3.36279296875,-5.29443359375,30.741764705882357,323.9079524395822
0.3823959960937499,-0.0229931640625,0.9170458984375,0.9938453417223316,-0.72998046875,-3.978515625,-5.27099609375,30.788823529411765,323.9079524395822
0.3887436523437499,-0.0366650390625,0.9614794921875,1.0377421482353628,-0.75341796875,-4.57861328125,-5.17431640625,30.882941176470588,323.9079524395822
0.3975327148437499,-0.0425244140625,1.0127490234375005,1.0888072233577493,-0.84619140625,-4.87353515625,-5.0078125,30.882941176470588,323.9079524395822
0.4243881835937499,-0.0454541015625,1.0332568359375005,1.1179405595712282,-0.95849609375,-4.6513671875,-4.841796875,30.882941176470588,323.9079524395822
0.4463608398437499,-0.0278759765625,1.0625537109375005,1.1528380016474058,-1.06591796875,-3.93798828125,-4.5537109375,30.93,323.9079524395822
0.4590561523437499,0.0067919921875,1.0815966796875005,1.1750021530506012,-1.09130859375,-2.98486328125,-4.21533203125,30.741764705882357,323.9079524395822
0.4561264648437499,0.0409716796875,1.1011279296875005,1.1925656158070097,-0.95556640625,-1.53076171875,-3.513671875,30.741764705882357,323.9079524395822
0.4458725585937499,0.0883349609375,1.1353076171875005,1.2229181450427196,-0.7314453125,-0.23828125,-2.93115234375,30.882941176470588,323.9079524395822
0.4317124023437499,0.1225146484375,1.1318896484375005,1.2176040463381943,-0.62158203125,1.0859375,-2.427734375,30.835882352941177,323.70337732316807
0.4253647460937499,0.1493701171875,1.1309130859375005,1.217460885233151,-0.31396484375,1.95947265625,-2.2177734375,30.835882352941177,323.70337732316807
0.4160874023437499,0.1728076171875,1.1094287109375005,1.1974235940550173,-0.232421875,2.6142578125,-2.28173828125,30.788823529411765,323.70337732316807
0.3955795898437499,0.1747607421875,1.0732958984375005,1.1571467558238395,-0.37109375,3.01904296875,-2.509765625,30.788823529411765,323.70337732316807
0.3701889648437499,0.1840380859375,1.1704638671875005,1.241328140001323,-0.3203125,3.1806640625,-3.0439453125,30.835882352941177,323.70337732316807
0.3335678710937499,0.1742724609375,1.0220263671875005,1.0891172161405347,-0.4619140625,3.1337890625,-3.47265625,30.835882352941177,323.70337732316807
0.3184311523437499,0.1625537109375,0.9697802734375,1.0335840006845274,-0.6513671875,2.91357421875,-3.794921875,30.93,323.70337732316807
0.3032944335937499,0.1547412109375,0.9370654296875,0.997007510165684,-0.70458984375,2.59423828125,-4.03515625,30.835882352941177,323.70337732316807
0.3189194335937499,0.1439990234375,0.9004443359375001,0.966046233881504,-0.74609375,2.078125,-4.150390625,30.788823529411765,323.70337732316807
0.3296616210937499,0.1342333984375,0.8789599609375001,0.9482963685523064,-0.72119140625,1.28125,-4.1357421875,30.882941176470588,323.77709882854765
0.3325913085937499,0.1254443359375,0.8691943359375001,0.9390697810049768,-0.642578125,0.5859375,-4.12451171875,30.788823529411765,323.77709882854765
0.3374741210937499,0.1117724609375,0.8633349609375001,0.9336643509361268,-0.5146484375,-0.29150390625,-3.75439453125,30.882941176470588,323.77709882854765
0.3286850585937499,0.1098193359375,0.8804248046875001,0.9461722839935404,-0.40966796875,-1.224609375,-3.42041015625,30.788823529411765,323.77709882854765
0.3213608398437499,0.1190966796875,0.9121630859375,0.9744220357959328,-0.26318359375,-1.63330078125,-3.146484375,30.882941176470588,323.77709882854765
0.3081772460937499,0.1313037109375,0.9321826171875,0.9905444519568132,-0.1435546875,-2.06787109375,-2.90869140625,30.788823529411765,323.77709882854765
0.3018295898437499,0.1420458984375,0.9648974609375,1.020933518252681,-0.03955078125,-2.091796875,-2.73193359375,30.788823529411765,323.77709882854765
0.3120834960937499,0.1552294921875,0.9995654296875,1.0585949895995368,0.0830078125,-1.888671875,-2.5634765625,31.024117647058823,323.77709882854765
0.3281967773437499,0.1542529296875,1.0103076171875005,1.0734191037628706,0.14892578125,-1.42822265625,-2.404296875,30.882941176470588,323.77709882854765
0.3321030273437499,0.1547412109375,1.0366748046875005,1.099514399090414,0.271484375,-0.84130859375,-2.244140625,30.788823529411765,323.73475348923387
0.3364975585937499,0.1493701171875,1.0366748046875005,1.100107580885628,0.337890625,0.06640625,-2.05078125,30.882941176470588,323.73475348923387
0.3350327148437499,0.1425341796875,1.0396044921875005,1.10151732286478,0.427734375,0.76953125,-1.82373046875,30.788823529411765,323.73475348923387
0.3174545898437499,0.1337451171875,1.0371630859375005,1.0928734784117329,0.40869140625,1.5,-1.67822265625,30.788823529411765,323.73475348923387
0.3203842773437499,0.1273974609375,1.0293505859375005,1.085559223162087,0.388671875,2.06005859375,-1.6494140625,30.882941176470588,323.73475348923387
0.3184311523437499,0.1181201171875,1.0225146484375005,1.077444646901465,0.328125,2.31591796875,-1.72021484375,30.741764705882357,323.73475348923387
0.2974350585937499,0.1093310546875,1.0127490234375005,1.0611698629688646,0.291015625,2.3134765625,-1.837890625,30.882941176470588,323.73475348923387
0.2832749023437499,0.0946826171875,1.0015185546875005,1.0451071158874938,0.2734375,2.14306640625,-1.90380859375,30.741764705882357,323.73475348923387
0.2808334960937499,0.0868701171875,0.9966357421875,1.0390845357303886,0.2734375,1.869140625,-1.88720703125,30.835882352941177,323.73475348923387
0.2710678710937499,0.0727099609375,0.9858935546875,1.02506128125746,0.330078125,1.3251953125,-1.7958984375,30.788823529411765,323.5176841377876
0.2725327148437499,0.0570849609375,0.9814990234375,1.0202318885597073,0.369140625,0.990234375,-1.66162109375,30.788823529411765,323.5176841377876
0.2803452148437499,0.0390185546875,0.9878466796875,1.0275976594296563,0.361328125,0.31201171875,-1.4677734375,30.882941176470588,323.5176841377876
0.2949936523437499,0.0136279296875,1.0098193359375005,1.052113143451752,0.3427734375,-0.01904296875,-1.33642578125,30.835882352941177,323.5176841377876
0.3057358398437499,-0.0142041015625,1.0337451171875005,1.078102558931737,0.3544921875,-0.38720703125,-1.22412109375,30.93,323.5176841377876
0.3164780273437499,-0.0342236328125,1.0518115234375005,1.0989254204313372,0.3154296875,-0.8056640625,-1.1943359375,30.788823529411765,323.5176841377876
0.3487045898437499,-0.0522900390625,1.0806201171875005,1.1366921205117868,0.23779296875,-0.87841796875,-1.26806640625,30.835882352941177,323.5176841377876
0.3657944335937499,-0.0591259765625,1.1118701171875005,1.1719883131871185,0.24951171875,-0.5703125,-1.41162109375,30.835882352941177,323.5176841377876
0.3687241210937499,-0.0610791015625,1.1016162109375005,1.1632911975616147,-0.04638671875,0.26123046875,-1.4853515625,30.788823529411765,323.8640800471413
0.3516342773437499,-0.0518017578125,1.0918505859375005,1.1482455265001423,-0.2158203125,1.58203125,-1.44580078125,30.882941176470588,323.8640800471413
0.3296616210937499,-0.0200634765625,1.0664599609375005,1.1164301034085151,-0.37255859375,3.02783203125,-1.3271484375,30.835882352941177,323.8640800471413
0.3491928710937499,0.0194873046875,1.0269091796875005,1.084830806897156,-0.49462890625,4.40576171875,-1.26318359375,30.835882352941177,323.8640800471413
0.3775131835937499,0.0561083984375,0.9985888671875,1.0690388588976194,-0.42578125,5.15673828125,-1.326171875,30.882941176470588,323.8640800471413
0.3809311523437499,0.0844287109375,0.9551318359375,1.0317526709816869,-0.2744140625,5.23486328125,-1.38134765625,30.835882352941177,323.8640800471413
0.3584702148437499,0.1088427734375,0.9277880859375,1.000569026438087,-0.25,4.48193359375,-1.37109375,30.835882352941177,323.8640800471413
0.3389389648437499,0.1366748046875,0.9141162109375,0.9844633417372386,0.0517578125,3.18701171875,-1.31298828125,30.741764705882357,323.8640800471413
0.3106186523437499,0.1522998046875,0.8897021484375001,0.9545936782872604,0.1259765625,1.6240234375,-1.25732421875,30.882941176470588,323.8640800471413
0.2905991210937499,0.1664599609375,0.8779833984375001,0.9396869775130632,0.3837890625,0.115234375,-1.2861328125,30.882941176470588,323.59293272771777
0.2896225585937499,0.1718310546875,0.8721240234375001,0.9348836558942626,0.4619140625,-1.224609375,-1.43798828125,30.93,323.59293272771777
0.3159897460937499,0.1654833984375,0.8731005859375001,0.9431537032526686,0.486328125,-2.2724609375,-1.646484375,30.882941176470588,323.59293272771777
0.3516342773437499,0.1493701171875,0.9077685546875,0.984886717237623,0.50927734375,-3.36962890625,-1.93310546875,30.882941176470588,323.59293272771777
0.3877670898437499,0.1337451171875,0.9136279296875,1.0014824343154785,0.56884765625,-3.87646484375,-2.1533203125,30.741764705882357,323.59293272771777
0.3965561523437499,0.1015185546875,0.9482958984375,1.0328736175839248,0.6875,-4.20751953125,-2.2861328125,30.93,323.59293272771777
0.4009506835937499,0.0600146484375,0.9614794921875,1.0434586827462338,0.78759765625,-3.96435546875,-2.3681640625,30.788823529411765,323.59293272771777
0.3989975585937499,0.0248583984375,0.9873583984375,1.0652199766722907,0.845703125,-3.3037109375,-2.060546875,30.97705882352941,323.59293272771777
0.4033920898437499,-0.0034619140625,1.0220263671875005,1.0987606919725348,0.8232421875,-2.3408203125,-1.8291015625,30.835882352941177,323.59293272771777
0.4195053710937499,-0.0430126953125,1.0435107421875005,1.1254996745424934,0.75390625,-0.96435546875,-1.7421875,30.788823529411765,323.7332268619963
0.4380600585937499,-0.0640087890625,1.0542529296875005,1.1434347291240916,0.650390625,0.30419921875,-1.45458984375,30.882941176470588,323.7332268619963
0.4390366210937499,-0.0659619140625,1.0772021484375005,1.165104543535288,0.5283203125,1.50439453125,-1.259765625,30.788823529411765,323.7332268619963
0.4488022460937499,-0.0561962890625,1.0923388671875005,1.1822798652483524,0.416015625,2.5341796875,-1.0654296875,30.835882352941177,323.7332268619963
0.4409897460937499,-0.0386181640625,1.0967333984375005,1.182703456494339,0.34423828125,3.2490234375,-0.88916015625,30.788823529411765,323.7332268619963
0.4248764648437499,-0.0229931640625,1.1021044921875005,1.181390285922309,0.298828125,3.47265625,-0.67724609375,30.882941176470588,323.7332268619963
0.4082749023437499,0.0131396484375,1.0996630859375005,1.173081390534538,0.23876953125,3.2919921875,-0.54833984375,30.835882352941177,323.7332268619963
0.3867905273437499,0.0570849609375,1.0689013671875005,1.138163317623354,0.177734375,2.89599609375,-0.56689453125,30.835882352941177,323.7332268619963
0.3823959960937499,0.0990771484375,1.0435107421875005,1.1157767017785167,0.15185546875,2.39404296875,-0.7509765625,30.835882352941177,323.7332268619963
0.3906967773437499,0.1347216796875,1.0171435546875005,1.0978956752109632,0.08251953125,1.84912109375,-1.32666015625,30.882941176470588,323.5192127380884
0.4004624023437499,0.1552294921875,0.9932177734375,1.0821034499565472,0.0458984375,1.2265625,-1.78857421875,30.835882352941177,323.5192127380884
0.4072983398437499,0.1576708984375,0.9673388671875,1.0613654101322312,0.072265625,0.60546875,-2.576171875,30.882941176470588,323.5192127380884
0.3941147460937499,0.1435107421875,0.9478076171875,1.0364656508589152,0.1318359375,0.03955078125,-3.07763671875,30.835882352941177,323.5192127380884
0.3745834960937499,0.1171435546875,0.9390185546875,1.0177383032970908,0.29296875,-0.1103515625,-3.37158203125,30.835882352941177,323.5192127380884
0.3447983398437499,0.0834521484375,0.9194873046875,0.9855491158330588,0.49072265625,-0.158203125,-3.4794921875,30.788823529411765,323.5192127380884
0.3389389648437499,0.0380419921875,0.9189990234375,0.9802479380942484,0.66064453125,-0.0986328125,-3.4482421875,30.882941176470588,323.5192127380884
0.3135483398437499,-0.0005322265624999,0.9224169921875,0.9742514830166388,0.77001953125,0.01513671875,-3.33544921875,30.788823529411765,323.5192127380884
0.3042709960937499,-0.0439892578125,0.9341357421875,0.9834253803410652,0.76904296875,0.08642578125,-3.255859375,30.882941176470588,323.5192127380884
0.3140366210937499,-0.0737744140625,0.9434130859375,0.9970405780490388,0.6806640625,0.14453125,-3.2724609375,30.835882352941177,323.6148686876029
0.3238022460937499,-0.0835400390625,0.9585498046875,1.0152066591430366,0.5341796875,0.109375,-3.35986328125,30.835882352941177,323.6148686876029
0.3218491210937499,-0.0893994140625,0.9937060546875,1.048346715121545,0.49072265625,0.1630859375,-3.439453125,30.788823529411765,323.6148686876029
0.3184311523437499,-0.0942822265625,1.0064013671875005,1.0597788679273714,0.1904296875,0.2958984375,-3.45263671875,30.835882352941177,323.6148686876029
0.3062241210937499,-0.0889111328125,1.0278857421875005,1.0762097847864005,0.0751953125,0.60595703125,-3.35595703125,30.882941176470588,323.6148686876029
0.2842514648437499,-0.0703564453125,1.0376513671875005,1.078178688571109,0.02587890625,0.87890625,-3.16259765625,30.835882352941177,323.6148686876029
0.2808334960937499,-0.0576611328125,1.0459521484375005,1.084531306872458,0.05078125,1.21728515625,-2.91357421875,30.835882352941177,323.6148686876029
0.2891342773437499,-0.0400830078125,1.0464404296875005,1.086389824480582,0.087890625,1.2490234375,-2.65869140625,30.882941176470588,323.6148686876029
0.3125717773437499,-0.0146923828125,1.0376513671875005,1.0838068748308567,0.11376953125,0.90283203125,-2.6201171875,30.788823529411765,323.971472105785
0.3291733398437499,-0.0063916015625,1.0269091796875005,1.07839621826158,0.134765625,0.79296875,-2.80712890625,30.882941176470588,323.971472105785
0.3194077148437499,-0.0083447265625,1.0176318359375005,1.0666140240389852,0.13818359375,0.79345703125,-3.14111328125,30.835882352941177,323.971472105785
0.2969467773437499,-0.0083447265625,1.0166552734375005,1.059167110537577,0.169921875,0.77294921875,-3.5,30.741764705882357,323.971472105785
0.2710678710937499,-0.0200634765625,1.0078662109375005,1.0438748167192202,0.2021484375,0.59228515625,-3.7294921875,30.788823529411765,323.971472105785
0.2598374023437499,-0.0225048828125,1.0000537109375005,1.03350344468077,0.2451171875,0.3349609375,-3.88916015625,30.882941176470588,323.971472105785
0.2569077148437499,-0.0327587890625,0.9819873046875,1.015565743206465,0.2626953125,-0.0576171875,-3.9375,30.788823529411765,323.971472105785
0.2642319335937499,-0.0415478515625,0.9707568359375,1.0069327550633844,0.12890625,-0.6875,-3.9521484375,30.788823529411765,323.971472105785
0.2818100585937499,-0.0581494140625,0.9902880859375,1.0312462153289013,0.1806640625,-1.37646484375,-3.95166015625,30.788823529411765,323.9824401386624
0.2720444335937499,-0.0620556640625,0.9961474609375,1.034489653512209,0.044921875,-1.89599609375,-3.93994140625,30.788823529411765,323.9824401386624
0.2647202148437499,-0.0615673828125,0.9785693359375,1.0156107915980717,-0.1044921875,-1.76904296875,-3.92529296875,30.882941176470588,323.9824401386624
0.24372412109375,-0.0503369140625,1.0034716796875005,1.0338716864558724,-0.20263671875,-1.3984375,-3.9609375,30.788823529411765,323.9824401386624
0.2700913085937499,-0.0347119140625,1.0205615234375005,1.0562670377687822,-0.1494140625,-1.09375,-4.0595703125,30.93,323.9824401386624
0.2832749023437499,-0.0400830078125,1.0225146484375005,1.0617850649177651,-0.09130859375,-0.78955078125,-4.14013671875,30.788823529411765,323.9824401386624
0.2862045898437499,-0.0395947265625,1.0166552734375005,1.0569147338491724,-0.029296875,-0.5947265625,-4.20849609375,30.788823529411765,323.9824401386624
0.2857163085937499,-0.0327587890625,1.0073779296875005,1.0476245703870994,0.02392578125,-0.466796875,-4.23974609375,30.835882352941177,323.9824401386624
0.2730209960937499,-0.0361767578125,0.9883349609375,1.025989871843371,0.0048828125,-0.34130859375,-4.22607421875,30.788823529411765,323.9824401386624
0.2735092773437499,-0.0327587890625,0.9829638671875,1.0208322228702162,0.23681640625,-0.27392578125,-4.17822265625,30.788823529411765,323.63756857170773
0.2739975585937499,-0.0415478515625,0.9731982421875,1.0118871995838443,0.302734375,-0.3017578125,-4.04638671875,30.835882352941177,323.63756857170773
0.2754624023437499,-0.0400830078125,0.9692919921875,1.0084706980071854,0.384765625,-0.46728515625,-3.8955078125,30.741764705882357,323.63756857170773
0.2910874023437499,-0.0381298828125,0.9580615234375,1.0020317592062191,0.45751953125,-0.7412109375,-3.82177734375,30.835882352941177,323.63756857170773
0.3111069335937499,-0.0439892578125,0.9575732421875,1.007804094597001,0.5361328125,-1.0283203125,-3.7822265625,30.882941176470588,323.63756857170773
0.3159897460937499,-0.0444775390625,0.9497607421875,1.0019347476347946,0.583984375,-1.50927734375,-3.76416015625,30.741764705882357,323.63756857170773
0.3057358398437499,-0.0522900390625,0.9766162109375,1.0246891603876955,0.6455078125,-2.01611328125,-3.7119140625,30.882941176470588,323.63756857170773
0.3052475585937499,-0.0679150390625,0.9907763671875,1.038954442858572,0.63916015625,-2.3876953125,-3.64453125,30.882941176470588,323.63756857170773
0.3091538085937499,-0.0684033203125,1.0107958984375005,1.0592277563847488,0.83349609375,-2.8740234375,-3.51611328125,30.741764705882357,323.70184929292697
0.3306381835937499,-0.0815869140625,1.0161669921875005,1.0717151622552548,0.84228515625,-3.150390625,-3.41796875,30.835882352941177,323.70184929292697
0.3482163085937499,-0.0903759765625,1.0303271484375005,1.091327836865547,0.88037109375,-3.564453125,-3.35107421875,30.788823529411765,323.70184929292697
0.3574936523437499,-0.1108837890625,1.0137255859375005,1.0806185681022047,0.86572265625,-3.46630859375,-3.27294921875,30.835882352941177,323.70184929292697
0.3784897460937499,-0.1484814453125,1.0059130859375005,1.0849711350817148,0.8828125,-3.02294921875,-3.1787109375,30.93,323.70184929292697
0.3740952148437499,-0.1704541015625,1.0352099609375005,1.1138498524184897,0.857421875,-2.60205078125,-2.95947265625,30.882941176470588,323.70184929292697
0.3823959960937499,-0.1738720703125,1.0308154296875005,1.1131211276159985,0.68798828125,-2.31640625,-2.56640625,30.835882352941177,323.70184929292697
0.3887436523437499,-0.1738720703125,1.0435107421875005,1.127061574685705,0.50634765625,-1.923828125,-2.146484375,30.882941176470588,323.70184929292697
0.3711655273437499,-0.1631298828125,1.0376513671875005,1.1140446881435555,0.41162109375,-1.2587890625,-1.72119140625,30.741764705882357,323.84138111450693
0.3560288085937499,-0.1406689453125,1.0322802734375005,1.100975398295628,0.36767578125,-0.60693359375,-1.3828125,30.93,323.84138111450693
0.3384506835937499,-0.1323681640625,1.0147021484375005,1.0778175384201318,0.34228515625,0.31005859375,-1.05615234375,30.835882352941177,323.84138111450693
0.3316147460937499,-0.2363720703125,1.0122607421875005,1.0911058177943276,0.32861328125,1.078125,-0.79052734375,30.882941176470588,323.84138111450693
0.3306381835937499,-0.0908642578125,1.0068896484375005,1.063675084755013,0.349609375,1.67041015625,-0.599609375,30.741764705882357,323.84138111450693
0.3076889648437499,-0.0664501953125,0.9902880859375,1.0391143443786373,0.40625,2.10986328125,-0.431640625,30.741764705882357,323.84138111450693
0.2896225585937499,-0.0342236328125,0.9981005859375,1.0398352096068184,0.466796875,2.26220703125,-0.31494140625,30.788823529411765,323.84138111450693
0.2905991210937499,-0.0019970703125,0.9971240234375,1.0386087596330398,0.46142578125,2.11376953125,-0.3603515625,30.882941176470588,323.84138111450693
0.3135483398437499,0.0321826171875,1.0166552734375005,1.0643947704099674,0.4072265625,1.3740234375,-0.66015625,30.882941176470588,323.84138111450693
0.3526108398437499,0.0624560546875,1.0244677734375005,1.0852508382647912,0.306640625,0.2421875,-1.42822265625,30.882941176470588,323.70184929292697
0.3833725585937499,0.0858935546875,1.0103076171875005,1.0840081654520215,0.19873046875,-0.736328125,-2.2412109375,30.788823529411765,323.70184929292697
0.3789780273437499,0.1142138671875,1.0127490234375005,1.0873498687823042,0.001953125,-1.14990234375,-2.8388671875,30.835882352941177,323.70184929292697
0.3736069335937499,0.1381396484375,1.0103076171875005,1.085995480951392,0.0908203125,-1.107421875,-3.150390625,30.835882352941177,323.70184929292697
0.4019272460937499,0.1698779296875,1.0234912109375005,1.1126267482915049,0.26806640625,-1.4140625,-3.41845703125,30.835882352941177,323.70184929292697
0.3379624023437499,0.1737841796875,1.0156787109375005,1.084445835604194,0.4296875,-2.208984375,-3.349609375,30.93,323.70184929292697
0.4795639648437499,0.2592333984375,1.0332568359375005,1.1682479361221605,0.61328125,-2.7109375,-3.05859375,30.835882352941177,323.70184929292697
0.4771225585937499,0.1107958984375,1.0772021484375005,1.183336864814067,0.98828125,-2.87841796875,-2.40771484375,30.835882352941177,323.70184929292697
0.4151108398437499,0.0795458984375,1.0718310546875005,1.152157267523202,1.26806640625,-2.2509765625,-1.736328125,30.882941176470588,323.7653679824094
0.3916733398437499,0.0609912109375,1.0806201171875005,1.1510290051194656,1.4990234375,-1.13330078125,-0.79443359375,30.882941176470588,323.7653679824094
0.4009506835937499,0.0419482421875,1.0664599609375005,1.1401131320968685,1.560546875,-0.1416015625,-0.40673828125,30.788823529411765,323.7653679824094
0.4229233398437499,0.0346240234375,1.0337451171875005,1.117448854173018,1.375,0.96875,-0.36767578125,30.835882352941177,323.7653679824094
0.3399155273437499,0.0199755859375,0.9946826171875,1.051349180195572,1.06591796875,1.8876953125,-0.61474609375,30.835882352941177,323.7653679824094
0.4746811523437499,0.0004443359375,0.9580615234375,1.0692073122253696,0.7041015625,2.93212890625,-0.98583984375,30.882941176470588,323.7653679824094
0.4644272460937499,-0.0210400390625,0.8037646484375001,0.9285326920662698,0.31640625,3.77392578125,-1.36474609375,30.835882352941177,323.7653679824094
0.58112646484375,-0.0464306640625,0.8750537109375001,1.0514669617884191,-0.0849609375,4.49853515625,-1.5732421875,30.741764705882357,323.7653679824094
0.4361069335937499,-0.0410595703125,0.8613818359375001,0.9663611194195724,-0.4033203125,4.7216796875,-1.53369140625,30.835882352941177,323.5717603237905
0.4243881835937499,-0.0386181640625,0.8618701171875001,0.9614659598084352,-0.51025390625,4.4365234375,-1.31103515625,30.882941176470588,323.5717603237905
0.4102280273437499,-0.0195751953125,0.8682177734375001,0.9604542283745944,-0.4501953125,3.84814453125,-0.9912109375,30.835882352941177,323.5717603237905
0.3833725585937499,0.0043505859375,0.8687060546875001,0.9495491855251308,-0.31787109375,2.86962890625,-0.3232421875,30.835882352941177,323.5717603237905
0.3823959960937499,0.0312060546875,0.8643115234375001,0.945639955387114,-0.1826171875,1.81494140625,0.0087890625,30.882941176470588,323.5717603237905
0.4077866210937499,0.0600146484375,0.8823779296875001,0.9739006608323733,0.02978515625,0.251953125,0.35595703125,30.788823529411765,323.5717603237905
0.4488022460937499,0.0976123046875,0.9111865234375,1.0203982059075358,0.21630859375,-1.029296875,0.2685546875,30.835882352941177,323.5717603237905
0.3330795898437499,0.1215380859375,0.9429248046875,1.0073830983289287,0.41943359375,-2.26123046875,-0.03076171875,30.835882352941177,323.5717603237905
0.4400131835937499,0.1386279296875,0.9829638671875,1.0858394304969563,0.60595703125,-3.10302734375,-0.46435546875,30.835882352941177,323.5717603237905
0.4322006835937499,0.1439990234375,1.0249560546875005,1.1216363330823518,0.7177734375,-3.28369140625,-0.7578125,30.882941176470588,323.5819647687553
0.4116928710937499,0.1405810546875,1.0435107421875005,1.130561242086059,0.77783203125,-2.93359375,-1.236328125,30.835882352941177,323.5819647687553
0.3936264648437499,0.1298388671875,1.0718310546875005,1.1491830729045918,0.83447265625,-2.05615234375,-1.4697265625,30.835882352941177,323.5819647687553
0.3897202148437499,0.1112841796875,1.0713427734375005,1.1454437361578846,0.8212890625,-1.052734375,-1.5244140625,30.835882352941177,323.5819647687553
0.3975327148437499,0.0946826171875,1.0459521484375005,1.1229483310417891,0.6650390625,0.234375,-1.5302734375,30.835882352941177,323.5819647687553
0.4146225585937499,0.0854052734375,1.0151904296875005,1.0999170583979745,0.46240234375,1.18994140625,-1.53466796875,30.788823529411765,323.5819647687553
0.4258530273437499,0.0663623046875,0.9902880859375,1.0800116895344378,0.2236328125,1.93994140625,-1.5771484375,30.882941176470588,323.5819647687553
0.4253647460937499,0.0522021484375,0.9605029296875,1.051772841187279,0.00537109375,2.23974609375,-1.60498046875,30.882941176470588,323.5819647687553
0.4092514648437499,0.0399951171875,0.9473193359375,1.032715011567404,-0.09521484375,2.06591796875,-1.5830078125,30.741764705882357,323.57099682378293
0.4038803710937499,0.0341357421875,0.9292529296875,1.0138025499979366,-0.09521484375,1.57421875,-1.4873046875,30.97705882352941,323.57099682378293
0.3955795898437499,0.0370654296875,0.8022998046875001,0.8952887995392711,0.0302734375,0.90673828125,-1.40771484375,30.835882352941177,323.57099682378293
0.3941147460937499,0.0404833984375,0.8052294921875001,0.8974184496243264,0.1787109375,-0.0859375,-1.3271484375,30.882941176470588,323.57099682378293
0.4029038085937499,0.0556201171875,0.9307177734375,1.015706970640528,0.306640625,-0.8671875,-1.26513671875,30.741764705882357,323.57099682378293
0.4077866210937499,0.0644091796875,0.9478076171875,1.0338170776156297,0.326171875,-1.3330078125,-1.248046875,30.788823529411765,323.57099682378293
0.4165756835937499,0.0893115234375,0.9658740234375,1.0556630511350067,0.31103515625,-1.5068359375,-1.2822265625,30.788823529411765,323.57099682378293
0.4209702148437499,0.1034716796875,0.9937060546875,1.0841466844507446,0.2236328125,-1.27587890625,-1.3408203125,30.882941176470588,323.57099682378293
0.4263413085937499,0.1171435546875,0.9912646484375,1.0854009061449024,0.166015625,-0.7646484375,-1.4423828125,30.882941176470588,323.5067161539884
0.4307358398437499,0.1205615234375,0.9971240234375,1.0928516654952125,0.11767578125,-0.26953125,-1.5517578125,30.788823529411765,323.5067161539884
0.4341538085937499,0.1181201171875,1.0039599609375005,1.100171575149292,0.12646484375,0.17529296875,-1.66162109375,30.882941176470588,323.5067161539884
0.4229233398437499,0.1142138671875,1.0029833984375005,1.094479171288222,0.12548828125,0.4990234375,-1.62890625,30.882941176470588,323.5067161539884
0.4151108398437499,0.1073779296875,0.9971240234375,1.0854046928477623,0.1044921875,0.66015625,-1.86474609375,30.882941176470588,323.5067161539884
0.4121811523437499,0.1005419921875,0.9648974609375,1.054053653598377,0.06005859375,0.6865234375,-2.02587890625,30.882941176470588,323.5067161539884
0.4029038085937499,0.1000537109375,0.9605029296875,1.0463785653337825,0.015625,0.60400390625,-2.21875,30.835882352941177,323.5067161539884
0.3965561523437499,0.0951708984375,0.9575732421875,1.0407981533537427,-0.0166015625,0.421875,-2.4208984375,30.835882352941177,323.5067161539884
0.3926499023437499,0.0922412109375,0.9556201171875,1.0372522331521992,-0.05029296875,0.23828125,-2.5849609375,30.882941176470588,323.5067161539884
0.3906967773437499,0.0927294921875,0.9463427734375,1.0280113692880652,-0.0537109375,-0.2275390625,-2.6884765625,30.93,323.6031374593456
0.3853256835937499,0.0868701171875,0.9439013671875,1.0232165414395882,-0.05126953125,-0.56982421875,-2.62548828125,30.835882352941177,323.6031374593456
0.3843491210937499,0.0844287109375,0.9468310546875,1.0253494527412348,-0.015625,-0.84716796875,-2.76220703125,30.69470588235294,323.6031374593456
0.3980209960937499,0.0746630859375,0.9468310546875,1.0297982015199945,0.03173828125,-0.99609375,-2.77197265625,30.835882352941177,323.6031374593456
0.4097397460937499,0.0722216796875,0.9502490234375,1.0373407526409908,0.04541015625,-0.98876953125,-2.7646484375,30.882941176470588,323.6031374593456
0.4077866210937499,0.0614794921875,0.9629443359375,1.0475358945720206,0.03173828125,-0.9990234375,-2.77587890625,30.835882352941177,323.6031374593456
0.4160874023437499,0.0561083984375,0.9673388671875,1.0545242352530295,-0.005859375,-0.69140625,-2.77392578125,30.835882352941177,323.6031374593456
0.4155991210937499,0.0487841796875,0.9780810546875,1.0638350789385975,-0.095703125,-0.50927734375,-2.81396484375,30.835882352941177,323.6031374593456
0.4204819335937499,0.0482958984375,0.9771044921875,1.0648336672633978,-0.19970703125,-0.31201171875,-2.89794921875,30.882941176470588,323.6031374593456
0.4175522460937499,0.0546435546875,0.9839404296875,1.0702684548562775,-0.2900390625,-0.14013671875,-2.98291015625,30.882941176470588,324.0781043523418
0.4141342773437499,0.0541552734375,0.9912646484375,1.07566053964717,-0.35302734375,0.06787109375,-3.03857421875,30.882941176470588,324.0781043523418
0.4151108398437499,0.0663623046875,0.9932177734375,1.0785186647950815,-0.39697265625,0.21044921875,-3.0830078125,30.882941176470588,324.0781043523418
0.4058334960937499,0.0888232421875,0.9985888671875,1.0815591156174449,-0.369140625,0.2392578125,-3.05615234375,30.788823529411765,324.0781043523418
0.3989975585937499,0.1000537109375,0.9849169921875,1.0673665154649596,-0.2998046875,0.08740234375,-3.00732421875,30.835882352941177,324.0781043523418
0.4058334960937499,0.1166552734375,0.9780810546875,1.065341179581014,-0.2509765625,-0.10107421875,-3.0244140625,30.882941176470588,324.0781043523418
0.4087631835937499,0.1254443359375,0.9756396484375,1.0652212658803557,-0.18359375,-0.32568359375,-3.1875,30.69470588235294,324.0781043523418
0.4219467773437499,0.1332568359375,0.9634326171875,1.0601881319348967,-0.07177734375,-0.5244140625,-3.5244140625,30.835882352941177,323.6031374593456
0.4199936523437499,0.2602099609375,0.9565966796875,1.0766527292350525,-0.03369140625,-0.63671875,-3.79541015625,30.93,323.6031374593456
0.4175522460937499,0.1342333984375,0.9702685546875,1.064795544548054,0.0703125,-1.07568359375,-4.017578125,30.835882352941177,323.6031374593456
0.4155991210937499,0.1249560546875,0.9766162109375,1.0686982120893076,0.23095703125,-1.357421875,-4.08447265625,30.93,323.6031374593456
0.3946030273437499,0.1151904296875,0.9800341796875,1.062754617791047,0.35400390625,-1.36181640625,-4.00634765625,30.835882352941177,323.6031374593456
0.3867905273437499,0.0981005859375,0.9766162109375,1.054992824842926,0.44140625,-1.00244140625,-3.89111328125,30.882941176470588,323.6031374593456
0.4009506835937499,0.0976123046875,0.9605029296875,1.0453972884214744,0.42431640625,-0.57763671875,-3.8408203125,30.788823529411765,323.6031374593456
0.4400131835937499,0.0902880859375,0.9585498046875,1.0585751122452336,0.42138671875,-0.32470703125,-3.88232421875,30.882941176470588,323.6031374593456
0.4512436523437499,0.0736865234375,0.9536669921875,1.0576063868494676,0.4501953125,-0.3056640625,-3.916015625,30.835882352941177,323.6031374593456
0.4268295898437499,0.0653857421875,0.9531787109375,1.046426513918712,0.470703125,-0.39306640625,-3.82763671875,30.882941176470588,323.54982435305374
0.3989975585937499,0.0639208984375,0.9663623046875,1.0474450042564367,0.466796875,-0.53759765625,-3.67822265625,30.788823529411765,323.54982435305374
0.3775131835937499,0.0761279296875,0.9736865234375,1.0470802793431833,0.451171875,-0.67041015625,-3.56396484375,30.882941176470588,323.54982435305374
0.3687241210937499,0.0868701171875,0.9834521484375,1.053888999374632,0.41748046875,-0.65185546875,-3.54638671875,30.882941176470588,323.54982435305374
0.3799545898437499,0.0966357421875,0.9746630859375,1.0505579889281085,0.34228515625,-0.41064453125,-3.5009765625,30.882941176470588,323.54982435305374
0.3946030273437499,0.0995654296875,0.9668505859375,1.0490113819713285,0.2724609375,-0.181640625,-3.80029296875,30.741764705882357,323.54982435305374
0.4116928710937499,0.1112841796875,0.9439013671875,1.035772648671786,0.24560546875,-0.1484375,-3.92041015625,30.835882352941177,323.54982435305374
0.4351303710937499,0.1156787109375,0.9419482421875,1.0440241831358446,0.37158203125,-0.42333984375,-3.9287109375,30.741764705882357,323.54982435305374
0.4375717773437499,0.1225146484375,0.9287646484375,1.03396454078308,0.22509765625,-0.76123046875,-3.78662109375,30.835882352941177,323.54982435305374
0.4278061523437499,0.1249560546875,0.9297412109375,1.0310435678969916,0.236328125,-1.328125,-3.5537109375,30.835882352941177,323.7105284360041
0.4229233398437499,0.1337451171875,0.9399951171875,1.039395366591766,0.23388671875,-1.65869140625,-3.2841796875,30.882941176470588,323.7105284360041
0.4136459960937499,0.1356982421875,0.9595263671875,1.0536640225162903,0.2392578125,-1.88232421875,-3.04443359375,30.835882352941177,323.7105284360041
0.4146225585937499,0.1356982421875,0.9736865234375,1.0669542281426183,0.2802734375,-1.89990234375,-2.86376953125,30.788823529411765,323.7105284360041
0.4180405273437499,0.2626513671875,1.0034716796875005,1.118346563066278,0.3701171875,-1.77001953125,-2.716796875,30.741764705882357,323.7105284360041
0.4082749023437499,0.1386279296875,1.0127490234375005,1.1007118983852455,0.48193359375,-1.51953125,-2.60302734375,30.835882352941177,323.7105284360041
0.4136459960937499,0.1259326171875,1.0308154296875005,1.1178293627552955,0.568359375,-1.173828125,-2.5048828125,30.93,323.7105284360041
0.4170639648437499,0.1112841796875,1.0259326171875005,1.113042790924546,0.669921875,-0.7705078125,-2.345703125,30.741764705882357,323.7105284360041
0.4136459960937499,0.1098193359375,1.0200732421875005,1.1062154925949388,0.66357421875,-0.34765625,-2.0576171875,30.835882352941177,323.62354792473405
0.4116928710937499,0.1073779296875,1.0088427734375005,1.094890305651875,0.50146484375,0.185546875,-1.783203125,30.97705882352941,323.62354792473405
0.4238999023437499,0.1039599609375,1.0151904296875005,1.1050386460274857,0.56689453125,0.5234375,-1.51953125,30.882941176470588,323.62354792473405
0.4273178710937499,0.0873583984375,1.0059130859375005,1.0964001045211391,0.478515625,0.900390625,-1.29736328125,30.835882352941177,323.62354792473405
0.4097397460937499,0.0863818359375,1.0020068359375005,1.0859862708038184,0.37744140625,1.037109375,-1.09130859375,30.835882352941177,323.62354792473405
0.4029038085937499,0.0688037109375,0.9976123046875,1.07809820521232,0.30419921875,1.046875,-0.89111328125,30.788823529411765,323.62354792473405
0.3985092773437499,0.0673388671875,1.0054248046875005,1.0836158014001234,0.2197265625,1.04833984375,-0.7255859375,30.93,323.62354792473405
0.3799545898437499,0.0663623046875,0.9966357421875,1.068668446447446,0.1923828125,1.091796875,-0.57763671875,30.69470588235294,323.62354792473405
0.3623764648437499,0.0697802734375,0.9800341796875,1.0472120044143003,0.16943359375,1.1982421875,-0.4287109375,30.93,323.7105284360041
0.3706772460937499,0.0722216796875,0.9824755859375,1.0525568244763626,0.1748046875,1.271484375,-0.35888671875,30.882941176470588,323.7105284360041
0.3731186523437499,0.0771044921875,0.9878466796875,1.0587746190818548,0.2353515625,1.25537109375,-0.26611328125,30.882941176470588,323.7105284360041
0.3755600585937499,0.0707568359375,0.9805224609375,1.0523669435352665,0.28564453125,1.42333984375,-0.17529296875,30.882941176470588,323.7105284360041
0.3721420898437499,0.0824755859375,0.9790576171875,1.0506406498331735,0.37158203125,1.328125,0.009765625,30.788823529411765,323.7105284360041
0.3667709960937499,0.0795458984375,0.9707568359375,1.0407772807153397,0.50341796875,1.24169921875,0.271484375,30.882941176470588,323.7105284360041
0.3560288085937499,0.0922412109375,0.9629443359375,1.0307893808426698,0.50048828125,0.927734375,0.6044921875,30.788823529411765,323.7105284360041
0.3657944335937499,0.0976123046875,0.9727099609375,1.0437903993530553,0.6884765625,0.7587890625,0.828125,30.882941176470588,323.7105284360041
0.3736069335937499,0.0927294921875,0.9824755859375,1.0551962739291256,0.7314453125,0.5126953125,0.95703125,30.835882352941177,323.7105284360041
0.3672592773437499,0.1015185546875,0.9902880859375,1.0610635640199175,0.77197265625,0.333984375,0.99853515625,30.882941176470588,323.4824912013502
0.3672592773437499,0.0976123046875,0.9888232421875,1.059329478071699,0.7412109375,0.328125,0.9482421875,30.741764705882357,323.4824912013502
0.3770249023437499,0.1039599609375,0.9976123046875,1.0715343022644428,0.70361328125,0.48828125,0.86376953125,30.93,323.4824912013502
0.3819077148437499,0.0922412109375,1.0034716796875005,1.0776443548718866,0.6533203125,0.82275390625,0.80517578125,30.882941176470588,323.4824912013502
0.3877670898437499,0.0966357421875,1.0122607421875005,1.0882892964685489,0.6279296875,1.1591796875,0.83349609375,30.741764705882357,323.4824912013502
0.3853256835937499,0.0873583984375,1.0034716796875005,1.0784538859633308,0.65087890625,1.4326171875,0.96728515625,30.835882352941177,323.4824912013502
0.3794663085937499,0.0653857421875,1.0078662109375005,1.0789181033742512,0.63916015625,1.6279296875,1.099609375,30.882941176470588,323.4824912013502
0.3736069335937499,0.0541552734375,1.0054248046875005,1.073961811402674,0.681640625,1.97119140625,1.14404296875,30.97705882352941,323.4824912013502
0.3657944335937499,0.0189990234375,1.0112841796875005,1.075575298445428,0.68310546875,1.9580078125,1.17626953125,30.93,323.62354792473405
0.3628647460937499,0.0087451171875,1.0230029296875005,1.0854871234526522,0.7177734375,1.72802734375,1.18505859375,30.835882352941177,323.62354792473405
0.3653061523437499,-0.0073681640625,1.0361865234375005,1.098719885200655,0.77294921875,0.9169921875,1.1806640625,30.835882352941177,323.62354792473405
0.3677475585937499,-0.0205517578125,1.0425341796875005,1.105684474620828,0.83056640625,0.32763671875,1.18212890625,30.882941176470588,323.62354792473405
0.3736069335937499,-0.0142041015625,1.0332568359375005,1.0988191781826966,0.7685546875,0.0185546875,1.24267578125,30.882941176470588,323.62354792473405
0.3814194335937499,-0.0127392578125,1.0151904296875005,1.0845527564584776,0.9248046875,0.02294921875,1.28955078125,30.835882352941177,323.62354792473405
0.4033920898437499,-0.0205517578125,0.9956591796875,1.0744695225987926,0.93603515625,0.1142578125,1.326171875,30.835882352941177,323.62354792473405
0.4131577148437499,-0.0137158203125,0.9893115234375,1.0722055360181562,0.9990234375,0.22119140625,1.40185546875,30.882941176470588,323.62354792473405
0.3794663085937499,-0.0063916015625,0.9658740234375,1.03776112910421,0.98291015625,0.4248046875,1.54296875,30.882941176470588,323.83985680229665
0.3472397460937499,-0.0083447265625,0.9536669921875,1.014951135629991,0.9384765625,0.56640625,1.65087890625,30.882941176470588,323.83985680229665
0.3262436523437499,-0.0063916015625,0.9497607421875,1.00425158235657,0.880859375,0.62939453125,1.6552734375,30.93,323.83985680229665
0.3135483398437499,0.0072802734375,0.9453662109375,0.9960335519360892,0.78076171875,0.58154296875,1.5263671875,30.788823529411765,323.83985680229665
0.3008530273437499,0.0053271484375,0.9497607421875,0.9962862991996454,0.7294921875,0.45166015625,1.2939453125,30.882941176470588,323.83985680229665
0.2988999023437499,-0.1103955078125,0.9497607421875,1.0017852999354873,0.7060546875,0.22607421875,1.07861328125,30.835882352941177,323.83985680229665
0.3057358398437499,0.0111865234375,0.9541552734375,1.0020039061301964,0.689453125,-0.07568359375,0.8994140625,30.741764705882357,323.83985680229665
0.3164780273437499,-0.0063916015625,0.9541552734375,1.0052917388452545,0.72705078125,-0.46728515625,0.794921875,30.93,323.83985680229665
0.3228256835937499,-0.0220166015625,0.9595263671875,1.012616414077994,0.80859375,-0.93701171875,0.8037109375,30.69470588235294,323.83985680229665
0.4556381835937499,-0.0312939453125,0.9619677734375,1.064879083508609,0.8564453125,-1.24462890625,0.8857421875,30.835882352941177,323.839095310421
0.3360092773437499,-0.0439892578125,0.9761279296875,1.033277806003772,0.92431640625,-1.44873046875,1.0322265625,30.882941176470588,323.839095310421
0.3545639648437499,-0.0464306640625,0.9951708984375,1.0574670343929904,0.9970703125,-1.55224609375,1.18017578125,30.882941176470588,323.839095310421
0.3633530273437499,-0.0513134765625,1.0078662109375005,1.072591625226634,1.06640625,-1.51708984375,1.29345703125,30.93,323.839095310421
0.3755600585937499,-0.0591259765625,1.0190966796875005,1.0877036734632726,1.09375,-1.37939453125,1.36865234375,30.882941176470588,323.839095310421
0.3789780273437499,-0.0547314453125,1.0181201171875005,1.087744661828889,1.001953125,-1.14453125,1.41015625,30.835882352941177,323.839095310421
0.3731186523437499,-0.0518017578125,1.0215380859375005,1.088779597466876,1.10888671875,-0.99169921875,1.46044921875,30.882941176470588,323.839095310421
0.3721420898437499,-0.0415478515625,1.0195849609375005,1.0861719254209516,1.04443359375,-0.46630859375,1.52197265625,30.835882352941177,323.839095310421
0.3433334960937499,-0.0322705078125,1.0166552734375005,1.0735488904669002,0.9189453125,-0.11181640625,1.54150390625,30.835882352941177,323.80695329114275
0.3418686523437499,-0.0244580078125,1.0190966796875005,1.0751885472565152,0.88427734375,0.36376953125,1.53125,30.788823529411765,323.80695329114275
0.3438217773437499,-0.0244580078125,0.9937060546875,1.0517905361071511,0.78955078125,0.62548828125,1.46337890625,30.882941176470588,323.80695329114275
0.3452866210937499,-0.0176220703125,0.9888232421875,1.0475231703206556,0.720703125,0.9296875,1.4501953125,30.835882352941177,323.80695329114275
0.3745834960937499,-0.0156689453125,0.9985888671875,1.0666480380443386,0.921875,0.56201171875,1.3369140625,30.882941176470588,323.80695329114275
0.3721420898437499,-0.0225048828125,0.9844287109375,1.052661432608674,1.16064453125,0.1875,1.20166015625,30.882941176470588,323.80695329114275
0.3535874023437499,-0.0234814453125,0.9775927734375,1.0398379970203957,1.2783203125,-0.18994140625,1.07275390625,30.835882352941177,323.80695329114275
0.3570053710937499,-0.0361767578125,0.9785693359375,1.042285727635551,1.31298828125,-0.5869140625,0.97216796875,30.97705882352941,323.80695329114275
0.3428452148437499,-0.0435009765625,0.9697802734375,1.0295187978136486,1.31494140625,-0.7646484375,0.93115234375,30.835882352941177,323.82888895126024
0.3384506835937499,-0.0381298828125,0.9858935546875,1.0430670421227612,1.3203125,-0.958984375,0.9306640625,30.835882352941177,323.82888895126024
0.3404038085937499,-0.0435009765625,0.9824755859375,1.0406850459338095,1.30078125,-1.10498046875,0.98291015625,30.835882352941177,323.82888895126024
0.3452866210937499,-0.0561962890625,0.9902880859375,1.0502625227820388,1.283203125,-1.1669921875,1.041015625,30.93,323.82888895126024
0.3526108398437499,-0.0557080078125,1.0064013671875005,1.0678396407638284,1.314453125,-1.12939453125,1.076171875,30.882941176470588,323.82888895126024
0.3648178710937499,-0.0688916015625,1.0093310546875005,1.0754474928102271,1.255859375,-1.06298828125,1.07958984375,30.882941176470588,323.82888895126024
0.3726303710937499,-0.0757275390625,1.0103076171875005,1.0794950370339889,1.41748046875,-0.90673828125,1.07470703125,30.835882352941177,323.82888895126024
0.3677475585937499,-0.0840283203125,1.0054248046875005,1.0738612868276338,1.43017578125,-0.76416015625,1.07373046875,30.835882352941177,323.82888895126024
0.3579819335937499,-0.0903759765625,1.0049365234375005,1.070614915858076,1.41015625,-0.59228515625,1.11865234375,30.835882352941177,323.82888895126024
0.3594467773437499,-0.0820751953125,0.9878466796875,1.0544094963523474,1.32177734375,-0.62451171875,1.1455078125,30.93,323.7105284360041
0.3589584960937499,-0.0801220703125,0.9810107421875,1.0476892785345842,1.2333984375,-0.42529296875,1.15966796875,30.788823529411765,323.7105284360041
0.3638413085937499,-0.0791455078125,0.9888232421875,1.0566058458745675,1.15087890625,-0.4814453125,1.130859375,30.788823529411765,323.7105284360041
0.3736069335937499,-0.0747509765625,0.9668505859375,1.039216004906612,1.13720703125,-0.61083984375,1.06982421875,30.741764705882357,323.7105284360041
0.3828842773437499,-0.0679150390625,0.9668505859375,1.042119416331734,1.11474609375,-0.8037109375,1.02734375,30.835882352941177,323.7105284360041
0.3872788085937499,-0.0537548828125,0.9692919921875,1.0451800941133509,1.1064453125,-0.87646484375,1.00146484375,30.882941176470588,323.7105284360041
0.3897202148437499,-0.0557080078125,0.9692919921875,1.046189368188718,1.00439453125,-1.16064453125,0.9912109375,30.882941176470588,323.7105284360041
0.3921616210937499,-0.0581494140625,0.9688037109375,1.0467820793942553,1.181640625,-1.25830078125,0.9921875,30.93,323.7105284360041
0.3892319335937499,-0.0513134765625,0.9595263671875,1.0367378744572326,1.21044921875,-1.32568359375,0.97314453125,30.835882352941177,323.7207341721111
0.3980209960937499,-0.0478955078125,0.9678271484375,1.047570561944512,1.2294921875,-1.416015625,0.95068359375,30.93,323.7207341721111
0.3989975585937499,-0.0503369140625,0.9829638671875,1.0620502911243486,1.2861328125,-1.5576171875,0.8525390625,30.882941176470588,323.7207341721111
0.4116928710937499,-0.0488720703125,0.9873583984375,1.0708669881601125,1.2822265625,-1.70361328125,0.73291015625,30.835882352941177,323.7207341721111
0.4107163085937499,-0.0498486328125,0.9805224609375,1.0642354385854116,1.24755859375,-1.658203125,0.64111328125,30.882941176470588,323.7207341721111
0.4024155273437499,-0.0478955078125,0.9746630859375,1.055556899179375,1.13427734375,-1.17919921875,0.54150390625,30.788823529411765,323.7207341721111
0.4214584960937499,-0.0561962890625,0.9775927734375,1.0660548379474786,1.03271484375,-0.876953125,0.38916015625,30.882941176470588,323.7207341721111
0.4414780273437499,-0.0586376953125,0.9756396484375,1.0724802802579352,0.94970703125,-0.86865234375,0.23046875,30.93,323.7207341721111
0.4419663085937499,-0.0542431640625,0.9697802734375,1.0671224472983452,0.9833984375,-0.8818359375,0.18115234375,30.882941176470588,323.7207341721111
0.4234116210937499,-0.0478955078125,0.9614794921875,1.0516720945442013,0.8271484375,-0.89404296875,0.22216796875,30.788823529411765,323.6980369666075
0.4126694335937499,-0.0474072265625,0.9692919921875,1.0545475203478254,0.8076171875,-0.875,0.267578125,30.835882352941177,323.6980369666075
0.4102280273437499,-0.0503369140625,0.9648974609375,1.0496894538192303,0.80029296875,-0.73828125,0.29638671875,30.97705882352941,323.6980369666075
0.4185288085937499,-0.0405712890625,0.9541552734375,1.0427006660339713,0.8330078125,-0.58740234375,0.2734375,30.882941176470588,323.6980369666075
0.4322006835937499,-0.0469189453125,0.9497607421875,1.0445306533217171,0.861328125,-0.51220703125,0.22900390625,30.788823529411765,323.6980369666075
0.4463608398437499,-0.0332470703125,0.9565966796875,1.0561347331754276,0.93115234375,-0.5869140625,0.18798828125,30.835882352941177,323.6980369666075
0.4527084960937499,-0.0415478515625,0.9595263671875,1.0617730716744354,0.9697265625,-0.70166015625,0.13525390625,30.93,323.6980369666075
0.3335678710937499,-0.0439892578125,0.9473193359375,1.0052942373603746,1.03759765625,-0.79736328125,0.07568359375,30.882941176470588,323.6980369666075
0.3350327148437499,-0.0552197265625,0.9565966796875,1.0150730741214449,1.10400390625,-0.80859375,0.087890625,30.93,323.6987985462407
0.4419663085937499,-0.0547314453125,0.9565966796875,1.0551810065704983,1.171875,-0.806640625,0.1337890625,30.788823529411765,323.6987985462407
0.4380600585937499,-0.0527783203125,0.9536669921875,1.050791557835388,1.18408203125,-0.83544921875,0.2451171875,30.97705882352941,323.6987985462407
0.4287827148437499,-0.0518017578125,0.9678271484375,1.0598242438790992,1.18408203125,-0.79296875,0.31689453125,30.788823529411765,323.6987985462407
0.4278061523437499,-0.0547314453125,0.9761279296875,1.067164172095917,1.171875,-0.68359375,0.34912109375,30.788823529411765,323.6987985462407
0.4224350585937499,-0.0557080078125,0.9814990234375,1.0699977074145106,1.18310546875,-0.52783203125,0.3349609375,30.93,323.6987985462407
0.4253647460937499,-0.0601025390625,1.0010302734375005,1.089315881991774,1.18505859375,-0.5,0.3642578125,30.835882352941177,323.6987985462407
0.4190170898437499,-0.0664501953125,1.0107958984375005,1.0962204606447865,1.19970703125,-0.13525390625,0.4638671875,30.741764705882357,323.6987985462407
0.4219467773437499,-0.0586376953125,1.0117724609375005,1.0977982396296069,1.1982421875,0.3212890625,0.58740234375,30.835882352941177,323.5373301997137
0.4165756835937499,-0.0561962890625,1.0166552734375005,1.1001278416958071,1.18896484375,0.810546875,0.71826171875,30.93,323.5373301997137
0.4170639648437499,-0.0503369140625,1.0166552734375005,1.1000291362944905,1.1796875,1.326171875,0.859375,30.788823529411765,323.5373301997137
0.4185288085937499,-0.0454541015625,1.0190966796875005,1.1026288956497765,1.1767578125,1.640625,0.9912109375,30.835882352941177,323.5373301997137
0.4229233398437499,-0.0405712890625,1.0044482421875005,1.0906082945376605,1.15283203125,2.10693359375,1.0947265625,30.788823529411765,323.5373301997137
0.4278061523437499,-0.0337353515625,1.0093310546875005,1.0967704207740063,1.1884765625,2.24365234375,1.1494140625,30.788823529411765,323.5373301997137
0.4253647460937499,-0.0273876953125,0.9854052734375,1.073642773920807,1.2138671875,2.2353515625,1.18359375,30.788823529411765,323.5373301997137
0.4297592773437499,-0.0195751953125,0.9712451171875,1.062258585465472,1.130859375,2.13134765625,1.19482421875,30.882941176470588,323.5373301997137
0.4297592773437499,-0.0034619140625,0.9492724609375,1.0420284191932272,1.294921875,1.91552734375,1.22998046875,30.93,323.5373301997137
0.4253647460937499,0.0067919921875,0.9478076171875,1.0389035458481803,1.36865234375,1.5224609375,1.36767578125,30.835882352941177,323.4072419070233
0.4273178710937499,0.0126513671875,0.9365771484375,1.029532600272146,1.42431640625,1.0068359375,1.259765625,30.835882352941177,323.4072419070233
0.4346420898437499,0.0199755859375,0.9316943359375,1.028283572714895,1.46240234375,0.49755859375,1.29150390625,30.741764705882357,323.4072419070233
0.4458725585937499,0.0365771484375,0.8096240234375001,0.9250033976272096,1.52099609375,-0.23486328125,1.306640625,30.835882352941177,323.4072419070233
0.4488022460937499,0.0473193359375,0.9414599609375,1.044035168804576,1.57568359375,-0.837890625,1.26611328125,30.835882352941177,323.4072419070233
0.4590561523437499,0.0429248046875,0.9595263671875,1.064549641487023,1.654296875,-1.341796875,1.23779296875,30.788823529411765,323.4072419070233
0.4634506835937499,0.0395068359375,0.9902880859375,1.0940830952715903,1.72705078125,-1.7265625,1.23486328125,30.835882352941177,323.4072419070233
0.4649155273437499,0.0326708984375,1.0088427734375005,1.1112954497734155,1.84130859375,-1.84130859375,1.3251953125,30.835882352941177,323.4072419070233
0.4614975585937499,0.0185107421875,1.0366748046875005,1.1349084962401994,1.962890625,-1.6259765625,1.38232421875,30.882941176470588,323.9355225710008
0.4629624023437499,0.0126513671875,1.0493701171875005,1.1470274128902571,2.08349609375,-1.36572265625,1.68505859375,30.882941176470588,323.9355225710008
0.4697983398437499,0.0087451171875,1.0493701171875005,1.149767193844334,2.125,-0.6748046875,1.85009765625,30.882941176470588,323.9355225710008
0.4756577148437499,0.0058154296875,1.0498583984375005,1.1525999903186628,2.0888671875,0.06494140625,1.9873046875,30.788823529411765,323.9355225710008
0.4849350585937499,0.0185107421875,1.0347216796875005,1.1428707770544215,2.00244140625,0.716796875,2.06591796875,30.882941176470588,323.9355225710008
0.4942124023437499,0.0224169921875,1.0190966796875005,1.132831171322189,1.8994140625,1.548828125,2.08203125,30.882941176470588,323.9355225710008
0.4932358398437499,0.0321826171875,1.0068896484375005,1.121670218328899,1.79541015625,2.0029296875,2.15185546875,30.835882352941177,323.9355225710008
0.4834702148437499,0.0463427734375,0.9854052734375,1.0985966749491711,1.72802734375,2.46044921875,2.32275390625,30.882941176470588,323.9355225710008
0.4605209960937499,0.0546435546875,0.9814990234375,1.0855440290107223,1.77978515625,2.48095703125,2.60107421875,30.835882352941177,323.9355225710008
0.4507553710937499,0.0756396484375,0.9873583984375,1.088015793980344,1.88916015625,2.34326171875,2.90771484375,30.882941176470588,323.50595257942626
