AccX,AccY,AccZ,Magnitude,GyroX,GyroY,GyroZ,Temperature,Altitude
0.96540380859375,0.0556201171875,0.4028857421875,1.0475757883519654,0.60546875,-11.453125,5.43310546875,28.624117647058824,322.6766076904061
1.17145849609375,0.0507373046875,0.3940966796875,1.2370131264856872,0.4287109375,-13.96240234375,4.12548828125,28.624117647058824,322.6766076904061
1.23932958984375,0.0507373046875,0.4194873046875,1.3093821845218503,0.490234375,-15.875,2.13330078125,28.67117647058824,322.7402724999678
1.24763037109375,0.0439013671875,0.4155810546875,1.3157570010954285,0.541015625,16.0,-0.29931640625,28.577058823529413,322.7402724999678
1.13630224609375,0.0336474609375,0.4067919921875,1.2073916808613172,0.623046875,16.0,-2.41064453125,28.624117647058824,322.7402724999678
1.01130224609375,0.0277880859375,0.4658740234375,1.113796667434491,0.4365234375,16.0,-3.251953125,28.67117647058824,322.7402724999678
0.75934912109375,0.0741748046875,0.5205615234375001,0.9236326591453176,0.8544921875,-14.96826171875,-2.69482421875,28.577058823529413,322.7402724999678
0.66804052734375,0.0580615234375,0.5161669921875001,0.846213714437133,1.3583984375,-11.2685546875,-1.06982421875,28.67117647058824,322.7402724999678
0.72516943359375,0.0780810546875,0.5049365234375001,0.8870897650299779,1.82568359375,-6.65087890625,0.57958984375,28.624117647058824,322.7402724999678
0.93513037109375,0.0360888671875,0.4619677734375,1.0436404749585044,1.63916015625,-2.80810546875,1.1640625,28.624117647058824,322.83502883494185
1.00544287109375,0.0541552734375,0.4097216796875,1.08706946212295,1.1025390625,1.4384765625,1.49072265625,28.624117647058824,322.83502883494185
1.18366552734375,0.0077685546875,0.3740771484375,1.2413936297754318,-0.3046875,5.21875,1.35791015625,28.624117647058824,322.83502883494185
1.16950537109375,0.0277880859375,0.3530810546875,1.2219579460506966,-0.91650390625,9.244140625,1.1201171875,28.67117647058824,322.83502883494185
1.08698583984375,0.0502490234375,0.3496630859375,1.1429468290539944,-0.67431640625,13.06640625,1.12841796875,28.577058823529413,322.83502883494185
1.10016943359375,0.0082568359375,0.3193896484375,1.1456224096458314,-0.5341796875,14.673828125,1.61669921875,28.67117647058824,322.83502883494185
1.06550146484375,-0.0229931640625,0.3086474609375,1.109542839335619,-0.46826171875,14.4287109375,2.11669921875,28.53,322.83502883494185
1.06257177734375,-0.0552197265625,0.3027880859375,1.106249802347909,-0.35107421875,12.70654296875,2.552734375,28.624117647058824,322.83502883494185
1.05182958984375,-0.0615673828125,0.2730029296875,1.0884239193968543,-0.31689453125,10.349609375,2.74609375,28.577058823529413,322.9408425059412
1.03278662109375,-0.0317822265625,0.2456591796875,1.0620766202116732,-0.26513671875,7.30419921875,2.86328125,28.577058823529413,322.9408425059412
1.03669287109375,-0.0185986328125,0.2622607421875,1.0695133075431251,-0.2373046875,3.859375,2.42578125,28.624117647058824,322.9408425059412
1.06061865234375,-0.0132275390625,0.2661669921875,1.0935866500736295,-0.24267578125,0.6630859375,1.89453125,28.577058823529413,322.9408425059412
1.06598974609375,0.0082568359375,0.2730029296875,1.1004239699927816,-0.1826171875,-2.43212890625,1.365234375,28.53,322.9408425059412
1.05671240234375,0.0341357421875,0.2842333984375,1.0948036239203456,-0.03466796875,-4.90771484375,0.6650390625,28.67117647058824,322.9408425059412
1.03376318359375,0.0634326171875,0.3008349609375,1.0785136486848037,0.06396484375,-6.75830078125,0.361328125,28.718235294117648,322.9408425059412
1.02546240234375,0.0873583984375,0.3291552734375,1.080531268603503,0.2724609375,-8.13330078125,0.05029296875,28.53,322.9408425059412
1.00251318359375,0.0697802734375,0.3638232421875,1.068770003974715,0.61865234375,-9.033203125,0.0517578125,28.624117647058824,322.8030954257989
0.98639990234375,0.0399951171875,0.3872607421875,1.06045049822338,0.89306640625,-9.12939453125,0.234375,28.624117647058824,322.8030954257989
0.94977880859375,-4.394531249999993e-05,0.4038623046875,1.0320777821135636,1.34130859375,-8.7001953125,0.71044921875,28.624117647058824,322.8030954257989
0.89948583984375,-0.0449658203125,0.4004443359375,0.9856228321524504,1.45751953125,-7.70849609375,1.23974609375,28.53,322.8030954257989
0.91120458984375,-0.0762158203125,0.4102099609375,1.0021850467206987,1.4990234375,-6.40185546875,1.4853515625,28.577058823529413,322.8030954257989
0.92536474609375,-0.0825634765625,0.3989794921875,1.0110891534189417,1.21484375,-4.22900390625,1.55517578125,28.624117647058824,322.8030954257989
0.94001318359375,-0.0659619140625,0.4141162109375,1.0293046174957527,1.111328125,-1.857421875,1.31640625,28.67117647058824,322.8030954257989
0.97370458984375,-0.0425244140625,0.3975146484375,1.0525810419138917,1.0361328125,0.80712890625,0.81884765625,28.624117647058824,322.8030954257989
1.00837255859375,-0.0010205078125,0.3911669921875,1.0815858145048485,0.96923828125,3.13671875,0.37255859375,28.67117647058824,322.76671714626974
1.07673193359375,-0.0015087890625,0.3516162109375,1.1326905548555684,0.994140625,4.5068359375,-0.337890625,28.53,322.76671714626974
1.13044287109375,-0.0425244140625,0.3452685546875,1.182759394574414,0.7001953125,5.3701171875,-1.05908203125,28.624117647058824,322.76671714626974
1.12751318359375,-0.0933056640625,0.3091357421875,1.1728413504057886,0.84765625,5.88427734375,-1.4814453125,28.624117647058824,322.76671714626974
1.10114599609375,-0.1289501953125,0.2788623046875,1.1432037624850842,0.8212890625,5.85498046875,-1.197265625,28.577058823529413,322.76671714626974
1.06794287109375,-0.1689892578125,0.2495654296875,1.1096586181664556,0.490234375,4.8017578125,0.001953125,28.577058823529413,322.76671714626974
1.00837255859375,-0.1685009765625,0.2388232421875,1.0498782486728502,0.080078125,3.63330078125,1.40087890625,28.577058823529413,322.76671714626974
0.97907568359375,-0.1719189453125,0.2388232421875,1.0223413612736605,0.029296875,2.7685546875,2.97216796875,28.577058823529413,322.76671714626974
0.98493505859375,-0.1782666015625,0.2339404296875,1.0279125330114858,0.01806640625,1.64404296875,4.02685546875,28.624117647058824,322.85764843544746
0.99567724609375,-0.1792431640625,0.2456591796875,1.041081035662789,-0.01025390625,0.361328125,4.783203125,28.53,322.85764843544746
1.02936865234375,-0.1631298828125,0.2510302734375,1.072020232680575,0.03857421875,-1.33203125,4.91064453125,28.577058823529413,322.85764843544746
1.04011083984375,-0.1528759765625,0.2568896484375,1.0822171292512195,0.134765625,-2.9453125,4.55078125,28.624117647058824,322.85764843544746
1.05085302734375,-0.1567822265625,0.2505419921875,1.091624496561295,0.19677734375,-4.28173828125,3.88916015625,28.577058823529413,322.85764843544746
1.01813818359375,-0.1484814453125,0.2686083984375,1.0633920124793248,0.21337890625,-5.2802734375,3.14990234375,28.53,322.85764843544746
0.97565771484375,-0.1406689453125,0.2769091796875,1.02390156875779,0.23388671875,-6.00634765625,2.72119140625,28.577058823529413,322.85764843544746
0.92829443359375,-0.1226025390625,0.4238818359375,1.027831576117147,0.3056640625,-6.5634765625,2.2529296875,28.67117647058824,322.85764843544746
0.90095068359375,-0.1147900390625,0.3066943359375,0.9586189561197712,0.39794921875,-6.5966796875,2.009765625,28.53,322.85764843544746
0.90681005859375,-0.1006298828125,0.3223193359375,0.9676366105108098,0.548828125,-6.19775390625,1.765625,28.67117647058824,322.525766790893
0.92097021484375,-0.0952587890625,0.3203662109375,0.9797422531632732,0.671875,-5.56103515625,1.47900390625,28.577058823529413,322.525766790893
0.96442724609375,-0.1025830078125,0.2979052734375,1.0145889504827588,0.57958984375,-4.86767578125,1.1748046875,28.718235294117648,322.525766790893
0.98932958984375,-0.0933056640625,0.2896044921875,1.0350602621015486,0.32080078125,-3.87109375,0.9228515625,28.67117647058824,322.525766790893
0.97761083984375,-0.0781689453125,0.3071826171875,1.0277132374808806,0.1064453125,-2.76708984375,0.859375,28.577058823529413,322.525766790893
0.97809912109375,-0.0810986328125,0.3042529296875,1.0275333202148969,0.03466796875,-1.8193359375,0.9853515625,28.67117647058824,322.525766790893
0.96345068359375,-0.0674267578125,0.4238818359375,1.0547319082231823,-0.01171875,-1.03125,1.20068359375,28.67117647058824,322.525766790893
0.96247412109375,-0.0835400390625,0.2998583984375,1.0115584170057867,0.02001953125,-0.46728515625,1.40283203125,28.53,322.525766790893
0.95222021484375,-0.0835400390625,0.3057177734375,1.0035764209462197,0.1240234375,0.12158203125,1.626953125,28.577058823529413,322.525766790893
0.92780615234375,-0.0742626953125,0.2920458984375,0.9755152541278672,0.29150390625,0.396484375,2.30078125,28.67117647058824,322.3627462736379
0.92878271484375,-0.0815869140625,0.2749560546875,0.9720568851400024,0.390625,0.59033203125,2.65869140625,28.577058823529413,322.3627462736379
0.97223974609375,-0.0903759765625,0.2632373046875,1.0112921534369803,0.56298828125,1.05078125,2.6728515625,28.67117647058824,322.3627462736379
0.98395849609375,-0.1089306640625,0.2529833984375,1.0217831528720556,0.65185546875,1.69140625,2.431640625,28.67117647058824,322.3627462736379
1.00495458984375,-0.1274853515625,0.2295458984375,1.0386903109206869,0.640625,2.19384765625,2.01611328125,28.53,322.3627462736379
1.02350927734375,-0.1387158203125,0.2158740234375,1.055184776998223,0.50830078125,2.3046875,1.42041015625,28.624117647058824,322.3627462736379
1.03962255859375,-0.1577587890625,0.1895068359375,1.0684641972151074,0.357421875,2.12548828125,0.703125,28.67117647058824,322.3627462736379
1.06110693359375,-0.1489697265625,0.1943896484375,1.089002864721894,-0.041015625,1.650390625,-0.09033203125,28.67117647058824,322.3627462736379
1.03327490234375,-0.1157666015625,0.1812060546875,1.0554120352290028,-0.189453125,1.171875,-0.263671875,28.624117647058824,322.67514376306536
1.06013037109375,-0.1089306640625,0.1856005859375,1.0817531468818626,-0.21484375,0.6494140625,-0.4013671875,28.67117647058824,322.67514376306536
1.11042333984375,-0.1216259765625,0.0566943359375,1.1185021768293186,-0.21435546875,0.13916015625,-0.544921875,28.624117647058824,322.67514376306536
1.16120458984375,-0.1167431640625,0.1743701171875,1.1800127133202836,-0.18994140625,-0.3681640625,-0.6396484375,28.67117647058824,322.67514376306536
1.08600927734375,-0.0972119140625,0.2930224609375,1.1290387368581547,-0.25,-1.05615234375,-0.65380859375,28.67117647058824,322.67514376306536
1.25495458984375,-0.0918408203125,0.1758349609375,1.2705367733101864,-0.34375,-1.65283203125,-0.66845703125,28.624117647058824,322.67514376306536
1.27985693359375,-0.0767041015625,0.0547412109375,1.2833214288865478,-0.48095703125,-2.50390625,-0.72998046875,28.624117647058824,322.67514376306536
1.31159521484375,-0.0864697265625,0.1963427734375,1.3290257732241109,-0.61083984375,-3.56787109375,-0.9599609375,28.624117647058824,322.67514376306536
1.30915380859375,-0.0762158203125,0.2056201171875,1.3273930007400332,-0.61474609375,-4.099609375,-1.19140625,28.53,322.3640484281868
1.31989599609375,-0.1040478515625,0.2075732421875,1.3401634403278262,-0.35302734375,-4.50390625,-1.46240234375,28.624117647058824,322.3640484281868
1.32673193359375,-0.1377392578125,0.1948779296875,1.348023417541192,-0.25048828125,-5.041015625,-1.640625,28.577058823529413,322.3640484281868
1.29157568359375,-0.1392041015625,0.2139208984375,1.3165514342898998,-0.30322265625,-5.0224609375,-1.80517578125,28.624117647058824,322.3640484281868
1.24763037109375,-0.1470166015625,0.2119677734375,1.2740195292798957,-0.12841796875,-5.0830078125,-1.42041015625,28.48294117647059,322.3640484281868
1.17292333984375,-0.1465283203125,0.2129443359375,1.2010682745005308,0.017578125,-4.8515625,-0.52197265625,28.577058823529413,322.3640484281868
1.10261083984375,-0.1641064453125,0.2134326171875,1.135004436825491,0.01953125,-4.86083984375,0.41162109375,28.577058823529413,322.3640484281868
1.05475927734375,-0.1948681640625,0.2275927734375,1.0964894915268328,-0.0234375,-4.77685546875,1.43701171875,28.624117647058824,322.3640484281868
1.02546240234375,-0.2056103515625,0.2559130859375,1.0767266425812654,0.16796875,-4.4697265625,1.93994140625,28.577058823529413,322.3640484281868
1.00153662109375,-0.1977978515625,0.2422412109375,1.0492284773828304,0.494140625,-3.3876953125,1.96142578125,28.53,322.41795437244406
0.99323583984375,-0.1977978515625,0.2271044921875,1.0378910703944817,0.63916015625,-2.51123046875,1.66552734375,28.53,322.41795437244406
0.98835302734375,-0.1831494140625,0.2241748046875,1.0298736609835557,0.63525390625,-1.75634765625,1.244140625,28.624117647058824,322.41795437244406
0.95026708984375,-0.1611767578125,0.2393115234375,0.993103969657274,0.58642578125,-1.1474609375,0.5712890625,28.67117647058824,322.41795437244406
0.92975927734375,-0.1479931640625,0.2466357421875,0.97323351757961,0.66015625,-0.69921875,0.041015625,28.624117647058824,322.41795437244406
0.91706396484375,-0.1289501953125,0.2632373046875,0.962771181052492,0.87451171875,-0.31201171875,-0.5263671875,28.624117647058824,322.41795437244406
0.90729833984375,-0.1016064453125,0.2383349609375,0.9435664792781412,1.0693359375,-0.04736328125,-1.06103515625,28.577058823529413,322.41795437244406
0.95075537109375,-0.1265087890625,0.1943896484375,0.978635573026716,0.91552734375,0.26123046875,-2.0849609375,28.577058823529413,322.41795437244406
1.03571630859375,-0.0850048828125,0.2046435546875,1.0591567808705973,0.83203125,0.767578125,-3.20947265625,28.577058823529413,322.41795437244406
1.07380224609375,-0.0752392578125,0.1899951171875,1.0930738100362891,0.89599609375,1.33984375,-4.02880859375,28.53,322.68618539204607
1.09431005859375,-0.0713330078125,0.1724169921875,1.1101038336741382,0.87353515625,1.61083984375,-4.63818359375,28.624117647058824,322.68618539204607
1.12067724609375,-0.0815869140625,0.1670458984375,1.135992185995707,0.5029296875,1.70458984375,-5.14599609375,28.577058823529413,322.68618539204607
1.13776708984375,-0.1074658203125,0.1680224609375,1.1551166177691532,0.36962890625,1.736328125,-5.126953125,28.577058823529413,322.68618539204607
1.11042333984375,-0.0986767578125,0.1675341796875,1.127317522956908,0.24365234375,1.46435546875,-4.54248046875,28.577058823529413,322.68618539204607
1.10554052734375,0.0126513671875,0.1675341796875,1.1182341508176064,0.10791015625,0.9560546875,-3.5517578125,28.624117647058824,322.68618539204607
1.09479833984375,-0.1387158203125,0.1650927734375,1.1158320248007254,0.0576171875,0.39453125,-2.3701171875,28.577058823529413,322.68618539204607
1.11823583984375,-0.1699658203125,0.1694873046875,1.1437070079508087,-0.01171875,-0.1416015625,-1.015625,28.577058823529413,322.68618539204607
1.14899755859375,-0.1865673828125,0.1763232421875,1.1773243664001078,0.07666015625,-0.65234375,-0.162109375,28.67117647058824,322.46081883694285
1.19001318359375,-0.2197705078125,0.1851123046875,1.2242128158852994,0.17529296875,-1.34619140625,0.47314453125,28.53,322.46081883694285
1.22272802734375,-0.2358837890625,0.1909716796875,1.2598314066719742,0.3173828125,-1.77001953125,0.76806640625,28.577058823529413,322.46081883694285
1.21296240234375,-0.2129345703125,0.2095263671875,1.249207836703117,0.55712890625,-1.96826171875,1.29345703125,28.577058823529413,322.46081883694285
1.21735693359375,-0.2173291015625,0.2236865234375,1.2566723928384425,0.72412109375,-2.29833984375,1.50634765625,28.67117647058824,322.46081883694285
1.18806005859375,-0.1655712890625,0.2622607421875,1.227876724871166,1.09228515625,-2.4833984375,2.11083984375,28.53,322.46081883694285
1.13288427734375,-0.1157666015625,0.2915576171875,1.1755145835037752,1.41943359375,-2.96435546875,2.763671875,28.577058823529413,322.46081883694285
1.09333349609375,-0.0693798828125,0.3228076171875,1.1421017728442284,1.658203125,-3.27978515625,3.3154296875,28.577058823529413,322.899214698578
1.12116552734375,-0.0928173828125,0.3564990234375,1.1801350600537392,1.76171875,-3.40380859375,3.06005859375,28.718235294117648,322.899214698578
1.10456396484375,-0.1167431640625,0.3765185546875,1.1727986787213875,2.15283203125,-3.318359375,2.03955078125,28.577058823529413,322.899214698578
1.08942724609375,-0.1592236328125,0.4150927734375,1.1766502880369585,2.3017578125,-3.0927734375,0.64697265625,28.624117647058824,322.899214698578
1.04206396484375,-0.1577587890625,0.4663623046875,1.152509844463716,2.49951171875,-3.10302734375,-0.7109375,28.577058823529413,322.899214698578
1.05231787109375,-0.1748486328125,0.4922412109375,1.1748388638298015,2.29248046875,-3.44677734375,-2.0947265625,28.67117647058824,322.899214698578
1.07233740234375,-0.1855908203125,0.5200732421875001,1.2061623581794558,2.26953125,-3.18212890625,-3.17578125,28.53,322.899214698578
1.11384130859375,-0.1968212890625,0.5015185546875001,1.2372962221125143,2.9541015625,-1.40478515625,-4.14599609375,28.624117647058824,322.5316038640194
1.14753271484375,-0.2041455078125,0.4614794921875,1.2535828818655443,3.296875,1.06494140625,-4.5244140625,28.577058823529413,322.5316038640194
1.17780615234375,-0.1953564453125,0.4356005859375,1.2708813255741145,3.35546875,3.56005859375,-3.90625,28.53,322.5316038640194
1.20514990234375,-0.1548291015625,0.3980029296875,1.278579160572248,2.8408203125,5.611328125,-2.61279296875,28.67117647058824,322.5316038640194
1.20514990234375,-0.1006298828125,0.4087451171875,1.2765520871702143,2.435546875,7.06298828125,-0.82568359375,28.624117647058824,322.5316038640194
1.20612646484375,-0.0557080078125,0.3022998046875,1.2446805225619222,2.32470703125,8.11376953125,0.72119140625,28.67117647058824,322.5316038640194
1.17438818359375,-0.0352001953125,0.4219287109375,1.2483791477864592,2.3671875,8.77587890625,2.01171875,28.53,322.5316038640194
1.16413427734375,-0.0347119140625,0.3091357421875,1.20498068024444,2.4921875,9.001953125,2.93701171875,28.624117647058824,322.5316038640194
1.13483740234375,-0.0708447265625,0.4209521484375,1.212466748539593,2.50390625,9.47314453125,3.17138671875,28.67117647058824,322.5316038640194
1.04450537109375,-0.1260205078125,0.4180224609375,1.1320845447585866,2.6982421875,9.95751953125,2.94873046875,28.624117647058824,322.8134820914979
0.97468115234375,-0.1655712890625,0.4326708984375,1.079176216774013,2.7138671875,10.34033203125,2.61083984375,28.577058823529413,322.8134820914979
0.89704443359375,-0.2060986328125,0.4390185546875,1.0197561736261345,2.74951171875,10.41064453125,1.91064453125,28.624117647058824,322.8134820914979
0.84431005859375,-0.2324658203125,0.4507373046875,0.984918245588484,2.41455078125,10.0791015625,1.40478515625,28.577058823529413,322.8134820914979
0.82380224609375,-0.2510205078125,0.4487841796875,0.9711172307962284,2.06689453125,9.46044921875,0.818359375,28.624117647058824,322.8134820914979
0.82282568359375,-0.2568798828125,0.4399951171875,0.9677939258561852,1.66748046875,8.38232421875,0.3525390625,28.624117647058824,322.8134820914979
0.84821630859375,-0.2476025390625,0.4458544921875,0.989729332554299,1.31298828125,7.134765625,-0.28955078125,28.53,322.8134820914979
0.87702490234375,-0.2353955078125,0.4561083984375,1.0161784270267649,1.24267578125,5.93994140625,-0.666015625,28.577058823529413,322.8134820914979
0.91169287109375,-0.2212353515625,0.4614794921875,1.0455105421246509,1.0498046875,4.95068359375,-1.0,28.67117647058824,322.58941327188575
0.93610693359375,-0.2251416015625,0.4658740234375,1.0695903597126637,1.044921875,4.16796875,-0.78076171875,28.577058823529413,322.58941327188575
0.94782568359375,-0.2075634765625,0.4590380859375,1.0733927927948066,1.01416015625,3.7060546875,-0.3818359375,28.577058823529413,322.58941327188575
0.95807958984375,-0.1807080078125,0.4712451171875,1.0828868108144043,0.97705078125,3.486328125,0.20703125,28.67117647058824,322.58941327188575
0.97175146484375,-0.1548291015625,0.5049365234375001,1.1059990293023652,1.083984375,3.173828125,0.68408203125,28.624117647058824,322.58941327188575
0.96296240234375,-0.1611767578125,0.5107958984375001,1.101901531647528,1.23046875,3.23779296875,1.05126953125,28.577058823529413,322.58941327188575
0.94684912109375,-0.1616650390625,0.5337451171875001,1.098882474649853,1.30419921875,3.38720703125,1.1826171875,28.577058823529413,322.58941327188575
0.91999365234375,-0.1724072265625,0.4370654296875,1.0330240858526412,1.376953125,3.9365234375,1.24609375,28.53,322.58941327188575
0.90632177734375,-0.1758251953125,0.5659716796875001,1.082893164445368,1.423828125,4.4833984375,0.984375,28.67117647058824,322.58941327188575
0.89118505859375,-0.1694775390625,0.5527880859375001,1.0623126248246662,1.3857421875,5.4765625,0.52880859375,28.577058823529413,322.7511341816454
0.88581396484375,-0.1450634765625,0.5430224609375001,1.0490868341692323,1.30615234375,6.45361328125,0.39501953125,28.577058823529413,322.7511341816454
0.87311865234375,-0.1279736328125,0.5122607421875001,1.0203550851308003,1.25537109375,7.7646484375,0.462890625,28.577058823529413,322.7511341816454
0.86725927734375,-0.1421337890625,0.4727099609375,0.9978954731341352,1.443359375,9.17041015625,0.7119140625,28.624117647058824,322.7511341816454
0.84382177734375,-0.1518994140625,0.4321826171875,0.9601512581417228,1.48876953125,10.41650390625,1.193359375,28.624117647058824,322.7511341816454
0.81354833984375,-0.1680126953125,0.4043505859375,0.923898567699232,1.25146484375,11.37353515625,1.81396484375,28.624117647058824,322.7511341816454
0.81208349609375,-0.1782666015625,0.3647998046875,0.9079303295740973,1.037109375,11.77587890625,2.34375,28.624117647058824,322.7511341816454
0.78620458984375,-0.1758251953125,0.3564990234375,0.8809788363575762,0.810546875,11.69873046875,2.68359375,28.624117647058824,322.9115562458701
0.77692724609375,-0.1870556640625,0.3325732421875,0.8655695977792813,0.64453125,11.341796875,2.716796875,28.67117647058824,322.9115562458701
0.75788427734375,-0.1782666015625,0.3145068359375,0.839691674919383,0.48681640625,10.49267578125,2.60107421875,28.624117647058824,322.9115562458701
0.74177099609375,-0.1894970703125,0.3081591796875,0.8252850600420485,0.3193359375,9.2900390625,2.32763671875,28.577058823529413,322.9115562458701
0.73493505859375,-0.1875439453125,0.3169482421875,0.8220452907226723,0.19873046875,7.8046875,1.94384765625,28.577058823529413,322.9115562458701
0.73688818359375,-0.1831494140625,0.3140185546875,0.8216784989760653,0.1015625,5.9765625,1.50537109375,28.577058823529413,322.9115562458701
0.74567724609375,-0.1665478515625,0.3398974609375,0.8362434012617397,0.13427734375,3.7138671875,1.01318359375,28.624117647058824,322.9115562458701
0.76813818359375,-0.1455517578125,0.3413623046875,0.8530825319736512,0.27685546875,1.4609375,0.5166015625,28.577058823529413,322.9115562458701
0.76764990234375,-0.1191845703125,0.3643115234375,0.8580292655138846,0.419921875,-0.86962890625,0.17919921875,28.76529411764706,322.9115562458701
0.74518896484375,-0.0913525390625,0.3989794921875,0.8501979268995312,0.541015625,-3.08154296875,-0.01904296875,28.67117647058824,322.65436171366235
0.74225927734375,-0.0864697265625,0.4356005859375,0.8649703572283578,0.501953125,-4.87890625,-0.14697265625,28.624117647058824,322.65436171366235
0.73151708984375,-0.0771923828125,0.4956591796875,0.886991510165811,0.73193359375,-6.53271484375,-0.23291015625,28.577058823529413,322.65436171366235
0.71393896484375,-0.0820751953125,0.5503466796875001,0.9051666426966948,0.75732421875,-8.0615234375,-0.33056640625,28.718235294117648,322.65436171366235
0.71882177734375,-0.1011181640625,0.6143115234375001,0.9509512492841578,1.04248046875,-8.8818359375,-0.44482421875,28.624117647058824,322.65436171366235
0.74421240234375,-0.1318798828125,0.5576708984375001,0.9392769741971656,1.1943359375,-9.65771484375,-0.5927734375,28.53,322.65436171366235
0.77839208984375,-0.1528759765625,0.7407763671875001,1.0853639647255515,1.32958984375,-9.8076171875,-0.7138671875,28.53,322.65436171366235
0.81061865234375,-0.1821728515625,0.7842333984375001,1.142502328487273,1.52197265625,-9.46337890625,-0.748046875,28.624117647058824,322.65436171366235
0.86188818359375,-0.1855908203125,0.8418505859375001,1.2190191149633842,1.740234375,-8.72314453125,-0.60302734375,28.624117647058824,322.65436171366235
0.90046240234375,-0.2031689453125,0.8809130859375001,1.275977281674717,1.912109375,-7.45849609375,-0.27001953125,28.67117647058824,322.8810323842864
0.89802099609375,-0.2031689453125,0.9004443359375001,1.2878351338143132,1.93212890625,-5.6943359375,0.1376953125,28.67117647058824,322.8810323842864
0.89802099609375,-0.2051220703125,0.9072802734375,1.29293242968197,1.85791015625,-3.1416015625,0.93896484375,28.577058823529413,322.8810323842864
0.87165380859375,-0.2109814453125,0.9243701171875,1.2879261026360844,1.7216796875,-0.4228515625,1.55126953125,28.577058823529413,322.8810323842864
0.84821630859375,-0.2080517578125,0.9336474609375,1.2784576729044723,1.58154296875,2.2978515625,2.0966796875,28.624117647058824,322.8810323842864
0.83893896484375,-0.2031689453125,0.9395068359375,1.2758406255664494,1.44873046875,5.30859375,2.46630859375,28.577058823529413,322.8810323842864
0.86335302734375,-0.2007275390625,0.9121630859375,1.2718928768212867,1.3359375,7.47021484375,2.6005859375,28.624117647058824,322.8810323842864
0.89216162109375,-0.1982861328125,0.8955615234375001,1.279570314941723,1.33154296875,8.42724609375,2.5126953125,28.577058823529413,322.8810323842864
0.91218115234375,-0.1963330078125,0.8682177734375001,1.2745286213971991,1.3623046875,8.28955078125,2.3330078125,28.577058823529413,322.72061189957884
0.90876318359375,-0.1934033203125,0.8462451171875001,1.2567363154325704,1.41748046875,7.56396484375,2.23388671875,28.48294117647059,322.72061189957884
0.88239599609375,-0.2119580078125,0.8252490234375001,1.2266151970698358,1.42578125,6.36865234375,2.23291015625,28.624117647058824,322.72061189957884
0.84382177734375,-0.2153759765625,0.8189013671875001,1.195416852976974,1.4052734375,5.0126953125,2.3466796875,28.67117647058824,322.72061189957884
0.79889990234375,-0.2060986328125,0.8281787109375001,1.1690156875175517,1.484375,3.64599609375,2.560546875,28.624117647058824,322.72061189957884
0.77155615234375,-0.2153759765625,0.8438037109375001,1.1634820196683913,1.54541015625,2.71630859375,2.7783203125,28.624117647058824,322.72061189957884
0.73639990234375,-0.2153759765625,0.8735888671875001,1.162681872364954,1.62158203125,2.1171875,2.93310546875,28.624117647058824,322.72061189957884
0.71833349609375,-0.2217236328125,0.8984912109375001,1.1715164689793214,1.71826171875,1.67578125,2.95751953125,28.577058823529413,322.7926992031941
0.69391943359375,-0.2217236328125,0.9248583984375,1.1773056556506558,1.79833984375,1.66796875,2.9423828125,28.624117647058824,322.7926992031941
0.66852880859375,-0.2119580078125,0.9336474609375,1.1677133836308733,1.84228515625,1.90869140625,2.9384765625,28.624117647058824,322.7926992031941
0.64509130859375,-0.2036572265625,0.9321826171875,1.1517740638427587,1.86767578125,2.3974609375,2.93212890625,28.577058823529413,322.7926992031941
0.62018896484375,-0.2231884765625,0.9346240234375,1.143664948037996,1.90673828125,3.27099609375,2.7607421875,28.624117647058824,322.7926992031941
0.60602880859375,-0.2334423828125,0.9160693359375,1.1229199843193236,1.9580078125,4.287109375,2.5234375,28.577058823529413,322.7926992031941
0.59284521484375,-0.2246533203125,0.8828662109375001,1.0869164225025314,1.85693359375,5.29150390625,2.40771484375,28.624117647058824,322.7926992031941
0.56598974609375,-0.2183056640625,0.8560107421875001,1.0491692648879072,1.71435546875,5.75927734375,2.40234375,28.577058823529413,322.7926992031941
0.53913427734375,-0.2168408203125,0.8408740234375001,1.0221324931987703,1.572265625,6.134765625,2.47216796875,28.53,322.7926992031941
0.50739599609375,-0.1997509765625,0.8252490234375001,0.9891345207676197,1.423828125,6.14208984375,2.56591796875,28.624117647058824,322.5991536115308
0.4912827148437499,-0.2012158203125,0.8066943359375001,0.965713344570697,1.28271484375,5.560546875,2.59033203125,28.624117647058824,322.5991536115308
0.58063818359375,-0.1958447265625,0.8101123046875001,1.0157646397544475,1.19189453125,4.830078125,2.5283203125,28.53,322.5991536115308
0.4287827148437499,-0.1890087890625,0.8086474609375001,0.9346066846392204,1.001953125,3.6162109375,2.2763671875,28.577058823529413,322.5991536115308
0.4204819335937499,-0.1904736328125,0.8125537109375001,0.9345206227975028,1.04443359375,1.751953125,1.775390625,28.718235294117648,322.5991536115308
0.4531967773437499,-0.1929150390625,0.8262255859375001,0.9619003327523136,0.96875,-0.54931640625,1.0751953125,28.577058823529413,322.5991536115308
0.4863999023437499,-0.2148876953125,0.8423388671875001,0.9961407299028828,0.83544921875,-3.11474609375,0.125,28.624117647058824,322.5991536115308
0.50641943359375,-0.2329541015625,0.8589404296875001,1.0239662679541517,0.73046875,-5.32861328125,-0.57861328125,28.67117647058824,322.5991536115308
0.52253271484375,-0.2627392578125,0.8926318359375001,1.0671756885382064,0.7587890625,-7.24951171875,-1.0732421875,28.67117647058824,322.5991536115308
0.55475927734375,-0.2935009765625,0.9165576171875,1.1108458689964729,0.8388671875,-8.5673828125,-1.23583984375,28.624117647058824,322.48160021530595
0.4575913085937499,-0.3184033203125,0.9307177734375,1.0848990984782976,0.9033203125,-9.3193359375,-1.07666015625,28.624117647058824,322.48160021530595
0.61628271484375,-0.3281689453125,0.9609912109375,1.1878566196228502,0.91552734375,-9.787109375,-0.53564453125,28.67117647058824,322.48160021530595
0.66022802734375,-0.3276806640625,0.9810107421875,1.227052460972199,0.9189453125,-9.66162109375,0.05126953125,28.577058823529413,322.48160021530595
0.70075537109375,-0.3213330078125,0.9907763671875,1.2553687911541482,0.8857421875,-8.98974609375,0.6669921875,28.67117647058824,322.48160021530595
0.71638037109375,-0.3242626953125,0.9917529296875,1.2656701802616217,0.82470703125,-7.46875,1.126953125,28.67117647058824,322.48160021530595
0.73249365234375,-0.3174267578125,0.9927294921875,1.273898952805164,0.75732421875,-5.4697265625,1.63330078125,28.624117647058824,322.48160021530595
0.74567724609375,-0.3091259765625,1.0073779296875005,1.290892605118316,0.81640625,-3.31884765625,2.1435546875,28.577058823529413,322.48160021530595
0.73932958984375,-0.3018017578125,0.9834521484375,1.2668349030965231,0.83642578125,-1.29443359375,2.60205078125,28.67117647058824,322.7511341816454
0.72614599609375,-0.3071728515625,0.9702685546875,1.2502256742666071,0.7822265625,0.021484375,2.77587890625,28.53,322.7511341816454
0.73298193359375,-0.3144970703125,0.9380419921875,1.231297568143896,0.66455078125,0.96044921875,2.63232421875,28.67117647058824,322.7511341816454
0.74225927734375,-0.3291455078125,0.9063037109375,1.2168286718248786,0.5654296875,1.08935546875,2.30419921875,28.53,322.7511341816454
0.75739599609375,-0.3369580078125,0.8750537109375001,1.2053664965284636,0.443359375,0.78515625,1.88623046875,28.624117647058824,322.7511341816454
0.76813818359375,-0.3413525390625,0.8550341796875001,1.1990167944832957,0.35693359375,0.203125,1.509765625,28.67117647058824,322.7511341816454
0.77643896484375,-0.3393994140625,0.8320849609375001,1.187608862636164,0.3310546875,-0.96728515625,1.255859375,28.53,322.7511341816454
0.79157568359375,-0.3393994140625,0.8179248046875001,1.187764712073046,0.369140625,-2.1748046875,1.07568359375,28.624117647058824,322.7511341816454
0.80720068359375,-0.3350048828125,0.8120654296875001,1.19300103822083,0.37646484375,-3.6396484375,0.94482421875,28.48294117647059,322.58941327188575
0.81501318359375,-0.3247509765625,0.8101123046875001,1.1941489155109637,0.607421875,-4.82373046875,0.90087890625,28.577058823529413,322.58941327188575
0.82233740234375,-0.3276806640625,0.8174365234375001,1.2049132295495364,0.73095703125,-5.974609375,0.849609375,28.624117647058824,322.58941327188575
0.83356787109375,-0.3164501953125,0.8223193359375001,1.2129242400454272,0.77734375,-6.689453125,0.82763671875,28.577058823529413,322.58941327188575
0.83942724609375,-0.3125439453125,0.8164599609375001,1.2119936827599822,0.78564453125,-6.98828125,0.7958984375,28.67117647058824,322.58941327188575
0.85651708984375,-0.2983837890625,0.8325732421875001,1.2311915425214337,0.7890625,-7.02294921875,0.76904296875,28.67117647058824,322.58941327188575
0.84772802734375,-0.2856884765625,0.8350146484375001,1.2237279832911927,0.83447265625,-6.7216796875,0.814453125,28.53,322.58941327188575
0.84919287109375,-0.2739697265625,0.8491748046875001,1.2317815521857889,0.92041015625,-6.0341796875,0.94775390625,28.718235294117648,322.58941327188575
0.85847021484375,-0.2798291015625,0.8467333984375001,1.2378339484295413,0.99365234375,-5.2158203125,1.0029296875,28.577058823529413,322.58941327188575
0.85798193359375,-0.2793408203125,0.8442919921875001,1.2357156875018087,1.15625,-4.10986328125,1.43212890625,28.48294117647059,322.4289960343289
0.84870458984375,-0.2783642578125,0.8359912109375001,1.2233836052580154,1.34814453125,-2.93212890625,1.73046875,28.67117647058824,322.4289960343289
0.83063818359375,-0.2925244140625,0.8223193359375001,1.2048814942239026,1.53271484375,-1.68896484375,2.025390625,28.67117647058824,322.4289960343289
0.81110693359375,-0.2983837890625,0.6812060546875001,1.1004403810484509,1.60302734375,-0.4736328125,2.236328125,28.67117647058824,322.4289960343289
0.79011083984375,-0.3174267578125,0.7598193359375001,1.1412100197064758,1.5625,0.73193359375,2.35595703125,28.67117647058824,322.4289960343289
0.76667333984375,-0.3193798828125,0.7314990234375001,1.106744026802274,1.556640625,1.8203125,2.43896484375,28.624117647058824,322.4289960343289
0.74616552734375,-0.3232861328125,0.7202685546875001,1.0863073730471768,1.58056640625,2.53271484375,2.4619140625,28.577058823529413,322.4289960343289
0.73688818359375,-0.3159619140625,0.6768115234375001,1.0492425670529788,1.6162109375,3.267578125,2.52392578125,28.48294117647059,322.4289960343289
0.73298193359375,-0.3184033203125,0.6118701171875001,1.0064930350816652,1.5810546875,3.6201171875,2.56298828125,28.67117647058824,322.6088942840248
0.75544287109375,-0.3286572265625,0.5942919921875001,1.015821084658273,1.55712890625,3.40234375,2.4482421875,28.624117647058824,322.6088942840248
0.78962255859375,-0.3511181640625,0.5610888671875001,1.0303438586493894,1.6064453125,2.76171875,2.23046875,28.624117647058824,322.6088942840248
0.81452490234375,-0.3706494140625,0.5322802734375001,1.0412272058363006,1.7705078125,1.97021484375,2.26611328125,28.624117647058824,322.6088942840248
0.81208349609375,-0.3862744140625,0.5078662109375001,1.0327708437979786,1.94921875,0.9931640625,2.615234375,28.67117647058824,322.6088942840248
0.83356787109375,-0.4209423828125,0.4902880859375,1.0547086292336332,2.18212890625,0.244140625,2.99560546875,28.624117647058824,322.6088942840248
0.84577490234375,-0.4414501953125,0.4771044921875,1.066696843925919,2.4892578125,-0.39111328125,3.318359375,28.577058823529413,322.6088942840248
0.85016943359375,-0.4531689453125,0.4551318359375,1.0655022979311686,2.81787109375,-0.9814453125,3.5703125,28.53,322.6088942840248
0.83063818359375,-0.4448681640625,0.4556201171875,1.0466408966910357,3.08544921875,-1.22021484375,3.68115234375,28.67117647058824,322.6504595406593
0.81110693359375,-0.4482861328125,0.4492724609375,1.029903227858171,3.21044921875,-1.29736328125,3.681640625,28.67117647058824,322.6504595406593
0.78864599609375,-0.4331494140625,0.4517138671875,1.0067901170884013,3.3154296875,-1.333984375,3.630859375,28.53,322.6504595406593
0.75983740234375,-0.4150830078125,0.4526904296875,0.977023749202558,3.29931640625,-1.48779296875,3.59326171875,28.577058823529413,322.6504595406593
0.75104833984375,-0.4038525390625,0.4751513671875,0.9761861010224596,3.29443359375,-1.830078125,3.44189453125,28.624117647058824,322.6504595406593
0.76227880859375,-0.4194775390625,0.4888232421875,0.997987249373326,3.24072265625,-2.21875,3.048828125,28.577058823529413,322.6504595406593
0.77350927734375,-0.4316845703125,0.4966357421875,1.0155369174977673,3.146484375,-2.48046875,2.57177734375,28.67117647058824,322.6504595406593
0.78962255859375,-0.4507275390625,0.5020068359375001,1.0385903729755337,3.05712890625,-2.4580078125,1.9306640625,28.67117647058824,322.6504595406593
0.78132177734375,-0.4624462890625,0.5064013671875001,1.0395973425844465,2.91455078125,-2.07666015625,1.30859375,28.577058823529413,322.6504595406593
0.76764990234375,-0.4790478515625,0.5098193359375001,1.0385995243359056,2.8720703125,-1.35302734375,0.884765625,28.718235294117648,322.962864956159
0.74323583984375,-0.4814892578125,0.5073779296875001,1.0206193132363557,2.5634765625,-0.43701171875,0.60986328125,28.624117647058824,322.962864956159
0.73054052734375,-0.4844189453125,0.5156787109375001,1.0169934658509467,2.44921875,0.548828125,0.4501953125,28.577058823529413,322.962864956159
0.73542333984375,-0.4785595703125,0.5112841796875001,1.0155187164810604,2.4091796875,1.408203125,0.38330078125,28.718235294117648,322.962864956159
0.75251318359375,-0.4697705078125,0.5254443359375001,1.0310442142127638,2.4111328125,2.0224609375,0.44775390625,28.577058823529413,322.962864956159
0.77350927734375,-0.4570751953125,0.5254443359375001,1.0408295184494003,2.4921875,2.6025390625,0.6494140625,28.67117647058824,322.962864956159
0.78815771484375,-0.4560986328125,0.5190966796875001,1.0481793306413465,2.5810546875,3.052734375,0.90478515625,28.577058823529413,322.962864956159
0.81208349609375,-0.4614697265625,0.5073779296875001,1.0629516812609543,2.767578125,3.42578125,1.1572265625,28.67117647058824,322.962864956159
0.82184912109375,-0.4458447265625,0.4985888671875,1.0596246300126635,3.01318359375,3.6982421875,1.38818359375,28.67117647058824,322.962864956159
0.81550146484375,-0.4355908203125,0.5078662109375001,1.0548507430508034,3.21630859375,3.61083984375,1.63623046875,28.624117647058824,322.9310397280682
0.80036474609375,-0.4370556640625,0.5088427734375001,1.044280780421814,3.30810546875,3.365234375,1.85888671875,28.67117647058824,322.9310397280682
0.78571630859375,-0.4287548828125,0.5015185546875001,1.0260125378481435,3.35400390625,2.7978515625,1.6826171875,28.624117647058824,322.9310397280682
0.75739599609375,-0.4351025390625,0.5098193359375001,1.0113746435882365,3.31201171875,2.6142578125,1.4931640625,28.67117647058824,322.9310397280682
0.71198583984375,-0.4365673828125,0.5293505859375001,0.9888007679538586,3.22998046875,2.30322265625,1.02099609375,28.67117647058824,322.9310397280682
0.66999365234375,-0.4463330078125,0.5606005859375001,0.9810084938456646,3.240234375,2.2236328125,0.75634765625,28.624117647058824,322.9310397280682
0.63141943359375,-0.4560986328125,0.5693896484375001,0.9648424927007848,3.2763671875,2.2431640625,0.7763671875,28.624117647058824,322.8647908163179
0.57819677734375,-0.4468212890625,0.5884326171875001,0.9381970596097086,3.22802734375,2.2958984375,0.9990234375,28.53,322.8647908163179
0.58063818359375,-0.4429150390625,0.5996630859375001,0.9449392830816544,3.19580078125,2.09033203125,1.22216796875,28.577058823529413,322.8647908163179
0.60065771484375,-0.4282666015625,0.6089404296875001,0.956561769737431,3.0947265625,1.71826171875,1.2119140625,28.53,322.8647908163179
0.62409521484375,-0.3965283203125,0.6201708984375001,0.9650603552470152,3.01318359375,1.09375,0.90478515625,28.624117647058824,322.8647908163179
0.63093115234375,-0.3691845703125,0.6294482421875001,0.964663908077612,2.93017578125,0.27001953125,0.40185546875,28.624117647058824,322.8647908163179
0.64606787109375,-0.3452587890625,0.6445849609375001,0.9757546296847956,2.88525390625,-0.31005859375,-0.2080078125,28.624117647058824,322.8647908163179
0.65925146484375,-0.3330517578125,0.6514208984375001,0.98482747433332,2.87060546875,-0.74658203125,-0.65576171875,28.577058823529413,322.9563745012553
0.68513037109375,-0.3423291015625,0.6665576171875001,1.0153284671486,2.931640625,-1.03857421875,-1.1865234375,28.624117647058824,322.9563745012553
0.69782568359375,-0.3584423828125,0.6792529296875001,1.037702350854251,3.0361328125,-1.06689453125,-1.37890625,28.67117647058824,322.9563745012553
0.70222021484375,-0.3735791015625,0.6929248046875001,1.0549025358821815,3.10400390625,-0.755859375,-1.29150390625,28.624117647058824,322.9563745012553
0.72565771484375,-0.3901806640625,0.6943896484375001,1.0774957325101857,3.07421875,-0.45654296875,-1.166015625,28.624117647058824,322.9563745012553
0.75007177734375,-0.4009228515625,0.7231982421875001,1.1164060648239549,2.9765625,-0.314453125,-1.2099609375,28.577058823529413,322.9563745012553
0.76716162109375,-0.4214306640625,0.7402880859375001,1.146371321898955,2.865234375,-0.1943359375,-1.35302734375,28.76529411764706,322.9563745012553
0.74665380859375,-0.4180126953125,0.7427294921875001,1.1330814718699953,2.3876953125,-0.115234375,-1.49462890625,28.624117647058824,322.9563745012553
0.70417333984375,-0.4224072265625,0.7271044921875001,1.0967993892039545,2.005859375,0.40283203125,-1.47802734375,28.624117647058824,322.9342921300334
0.67878271484375,-0.4253369140625,0.7427294921875001,1.0923848053684946,1.69580078125,0.73291015625,-1.357421875,28.624117647058824,322.9342921300334
0.64460302734375,-0.4307080078125,0.7495654296875001,1.0783648660064675,1.47216796875,0.8935546875,-1.07666015625,28.718235294117648,322.9342921300334
0.63044287109375,-0.4233837890625,0.7275927734375001,1.0517144529349798,1.26904296875,1.2412109375,-0.7763671875,28.53,322.9342921300334
0.63044287109375,-0.4116650390625,0.7183154296875001,1.040626433753438,1.1240234375,1.35009765625,-0.57421875,28.624117647058824,322.9342921300334
0.66071630859375,-0.3965283203125,0.6992724609375001,1.0405588517124784,0.6298828125,1.259765625,-0.5166015625,28.624117647058824,322.9342921300334
0.69391943359375,-0.3765087890625,0.6856005859375001,1.0456247950379831,0.24560546875,0.94189453125,-0.64453125,28.577058823529413,322.9342921300334
0.73884130859375,-0.3560009765625,0.6797412109375001,1.065209504484802,-0.44873046875,0.6640625,-0.9541015625,28.624117647058824,322.9342921300334
0.76667333984375,-0.3408642578125,0.5527880859375001,1.0047642112633597,-0.95654296875,0.38330078125,-1.3564453125,28.577058823529413,322.67968526674696
0.78425146484375,-0.3071728515625,0.6714404296875001,1.077143338402805,-1.30859375,0.19482421875,-1.6533203125,28.624117647058824,322.67968526674696
0.80475927734375,-0.2974072265625,0.6646044921875001,1.0852592703673336,-1.44287109375,0.1220703125,-1.8154296875,28.577058823529413,322.67968526674696
0.82917333984375,-0.2832470703125,0.6724169921875001,1.1044917119339277,-1.44970703125,-0.439453125,-1.78173828125,28.53,322.67968526674696
0.87116552734375,-0.2671337890625,0.7988818359375001,1.21181765339587,-1.4208984375,-1.134765625,-1.6337890625,28.67117647058824,322.67968526674696
0.94001318359375,-0.2529736328125,0.6841357421875001,1.1898160185368376,-1.42431640625,-2.20166015625,-1.5791015625,28.577058823529413,322.67968526674696
0.99714208984375,-0.2471142578125,0.7075732421875001,1.2474043838354565,-1.3408203125,-2.919921875,-1.662109375,28.577058823529413,322.67968526674696
1.00348974609375,-0.2412548828125,0.7183154296875001,1.2574468758254995,-1.2421875,-3.724609375,-1.74462890625,28.624117647058824,322.67968526674696
0.97468115234375,-0.2080517578125,0.7310107421875001,1.2359876972917374,-0.78662109375,-4.0263671875,-1.67578125,28.624117647058824,322.67968526674696
0.88581396484375,-0.1450634765625,0.7095263671875001,1.1441754490806446,-0.33984375,-3.73974609375,-1.50927734375,28.624117647058824,322.8842762012503
0.83600927734375,-0.0796337890625,0.6963427734375001,1.0909382706110824,0.11376953125,-2.9638671875,-1.3125,28.624117647058824,322.8842762012503
0.81696630859375,-0.0146923828125,0.6768115234375001,1.0610012505872917,0.3935546875,-2.6181640625,-1.1611328125,28.718235294117648,322.8842762012503
0.85261083984375,0.0458544921875,0.6523974609375001,1.0745558737034269,0.68212890625,-2.7138671875,-1.15185546875,28.67117647058824,322.8842762012503
0.90925146484375,0.0761279296875,0.6372607421875001,1.1129397744408156,0.658203125,-2.8046875,-1.4423828125,28.624117647058824,322.8842762012503
0.97516943359375,0.1078662109375,0.6021044921875001,1.1511387245636104,0.39306640625,-2.51416015625,-2.21240234375,28.67117647058824,322.8842762012503
1.05329443359375,0.0854052734375,0.6016162109375001,1.2160038198267746,0.1123046875,-2.07763671875,-3.16259765625,28.624117647058824,322.8842762012503
1.11188818359375,0.0443896484375,0.6104052734375001,1.2691967426463568,-0.458984375,-1.705078125,-4.50244140625,28.577058823529413,322.8842762012503
1.15290380859375,-0.0322705078125,0.6265185546875001,1.3125372668660364,-0.7509765625,-1.66845703125,-5.74951171875,28.624117647058824,322.5205624316126
1.16315771484375,-0.1123486328125,0.6616748046875001,1.342896731716037,-1.1640625,-2.083984375,-6.35302734375,28.718235294117648,322.5205624316126
1.14264990234375,-0.2051220703125,0.6758349609375001,1.343308139438178,-1.48583984375,-2.96875,-6.20751953125,28.577058823529413,322.5205624316126
1.13190771484375,-0.2720166015625,0.6880419921875001,1.3522610285968295,-1.7158203125,-3.958984375,-5.84814453125,28.624117647058824,322.5205624316126
1.13483740234375,-0.3232861328125,0.7271044921875001,1.3860197675309016,-1.6298828125,-5.06640625,-5.00927734375,28.624117647058824,322.5205624316126
1.15388037109375,-0.3447705078125,0.7422412109375001,1.4146478816534895,-1.60546875,-6.07958984375,-4.37548828125,28.624117647058824,322.5205624316126
1.17829443359375,-0.3296337890625,0.7564013671875001,1.4384641933022997,-1.048828125,-7.38623046875,-3.751953125,28.718235294117648,322.92454798728085
1.15095068359375,-0.2583447265625,0.7412646484375001,1.3931628594068763,-1.11865234375,-6.9287109375,-3.57177734375,28.67117647058824,322.92454798728085
1.14411474609375,-0.1997509765625,0.7290576171875001,1.3712855333758736,-0.91650390625,-5.97802734375,-3.4775390625,28.577058823529413,322.92454798728085
1.12800146484375,-0.1626416015625,0.6992724609375001,1.3370944506182232,-0.7041015625,-4.14697265625,-3.44287109375,28.577058823529413,322.92454798728085
1.11286474609375,-0.1138134765625,0.6357958984375001,1.2867236980080443,-0.68701171875,-2.72998046875,-3.23046875,28.67117647058824,322.9888822277908
1.10993505859375,-0.0923291015625,0.5728076171875001,1.252433257143418,-0.7685546875,-1.43408203125,-3.130859375,28.53,322.9888822277908
1.10944677734375,-0.0703564453125,0.5322802734375001,1.2325357887891706,-0.75244140625,-0.306640625,-3.0693359375,28.577058823529413,322.9888822277908
1.10505224609375,-0.0796337890625,0.4746630859375,1.2053161627179,-0.99462890625,0.2099609375,-3.0947265625,28.67117647058824,322.9888822277908
1.07673193359375,-0.0747509765625,0.4370654296875,1.164459340271485,-1.22802734375,0.236328125,-3.2099609375,28.624117647058824,322.9888822277908
1.09626318359375,-0.0937939453125,0.4048388671875,1.1723842289394917,-1.33642578125,-0.1962890625,-3.525390625,28.67117647058824,322.9888822277908
1.11188818359375,-0.0967236328125,0.3818896484375,1.179614554650617,-1.361328125,-1.11083984375,-4.0634765625,28.67117647058824,322.9888822277908
1.09577490234375,0.0131396484375,0.3726123046875,1.1574693156071336,-1.35107421875,-2.310546875,-4.13818359375,28.67117647058824,322.9888822277908
1.09675146484375,-0.1001416015625,0.3516162109375,1.1560822097906611,-1.2451171875,-3.71875,-4.0634765625,28.577058823529413,323.0271816833397
1.09821630859375,-0.1060009765625,0.3608935546875,1.1608442726345622,-1.21484375,-4.970703125,-3.6943359375,28.67117647058824,323.0271816833397
1.09626318359375,-0.1055126953125,0.3706591796875,1.162030173473057,-1.0791015625,-5.77734375,-3.26318359375,28.624117647058824,323.0271816833397
1.10358740234375,-0.1333447265625,0.3867724609375,1.176978719966297,-0.99755859375,-6.27685546875,-3.1962890625,28.67117647058824,323.0271816833397
1.08991552734375,-0.1401806640625,0.4150927734375,1.1746780349874786,-0.68310546875,-6.37158203125,-3.322265625,28.624117647058824,323.0271816833397
1.06891943359375,-0.1377392578125,0.4204638671875,1.1568710914649865,-0.6611328125,-5.978515625,-3.6103515625,28.624117647058824,323.0271816833397
1.06745458984375,-0.0991650390625,0.4375537109375,1.1579059790440382,-0.9345703125,-5.46923828125,-4.22265625,28.67117647058824,323.0271816833397
1.06306005859375,-0.0430126953125,0.4580615234375,1.1583467267572678,-1.34619140625,-5.12255859375,-5.0341796875,28.577058823529413,323.0271816833397
1.05768896484375,0.0297412109375,0.5078662109375001,1.173677372275825,-1.681640625,-4.611328125,-5.87890625,28.67117647058824,323.0531516700352
1.05524755859375,0.0775927734375,0.5469287109375001,1.191091542768879,-1.759765625,-3.9365234375,-6.69287109375,28.624117647058824,323.0531516700352
1.04938818359375,0.1381396484375,0.5610888671875001,1.1979644565755605,-1.68017578125,-3.58056640625,-6.734375,28.577058823529413,323.0531516700352
1.04597021484375,0.1610888671875,0.5684130859375001,1.201289619424485,-1.53955078125,-3.365234375,-6.34619140625,28.577058823529413,323.0531516700352
1.05036474609375,0.1430224609375,0.5811083984375001,1.2088872961958872,-1.23583984375,-2.7431640625,-5.74609375,28.624117647058824,323.0531516700352
1.07233740234375,0.0907763671875,0.5635302734375001,1.214789785265601,-0.53271484375,-1.94775390625,-4.94921875,28.624117647058824,323.0531516700352
1.08649755859375,0.0453662109375,0.5356982421875001,1.2122325043521076,-0.03076171875,-0.9736328125,-4.3525390625,28.624117647058824,323.0531516700352
1.10261083984375,0.1327685546875,0.5073779296875001,1.2209875170486884,0.14794921875,-0.154296875,-3.66015625,28.67117647058824,322.85245057931326
1.11042333984375,-0.0185986328125,0.4956591796875,1.2161677208431114,0.22216796875,0.32373046875,-3.42431640625,28.718235294117648,322.85245057931326
1.10505224609375,-0.0322705078125,0.4873583984375,1.2081804752597534,0.2666015625,0.63818359375,-3.36181640625,28.624117647058824,322.85245057931326
1.08747412109375,-0.0185986328125,0.4707568359375,1.185140443902327,0.263671875,1.06396484375,-3.30517578125,28.577058823529413,322.85245057931326
1.05134130859375,0.0053271484375,0.4790576171875,1.155354112924457,0.28271484375,1.234375,-3.12890625,28.624117647058824,322.85245057931326
1.03425146484375,0.0439013671875,0.4629443359375,1.1339845152157004,0.310546875,1.36279296875,-2.83544921875,28.577058823529413,322.85245057931326
1.02595068359375,0.0702685546875,0.4648974609375,1.1285575413466908,0.349609375,1.39697265625,-2.625,28.718235294117648,322.85245057931326
1.04548193359375,0.0839404296875,0.4805224609375,1.1536811971565106,0.4697265625,1.25439453125,-2.3701171875,28.67117647058824,322.85245057931326
1.06159521484375,0.0966357421875,0.4868701171875,1.1719067274563475,0.6474609375,1.03857421875,-2.12255859375,28.577058823529413,322.85245057931326
1.06745458984375,0.0893115234375,0.4946826171875,1.1798926821303242,0.87744140625,0.85205078125,-1.78271484375,28.67117647058824,322.77645972029774
1.07087255859375,0.0824755859375,0.5064013671875001,1.1874395158130069,1.0947265625,0.693359375,-1.5703125,28.624117647058824,322.77645972029774
1.07526708984375,0.0595263671875,0.5103076171875001,1.1917032210458995,1.2880859375,0.58984375,-1.39501953125,28.624117647058824,322.77645972029774
1.06013037109375,0.0356005859375,0.5283740234375001,1.185041313236799,1.4150390625,0.6865234375,-1.2529296875,28.577058823529413,322.77645972029774
1.04694677734375,0.0155810546875,0.5215380859375001,1.1697616419335135,1.49853515625,0.98779296875,-1.16552734375,28.624117647058824,322.77645972029774
1.02057958984375,0.0072802734375,0.5293505859375001,1.1497163756419826,1.52099609375,1.48046875,-1.009765625,28.577058823529413,322.77645972029774
0.99323583984375,0.0038623046875,0.5254443359375001,1.1236654756271631,1.51953125,2.1728515625,-0.76171875,28.718235294117648,322.77645972029774
0.98493505859375,0.0116748046875,0.5181201171875001,1.112960837831212,1.52685546875,2.80322265625,-0.4052734375,28.67117647058824,322.77645972029774
0.98200537109375,0.0199755859375,0.5127490234375001,1.1079914863962763,1.494140625,3.7001953125,-0.11181640625,28.624117647058824,322.77645972029774
0.98884130859375,0.0370654296875,0.5083544921875001,1.1124770871287777,1.49365234375,4.453125,0.5302734375,28.67117647058824,322.99209338888693
1.00983740234375,0.0473193359375,0.4922412109375,1.1244163412504975,1.5517578125,5.02490234375,0.966796875,28.67117647058824,322.99209338888693
1.02839208984375,0.0609912109375,0.4854052734375,1.1388276857127035,1.6650390625,5.5361328125,1.25146484375,28.577058823529413,322.99209338888693
1.02936865234375,0.0854052734375,0.4800341796875,1.13900250079935,1.83349609375,5.666015625,1.8037109375,28.577058823529413,322.99209338888693
1.03864599609375,0.0878466796875,0.4590380859375,1.1389550073092702,1.95166015625,5.64794921875,2.0068359375,28.624117647058824,322.99209338888693
1.03522802734375,0.1117724609375,0.4546435546875,1.1361738042398897,2.044921875,5.2900390625,2.322265625,28.53,322.99209338888693
1.03083349609375,0.1200732421875,0.4605029296875,1.1353846169510364,2.11328125,4.74462890625,2.36328125,28.67117647058824,322.99209338888693
1.01081396484375,0.1313037109375,0.4722216796875,1.1233783204228147,2.18701171875,3.9306640625,2.27294921875,28.53,322.99209338888693
0.99225927734375,0.1474169921875,0.4707568359375,1.1081165289094088,2.2255859375,3.31494140625,2.16943359375,28.624117647058824,323.2908730150337
0.96442724609375,0.1601123046875,0.4785693359375,1.0884780532560026,2.27734375,2.9326171875,2.1005859375,28.67117647058824,323.2908730150337
0.95368505859375,0.1601123046875,0.4771044921875,1.0783226963960275,2.310546875,2.79541015625,2.046875,28.67117647058824,323.2908730150337
0.94587255859375,0.1728076171875,0.4961474609375,1.081988758099379,2.306640625,2.85986328125,2.00146484375,28.53,323.2908730150337
0.94050146484375,0.1835498046875,0.4995654296875,1.080647562673842,2.33349609375,3.02978515625,1.9501953125,28.67117647058824,323.2908730150337
0.92634130859375,0.1737841796875,0.5054248046875001,1.0694687439613353,2.25439453125,3.3388671875,1.95068359375,28.577058823529413,323.2908730150337
0.92438818359375,0.1659716796875,0.5103076171875001,1.068856387259592,2.47216796875,3.80712890625,1.95947265625,28.624117647058824,323.2908730150337
0.89948583984375,0.1664599609375,0.5005419921875001,1.042749241485105,2.53466796875,4.35693359375,2.02197265625,28.577058823529413,323.2908730150337
0.88239599609375,0.1571826171875,0.5010302734375001,1.0268205315287815,2.60107421875,4.9892578125,2.09814453125,28.67117647058824,323.3006182025384
0.87214208984375,0.1459521484375,0.4941943359375,1.0129964936677975,2.66259765625,5.37646484375,2.0859375,28.67117647058824,323.3006182025384
0.86628271484375,0.1249560546875,0.4922412109375,1.004171881395481,2.62255859375,5.6826171875,2.01220703125,28.577058823529413,323.3006182025384
0.85554052734375,0.1166552734375,0.4683154296875,0.9822817255918932,2.525390625,5.99755859375,1.9189453125,28.577058823529413,323.3006182025384
0.85749365234375,0.0966357421875,0.4590380859375,0.9774199684982484,2.37158203125,5.97265625,1.81201171875,28.624117647058824,323.3006182025384
0.85749365234375,0.0751513671875,0.4507373046875,0.9716517944392048,2.23046875,5.89404296875,1.76123046875,28.577058823529413,323.3006182025384
0.83796240234375,0.0653857421875,0.4561083984375,0.9562903085090532,2.18408203125,5.61962890625,1.857421875,28.577058823529413,323.3006182025384
0.83161474609375,0.0556201171875,0.4346240234375,0.939986555811052,2.09765625,5.33984375,2.115234375,28.67117647058824,323.3006182025384
0.84138037109375,0.0595263671875,0.4336474609375,0.9484273496846968,2.01513671875,4.568359375,2.26806640625,28.624117647058824,323.3006182025384
0.85358740234375,0.0517138671875,0.4507373046875,0.9666694860894232,1.962890625,3.7568359375,2.572265625,28.718235294117648,323.19539125535914
0.84040380859375,0.0600146484375,0.4561083984375,0.9580789062760846,2.017578125,3.07568359375,2.8076171875,28.67117647058824,323.19539125535914
0.81306005859375,0.0644091796875,0.4648974609375,0.938799686032448,2.09619140625,2.51025390625,2.97802734375,28.67117647058824,323.19539125535914
0.78962255859375,0.0707568359375,0.4819873046875,0.92780497775769,2.14892578125,2.0859375,3.04052734375,28.577058823529413,323.19539125535914
0.77448583984375,0.0751513671875,0.5034716796875001,0.9268008288494254,2.17919921875,1.8671875,2.9384765625,28.67117647058824,323.19539125535914
0.75788427734375,0.0844287109375,0.5137255859375001,0.9194730897216372,2.1767578125,1.53125,2.77490234375,28.76529411764706,323.19539125535914
0.75641943359375,0.0956591796875,0.5352099609375001,0.9315421302675984,2.21728515625,1.39697265625,2.52783203125,28.718235294117648,323.19539125535914
0.75300146484375,0.1093310546875,0.5449755859375001,0.9359288834328364,2.2841796875,1.3818359375,2.33056640625,28.577058823529413,323.19539125535914
0.76764990234375,0.1190966796875,0.5527880859375001,0.9534385452851172,2.34716796875,1.40283203125,2.154296875,28.624117647058824,323.06678719983705
0.76911474609375,0.1151904296875,0.5586474609375001,0.9575454628174894,2.38037109375,1.5380859375,2.08154296875,28.624117647058824,323.06678719983705
0.76813818359375,0.1234912109375,0.5732958984375001,0.9664132322349358,2.48486328125,1.62744140625,2.1650390625,28.624117647058824,323.06678719983705
0.76227880859375,0.1205615234375,0.5742724609375001,0.961973452001608,2.638671875,2.06591796875,2.30859375,28.624117647058824,323.06678719983705
0.75544287109375,0.1112841796875,0.5835498046875001,0.9610455112459072,2.794921875,2.462890625,2.38818359375,28.718235294117648,323.06678719983705
0.75544287109375,0.1064013671875,0.5903857421875001,0.9646608248519386,2.97509765625,2.6708984375,2.73095703125,28.718235294117648,323.06678719983705
0.75251318359375,0.0937060546875,0.5928271484375001,0.9625491904791336,3.0888671875,2.74658203125,2.9384765625,28.67117647058824,323.06678719983705
0.75348974609375,0.0981005859375,0.5913623046875001,0.9628498833333348,3.14892578125,2.7109375,3.02099609375,28.718235294117648,323.06678719983705
0.77448583984375,0.0912646484375,0.5996630859375001,0.9837445648180144,3.1923828125,2.56396484375,2.87646484375,28.67117647058824,323.40973482004017
0.77741552734375,0.0873583984375,0.6143115234375001,0.9946783599540246,3.22021484375,2.380859375,2.736328125,28.577058823529413,323.40973482004017
0.78473974609375,0.0854052734375,0.6050341796875001,0.994573721963507,3.2451171875,2.22412109375,2.3291015625,28.624117647058824,323.40973482004017
0.77399755859375,0.0888232421875,0.6167529296875001,0.9936528394464028,3.20703125,1.802734375,2.0751953125,28.67117647058824,323.40973482004017
0.75983740234375,0.1005419921875,0.6216357421875001,0.9868599526571809,3.13525390625,1.54541015625,1.93994140625,28.624117647058824,323.40973482004017
0.75007177734375,0.0966357421875,0.6333544921875001,0.9864502271325336,3.087890625,1.494140625,1.8505859375,28.577058823529413,323.40973482004017
0.72565771484375,0.1093310546875,0.6465380859375001,0.978030620788051,3.0751953125,1.28125,1.87646484375,28.624117647058824,323.40973482004017
0.71979833984375,0.1195849609375,0.6621630859375001,0.9853274406523524,3.0810546875,1.36865234375,1.994140625,28.67117647058824,323.40973482004017
0.72468115234375,0.1239794921875,0.6587451171875001,0.9871569360865116,3.107421875,1.15625,2.08056640625,28.48294117647059,323.40973482004017
0.75788427734375,0.1068896484375,0.6787646484375001,1.023003139172326,3.1357421875,0.98046875,2.0693359375,28.577058823529413,323.3779070685816
0.76911474609375,0.0985888671875,0.6816943359375001,1.0324555317501267,3.2294921875,0.85205078125,2.07568359375,28.67117647058824,323.3779070685816
0.78181005859375,0.0727099609375,0.6904833984375001,1.0456007984195952,3.2861328125,0.70068359375,2.0009765625,28.718235294117648,323.3779070685816
0.80036474609375,0.0590380859375,0.6929248046875001,1.0602895865432644,3.3603515625,0.53515625,2.1494140625,28.67117647058824,323.3779070685816
0.80524755859375,0.0390185546875,0.7100146484375001,1.07427504821946,3.453125,0.41943359375,2.466796875,28.577058823529413,323.3779070685816
0.80524755859375,0.0282763671875,0.7188037109375001,1.0797694005759,3.4404296875,0.31298828125,2.681640625,28.624117647058824,323.3779070685816
0.80182958984375,-0.0049267578125,0.7256396484375001,1.0814378685232169,3.36328125,0.28955078125,2.75537109375,28.718235294117648,323.3779070685816
0.79108740234375,-0.0171337890625,0.7397998046875001,1.083243553357362,3.22900390625,0.42529296875,3.19287109375,28.577058823529413,323.3779070685816
0.77057958984375,-0.0229931640625,0.7744677734375001,1.0927588581066758,3.0791015625,0.74853515625,3.66162109375,28.67117647058824,323.4636453515507
0.77009130859375,-0.0264111328125,0.7876513671875001,1.1018769657908327,2.986328125,1.12890625,4.1044921875,28.67117647058824,323.4636453515507
0.78229833984375,-0.0312939453125,0.6772998046875001,1.0352318720775722,2.9404296875,1.94091796875,4.58154296875,28.718235294117648,323.4636453515507
0.82282568359375,-0.0327587890625,0.8145068359375001,1.1582472230190242,2.94921875,2.68212890625,4.978515625,28.624117647058824,323.4636453515507
0.85993505859375,-0.0405712890625,0.8247607421875001,1.1922099715857544,2.99560546875,3.216796875,5.26318359375,28.624117647058824,323.4636453515507
0.87800146484375,-0.0522900390625,0.8428271484375001,1.2181865302966604,3.078125,3.52978515625,5.8125,28.577058823529413,323.4636453515507
0.88141943359375,-0.0601025390625,0.8394091796875001,1.2186551210503027,3.1435546875,4.01123046875,6.31298828125,28.67117647058824,323.4636453515507
0.86774755859375,-0.0796337890625,0.8462451171875001,1.214684388707433,3.24462890625,4.70263671875,6.8291015625,28.718235294117648,323.4636453515507
0.84968115234375,-0.0991650390625,0.8623583984375001,1.2146825811610868,3.44384765625,5.36474609375,7.6826171875,28.624117647058824,323.505219266162
0.81598974609375,-0.1182080078125,0.8696826171875001,1.1983990376661866,3.69287109375,5.64501953125,8.3037109375,28.67117647058824,323.505219266162
0.78034521484375,-0.1435986328125,0.8843310546875001,1.188108006857905,3.94287109375,6.49365234375,9.23193359375,28.624117647058824,323.505219266162
0.74177099609375,-0.1626416015625,0.8638232421875001,1.1501595954249364,4.185546875,7.2080078125,9.9248046875,28.577058823529413,323.505219266162
0.70807958984375,-0.1860791015625,0.8779833984375001,1.143178457426251,4.36767578125,7.853515625,10.466796875,28.718235294117648,323.505219266162
0.69733740234375,-0.2075634765625,0.8501513671875001,1.1189814103196782,4.494140625,8.3720703125,10.712890625,28.67117647058824,323.505219266162
0.69098974609375,-0.2329541015625,0.8374560546875001,1.1104355389549858,4.4853515625,8.65478515625,10.7421875,28.67117647058824,323.505219266162
0.69343115234375,-0.2485791015625,0.8135302734375001,1.09748341152552,4.359375,8.640625,10.5908203125,28.67117647058824,323.505219266162
0.68854833984375,-0.2363720703125,0.7964404296875001,1.0790217467531464,4.17529296875,8.34765625,10.4501953125,28.624117647058824,323.505219266162
0.69587255859375,-0.2090283203125,0.7861865234375001,1.0705235663595734,4.02783203125,7.60986328125,10.29443359375,28.67117647058824,323.39610246278545
0.69343115234375,-0.1709423828125,0.7808154296875001,1.0581780552064344,4.04443359375,6.74609375,10.10009765625,28.67117647058824,323.39610246278545
0.68854833984375,-0.1475048828125,0.7402880859375001,1.0217059053054949,4.05517578125,5.75,9.8994140625,28.67117647058824,323.39610246278545
0.63972021484375,-0.1099072265625,0.7183154296875001,0.9681418327174652,4.0908203125,5.14794921875,9.89208984375,28.53,323.39610246278545
0.70710302734375,-0.0786572265625,0.7188037109375001,1.011365624008806,4.09521484375,4.5693359375,10.04248046875,28.577058823529413,323.39610246278545
0.51764990234375,-0.0469189453125,0.7280810546875001,0.8945752237909307,4.1962890625,4.01904296875,10.22900390625,28.624117647058824,323.39610246278545
0.4756577148437499,-0.0518017578125,0.7192919921875001,0.863895047924171,4.31201171875,3.54248046875,10.32177734375,28.67117647058824,323.39610246278545
0.4414780273437499,-0.0586376953125,0.7051318359375001,0.833997682245868,4.3173828125,3.12255859375,10.2919921875,28.624117647058824,323.39610246278545
0.4278061523437499,-0.0737744140625,0.7051318359375001,0.828052941668598,4.21484375,2.2568359375,10.23388671875,28.67117647058824,323.39610246278545
0.4463608398437499,-0.1011181640625,0.7134326171875001,0.8476136984006302,4.1201171875,1.28271484375,9.86962890625,28.624117647058824,323.0628963829459
0.4468491210937499,-0.1348095703125,0.7109912109375001,0.8505035327971721,4.11767578125,0.314453125,9.31396484375,28.624117647058824,323.0628963829459
0.4649155273437499,-0.1572705078125,0.7256396484375001,0.87603273887305,3.88623046875,-0.6904296875,8.88671875,28.67117647058824,323.0628963829459
0.4629624023437499,-0.1948681640625,0.7583544921875001,0.9096204280742308,3.763671875,-1.8759765625,8.58349609375,28.67117647058824,323.0628963829459
0.4771225585937499,-0.2246533203125,0.7886279296875001,0.9487091555000772,3.67333984375,-2.9697265625,8.39697265625,28.67117647058824,323.0628963829459
0.4771225585937499,-0.1118603515625,0.8355029296875001,0.9686195433126096,3.6650390625,-3.7646484375,8.30029296875,28.577058823529413,323.0628963829459
0.4654038085937499,-0.1138134765625,0.9058154296875,1.024722306364393,3.67431640625,-4.46630859375,8.3837890625,28.718235294117648,323.0628963829459
0.4536850585937499,-0.2358837890625,0.9663623046875,1.0933102936745054,3.76123046875,-4.71240234375,8.6171875,28.67117647058824,323.0628963829459
0.4517319335937499,-0.2270947265625,1.0474169921875005,1.1630632442752005,3.9462890625,-4.5517578125,8.7470703125,28.577058823529413,323.0628963829459
0.4688217773437499,-0.2178173828125,1.1089404296875005,1.2235142613645895,4.0087890625,-3.52880859375,8.71630859375,28.577058823529413,323.6864462903238
0.4761459960937499,-0.2139111328125,1.1611865234375005,1.2731170898821933,4.26416015625,-1.96923828125,8.61083984375,28.718235294117648,323.6864462903238
0.51227880859375,-0.2021923828125,1.1963427734375005,1.3170221596304896,4.392578125,0.57080078125,8.13623046875,28.67117647058824,323.6864462903238
0.53620458984375,-0.2051220703125,1.1997607421875005,1.330043707700274,4.41943359375,3.19580078125,7.96630859375,28.577058823529413,323.6864462903238
0.53718115234375,-0.2012158203125,1.1904833984375005,1.3214772486625306,4.41162109375,5.744140625,8.09521484375,28.624117647058824,323.6864462903238
0.52497412109375,-0.2012158203125,1.1504443359375005,1.2804717116175834,4.3876953125,7.81494140625,8.55859375,28.624117647058824,323.6864462903238
0.4966538085937499,-0.1909619140625,1.1050341796875005,1.2264713598330446,4.421875,9.587890625,9.21533203125,28.67117647058824,323.6864462903238
0.4473374023437499,-0.1641064453125,1.0317919921875005,1.136501822291108,4.42431640625,10.91357421875,9.91796875,28.67117647058824,323.6864462903238
0.4068100585937499,-0.1660595703125,0.9648974609375,1.060234556496371,4.3759765625,11.78271484375,10.26806640625,28.624117647058824,323.29932256011807
0.3545639648437499,-0.1587353515625,0.9043505859375,0.9842573338750848,4.263671875,11.982421875,10.400390625,28.577058823529413,323.29932256011807
0.3106186523437499,-0.1475048828125,0.8584521484375001,0.9247603629018364,4.01708984375,11.5244140625,10.1904296875,28.67117647058824,323.29932256011807
0.2915756835937499,-0.1504345703125,0.8330615234375001,0.8953426389043904,3.80859375,10.6435546875,9.80810546875,28.718235294117648,323.29932256011807
0.24763037109375,-0.1494580078125,0.7852099609375001,0.8367874159801759,3.53955078125,9.60205078125,9.29931640625,28.577058823529413,323.29932256011807
0.21882177734375,-0.1616650390625,0.7539599609375001,0.8015448694813249,3.17138671875,7.859375,8.85205078125,28.624117647058824,323.29932256011807
0.19050146484375,-0.1714306640625,0.7505419921875001,0.7930905135766697,2.79541015625,5.982421875,8.1728515625,28.577058823529413,323.29932256011807
0.17389990234375,-0.1748486328125,0.7461474609375001,0.7858430211531082,2.619140625,3.541015625,7.765625,28.577058823529413,323.29932256011807
0.16169287109375,-0.1811962890625,0.7661669921875001,0.803734122487158,2.23681640625,0.896484375,7.384765625,28.624117647058824,323.611746685986
0.16315771484375,-0.1929150390625,0.7896044921875001,0.8290427650563028,2.0712890625,-1.18603515625,7.23779296875,28.624117647058824,323.611746685986
0.16804052734375,-0.1992626953125,0.8335498046875001,0.8733547489237906,1.9228515625,-2.9150390625,6.80224609375,28.624117647058824,323.611746685986
0.17341162109375,-0.1943798828125,0.8818896484375001,0.9195566764445684,1.91357421875,-4.2255859375,6.7451171875,28.624117647058824,323.611746685986
0.18268896484375,-0.1968212890625,1.0503466796875005,1.0841319224312425,1.96875,-4.79443359375,6.54296875,28.624117647058824,323.611746685986
0.18806005859375,-0.1982861328125,0.9756396484375,1.0131913440743905,2.0712890625,-4.849609375,6.60986328125,28.577058823529413,323.611746685986
0.19636083984375,-0.2080517578125,1.0020068359375005,1.042046454155713,2.1455078125,-4.5361328125,6.625,28.577058823529413,323.611746685986
0.21540380859375,-0.2031689453125,1.0405810546875005,1.0818897136356538,2.21240234375,-4.064453125,6.9599609375,28.624117647058824,323.611746685986
0.22956396484375,-0.2075634765625,1.0464404296875005,1.091246893989648,2.37451171875,-3.45751953125,7.1767578125,28.624117647058824,323.611746685986
0.24518896484375,-0.2143994140625,1.0557177734375005,1.104818878542237,2.2490234375,-2.54931640625,7.330078125,28.67117647058824,323.5026296179743
0.24225927734375,-0.2153759765625,1.0430224609375005,1.0922326779397722,2.2138671875,-1.63916015625,7.451171875,28.577058823529413,323.5026296179743
0.24177099609375,-0.2119580078125,1.0391162109375005,1.0877232697065533,2.2431640625,-0.72900390625,7.51611328125,28.67117647058824,323.5026296179743
0.2505600585937499,-0.1899853515625,1.0176318359375005,1.0651053141752498,2.0380859375,0.13232421875,7.4755859375,28.67117647058824,323.5026296179743
0.2647202148437499,-0.1665478515625,0.9902880859375,1.0385015513501956,1.9619140625,0.76123046875,7.28466796875,28.67117647058824,323.5026296179743
0.2998764648437499,-0.1294384765625,0.9439013671875,0.9988142992370692,1.79296875,1.04541015625,7.0126953125,28.624117647058824,323.5026296179743
0.21393896484375,-0.0947705078125,0.8994677734375001,0.9294049737773457,1.46240234375,0.4765625,6.57470703125,28.718235294117648,323.5026296179743
0.4141342773437499,-0.0571728515625,0.8970263671875001,0.9896626890291568,1.146484375,-1.26806640625,5.9248046875,28.53,323.5026296179743
0.4732163085937499,-0.0308056640625,0.9004443359375001,1.0176849540891093,1.015625,-3.26318359375,5.15771484375,28.624117647058824,323.5344586783283
0.4688217773437499,-0.0156689453125,0.9165576171875,1.0296199494878615,1.0625,-4.3974609375,4.7177734375,28.67117647058824,323.5344586783283
0.4024155273437499,-0.0288525390625,0.8106005859375001,0.9054523927738664,1.17431640625,-4.75146484375,4.80615234375,28.577058823529413,323.5344586783283
0.3491928710937499,-0.0234814453125,0.9868701171875,1.0470910503362785,1.32763671875,-4.84130859375,5.287109375,28.577058823529413,323.5344586783283
0.3482163085937499,-0.0161572265625,1.0254443359375005,1.0830751311184053,1.4775390625,-4.90625,6.18505859375,28.67117647058824,323.5344586783283
0.4116928710937499,-0.0078564453125,1.0796435546875005,1.1555011679010216,1.6357421875,-5.298828125,6.6884765625,28.624117647058824,323.5344586783283
0.4707749023437499,-4.394531249999993e-05,1.1216357421875005,1.2164274531432042,1.84765625,-5.50244140625,6.84228515625,28.718235294117648,323.5344586783283
0.4634506835937499,0.0087451171875,1.1621630859375005,1.2511938504939637,2.11376953125,-4.90380859375,6.767578125,28.624117647058824,323.5344586783283
0.4014389648437499,0.0175341796875,1.1743701171875005,1.2412114493893127,2.36376953125,-3.71630859375,6.541015625,28.624117647058824,323.48054741739253
0.3535874023437499,0.0146044921875,1.1753466796875005,1.2274677835856578,2.4873046875,-2.14453125,6.19482421875,28.718235294117648,323.48054741739253
0.3174545898437499,0.0043505859375,1.1689990234375005,1.2113443197574718,2.478515625,-0.3212890625,5.64599609375,28.718235294117648,323.48054741739253
0.3213608398437499,0.0028857421875,1.1201708984375005,1.1653600124422192,2.384765625,1.40673828125,5.05224609375,28.67117647058824,323.48054741739253
0.3408920898437499,0.0072802734375,1.0742724609375005,1.1270855067953265,2.36181640625,2.6845703125,4.64453125,28.577058823529413,323.48054741739253
0.3711655273437499,0.0019091796875,1.0283740234375005,1.0933071964166683,2.23876953125,3.29345703125,4.46923828125,28.67117647058824,323.48054741739253
0.3794663085937499,-0.0088330078125,0.9829638671875,1.0537033100360784,1.95263671875,3.19140625,4.57568359375,28.624117647058824,323.48054741739253
0.3794663085937499,-0.0200634765625,0.9634326171875,1.0356638597104262,1.77783203125,2.56494140625,4.935546875,28.577058823529413,323.48054741739253
0.3721420898437499,-0.0327587890625,0.9375537109375,1.0092422078900547,1.64208984375,1.3125,5.4638671875,28.624117647058824,323.48054741739253
0.3423569335937499,-0.0205517578125,0.9370654296875,0.997858839838741,1.61279296875,-0.28515625,5.75390625,28.67117647058824,323.78193538642773
0.3413803710937499,-0.0034619140625,0.9458544921875,1.0055810574033086,1.66845703125,-1.82080078125,6.0537109375,28.67117647058824,323.78193538642773
0.3369858398437499,0.0194873046875,0.9678271484375,1.0250017563652485,1.8056640625,-3.2470703125,6.01953125,28.624117647058824,323.78193538642773
0.3423569335937499,0.0365771484375,0.9800341796875,1.038755578143042,2.02099609375,-4.2890625,5.81298828125,28.67117647058824,323.78193538642773
0.3335678710937499,0.0458544921875,0.9941943359375,1.0496630586478677,2.13671875,-4.54931640625,5.5263671875,28.624117647058824,323.78193538642773
0.3242905273437499,0.0463427734375,0.9976123046875,1.0500201470632229,2.3857421875,-4.2802734375,5.2802734375,28.67117647058824,323.78193538642773
0.3223374023437499,0.0277880859375,0.9951708984375,1.046440966211992,2.73583984375,-3.849609375,5.1728515625,28.67117647058824,323.78193538642773
0.3452866210937499,0.1361865234375,0.9917529296875,1.0589350751656454,2.994140625,-3.0703125,5.18994140625,28.624117647058824,323.78193538642773
0.3662827148437499,-0.0019970703125,0.9844287109375,1.0503651281345974,3.22265625,-2.4853515625,5.33349609375,28.67117647058824,323.78193538642773
0.3784897460937499,-0.0225048828125,0.9673388671875,1.0389925127834712,3.33203125,-1.8486328125,5.5234375,28.67117647058824,323.5344586783283
0.3931381835937499,-0.0459423828125,0.9575732421875,1.036153872786935,3.34716796875,-1.44775390625,5.7705078125,28.624117647058824,323.5344586783283
0.3936264648437499,-0.0669384765625,0.9253466796875,1.0078139863479654,3.26123046875,-1.11083984375,6.0498046875,28.718235294117648,323.5344586783283
0.3863022460937499,-0.0913525390625,0.9023974609375,0.9858478022680218,3.0322265625,-0.548828125,6.33056640625,28.718235294117648,323.5344586783283
0.3916733398437499,-0.1050244140625,0.8828662109375001,0.9715404670463642,2.78369140625,-0.32666015625,6.720703125,28.67117647058824,323.5344586783283
0.4009506835937499,-0.1050244140625,0.8701708984375001,0.9638407392878726,2.6201171875,-0.37060546875,7.1611328125,28.53,323.5344586783283
0.4229233398437499,-0.1064892578125,0.8823779296875001,0.9842738055102592,2.30615234375,-0.68896484375,7.64599609375,28.718235294117648,323.5344586783283
0.4697983398437499,-0.0967236328125,0.8853076171875001,1.0068939955698415,2.23974609375,-1.21435546875,8.064453125,28.624117647058824,323.6312406254062
0.52399755859375,-0.1182080078125,0.9058154296875,1.0531135585411295,2.29248046875,-1.537109375,8.330078125,28.624117647058824,323.6312406254062
0.53815771484375,-0.1431103515625,0.9233935546875,1.0783088405501489,2.46630859375,-1.56201171875,8.73388671875,28.67117647058824,323.6312406254062
0.50983740234375,-0.1782666015625,0.9683154296875,1.10875963555324,2.6982421875,-1.3857421875,9.29296875,28.67117647058824,323.6312406254062
0.4727280273437499,-0.2119580078125,1.0093310546875005,1.1345250825207605,2.89404296875,-1.0947265625,10.0244140625,28.624117647058824,323.6312406254062
0.4322006835937499,-0.2329541015625,1.0298388671875005,1.1408913781354166,3.07421875,-0.79150390625,10.78662109375,28.624117647058824,323.6312406254062
0.4087631835937499,-0.2383251953125,0.9312060546875,1.0445242722259251,3.15966796875,-0.43896484375,11.38330078125,28.577058823529413,323.6312406254062
0.4077866210937499,-0.2583447265625,1.0518115234375005,1.157298322353241,3.14697265625,-0.1220703125,11.76123046875,28.718235294117648,323.6312406254062
0.4204819335937499,-0.2837353515625,1.0459521484375005,1.162465785744276,3.05078125,0.2890625,12.00439453125,28.67117647058824,323.6312406254062
0.4243881835937499,-0.2944775390625,1.0474169921875005,1.1678633083154115,2.90771484375,0.484375,12.033203125,28.718235294117648,323.60915845772365
0.4458725585937499,-0.3003369140625,1.0508349609375005,1.1803638064529258,2.763671875,0.05712890625,12.08154296875,28.624117647058824,323.60915845772365
0.4663803710937499,-0.3018017578125,1.0508349609375005,1.18863327678842,2.66357421875,-0.64404296875,12.14599609375,28.577058823529413,323.60915845772365
0.4990952148437499,-0.2783642578125,1.0547412109375005,1.199608984443405,2.64697265625,-1.4072265625,12.20361328125,28.624117647058824,323.60915845772365
0.50104833984375,-0.2500439453125,1.0313037109375005,1.173524076293741,2.7119140625,-1.30908203125,12.2177734375,28.67117647058824,323.60915845772365
0.4927475585937499,-0.2012158203125,1.0088427734375005,1.1406365347301484,2.791015625,-0.6171875,12.19775390625,28.624117647058824,323.60915845772365
0.4790756835937499,-0.1675244140625,0.9829638671875,1.106253092250597,2.77001953125,0.427734375,12.1201171875,28.53,323.60915845772365
0.4907944335937499,-0.1333447265625,0.9751513671875,1.099809156661413,2.6923828125,1.22021484375,11.6181640625,28.624117647058824,323.60915845772365
0.50056005859375,-0.1133251953125,0.9580615234375,1.086869290597254,2.548828125,1.4970703125,10.62646484375,28.624117647058824,323.60915845772365
0.51130224609375,-0.1006298828125,0.9375537109375,1.0726431471221212,2.443359375,1.2216796875,9.76513671875,28.624117647058824,323.62994705119524
0.50788427734375,-0.0918408203125,0.9268115234375,1.0608302293134353,2.39599609375,0.7373046875,9.1083984375,28.577058823529413,323.62994705119524
0.4732163085937499,-0.0942822265625,0.9224169921875,1.0409975602473391,2.38916015625,-0.07666015625,8.5146484375,28.67117647058824,323.62994705119524
0.4087631835937499,-0.1167431640625,0.8032763671875001,0.9088284924555176,2.3896484375,-0.6552734375,8.40283203125,28.577058823529413,323.62994705119524
0.3472397460937499,-0.1533642578125,0.9424365234375,1.0160131089462343,2.4755859375,-1.00830078125,8.57861328125,28.577058823529413,323.62994705119524
0.2837631835937499,-0.1816845703125,0.9541552734375,1.0119007428011348,2.5009765625,-1.431640625,8.75439453125,28.718235294117648,323.62994705119524
0.24274755859375,-0.2119580078125,0.9771044921875,1.0288759706262278,2.5048828125,-1.4326171875,9.04443359375,28.67117647058824,323.62994705119524
0.23932958984375,-0.2222119140625,0.9873583984375,1.0399679775315982,2.45947265625,-0.93359375,9.0048828125,28.624117647058824,323.62994705119524
0.2588608398437499,-0.1143017578125,0.9731982421875,1.013503154825124,2.38916015625,-0.24560546875,8.765625,28.624117647058824,323.584490133097
0.2803452148437499,-0.2593212890625,0.9849169921875,1.056362841047761,2.26806640625,0.498046875,8.5224609375,28.67117647058824,323.584490133097
0.2945053710937499,-0.2822705078125,0.9966357421875,1.076890363866918,2.16796875,0.80419921875,8.3681640625,28.624117647058824,323.584490133097
0.2754624023437499,-0.2891064453125,0.9868701171875,1.0646007232873222,2.02001953125,0.712890625,8.36669921875,28.577058823529413,323.584490133097
0.2652084960937499,-0.2900830078125,1.0024951171875005,1.07679160370363,1.89453125,0.296875,8.41552734375,28.624117647058824,323.584490133097
0.2539780273437499,-0.2803173828125,1.0147021484375005,1.0829141810521974,1.87060546875,-0.310546875,8.42724609375,28.67117647058824,323.584490133097
0.2549545898437499,-0.2578564453125,1.0230029296875005,1.0853694225565789,1.95703125,-0.7822265625,8.34912109375,28.718235294117648,323.584490133097
0.2578842773437499,-0.2334423828125,1.0220263671875005,1.0796006399686715,2.0888671875,-1.0830078125,8.19970703125,28.577058823529413,323.584490133097
0.24958349609375,-0.2056103515625,1.0332568359375005,1.082675956694157,2.30419921875,-1.1591796875,8.068359375,28.577058823529413,323.584490133097
0.24030615234375,-0.1802197265625,0.9307177734375,0.9779886351532812,2.5244140625,-1.0693359375,7.994140625,28.76529411764706,323.22203481360293
0.23200537109375,-0.1680126953125,1.0586474609375005,1.096717467970642,2.703125,-0.8857421875,7.9677734375,28.624117647058824,323.22203481360293
0.22565771484375,-0.1494580078125,1.0659716796875005,1.0997975824048605,2.87109375,-0.63671875,7.9951171875,28.624117647058824,323.22203481360293
0.22614599609375,-0.1226025390625,1.0825732421875005,1.1127165941218646,3.0244140625,-0.33935546875,8.00439453125,28.67117647058824,323.22203481360293
0.23493505859375,-0.0967236328125,1.0830615234375005,1.1124622269774624,3.11181640625,-0.10009765625,7.84130859375,28.577058823529413,323.22203481360293
0.2613022460937499,-0.0571728515625,1.0708544921875005,1.1037558345066971,3.185546875,0.51806640625,7.59326171875,28.67117647058824,323.22203481360293
0.2798569335937499,-0.0249462890625,1.1768115234375005,1.2098874254713852,3.21728515625,1.36865234375,6.97509765625,28.624117647058824,323.22203481360293
0.2969467773437499,-0.0229931640625,1.0249560546875005,1.0673523261833506,3.20166015625,2.181640625,6.1669921875,28.718235294117648,323.22203481360293
0.2744858398437499,-0.0273876953125,1.0073779296875005,1.0444629506836196,3.24951171875,2.794921875,5.5439453125,28.624117647058824,323.22203481360293
0.24470068359375,-0.0518017578125,0.9814990234375,1.0128682933493771,3.02685546875,3.0859375,5.1962890625,28.577058823529413,323.3701372569261
0.21247412109375,-0.0796337890625,0.9614794921875,0.987891495252462,2.96142578125,3.14794921875,4.96533203125,28.577058823529413,323.3701372569261
0.18610693359375,-0.1152783203125,0.9243701171875,0.9499394693426378,2.92822265625,2.87890625,4.869140625,28.624117647058824,323.3701372569261
0.17927099609375,-0.1680126953125,0.9204638671875,0.952690971209649,2.91845703125,2.16650390625,4.61962890625,28.624117647058824,323.3701372569261
0.17927099609375,-0.2056103515625,0.9224169921875,0.9619079031728218,2.91943359375,1.05419921875,4.2568359375,28.577058823529413,323.3701372569261
0.17145849609375,-0.2446728515625,1.0508349609375005,1.0924820068554784,2.88037109375,-0.55224609375,4.125,28.67117647058824,323.3701372569261
0.13727880859375,-0.2671337890625,0.9487841796875,0.995187094054726,2.8662109375,-2.21142578125,4.244140625,28.67117647058824,323.3701372569261
0.10309912109375,-0.2764111328125,0.9590380859375,1.0033875589181167,2.8349609375,-3.4091796875,4.59033203125,28.624117647058824,323.3701372569261
0.07624365234375,-0.2768994140625,0.9932177734375,1.033909050885529,2.8681640625,-4.22314453125,4.9736328125,28.67117647058824,323.5539532842235
0.07477880859375,-0.2866650390625,1.0303271484375005,1.0720740401869435,2.86083984375,-4.26708984375,5.13525390625,28.577058823529413,323.5539532842235
0.07917333984375,-0.2959423828125,1.0400927734375005,1.0842708559412937,2.8115234375,-3.7900390625,5.43896484375,28.435882352941174,323.5539532842235
0.09333349609375,-0.2847119140625,1.0444873046875005,1.0866120490568718,2.66162109375,-2.77685546875,5.5205078125,28.53,323.5539532842235
0.12067724609375,-0.2583447265625,1.0386279296875005,1.0770575526843342,2.4619140625,-1.603515625,5.4619140625,28.624117647058824,323.5539532842235
0.15339208984375,-0.2373486328125,1.0415576171875005,1.0792153523027272,2.3427734375,-0.07373046875,5.39404296875,28.577058823529413,323.5539532842235
0.17682958984375,-0.2070751953125,1.0205615234375005,1.0562644855712466,2.2890625,1.2470703125,5.41357421875,28.67117647058824,323.5539532842235
0.18952490234375,-0.1851025390625,0.9937060546875,1.0284135168784925,2.2177734375,1.77294921875,5.55029296875,28.67117647058824,323.5539532842235
0.19636083984375,-0.1655712890625,0.9771044921875,1.0102992724133544,2.154296875,2.01806640625,5.6171875,28.624117647058824,323.5539532842235
0.19196630859375,-0.1494580078125,0.9473193359375,0.978060674996934,2.10400390625,1.85791015625,5.5380859375,28.624117647058824,323.44742422182395
0.19929052734375,-0.1299267578125,0.9399951171875,0.969633176526546,2.13818359375,1.06982421875,5.25439453125,28.577058823529413,323.44742422182395
0.20319677734375,-0.1074658203125,0.9595263671875,0.9866755708875968,2.1357421875,0.3251953125,4.80712890625,28.718235294117648,323.44742422182395
0.18610693359375,-0.1016064453125,0.9522021484375,0.9755247777220738,2.42724609375,-0.560546875,4.4833984375,28.718235294117648,323.44742422182395
0.17048193359375,-0.1050244140625,0.9580615234375,0.9787625350014264,2.62060546875,-1.2431640625,3.8388671875,28.624117647058824,323.44742422182395
0.15143896484375,-0.1147900390625,0.9702685546875,0.9887019679136312,2.76806640625,-1.68017578125,3.52783203125,28.67117647058824,323.44742422182395
0.12653662109375,-0.1211376953125,0.9819873046875,0.9974893103541854,2.87841796875,-1.9755859375,3.4775390625,28.67117647058824,323.44742422182395
0.11579443359375,-0.1030712890625,1.0225146484375005,1.034199326894757,2.95068359375,-2.19189453125,3.6357421875,28.718235294117648,323.44742422182395
0.13776708984375,-0.0947705078125,1.0562060546875005,1.0693607670723615,2.98779296875,-2.86474609375,3.6826171875,28.67117647058824,323.47795978434647
0.24177099609375,-0.0996533203125,1.1240771484375005,1.1540942051846772,2.6416015625,-4.22900390625,3.32568359375,28.67117647058824,323.47795978434647
0.4087631835937499,-0.0762158203125,1.1631396484375005,1.2352287372365156,2.48876953125,-6.20458984375,2.5556640625,28.624117647058824,323.47795978434647
0.4629624023437499,-0.0376416015625,1.1489794921875005,1.239316323470135,2.21484375,-6.65185546875,1.9697265625,28.67117647058824,323.47795978434647
0.4287827148437499,0.0253466796875,1.1314013671875005,1.2101925980577233,2.22509765625,-5.11572265625,1.55712890625,28.577058823529413,323.47795978434647
0.3853256835937499,0.0756396484375,1.1245654296875005,1.191152653735436,2.38037109375,-2.59912109375,1.85791015625,28.577058823529413,323.47795978434647
0.3765366210937499,0.0619677734375,1.1191943359375005,1.1824617514169673,2.42626953125,-0.2529296875,2.40234375,28.67117647058824,323.47795978434647
0.3760483398437499,0.0321826171875,1.0996630859375005,1.1626293378897092,2.35888671875,0.65478515625,3.2568359375,28.67117647058824,323.47795978434647
0.3345444335937499,0.0204638671875,1.0737841796875005,1.124878310065577,2.24951171875,1.216796875,4.3681640625,28.67117647058824,323.5526601415345
0.2696030273437499,0.0443896484375,1.0679248046875005,1.102324644425659,1.85693359375,1.26220703125,5.11474609375,28.67117647058824,323.5526601415345
0.22077490234375,0.0790576171875,1.0347216796875005,1.060962119378246,1.67236328125,1.47802734375,5.376953125,28.67117647058824,323.5526601415345
0.18317724609375,0.1288623046875,1.0278857421875005,1.0520021369028736,1.60595703125,1.99853515625,5.29248046875,28.577058823529413,323.5526601415345
0.20173193359375,0.1474169921875,1.0049365234375005,1.035531244702801,1.5576171875,2.55419921875,4.4189453125,28.624117647058824,323.5526601415345
0.23298193359375,0.1571826171875,0.9937060546875,1.032685179350218,1.6328125,2.88818359375,3.236328125,28.577058823529413,323.5526601415345
0.2730209960937499,0.1488818359375,0.9492724609375,0.9989116429767358,1.654296875,2.82421875,1.85498046875,28.577058823529413,323.5526601415345
0.2798569335937499,0.2597216796875,0.9170458984375,0.9933521198554088,1.6455078125,2.60009765625,0.73046875,28.624117647058824,323.5526601415345
0.3008530273437499,0.1273974609375,0.8682177734375001,0.9276555175430108,1.61083984375,1.65478515625,-0.234375,28.624117647058824,323.5526601415345
0.3257553710937499,0.1200732421875,0.8579638671875001,0.9255464022323112,1.6181640625,0.568359375,-0.68505859375,28.624117647058824,323.4987484617436
0.3609116210937499,0.1147021484375,0.8496630859375001,0.9302371421855464,1.69482421875,-0.99951171875,-0.78759765625,28.624117647058824,323.4987484617436
0.3994858398437499,0.1078662109375,0.8638232421875001,0.9578176493680852,1.70166015625,-2.85986328125,-0.54736328125,28.67117647058824,323.4987484617436
0.4278061523437499,0.0937060546875,0.8989794921875001,0.999981527850368,1.5380859375,-5.09814453125,-0.23193359375,28.577058823529413,323.4987484617436
0.4351303710937499,0.1049365234375,0.9727099609375,1.0707543051075568,1.55078125,-6.81396484375,0.330078125,28.577058823529413,323.4987484617436
0.4468491210937499,0.1259326171875,1.0327685546875005,1.1323179980223128,1.63818359375,-7.791015625,0.6396484375,28.624117647058824,323.4987484617436
0.4522202148437499,0.1435107421875,1.1001513671875005,1.19809494054564,1.8193359375,-7.70458984375,0.60546875,28.67117647058824,323.4987484617436
0.4746811523437499,0.1537646484375,1.1406787109375005,1.2450356159907778,1.96728515625,-6.806640625,0.1845703125,28.53,323.4987484617436
0.51374365234375,0.1537646484375,1.1377490234375005,1.2577952725962955,2.01953125,-5.2138671875,-0.546875,28.624117647058824,323.4448369586531
0.53425146484375,0.0136279296875,1.1328662109375005,1.252595784776218,2.052734375,-3.2333984375,-1.21923828125,28.577058823529413,323.4448369586531
0.51179052734375,0.1200732421875,1.0913623046875005,1.2113706317477837,2.1201171875,-0.859375,-1.61279296875,28.67117647058824,323.4448369586531
0.4834702148437499,0.0995654296875,1.1714404296875005,1.271192119129266,2.072265625,0.89111328125,-1.55078125,28.67117647058824,323.4448369586531
0.4575913085937499,0.0888232421875,1.0029833984375005,1.1060086218445484,1.96923828125,2.1484375,-1.1806640625,28.67117647058824,323.4448369586531
0.4507553710937499,0.0937060546875,0.9722216796875,1.0757212574404882,1.85595703125,2.76708984375,-0.6748046875,28.577058823529413,323.4448369586531
0.4405014648437499,0.1059130859375,0.9297412109375,1.034252310424213,1.77734375,3.0732421875,-0.24609375,28.67117647058824,323.4448369586531
0.4326889648437499,0.1283740234375,0.9204638671875,1.0251601635787724,1.7578125,3.10986328125,0.3564453125,28.624117647058824,323.4448369586531
0.4112045898437499,0.1566943359375,0.9141162109375,1.0145199735452195,1.78662109375,2.75830078125,0.67041015625,28.718235294117648,323.3909256322682
0.3853256835937499,0.1659716796875,0.9165576171875,1.0080180288664031,1.8095703125,2.51123046875,0.72412109375,28.718235294117648,323.3909256322682
0.3628647460937499,0.1786669921875,0.9238818359375,1.008538727481625,1.85205078125,2.19677734375,0.56982421875,28.67117647058824,323.3909256322682
0.3360092773437499,0.1894091796875,0.9351123046875,1.01153996173603,1.9169921875,1.8837890625,0.3525390625,28.718235294117648,323.3909256322682
0.3052475585937499,0.1947802734375,0.9468310546875,1.0137082780901396,1.94921875,1.6845703125,-0.03076171875,28.718235294117648,323.3909256322682
0.2818100585937499,0.1845263671875,0.9356005859375,0.9943919477342033,1.9111328125,1.603515625,-0.578125,28.624117647058824,323.3909256322682
0.2739975585937499,0.1620654296875,0.9307177734375,0.9836541259038092,1.75244140625,1.69970703125,-0.833984375,28.718235294117648,323.3909256322682
0.2544663085937499,0.2563037109375,0.8066943359375001,0.8838554441102388,1.58154296875,1.92041015625,-0.95947265625,28.577058823529413,323.3909256322682
0.23932958984375,0.1029833984375,0.9336474609375,0.969320284654951,1.490234375,2.01025390625,-0.8291015625,28.718235294117648,323.3909256322682
0.22321630859375,0.0756396484375,0.9556201171875,0.984254380336415,1.11328125,2.34033203125,-0.60400390625,28.67117647058824,323.3701372569261
0.19880224609375,0.0653857421875,0.9658740234375,0.9882865260058312,0.8212890625,2.716796875,-0.021484375,28.67117647058824,323.3701372569261
0.19001318359375,0.0458544921875,0.9810107421875,1.0002948168817407,0.57568359375,3.23876953125,0.3544921875,28.624117647058824,323.3701372569261
0.19440771484375,0.0258349609375,1.0273974609375005,1.0459480615873016,0.46484375,3.65673828125,0.572265625,28.67117647058824,323.3701372569261
0.22126318359375,-0.0054150390625,1.0820849609375005,1.1044883800879035,0.44921875,3.5478515625,0.599609375,28.67117647058824,323.3701372569261
0.2808334960937499,-0.0366650390625,1.1250537109375005,1.1601541406692186,0.4931640625,2.958984375,0.4482421875,28.67117647058824,323.3701372569261
0.3530991210937499,-0.0654736328125,1.1577685546875005,1.212185551858307,0.560546875,1.6806640625,0.1865234375,28.624117647058824,323.3701372569261
0.3897202148437499,-0.0957470703125,1.1572802734375005,1.2248865166287288,0.54052734375,0.7412109375,-0.00390625,28.67117647058824,323.3701372569261
0.3838608398437499,-0.0947705078125,1.1538623046875005,1.2197248918077133,0.48388671875,0.19189453125,0.16259765625,28.624117647058824,323.9397960280048
0.3594467773437499,-0.0703564453125,1.1567919921875005,1.2133918280295708,0.50439453125,0.2099609375,0.55224609375,28.624117647058824,323.9397960280048
0.3355209960937499,-0.0249462890625,1.1514208984375005,1.1995693983744136,0.8447265625,0.8037109375,0.8857421875,28.624117647058824,323.9397960280048
0.3008530273437499,0.0014208984375,1.1118701171875005,1.1518549042777977,0.95263671875,1.54248046875,1.27490234375,28.718235294117648,323.9397960280048
0.2696030273437499,0.0302294921875,1.0806201171875005,1.1141541420383247,0.908203125,2.52880859375,1.40625,28.718235294117648,323.9397960280048
0.21979833984375,0.0668505859375,1.0244677734375005,1.049911677166344,0.86962890625,3.59521484375,1.4375,28.718235294117648,323.9397960280048
0.19294287109375,0.1034716796875,0.9839404296875,1.0080040224011382,0.59619140625,4.35888671875,1.3037109375,28.577058823529413,323.9397960280048
0.18268896484375,0.1225146484375,0.9443896484375,0.9696684510869424,0.44775390625,4.80126953125,0.95361328125,28.67117647058824,323.9397960280048
0.18513037109375,0.1342333984375,0.9097216796875,0.9380220647995636,0.357421875,4.80517578125,0.43798828125,28.67117647058824,323.648150712122
0.18903662109375,0.1220263671875,0.8916552734375001,0.9196055703683094,0.3154296875,4.27880859375,-0.07861328125,28.577058823529413,323.648150712122
0.19538427734375,0.0985888671875,0.8823779296875001,0.9091125295396896,0.30517578125,3.2607421875,-0.56640625,28.67117647058824,323.648150712122
0.17878271484375,0.0570849609375,0.8794482421875001,0.899250333655107,0.337890625,2.103515625,-0.9521484375,28.67117647058824,323.648150712122
0.16364599609375,0.0282763671875,0.9023974609375,0.9175514930974092,0.40673828125,0.685546875,-1.134765625,28.624117647058824,323.648150712122
0.14216162109375,0.0048388671875,0.9439013671875,0.9545591297170088,0.51953125,-0.73388671875,-1.1298828125,28.67117647058824,323.648150712122
0.13874365234375,-0.0083447265625,1.0054248046875005,1.0149869326291765,0.5078125,-1.70654296875,-1.11181640625,28.577058823529413,323.648150712122
0.12897802734375,-0.0259228515625,1.0391162109375005,1.047411010827996,0.62548828125,-2.009765625,-0.75732421875,28.718235294117648,323.648150712122
0.14460302734375,-0.0322705078125,1.0732958984375005,1.0834738145401646,0.75634765625,-1.51953125,-0.529296875,28.577058823529413,323.648150712122
0.17927099609375,-0.0449658203125,1.0869677734375005,1.1025692520329498,1.02197265625,-0.64453125,-0.30322265625,28.718235294117648,323.44095937994285
0.21686865234375,-0.0644970703125,1.0981982421875005,1.1212632445558917,1.03662109375,0.34375,0.07080078125,28.718235294117648,323.44095937994285
0.19587255859375,-0.0703564453125,1.0913623046875005,1.1110300485134887,0.91650390625,1.4501953125,0.82861328125,28.624117647058824,323.44095937994285
0.14606787109375,-0.0664501953125,1.1074755859375005,1.1190413865762694,0.765625,2.6865234375,1.6962890625,28.624117647058824,323.44095937994285
0.09919287109375,-0.0581494140625,1.1025927734375005,1.1085717857081845,0.73046875,3.6748046875,2.3115234375,28.67117647058824,323.44095937994285
0.08307958984375,-0.0190869140625,1.0908740234375005,1.094199553805317,0.4365234375,4.54345703125,2.52294921875,28.718235294117648,323.44095937994285
0.07380224609375,0.0243701171875,1.0781787109375005,1.080976413646045,0.314453125,5.27587890625,2.3056640625,28.67117647058824,323.44095937994285
0.06891943359375,0.0712451171875,1.0371630859375005,1.0418891600747855,0.29736328125,5.6689453125,1.8662109375,28.624117647058824,323.44095937994285
0.09675146484375,0.1020068359375,0.9985888671875,1.008437388338119,0.2998046875,5.3515625,1.0908203125,28.624117647058824,323.47666663103706
0.10065771484375,0.1059130859375,0.9678271484375,0.9787946396374638,0.27001953125,4.47314453125,0.31640625,28.577058823529413,323.47666663103706
0.09870458984375,0.0863818359375,0.9536669921875,0.9626448720188092,0.28955078125,3.1806640625,-0.21923828125,28.577058823529413,323.47666663103706
0.09870458984375,0.0541552734375,0.9580615234375,0.964653965102874,0.40966796875,1.74853515625,-0.54345703125,28.577058823529413,323.47666663103706
0.08747412109375,0.0229052734375,0.9600146484375,0.9642637080316502,0.494140625,0.1494140625,-0.61865234375,28.67117647058824,323.47666663103706
0.07087255859375,-0.0146923828125,0.9644091796875,0.9671214254372872,0.580078125,-0.8916015625,-0.54345703125,28.577058823529413,323.47666663103706
0.0581772460937499,-0.0449658203125,0.9927294921875,0.995448824208598,0.60986328125,-1.65380859375,-0.33935546875,28.577058823529413,323.47666663103706
0.0484116210937499,-0.0576611328125,1.0249560546875005,1.02771757080178,0.61865234375,-2.0888671875,-0.06884765625,28.624117647058824,323.47666663103706
0.0308334960937499,-0.0659619140625,1.0405810546875005,1.0431254047154168,0.58740234375,-1.91796875,0.14404296875,28.718235294117648,323.1532003656601
0.0313217773437499,-0.0571728515625,1.0400927734375005,1.0421337563137807,0.583984375,-1.326171875,0.55419921875,28.53,323.1532003656601
0.0225327148437499,-0.0493603515625,1.0669482421875005,1.068327065580387,0.55859375,-0.59814453125,0.80615234375,28.577058823529413,323.1532003656601
0.0366928710937499,-0.0312939453125,1.0737841796875005,1.0748665695561856,0.57177734375,0.576171875,0.9384765625,28.624117647058824,323.1532003656601
0.0435288085937499,-0.0083447265625,1.0698779296875005,1.0707955808983365,0.5888671875,1.49609375,0.9443359375,28.718235294117648,323.1532003656601
0.06257177734375,0.0033740234375,1.0547412109375005,1.0566009811674495,0.5888671875,2.24755859375,0.89013671875,28.67117647058824,323.1532003656601
0.07624365234375,0.0092333984375,1.0386279296875005,1.0414635502485736,0.61474609375,2.5302734375,0.77392578125,28.67117647058824,323.1532003656601
0.07526708984375,0.0126513671875,1.0132373046875005,1.01610778341456,0.61865234375,2.48046875,0.7255859375,28.577058823529413,323.1532003656601
0.06696630859375,0.0038623046875,1.0000537109375005,1.002300767556345,0.6396484375,1.90478515625,0.67041015625,28.67117647058824,323.1532003656601
0.0528061523437499,0.0150927734375,1.0024951171875005,1.0039983772497678,0.66748046875,1.201171875,0.63037109375,28.67117647058824,323.3675508567895
0.0391342773437499,0.0160693359375,1.0020068359375005,1.0028995036822834,0.68408203125,0.404296875,0.6240234375,28.624117647058824,323.3675508567895
0.0454819335937499,0.1337451171875,1.0195849609375005,1.0293249512301004,0.70751953125,-0.216796875,0.36083984375,28.67117647058824,323.3675508567895
0.0445053710937499,0.0082568359375,1.0435107421875005,1.0444920164637923,0.72607421875,-0.50537109375,-0.03759765625,28.718235294117648,323.3675508567895
0.0464584960937499,0.0067919921875,1.0459521484375005,1.047005453585697,0.74072265625,-0.7626953125,-0.220703125,28.577058823529413,323.3675508567895
0.0425522460937499,-0.0015087890625,1.0571826171875005,1.058039723344767,0.75439453125,-0.63818359375,-0.24658203125,28.53,323.3675508567895
0.0342514648437499,-0.0083447265625,1.0645068359375005,1.0650904191959545,0.779296875,-0.3095703125,-0.2421875,28.718235294117648,323.3675508567895
0.0259506835937499,-0.0137158203125,1.0581591796875005,1.058566205422576,0.8095703125,0.1103515625,0.11962890625,28.624117647058824,323.3675508567895
0.0235092773437499,-0.0225048828125,1.0518115234375005,1.052314894272406,0.8154296875,0.58544921875,0.3505859375,28.624117647058824,323.3467620954669
0.0191147460937499,-0.0220166015625,1.0474169921875005,1.0478227234535908,0.8359375,0.974609375,0.56494140625,28.67117647058824,323.3467620954669
0.0239975585937499,-0.0200634765625,1.0278857421875005,1.0283615730386773,0.85302734375,1.2998046875,0.7158203125,28.76529411764706,323.3467620954669
0.0156967773437499,-0.0185986328125,1.0176318359375005,1.0179228121399977,0.8525390625,1.4296875,0.7529296875,28.67117647058824,323.3467620954669
0.0298569335937499,-0.0225048828125,1.0181201171875005,1.0188063993006302,0.83837890625,1.3291015625,0.6865234375,28.577058823529413,323.3467620954669
0.0225327148437499,-0.0181103515625,1.0059130859375005,1.0063283979557824,0.82568359375,1.07666015625,0.61279296875,28.67117647058824,323.3467620954669
0.0210678710937499,-0.0185986328125,1.0054248046875005,1.0058174795736128,0.81591796875,0.69921875,0.53955078125,28.577058823529413,323.3467620954669
0.0279038085937499,-0.0288525390625,0.9951708984375,0.9959800242180016,0.8427734375,0.26904296875,0.48583984375,28.577058823529413,323.3467620954669
0.0220444335937499,-0.0259228515625,1.0112841796875005,1.0118565329985378,0.86474609375,-0.14501953125,0.5224609375,28.624117647058824,323.3467620954669
0.0156967773437499,-0.0322705078125,1.0059130859375005,1.0065529846728192,0.9072265625,-0.255859375,0.650390625,28.67117647058824,323.46433308721
0.0176499023437499,-0.0259228515625,1.0151904296875005,1.015674712599938,0.9521484375,-0.51318359375,0.8154296875,28.48294117647059,323.46433308721
0.0274155273437499,-0.0259228515625,1.0200732421875005,1.0207707993470356,1.001953125,-0.58544921875,0.880859375,28.76529411764706,323.46433308721
0.0264389648437499,-0.0146923828125,1.0259326171875005,1.02637839999871,1.0595703125,-0.55029296875,1.12939453125,28.624117647058824,323.46433308721
0.0322983398437499,-0.0137158203125,1.0337451171875005,1.0343405018621796,1.09130859375,-0.4619140625,1.19287109375,28.577058823529413,323.46433308721
0.0235092773437499,-0.0122509765625,1.0259326171875005,1.0262750642771918,1.10107421875,-0.3984375,1.1953125,28.624117647058824,323.46433308721
0.0308334960937499,-0.0098095703125,1.0259326171875005,1.0264427247344456,1.0703125,-0.30419921875,1.1494140625,28.67117647058824,323.46433308721
0.0215561523437499,-0.0146923828125,1.0366748046875005,1.037002981910102,1.0859375,-0.17529296875,1.08837890625,28.67117647058824,323.46433308721
0.0122788085937499,-0.0127392578125,1.0415576171875005,1.0417078898383167,1.0947265625,-0.1005859375,1.029296875,28.67117647058824,323.4422514640372
0.0117905273437499,0.0063037109375,1.0464404296875005,1.0465258363706018,1.1435546875,-0.0078125,1.05810546875,28.67117647058824,323.4422514640372
0.0152084960937499,-0.0005322265624999,1.0479052734375005,1.0480157650134228,1.22705078125,-0.11181640625,1.1181640625,28.624117647058824,323.4422514640372
0.0215561523437499,-0.0054150390625,1.0405810546875005,1.0408183903671504,1.33740234375,0.27490234375,1.265625,28.718235294117648,323.4422514640372
0.0308334960937499,-0.0083447265625,1.0244677734375005,1.0249656373531533,1.4345703125,0.51220703125,1.38623046875,28.67117647058824,323.4422514640372
-0.04192041015625,-0.0156689453125,1.0093310546875005,1.0103227279396698,1.4814453125,0.5791015625,1.39404296875,28.577058823529413,323.4422514640372
0.08405615234375,-0.0156689453125,0.9878466796875,0.9915402236740878,1.45361328125,0.21142578125,1.43798828125,28.76529411764706,323.4422514640372
0.0469467773437499,-0.0117626953125,0.9946826171875,0.9958593624799404,1.40478515625,-0.29248046875,1.51025390625,28.67117647058824,323.4422514640372
-0.00578759765625,0.0058154296875,1.0220263671875005,1.0220592990309123,1.44091796875,-0.8095703125,1.796875,28.67117647058824,323.64427625180394
-0.02287744140625,-0.0029736328125,1.0288623046875005,1.0291209170084314,1.4677734375,-1.0009765625,1.70263671875,28.624117647058824,323.64427625180394
-0.00090478515625,0.0053271484375,1.0303271484375005,1.0303413172119251,1.421875,-1.24609375,1.4462890625,28.577058823529413,323.64427625180394
0.0161850585937499,0.0092333984375,1.0215380859375005,1.0217080173852215,1.40234375,-0.8935546875,1.18896484375,28.577058823529413,323.64427625180394
0.0303452148437499,0.0111865234375,1.0225146484375005,1.0230259902073826,1.37890625,-0.6435546875,1.01416015625,28.67117647058824,323.64427625180394
0.0420639648437499,0.0160693359375,1.0195849609375005,1.0205788030650902,1.37060546875,-0.384765625,0.97216796875,28.577058823529413,323.64427625180394
0.0513413085937499,0.0082568359375,1.0283740234375005,1.0296879320400183,1.38525390625,-0.2548828125,1.06298828125,28.67117647058824,323.64427625180394
0.0503647460937499,-0.0015087890625,1.0176318359375005,1.0188785195532637,1.45849609375,-0.19580078125,1.3203125,28.718235294117648,323.64427625180394
0.0298569335937499,0.0087451171875,1.0151904296875005,1.0156670330808892,1.52978515625,-0.13720703125,1.70849609375,28.67117647058824,323.64427625180394
0.0191147460937499,0.0087451171875,1.0239794921875005,1.024195221143617,1.6064453125,-0.02001953125,1.9892578125,28.624117647058824,323.8280964613959
0.0142319335937499,0.0189990234375,1.0249560546875005,1.025230912948864,1.65966796875,0.16015625,2.162109375,28.624117647058824,323.8280964613959
0.0279038085937499,0.0312060546875,1.0195849609375005,1.0204439881508047,1.6533203125,0.396484375,2.1611328125,28.624117647058824,323.8280964613959
0.0303452148437499,0.0443896484375,1.0322802734375005,1.0336797549920955,1.6591796875,0.51171875,1.974609375,28.67117647058824,323.8280964613959
0.0410874023437499,0.0487841796875,1.0303271484375005,1.0322994253735154,1.6552734375,0.58984375,1.6552734375,28.718235294117648,323.8280964613959
0.0366928710937499,0.0644091796875,1.0322802734375005,1.0349383905070484,1.61279296875,0.60986328125,1.39697265625,28.67117647058824,323.8280964613959
0.0322983398437499,0.0600146484375,1.0283740234375005,1.030629939825528,1.6123046875,0.54248046875,1.291015625,28.67117647058824,323.8280964613959
0.0230209960937499,0.0570849609375,1.0176318359375005,1.0194916441736597,1.6240234375,0.4521484375,1.3603515625,28.67117647058824,323.8280964613959
0.0161850585937499,0.0531787109375,1.0352099609375005,1.0367013044473696,1.64599609375,0.30908203125,1.37646484375,28.67117647058824,323.44095937994285
0.0239975585937499,0.0634326171875,1.0234912109375005,1.0257357547672925,1.6611328125,0.14111328125,1.62451171875,28.67117647058824,323.44095937994285
0.0347397460937499,0.0697802734375,1.0283740234375005,1.031324036663891,1.64990234375,-0.11572265625,1.6767578125,28.53,323.44095937994285
0.0503647460937499,0.0717333984375,1.0313037109375005,1.0350215612700733,1.56103515625,-0.30810546875,1.74560546875,28.624117647058824,323.44095937994285
0.0542709960937499,0.0795458984375,1.0234912109375005,1.0280112595888955,1.48291015625,-0.3876953125,1.482421875,28.67117647058824,323.44095937994285
0.0542709960937499,0.0849169921875,1.0264208984375005,1.0313564356363056,1.404296875,-0.4228515625,1.36279296875,28.67117647058824,323.44095937994285
0.0557358398437499,0.0883349609375,1.0337451171875005,1.0390084294537347,1.3671875,-0.439453125,1.25830078125,28.76529411764706,323.44095937994285
0.0503647460937499,0.0981005859375,1.0396044921875005,1.0454366708638063,1.32861328125,-0.41650390625,1.2001953125,28.718235294117648,323.44095937994285
0.0459702148437499,0.0888232421875,1.0308154296875005,1.0356559656021422,1.34375,-0.36474609375,1.1728515625,28.76529411764706,323.4838305473395
0.0474350585937499,0.0976123046875,1.0396044921875005,1.0452539150783546,1.31298828125,-0.30712890625,1.134765625,28.67117647058824,323.4838305473395
0.0518295898437499,0.0941943359375,1.0381396484375005,1.0436919128574365,1.33251953125,-0.224609375,1.10546875,28.67117647058824,323.4838305473395
0.0601303710937499,0.0956591796875,1.0244677734375005,1.0306796587681095,1.32421875,-0.1865234375,1.05224609375,28.624117647058824,323.4838305473395
0.07526708984375,0.0976123046875,1.0249560546875005,1.0323411310611037,1.3271484375,-0.18115234375,1.11474609375,28.67117647058824,323.4838305473395
-0.03703759765625,0.0981005859375,1.0181201171875005,1.0235057799657588,1.37255859375,-0.19580078125,0.9248046875,28.718235294117648,323.4838305473395
0.08942724609375,0.0951708984375,1.0269091796875005,1.0351797890124053,1.37109375,-0.2099609375,0.87646484375,28.624117647058824,323.4838305473395
0.08747412109375,0.1015185546875,1.0293505859375005,1.038036785271523,1.25,-0.29443359375,0.8505859375,28.67117647058824,323.4838305473395
0.08210302734375,0.0946826171875,1.0186083984375005,1.026288835788392,1.34765625,-0.39990234375,0.83544921875,28.76529411764706,323.4877075393682
0.08112646484375,0.1000537109375,1.0347216796875005,1.042708589580872,1.29833984375,-0.50048828125,0.8447265625,28.67117647058824,323.4877075393682
0.07526708984375,0.1059130859375,1.0313037109375005,1.0394566180364675,1.2763671875,-0.552734375,0.81298828125,28.67117647058824,323.4877075393682
0.07380224609375,0.1064013671875,1.0415576171875005,1.0495762442000844,1.2392578125,-0.52685546875,0.78125,28.624117647058824,323.4877075393682
0.07380224609375,0.1230029296875,1.0405810546875005,1.0504215456733268,1.23291015625,-0.43701171875,0.712890625,28.624117647058824,323.4877075393682
-0.04192041015625,0.1166552734375,1.0405810546875005,1.0479383116305063,1.22900390625,-0.21142578125,0.607421875,28.67117647058824,323.4877075393682
0.09138037109375,0.1225146484375,1.0542529296875005,1.0652743548296246,1.24853515625,-0.0048828125,0.57470703125,28.67117647058824,323.4877075393682
-0.03899072265625,0.1225146484375,1.0371630859375005,1.04510161341681,1.23828125,0.140625,0.5869140625,28.577058823529413,323.4877075393682
-0.04094384765625,0.1200732421875,1.0352099609375005,1.042954287289015,1.24365234375,0.1357421875,0.654296875,28.67117647058824,323.63452654735534
-0.03654931640625,0.1259326171875,1.0249560546875005,1.0333101134906324,1.21044921875,0.0322265625,0.6884765625,28.718235294117648,323.63452654735534
0.08649755859375,0.1244677734375,1.0239794921875005,1.035136732363285,1.18505859375,-0.052734375,0.626953125,28.577058823529413,323.63452654735534
0.08552099609375,0.1210498046875,1.0176318359375005,1.0283683432998492,1.21435546875,-0.12255859375,0.478515625,28.624117647058824,323.63452654735534
-0.04192041015625,0.1186083984375,1.0171435546875005,1.0248933036223336,1.17431640625,-0.275390625,0.3173828125,28.624117647058824,323.63452654735534
0.08259130859375,0.1176318359375,1.0127490234375005,1.0228974325683222,1.13330078125,-0.5400390625,0.18798828125,28.67117647058824,323.63452654735534
0.09186865234375,0.1078662109375,1.0122607421875005,1.0221285530301258,1.0537109375,-0.90087890625,0.14404296875,28.624117647058824,323.63452654735534
0.09235693359375,0.1117724609375,1.0156787109375005,1.0259756966217706,0.97509765625,-1.1552734375,0.138671875,28.67117647058824,323.63452654735534
0.08796240234375,0.1147021484375,1.0103076171875005,1.0205956341418214,0.89306640625,-1.19677734375,0.162109375,28.577058823529413,323.63452654735534
0.10798193359375,0.1122607421875,1.0088427734375005,1.0207969013159282,0.7509765625,-1.134765625,0.10205078125,28.624117647058824,323.5929464907121
0.13727880859375,0.1137255859375,1.0103076171875005,1.0259144513714735,0.81640625,-1.21826171875,-0.01318359375,28.718235294117648,323.5929464907121
0.14850927734375,0.1142138671875,1.0054248046875005,1.022731074523496,0.732421875,-1.43359375,-0.1005859375,28.67117647058824,323.5929464907121
0.12263037109375,0.1034716796875,1.0288623046875005,1.0412983426563294,0.72119140625,-1.58935546875,-0.06689453125,28.67117647058824,323.5929464907121
0.09968115234375,0.1059130859375,1.0327685546875005,1.042959635583607,0.625,-1.67041015625,0.09130859375,28.67117647058824,323.5929464907121
0.08747412109375,0.1034716796875,1.0410693359375005,1.0498492618408723,0.767578125,-1.6630859375,0.23681640625,28.67117647058824,323.5929464907121
0.09577490234375,0.1083544921875,1.0410693359375005,1.0510655974417171,0.7724609375,-1.47021484375,0.2744140625,28.624117647058824,323.5929464907121
0.11677099609375,0.1010302734375,1.0322802734375005,1.0437648895262683,0.7685546875,-1.17822265625,0.20703125,28.624117647058824,323.5929464907121
0.13874365234375,0.1039599609375,1.0352099609375005,1.0496271422595886,0.73095703125,-1.009765625,0.0205078125,28.577058823529413,323.6455672964244
0.15046240234375,0.1005419921875,1.0293505859375005,1.045136476964592,0.65576171875,-0.9765625,-0.1630859375,28.718235294117648,323.6455672964244
0.14899755859375,0.1024951171875,1.0337451171875005,1.0494448479187346,0.59521484375,-0.97607421875,-0.31494140625,28.67117647058824,323.6455672964244
0.14020849609375,0.1015185546875,1.0322802734375005,1.0466933659152091,0.59619140625,-0.970703125,-0.33642578125,28.76529411764706,323.6455672964244
0.13825537109375,0.0981005859375,1.0391162109375005,1.052853632956955,0.61376953125,-0.9443359375,-0.29931640625,28.67117647058824,323.6455672964244
0.13141943359375,0.0946826171875,1.0239794921875005,1.0367110812295526,0.65478515625,-0.91650390625,-0.232421875,28.67117647058824,323.6455672964244
0.13483740234375,0.0917529296875,1.0342333984375005,1.0470140627616378,0.65869140625,-0.99853515625,-0.18310546875,28.67117647058824,323.6455672964244
0.14509130859375,0.0937060546875,1.0269091796875005,1.0413331723521528,0.6591796875,-0.826171875,-0.154296875,28.624117647058824,323.6455672964244
0.16022802734375,0.0927294921875,1.0244677734375005,1.0410600358671975,0.66748046875,-0.767578125,-0.15234375,28.67117647058824,323.2266061473801
0.16364599609375,0.0814990234375,1.0156787109375005,1.032000652475784,0.64501953125,-0.73779296875,-0.14697265625,28.624117647058824,323.2266061473801
0.15583349609375,0.0844287109375,1.0283740234375005,1.0435350582593768,0.74560546875,-0.72998046875,-0.1318359375,28.718235294117648,323.2266061473801
0.14997412109375,0.0844287109375,1.0293505859375005,1.0436393404803623,0.611328125,-0.74853515625,-0.1435546875,28.624117647058824,323.2266061473801
0.14704443359375,0.0771044921875,1.0249560546875005,1.0383169468938491,0.60107421875,-0.75390625,-0.14990234375,28.67117647058824,323.2266061473801
0.14655615234375,0.0912646484375,1.0342333984375005,1.0485450225373285,0.5478515625,-0.7421875,-0.15869140625,28.624117647058824,323.2266061473801
0.15241552734375,0.0849169921875,1.0327685546875005,1.047402633226093,0.52099609375,-0.72265625,-0.2080078125,28.53,323.2266061473801
0.15827490234375,0.0883349609375,1.0293505859375005,1.04518737019045,0.52734375,-0.7431640625,-0.22119140625,28.67117647058824,323.2266061473801
0.15973974609375,0.0863818359375,1.0332568359375005,1.049094036334972,0.53173828125,-0.8046875,-0.232421875,28.718235294117648,323.2266061473801
0.15729833984375,0.0795458984375,1.0239794921875005,1.0390400945567018,0.50048828125,-0.86767578125,-0.20654296875,28.53,323.5474919922025
0.15729833984375,0.0736865234375,1.0298388671875005,1.0443852564183098,0.49462890625,-0.95654296875,-0.16845703125,28.624117647058824,323.5474919922025
0.15827490234375,0.0707568359375,1.0254443359375005,1.0399969041540993,0.509765625,-1.0439453125,-0.115234375,28.67117647058824,323.5474919922025
0.14948583984375,0.0712451171875,1.0347216796875005,1.0478887524218272,0.52001953125,-1.11962890625,-0.0625,28.624117647058824,323.5474919922025
0.14704443359375,0.0673388671875,1.0205615234375005,1.0332968651873835,0.515625,-1.1513671875,0.01025390625,28.624117647058824,323.5474919922025
0.15876318359375,0.0727099609375,1.0225146484375005,1.0373180289350128,0.54052734375,-1.16162109375,0.0283203125,28.624117647058824,323.5474919922025
0.15192724609375,0.0741748046875,1.0234912109375005,1.03736109847168,0.51708984375,-1.18310546875,0.0205078125,28.624117647058824,323.5474919922025
0.16657568359375,0.0746630859375,1.0317919921875005,1.0478152269883685,0.54345703125,-1.1826171875,-0.01416015625,28.76529411764706,323.5474919922025
0.17438818359375,0.0712451171875,1.0273974609375005,1.0445250825332106,0.5078125,-1.19677734375,-0.05419921875,28.67117647058824,323.5474919922025
0.18415380859375,0.0785693359375,1.0293505859375005,1.048641213446772,0.494140625,-1.220703125,-0.12060546875,28.624117647058824,323.6014043843837
0.19684912109375,0.0702685546875,1.0230029296875005,1.0441370793159588,0.5146484375,-1.2216796875,-0.14501953125,28.67117647058824,323.6014043843837
0.21198583984375,0.0727099609375,1.0200732421875005,1.0444013376766192,0.50732421875,-1.26025390625,-0.16943359375,28.67117647058824,323.6014043843837
0.22077490234375,0.0805224609375,1.0171435546875005,1.043937945982733,0.37744140625,-1.30126953125,-0.17431640625,28.624117647058824,323.6014043843837
0.23200537109375,0.0761279296875,1.0230029296875005,1.0517399621788943,0.5107421875,-1.36279296875,-0.15380859375,28.67117647058824,323.6014043843837
0.23054052734375,0.0795458984375,1.0352099609375005,1.0635488460481657,0.5478515625,-1.35546875,-0.1015625,28.718235294117648,323.6014043843837
0.22614599609375,0.0795458984375,1.0308154296875005,1.0583241524170603,0.57421875,-1.30419921875,-0.05126953125,28.67117647058824,323.6014043843837
0.21735693359375,0.0780810546875,1.0479052734375005,1.0730545884439024,0.59521484375,-1.1455078125,0.03466796875,28.67117647058824,323.6014043843837
