AccX,AccY,AccZ,Magnitude,GyroX,GyroY,GyroZ,Temperature,Altitude
-0.61125634765625,-0.8115673828125,-0.0424267578124999,1.0168952596868912,1.8935546875,-2.162109375,1.9619140625,31.494705882352942,332.5008019781004
-0.59123681640625,-0.7871533203125,-0.0326611328124999,0.9850066356882002,1.79150390625,-1.89794921875,1.783203125,31.494705882352942,332.5008019781004
-0.54973291015625,-0.7480908203125,-0.0038525390624999,0.9283646858869185,1.73486328125,-1.78564453125,1.76806640625,31.44764705882353,332.5008019781004
-0.55754541015625,-0.7563916015625,-0.0033642578124999,0.9396789119328016,1.72900390625,-1.70947265625,1.96484375,31.494705882352942,332.5008019781004
-0.60735009765625,-0.7935009765625,-0.0087353515624999,0.9992968764564504,1.84326171875,-1.60009765625,2.29833984375,31.541764705882358,332.5008019781004
-0.61467431640625,-0.8013134765625,0.0029833984375,1.009919156980601,2.138671875,-1.50341796875,2.50830078125,31.635882352941177,332.5008019781004
-0.62395166015625,-0.7954541015625,-0.0199658203124999,1.0111684013482105,2.33056640625,-1.49609375,3.06982421875,31.541764705882358,332.6085979098944
-0.54680322265625,-0.7685986328125,-0.0326611328124999,0.943824333372,2.3017578125,-1.158203125,3.5986328125,31.494705882352942,332.6085979098944
-0.65764306640625,-0.7143994140625,-0.0185009765624999,0.9711864968886382,2.2294921875,-1.0009765625,3.9609375,31.541764705882358,332.6085979098944
-0.59709619140625,-0.6470166015625,-0.0023876953124999,0.880431738170678,2.16552734375,-1.2744140625,3.94873046875,31.494705882352942,332.6085979098944
-0.54582666015625,-0.6030712890625,-0.0111767578124999,0.8134781143608174,2.08740234375,-1.365234375,3.41357421875,31.44764705882353,332.6085979098944
-0.46770166015625,-0.5557080078125,-0.0097119140624999,0.7263955906629715,2.08935546875,-1.404296875,2.52685546875,31.44764705882353,332.6085979098944
-0.46477197265625,-0.5410595703125,-0.0438916015624999,0.7146222203942797,2.0927734375,-1.40380859375,1.96728515625,31.494705882352942,332.6085979098944
-0.53410791015625,-0.5615673828125,-0.0810009765624999,0.7792241932425074,2.00341796875,-1.38623046875,1.7939453125,31.541764705882358,332.6085979098944
-0.57756494140625,-0.6011181640625,-0.1098095703124999,0.8408224844993689,1.8896484375,-1.625,1.83837890625,31.494705882352942,332.6085979098944
-0.61223291015625,-0.6284619140625,-0.1283642578124999,0.8867191756070498,1.736328125,-2.0166015625,1.90478515625,31.541764705882358,332.75737103065205
-0.61125634765625,-0.6431103515625,-0.1220166015624999,0.8956077812825002,1.77001953125,-2.72265625,1.9384765625,31.494705882352942,332.75737103065205
-0.59807275390625,-0.6484814453125,-0.0907666015624999,0.8868245485093432,1.8720703125,-3.44775390625,1.9375,31.494705882352942,332.75737103065205
-0.59807275390625,-0.6587353515625,-0.0727001953124999,0.8926973735604088,2.01171875,-4.00927734375,1.9716796875,31.494705882352942,332.75737103065205
-0.59465478515625,-0.6494580078125,-0.0443798828124999,0.8816913243417214,2.009765625,-4.59375,2.10498046875,31.494705882352942,332.75737103065205
-0.60490869140625,-0.6392041015625,0.0020068359375,0.8800570639359839,2.31005859375,-4.8466796875,2.3291015625,31.541764705882358,332.75737103065205
-0.64397119140625,-0.6318798828125,0.0347216796875,0.9028713511373838,2.36572265625,-4.767578125,2.484375,31.44764705882353,332.75737103065205
-0.64104150390625,-0.6348095703125,0.0684130859375,0.9047639198256192,2.3427734375,-4.5107421875,2.47216796875,31.541764705882358,332.75737103065205
-0.69719384765625,-0.6401806640625,0.0938037109375,0.9511622784966168,2.26318359375,-4.052734375,2.5341796875,31.494705882352942,332.75737103065205
-0.76994775390625,-0.6411572265625,0.1099169921875,1.0079602562056418,2.15673828125,-3.3779296875,2.53173828125,31.494705882352942,332.5237602405977
-0.79582666015625,-0.6260205078125,0.1362841796875,1.021672710240597,2.07275390625,-2.65478515625,2.49267578125,31.541764705882358,332.5237602405977
-0.80559228515625,-0.6084423828125,0.1694873046875,1.023673292391696,2.0224609375,-2.1123046875,2.39697265625,31.494705882352942,332.5237602405977
-0.82121728515625,-0.5864697265625,0.1738818359375,1.0240016906639808,2.009765625,-1.3916015625,2.39453125,31.494705882352942,332.5237602405977
-0.86125634765625,-0.5703564453125,0.1748583984375,1.0476852726805992,2.01318359375,-0.66259765625,2.53564453125,31.44764705882353,332.5237602405977
-0.87736962890625,-0.5703564453125,0.1572802734375,1.0582159632367942,1.91943359375,-0.05224609375,2.6376953125,31.494705882352942,332.5237602405977
-0.88762353515625,-0.5879345703125,0.1382373046875,1.0736163893770845,1.73583984375,0.4755859375,2.5908203125,31.494705882352942,332.5237602405977
-0.87395166015625,-0.5742626953125,0.1274951171875,1.0534819184134567,1.529296875,0.62451171875,2.45849609375,31.494705882352942,332.5254154619776
-0.86711572265625,-0.5493603515625,0.1265185546875,1.034259840188508,1.3486328125,0.55126953125,2.34619140625,31.541764705882358,332.5254154619776
-0.86760400390625,-0.5347119140625,0.1353076171875,1.028086421417722,1.279296875,0.3193359375,2.08935546875,31.494705882352942,332.5254154619776
-0.84465478515625,-0.5200634765625,0.1147998046875,0.9985422980013982,1.2568359375,0.10546875,1.72265625,31.494705882352942,332.5254154619776
-0.82854150390625,-0.5298291015625,0.1035693359375,0.9889016674595564,1.13232421875,-0.5625,1.47265625,31.541764705882358,332.5254154619776
-0.81975244140625,-0.5283642578125,0.1074755859375,0.9811798284197806,0.93359375,-0.97021484375,1.5224609375,31.58882352941177,332.5254154619776
-0.81486962890625,-0.5210400390625,0.1128466796875,0.9737708187949332,0.79443359375,-1.47509765625,1.734375,31.541764705882358,332.5254154619776
-0.79289697265625,-0.5381298828125,0.1211474609375,0.9658913434309494,0.77001953125,-1.61181640625,1.869140625,31.44764705882353,332.5560390095636
-0.77971337890625,-0.5698681640625,0.1328662109375,0.9748620967430492,0.759765625,-1.58544921875,1.986328125,31.541764705882358,332.5560390095636
-0.76604150390625,-0.5723095703125,0.1172412109375,0.9633811974085434,0.9306640625,-1.376953125,2.20751953125,31.494705882352942,332.5560390095636
-0.72404931640625,-0.5561962890625,0.1045458984375,0.9189839875837652,0.75146484375,-1.080078125,2.4365234375,31.494705882352942,332.5560390095636
-0.71867822265625,-0.5063916015625,0.1089404296875,0.8858887396698738,0.92431640625,-1.08154296875,2.88916015625,31.494705882352942,332.5560390095636
-0.73723291015625,-0.4736767578125,0.1167529296875,0.8840323983315485,1.06103515625,-1.4375,3.5419921875,31.494705882352942,332.5560390095636
-0.75236962890625,-0.4595166015625,0.1377490234375,0.8922949955424286,1.21630859375,-2.0068359375,3.70263671875,31.541764705882358,332.5560390095636
-0.76604150390625,-0.4595166015625,0.1675341796875,0.9088689642528576,1.21923828125,-2.85107421875,3.458984375,31.494705882352942,332.5560390095636
-0.74602197265625,-0.4468212890625,0.2241748046875,0.8980269434165523,1.20947265625,-3.44140625,3.09423828125,31.494705882352942,332.45920330678103
-0.75041650390625,-0.4248486328125,0.2661669921875,0.9024777880190016,1.1328125,-3.78466796875,3.10595703125,31.44764705882353,332.45920330678103
-0.80510400390625,-0.3696728515625,0.3027880859375,0.9362323959754436,1.08984375,-3.4853515625,3.53955078125,31.541764705882358,332.45920330678103
-0.87736962890625,-0.3213330078125,0.3208544921875,0.9879169867928264,1.09326171875,-2.482421875,4.3056640625,31.494705882352942,332.45920330678103
-0.92277978515625,-0.2939892578125,0.3613818359375,1.0337064607265052,1.302734375,-1.18798828125,4.5341796875,31.494705882352942,332.45920330678103
-0.93205712890625,-0.2978955078125,0.3291552734375,1.032383368304403,1.51220703125,-0.1015625,4.1728515625,31.541764705882358,332.45920330678103
-0.86662744140625,-0.3047314453125,0.3096240234375,0.969418078978422,1.5048828125,0.810546875,3.3623046875,31.494705882352942,332.45920330678103
-0.78703759765625,-0.2935009765625,0.2769091796875,0.884448809803522,1.693359375,1.31298828125,2.44140625,31.40058823529412,332.45920330678103
-0.74797509765625,-0.3013134765625,0.2310107421875,0.8388221032364828,1.779296875,1.40966796875,1.9482421875,31.44764705882353,332.49369055951536
-0.71135400390625,-0.3350048828125,0.1582568359375,0.8020586116379644,1.91064453125,1.3876953125,1.82666015625,31.494705882352942,332.49369055951536
-0.73332666015625,-0.4180126953125,0.0679248046875,0.8468272450920414,1.94921875,0.9453125,2.185546875,31.541764705882358,332.49369055951536
-0.76115869140625,-0.4980908203125,-0.0033642578124999,0.9096528662151748,1.92333984375,-0.00927734375,2.724609375,31.44764705882353,332.49369055951536
-0.75871728515625,-0.5591259765625,-0.0482861328124999,0.9437188813856732,1.8486328125,-1.64794921875,3.0400390625,31.541764705882358,332.49369055951536
-0.76701806640625,-0.5977001953125,-0.0443798828124999,0.9734124571160132,1.7578125,-3.49169921875,3.5712890625,31.541764705882358,332.49369055951536
-0.80559228515625,-0.5859814453125,-0.0194775390624999,0.9963596532787378,1.6376953125,-4.4990234375,4.1123046875,31.58882352941177,332.49369055951536
-0.85246728515625,-0.5679150390625,0.0186083984375,1.0244873041416556,1.3798828125,-4.76171875,4.65283203125,31.494705882352942,332.49369055951536
-0.86369775390625,-0.5581494140625,0.0894091796875,1.03222990652926,1.2802734375,-4.5146484375,4.99853515625,31.494705882352942,332.49369055951536
-0.85051416015625,-0.5478955078125,0.1372607421875,1.0209820446282452,1.28369140625,-4.27587890625,5.27392578125,31.494705882352942,332.5270746734316
-0.85100244140625,-0.5288525390625,0.1680224609375,1.015933910612174,1.27783203125,-4.001953125,5.5634765625,31.494705882352942,332.5270746734316
-0.84709619140625,-0.4941845703125,0.1611865234375,0.993866913810794,1.22265625,-3.69140625,5.84130859375,31.635882352941177,332.5270746734316
-0.82463525390625,-0.4477978515625,0.1484912109375,0.9500504500155248,1.12646484375,-3.6396484375,5.9912109375,31.494705882352942,332.5270746734316
-0.80070947265625,-0.4346142578125,0.1270068359375,0.9198673540626472,1.33837890625,-3.82568359375,5.8818359375,31.494705882352942,332.5270746734316
-0.77483056640625,-0.4331494140625,0.0977099609375,0.8930442643041413,1.21826171875,-4.22607421875,5.86572265625,31.44764705882353,332.5270746734316
-0.80803369140625,-0.4224072265625,0.0884326171875,0.9160603906306968,0.94580078125,-4.86669921875,6.20654296875,31.494705882352942,332.5270746734316
-0.86174462890625,-0.3823681640625,0.0986865234375,0.9479178488906504,0.70458984375,-5.55029296875,6.75,31.541764705882358,332.5270746734316
-0.89592431640625,-0.3076611328125,0.1357958984375,0.9569620052039292,0.56494140625,-5.9541015625,7.310546875,31.541764705882358,332.3979678390854
-0.89397119140625,-0.2456494140625,0.1606982421875,0.9409314803617276,0.478515625,-6.17138671875,7.43310546875,31.40058823529412,332.3979678390854
-0.89983056640625,-0.1797314453125,0.2246630859375,0.944707331852608,0.3994140625,-6.13232421875,7.40234375,31.541764705882358,332.3979678390854
-0.90617822265625,-0.1177197265625,0.2915576171875,0.9591781635225246,0.3017578125,-6.06787109375,7.35546875,31.541764705882358,332.3979678390854
-0.92717431640625,-0.0854931640625,0.3350146484375,0.9895433839769312,0.4248046875,-5.9140625,7.306640625,31.44764705882353,332.3979678390854
-0.95207666015625,-0.0474072265625,0.3750537109375,1.0243840578770336,0.482421875,-5.8173828125,7.4150390625,31.494705882352942,332.3979678390854
-0.97014306640625,-0.0059033203125,0.3618701171875,1.0354527513122598,0.52734375,-5.849609375,7.6748046875,31.494705882352942,332.3979678390854
-0.95940087890625,0.0238818359375,0.3691943359375,1.0282630238524395,0.30859375,-5.71435546875,7.7529296875,31.494705882352942,332.3979678390854
-0.97014306640625,0.0517138671875,0.3633349609375,1.0372387320164351,0.09033203125,-5.70556640625,7.87646484375,31.44764705882353,332.47457403307266
-0.92961572265625,0.0712451171875,0.3711474609375,1.0034997241121273,-0.34326171875,-5.912109375,7.60009765625,31.494705882352942,332.47457403307266
-0.87688134765625,0.0893115234375,0.4155810546875,0.9744768130137028,-0.71240234375,-5.95361328125,7.1728515625,31.541764705882358,332.47457403307266
-0.86760400390625,0.0946826171875,0.4702685546875,0.9913899430191438,-0.828125,-6.158203125,6.9462890625,31.494705882352942,332.47457403307266
-0.85051416015625,0.1054248046875,0.5283740234375001,1.0068107243733653,-0.8720703125,-6.5498046875,7.013671875,31.541764705882358,332.47457403307266
-0.84172509765625,0.1249560546875,0.5747607421875001,1.0268714945831416,-1.0234375,-6.98828125,7.19580078125,31.40058823529412,332.47457403307266
-0.82121728515625,0.1435107421875,0.6030810546875001,1.0289314462516908,-1.08251953125,-7.166015625,7.25634765625,31.635882352941177,332.47457403307266
-0.77287744140625,0.1996630859375,0.6104052734375001,1.0048877972993135,-1.06396484375,-7.142578125,7.1513671875,31.541764705882358,332.47457403307266
-0.73186181640625,0.2387255859375,0.6323779296875001,0.996249702459432,-0.90185546875,-7.15576171875,6.869140625,31.541764705882358,332.47457403307266
-0.79045556640625,0.2685107421875,0.6348193359375001,1.0487676627417706,-0.63427734375,-7.45703125,6.3076171875,31.58882352941177,332.4526864792308
-0.61320947265625,0.3246630859375,0.6328662109375001,0.9391227915838296,-0.4423828125,-7.74462890625,5.97900390625,31.494705882352942,332.4526864792308
-0.60246728515625,0.3534716796875,0.6401904296875001,0.9474982027888552,-0.1962890625,-7.75146484375,5.72314453125,31.494705882352942,332.4526864792308
-0.58293603515625,0.3910693359375,0.6113818359375001,0.9308799041275916,-0.0234375,-7.7919921875,5.23291015625,31.541764705882358,332.4526864792308
-0.56486962890625,0.4325732421875,0.6489794921875001,0.9630013960515508,0.14453125,-8.0546875,4.72509765625,31.44764705882353,332.4526864792308
-0.56096337890625,0.4501513671875,0.6875537109375001,0.9950106890273188,0.40869140625,-8.45947265625,4.009765625,31.494705882352942,332.4526864792308
-0.54875634765625,0.4359912109375,0.7051318359375001,0.994199563045752,0.6328125,-8.6591796875,3.4931640625,31.494705882352942,332.4526864792308
-0.53313134765625,0.3993701171875,0.7427294921875001,0.9976836286725508,0.625,-8.5556640625,2.78955078125,31.44764705882353,332.4526864792308
-0.49846337890625,0.3446826171875,0.7471240234375001,0.96201151401597,0.83984375,-8.28759765625,2.28564453125,31.44764705882353,332.4526864792308
-0.47551416015625,0.2856005859375,0.7705615234375001,0.9494453499803284,0.80615234375,-8.23193359375,2.07666015625,31.494705882352942,332.6042347110092
-0.45305322265625,0.2411669921875,0.7578662109375001,0.9153031925874304,0.708984375,-8.1650390625,1.96044921875,31.44764705882353,332.6042347110092
-0.41789697265625,0.2206591796875,0.7534716796875001,0.889408750477935,0.53076171875,-8.3330078125,1.81298828125,31.541764705882358,332.6042347110092
-0.39543603515625,0.2108935546875,0.7417529296875001,0.8666274620670719,0.3408203125,-8.68798828125,1.70556640625,31.494705882352942,332.6042347110092
-0.40276025390625,0.2191943359375,0.7441943359375001,0.8741208089704564,0.19091796875,-9.02490234375,1.57421875,31.58882352941177,332.6042347110092
-0.41643212890625,0.2123583984375,0.7568896484375001,0.8896031403295371,0.08056640625,-9.2626953125,1.39990234375,31.494705882352942,332.6042347110092
-0.40324853515625,0.2050341796875,0.7808154296875001,0.902397435271102,-0.0185546875,-9.5458984375,1.130859375,31.494705882352942,332.6042347110092
-0.41399072265625,0.1938037109375,0.7949755859375001,0.9170247428806172,-0.05810546875,-9.4404296875,1.04296875,31.44764705882353,332.6469011021964
-0.42326806640625,0.1830615234375,0.8091357421875001,0.9313259508291716,-0.22802734375,-9.0693359375,0.9873046875,31.44764705882353,332.6469011021964
-0.38420556640625,0.1693896484375,0.8389208984375001,0.9381338092673718,-0.251953125,-8.6064453125,0.96533203125,31.40058823529412,332.6469011021964
-0.36565087890625,0.1654833984375,0.8467333984375001,0.9370393633315816,-0.21923828125,-7.8955078125,1.03466796875,31.541764705882358,332.6469011021964
-0.36955712890625,0.1742724609375,0.8438037109375001,0.9375223009393108,-0.09326171875,-7.345703125,1.10400390625,31.40058823529412,332.6469011021964
-0.34856103515625,0.1693896484375,0.8521044921875001,0.936092791251537,-0.12109375,-7.17578125,0.93017578125,31.58882352941177,332.6469011021964
-0.34758447265625,0.1518115234375,0.8750537109375001,0.953719403863436,0.02490234375,-7.4072265625,0.60107421875,31.541764705882358,332.6469011021964
-0.35100244140625,0.1308154296875,0.8628466796875001,0.9406485970675854,0.021484375,-7.7333984375,0.49951171875,31.494705882352942,332.39685917885413
-0.33684228515625,0.1298388671875,0.8921435546875001,0.962414140935318,-0.18798828125,-7.70068359375,0.41943359375,31.494705882352942,332.39685917885413
-0.32658837890625,0.1566943359375,0.8022998046875001,0.8802829435772951,-0.33349609375,-7.28955078125,0.50341796875,31.44764705882353,332.39685917885413
-0.29777978515625,0.1864794921875,0.9292529296875,0.9934578042307646,-0.3359375,-6.84912109375,0.81103515625,31.494705882352942,332.39685917885413
-0.25871728515625,0.1928271484375,0.9409716796875,0.994758586184142,-0.3564453125,-6.4052734375,0.88671875,31.494705882352942,332.39685917885413
-0.22893212890625,0.1649951171875,0.9043505859375,0.9473559471638758,-0.1767578125,-6.5302734375,0.763671875,31.494705882352942,332.39685917885413
-0.19670556640625,0.1147021484375,0.8887255859375001,0.9174327385761502,-0.30029296875,-7.10009765625,0.509765625,31.494705882352942,332.39685917885413
-0.22844384765625,0.1064013671875,0.8975146484375001,0.9322233566218188,-0.4130859375,-7.44482421875,0.56884765625,31.494705882352942,332.39685917885413
-0.22649072265625,0.1493701171875,0.9282763671875,0.967112451184856,-0.45751953125,-7.5966796875,0.85693359375,31.541764705882358,332.50574130477025
-0.20061181640625,0.1806201171875,0.9741748046875,1.010883414495742,-0.38232421875,-7.48291015625,0.98046875,31.541764705882358,332.50574130477025
-0.19865869140625,0.1928271484375,0.9697802734375,1.0085243495296947,-0.14794921875,-7.3623046875,1.078125,31.494705882352942,332.50574130477025
-0.15813134765625,0.1957568359375,0.9697802734375,1.0018982187210212,-0.05712890625,-6.91845703125,1.1220703125,31.541764705882358,332.50574130477025
-0.10149072265625,0.1898974609375,0.9600146484375,0.983864593158212,-0.0380859375,-6.58349609375,0.75830078125,31.40058823529412,332.50574130477025
-0.09904931640625,0.1830615234375,0.9634326171875,0.9856595235194352,-0.12548828125,-6.455078125,0.55078125,31.494705882352942,332.50574130477025
-0.10246728515625,0.2021044921875,0.9727099609375,0.99875444349284,-0.11181640625,-6.57666015625,0.3994140625,31.40058823529412,332.50574130477025
-0.11858056640625,0.2001513671875,0.9697802734375,0.9972941889255972,-0.2900390625,-6.60595703125,0.1923828125,31.44764705882353,332.50574130477025
-0.14641259765625,0.2113818359375,0.9731982421875,1.0065951261125792,-0.470703125,-6.57080078125,-0.0205078125,31.494705882352942,332.50574130477025
-0.19914697265625,0.2294482421875,0.9800341796875,1.0260472727495715,-0.51220703125,-6.408203125,-0.1826171875,31.58882352941177,332.38757908678934
-0.21574853515625,0.2509326171875,1.0195849609375005,1.0719459414357424,-0.66650390625,-6.16015625,-0.44091796875,31.541764705882358,332.38757908678934
-0.16887353515625,0.2514208984375,1.0103076171875005,1.0547285055379765,-0.97802734375,-5.9130859375,-0.93310546875,31.44764705882353,332.38757908678934
-0.09807275390625,0.2294482421875,0.9946826171875,1.0255039102005727,-1.412109375,-5.80908203125,-1.40576171875,31.541764705882358,332.38757908678934
-0.03117822265625,0.2045458984375,0.9668505859375,0.9887422119355954,-1.93212890625,-5.9951171875,-1.7353515625,31.44764705882353,332.38757908678934
0.0205795898437499,0.1947802734375,0.9502490234375,0.97022475797232,-2.3173828125,-6.13623046875,-2.0478515625,31.44764705882353,332.38757908678934
0.0508530273437499,0.1713427734375,0.9468310546875,0.9635525011746492,-2.53466796875,-6.51220703125,-2.39599609375,31.44764705882353,332.38757908678934
0.0528061523437499,0.1703662109375,0.9287646484375,0.9457361723767286,-2.67724609375,-6.9072265625,-2.52734375,31.541764705882358,332.38757908678934
0.0366928710937499,0.1801318359375,0.9424365234375,0.9601981284174004,-2.46240234375,-7.13818359375,-2.4814453125,31.44764705882353,332.6469011021964
0.0454819335937499,0.1654833984375,0.9761279296875,0.9910999427695756,-2.1875,-7.27685546875,-2.3544921875,31.541764705882358,332.6469011021964
0.0518295898437499,0.1430224609375,1.0147021484375005,1.026041997561342,-1.8037109375,-7.369140625,-2.13671875,31.494705882352942,332.6469011021964
0.08942724609375,0.1112841796875,1.0415576171875005,1.0512961861026298,-1.55712890625,-7.4482421875,-1.9423828125,31.44764705882353,332.6469011021964
0.14606787109375,0.0692919921875,1.1050341796875005,1.116797985951264,-1.35791015625,-7.603515625,-1.62744140625,31.44764705882353,332.6469011021964
0.15583349609375,0.0404833984375,1.1714404296875005,1.1824532398197765,-1.2333984375,-7.85302734375,-1.1259765625,31.541764705882358,332.6469011021964
0.17536474609375,-0.0068798828125,1.2119677734375005,1.2246085132854054,-1.2685546875,-8.27197265625,-0.55419921875,31.494705882352942,332.6469011021964
0.22419287109375,-0.0190869140625,1.2085498046875005,1.2293166329908187,-1.35546875,-8.703125,0.091796875,31.541764705882358,332.6469011021964
0.3286850585937499,-0.0513134765625,1.1367724609375005,1.184448634836314,-1.85888671875,-9.0263671875,0.5458984375,31.44764705882353,332.2250892556987
0.4185288085937499,-0.0459423828125,1.0513232421875005,1.132500607383957,-2.15625,-9.1064453125,0.75927734375,31.541764705882358,332.2250892556987
0.52643896484375,-0.0210400390625,1.0654833984375005,1.1886275864607196,-2.09228515625,-9.052734375,1.00048828125,31.58882352941177,332.2250892556987
0.66218115234375,-0.0220166015625,1.0869677734375005,1.2729758637756394,-1.931640625,-9.2626953125,1.24853515625,31.494705882352942,332.2250892556987
0.77009130859375,-0.0405712890625,1.1270068359375005,1.3655881741277942,-1.42626953125,-9.41748046875,1.22705078125,31.541764705882358,332.2250892556987
0.89850927734375,-0.0810986328125,1.1704638671875005,1.477796188284556,-1.1533203125,-10.07373046875,0.818359375,31.44764705882353,332.2250892556987
0.93220068359375,-0.0869580078125,1.1958544921875005,1.5187586299673816,-0.970703125,-10.5712890625,0.7109375,31.494705882352942,332.2250892556987
0.98542333984375,-0.1128369140625,1.3018115234375005,1.6366137511455243,-1.08642578125,-11.0458984375,0.6025390625,31.44764705882353,332.2250892556987
1.05231787109375,-0.1226025390625,1.2935107421875005,1.671997106624982,-1.185546875,-11.35498046875,0.43896484375,31.541764705882358,332.2250892556987
1.07282568359375,-0.1162548828125,1.1592333984375005,1.5837588885967149,-1.1826171875,-11.50732421875,0.3134765625,31.44764705882353,332.57195809551126
1.10163427734375,-0.1260205078125,1.1602099609375005,1.604857128490447,-1.13427734375,-11.50439453125,0.2705078125,31.44764705882353,332.57195809551126
1.19147802734375,-0.1636181640625,1.1914599609375005,1.6929169004328968,-0.85498046875,-11.57275390625,0.10791015625,31.541764705882358,332.57195809551126
1.23688818359375,-0.1567822265625,1.1797412109375005,1.7164679927292616,-0.54443359375,-11.34814453125,0.29638671875,31.494705882352942,332.57195809551126
1.26472021484375,-0.1602001953125,1.1480029296875005,1.715544243376914,-0.361328125,-10.75,0.54736328125,31.541764705882358,332.57195809551126
1.23737646484375,-0.1567822265625,1.1265185546875005,1.6806918921593943,-0.07958984375,-9.17626953125,0.80126953125,31.541764705882358,332.57195809551126
1.18415380859375,-0.1699658203125,1.1152880859375005,1.635535428266755,0.2236328125,-7.50634765625,1.01123046875,31.353529411764708,332.57195809551126
1.12995458984375,-0.1621533203125,1.0791552734375005,1.570881019869198,0.34521484375,-6.18359375,1.03271484375,31.40058823529412,332.57195809551126
1.06989599609375,-0.1553173828125,1.0303271484375005,1.4934439944867413,0.42919921875,-5.03271484375,0.927734375,31.44764705882353,332.57195809551126
1.00348974609375,-0.1411572265625,0.9580615234375,1.3945604740625266,0.40576171875,-4.61572265625,0.85595703125,31.40058823529412,332.33341563004154
0.96052099609375,-0.1216259765625,0.9092333984375,1.328193824314026,0.28662109375,-4.59375,0.79931640625,31.494705882352942,332.33341563004154
0.90583349609375,-0.1167431640625,0.8667529296875001,1.259136184105045,0.17333984375,-4.7724609375,0.8740234375,31.541764705882358,332.33341563004154
0.84675146484375,-0.1172314453125,0.8369677734375001,1.1963470686878537,0.0263671875,-5.0927734375,0.734375,31.541764705882358,332.33341563004154
0.80768896484375,0.0121630859375,0.7847216796875001,1.1261871599167976,-0.1171875,-4.99560546875,0.73486328125,31.541764705882358,332.33341563004154
0.80231787109375,0.0063037109375,0.7524951171875001,1.1000011838352812,-0.09375,-4.8662109375,0.3818359375,31.58882352941177,332.33341563004154
0.81208349609375,-0.1421337890625,0.7271044921875001,1.0992554576532032,-0.0244140625,-4.46923828125,0.095703125,31.40058823529412,332.33341563004154
0.82477880859375,-0.1572705078125,0.6948779296875001,1.0898850549024486,-0.0478515625,-4.27783203125,-0.11279296875,31.541764705882358,332.5823471896238
0.82380224609375,-0.1660595703125,0.6787646484375001,1.0802533820960536,-0.03955078125,-4.05810546875,-0.291015625,31.494705882352942,332.5823471896238
0.83893896484375,-0.1733837890625,0.6563037109375001,1.0791733345635937,-0.0673828125,-3.876953125,-0.36474609375,31.494705882352942,332.5823471896238
0.87018896484375,-0.1758251953125,0.6387255859375001,1.0936698349930472,-0.07470703125,-3.61279296875,-0.47412109375,31.541764705882358,332.5823471896238
0.88044287109375,-0.1694775390625,0.6221240234375001,1.091302243214294,-0.18994140625,-3.4296875,-0.546875,31.494705882352942,332.5823471896238
0.90583349609375,-0.1616650390625,0.6069873046875001,1.1023173297886146,-0.27880859375,-3.32470703125,-0.6767578125,31.541764705882358,332.5823471896238
0.92780615234375,-0.1543408203125,0.6025927734375001,1.117033301088534,-0.34619140625,-3.27490234375,-0.79150390625,31.58882352941177,332.5823471896238
0.92975927734375,-0.1475048828125,0.6035693359375001,1.1182602324791562,-0.34716796875,-3.35693359375,-0.86328125,31.494705882352942,332.5823471896238
0.93073583984375,-0.1426220703125,0.5928271484375001,1.1126788783986203,-0.314453125,-3.4658203125,-0.94873046875,31.494705882352942,332.5823471896238
0.94733740234375,-0.1567822265625,0.5947802734375001,1.1295098025761825,-0.29345703125,-3.56591796875,-1.10546875,31.494705882352942,332.73389697811905
0.94489599609375,-0.1655712890625,0.5986865234375001,1.1307819633074707,-0.25146484375,-3.451171875,-1.30712890625,31.58882352941177,332.73389697811905
0.94782568359375,-0.1777783203125,0.5996630859375001,1.1355943264604569,-0.1650390625,-3.25390625,-1.52490234375,31.494705882352942,332.73389697811905
0.94636083984375,-0.1719189453125,0.5996630859375001,1.1334684731315714,-0.09619140625,-3.01953125,-1.59326171875,31.494705882352942,332.73389697811905
0.95856787109375,-0.1460400390625,0.6128466796875001,1.1470663055406056,0.11279296875,-2.794921875,-1.60888671875,31.40058823529412,332.73389697811905
0.96442724609375,-0.1328564453125,0.5898974609375001,1.1383100467313627,0.12646484375,-2.52880859375,-1.55615234375,31.494705882352942,332.73389697811905
0.96735693359375,-0.2324658203125,0.5625537109375001,1.1429289007961163,0.369140625,-2.31982421875,-1.3759765625,31.541764705882358,332.73389697811905
0.99811865234375,-0.1001416015625,0.5386279296875001,1.1385908971880323,0.56884765625,-2.169921875,-1.50146484375,31.541764705882358,332.73389697811905
1.02204443359375,-0.0796337890625,0.5391162109375001,1.158258457122601,0.73828125,-2.01171875,-1.57373046875,31.44764705882353,332.79845190511725
1.02936865234375,-0.0625439453125,0.5513232421875001,1.1693882524206312,0.9990234375,-2.0068359375,-1.62744140625,31.58882352941177,332.79845190511725
1.01520849609375,-0.0483837890625,0.5503466796875001,1.15579874953559,1.1982421875,-2.1884765625,-1.5234375,31.541764705882358,332.79845190511725
0.99665380859375,-0.0200634765625,0.5576708984375001,1.142242613563463,1.34521484375,-2.36962890625,-1.40869140625,31.494705882352942,332.79845190511725
0.99030615234375,-0.1079541015625,0.5635302734375001,1.1445203067200656,1.494140625,-2.4521484375,-1.3642578125,31.494705882352942,332.79845190511725
0.83845068359375,0.0141162109375,0.5557177734375001,1.0059925744976408,1.57421875,-2.40283203125,-1.36328125,31.494705882352942,332.79845190511725
0.94587255859375,-0.1103955078125,0.5713427734375001,1.1105379912479902,1.6220703125,-2.42041015625,-1.36279296875,31.541764705882358,332.79845190511725
0.92731787109375,-0.0063916015625,0.5713427734375001,1.089216163752463,1.6796875,-2.3671875,-1.33984375,31.494705882352942,332.79845190511725
0.90143896484375,-0.0259228515625,0.5855029296875001,1.0752106222709803,1.64306640625,-2.384765625,-1.25341796875,31.541764705882358,332.7557845229343
0.92536474609375,-0.0557080078125,0.5898974609375001,1.098809496622639,1.51416015625,-2.5,-1.2646484375,31.494705882352942,332.7557845229343
0.93757177734375,-0.0796337890625,0.6001513671875001,1.116048404671139,1.30615234375,-2.25244140625,-1.33642578125,31.494705882352942,332.7557845229343
1.07819677734375,-0.0874462890625,0.5840380859375001,1.229331375167326,1.01025390625,-1.88720703125,-1.40576171875,31.58882352941177,332.7557845229343
0.96393896484375,-0.0942822265625,0.5689013671875001,1.123261426283939,0.77197265625,-1.2861328125,-1.4404296875,31.541764705882358,332.7557845229343
0.97907568359375,-0.0884228515625,0.5366748046875001,1.120012339605854,0.611328125,-0.7373046875,-1.42236328125,31.541764705882358,332.7557845229343
0.98786474609375,-0.0845166015625,0.5151904296875001,1.1173365613619444,0.6142578125,0.083984375,-1.306640625,31.494705882352942,332.7557845229343
0.99372412109375,-0.0684033203125,0.5161669921875001,1.1218712078029327,0.47314453125,0.67041015625,-1.1552734375,31.541764705882358,332.7557845229343
1.00153662109375,-0.0664501953125,0.5142138671875001,1.127788603000083,0.37939453125,1.05322265625,-1.00146484375,31.44764705882353,332.7557845229343
0.98347021484375,-0.0395947265625,0.5117724609375001,1.1093657907247707,0.5556640625,1.31494140625,-0.94189453125,31.541764705882358,333.0370012957317
0.97028662109375,-0.0244580078125,0.5205615234375001,1.1013803252751764,0.60986328125,1.44775390625,-0.96630859375,31.58882352941177,333.0370012957317
0.96540380859375,-0.0068798828125,0.5425341796875001,1.1074272809372272,0.685546875,1.53759765625,-1.11767578125,31.494705882352942,333.0370012957317
0.95661474609375,-0.0010205078125,0.5425341796875001,1.0997527676752596,0.794921875,1.6591796875,-1.32861328125,31.58882352941177,333.0370012957317
1.07575537109375,0.0092333984375,0.6748583984375001,1.2699483186434737,0.91162109375,1.7158203125,-1.54345703125,31.494705882352942,333.0370012957317
0.95075537109375,0.0248583984375,0.5659716796875001,1.1067419111268817,1.0224609375,1.7392578125,-1.74853515625,31.40058823529412,333.0370012957317
0.95954443359375,0.0263232421875,0.5718310546875001,1.1173223296010113,1.15576171875,1.796875,-1.8828125,31.58882352941177,333.0370012957317
0.95417333984375,0.0302294921875,0.5781787109375001,1.1160874546592845,1.3505859375,1.765625,-1.8154296875,31.494705882352942,333.0370012957317
1.07917333984375,0.0336474609375,0.5947802734375001,1.2326843970487509,1.59765625,1.7744140625,-1.70166015625,31.353529411764708,333.0370012957317
0.97663427734375,0.0297412109375,0.6030810546875001,1.1482185374891685,1.8720703125,1.73291015625,-1.568359375,31.541764705882358,332.8854483468053
0.96296240234375,0.0399951171875,0.6260302734375001,1.149265026435034,2.20263671875,1.57861328125,-1.302734375,31.541764705882358,332.8854483468053
0.98151708984375,0.0360888671875,0.6445849609375001,1.174805505544224,2.5517578125,1.51171875,-1.06591796875,31.494705882352942,332.8854483468053
0.99714208984375,0.0243701171875,0.6709521484375001,1.2021077470187898,2.79052734375,1.57421875,-0.83056640625,31.494705882352942,332.8854483468053
0.98395849609375,0.0028857421875,0.7075732421875001,1.2119581439153653,2.9677734375,2.04296875,-0.5546875,31.44764705882353,332.8854483468053
1.00544287109375,-0.0361767578125,0.7105029296875001,1.2316811835591173,3.0322265625,2.87060546875,-0.25830078125,31.541764705882358,332.8854483468053
0.98786474609375,-0.0742626953125,0.7319873046875001,1.2317455576187872,2.95263671875,3.83203125,0.1923828125,31.541764705882358,332.8854483468053
0.96638037109375,-0.0859814453125,0.7388232421875001,1.219484978902885,2.86474609375,5.091796875,0.63037109375,31.58882352941177,332.8963921239451
0.90827490234375,-0.1011181640625,0.7510302734375001,1.1828924942489598,2.87158203125,6.0185546875,1.4208984375,31.541764705882358,332.8963921239451
0.86139990234375,-0.1133251953125,0.7661669921875001,1.1583886444402325,2.7177734375,6.7724609375,2.10009765625,31.494705882352942,332.8963921239451
0.95368505859375,-0.1216259765625,0.7568896484375001,1.2235971596369406,2.75927734375,7.35107421875,2.390625,31.40058823529412,332.8963921239451
0.79841162109375,-0.1196728515625,0.7485888671875001,1.1009850136017814,2.76904296875,7.3955078125,2.8037109375,31.44764705882353,332.8963921239451
0.77448583984375,-0.1011181640625,0.7300341796875001,1.0691132319515322,2.7333984375,7.22119140625,3.1552734375,31.635882352941177,332.8963921239451
0.76081396484375,-0.0903759765625,0.7100146484375001,1.0445700106918248,2.712890625,6.99072265625,3.3876953125,31.40058823529412,332.8963921239451
0.77497412109375,-0.0693798828125,0.7002490234375001,1.0467794186595756,2.7900390625,6.31591796875,3.77001953125,31.541764705882358,332.8963921239451
0.77888037109375,-0.0464306640625,0.6787646484375001,1.0341817475709507,2.9833984375,5.7099609375,4.2900390625,31.541764705882358,332.8963921239451
0.78278662109375,-0.0342236328125,0.6421435546875001,1.0130520697540444,3.21923828125,4.9931640625,4.69384765625,31.40058823529412,332.63540371790486
0.79157568359375,-0.0132275390625,0.6182177734375001,1.0044701319803306,3.474609375,4.341796875,5.08203125,31.541764705882358,332.63540371790486
0.77595068359375,-0.0176220703125,0.6079638671875001,0.9859158506370038,3.63720703125,4.06298828125,5.69677734375,31.541764705882358,332.63540371790486
0.73151708984375,-0.0156689453125,0.5918505859375001,0.9410897325203572,3.98876953125,4.08544921875,6.43701171875,31.58882352941177,332.63540371790486
0.72223974609375,-0.0190869140625,0.6035693359375001,0.9414300316061882,4.30908203125,4.11083984375,6.92626953125,31.541764705882358,332.63540371790486
0.70026708984375,-0.0215283203125,0.5786669921875001,0.9086764845317834,4.58056640625,4.0947265625,7.123046875,31.494705882352942,332.63540371790486
0.67341162109375,-0.0102978515625,0.5894091796875001,0.8949818089049673,4.7080078125,3.97216796875,7.05224609375,31.541764705882358,332.63540371790486
0.64460302734375,-0.0078564453125,0.5903857421875001,0.874145360436101,4.6708984375,3.72802734375,6.8525390625,31.494705882352942,332.63540371790486
0.64460302734375,0.0199755859375,0.6021044921875001,0.8822935488864468,4.61865234375,2.927734375,6.26708984375,31.44764705882353,332.63540371790486
0.62458349609375,0.0292529296875,0.5977099609375001,0.8649956502155957,4.29248046875,2.2998046875,5.6728515625,31.44764705882353,332.8307296706616
0.62653662109375,0.0595263671875,0.6128466796875001,0.8784489619585805,4.1572265625,1.7685546875,5.130859375,31.541764705882358,332.8307296706616
0.64362646484375,0.0731982421875,0.6143115234375001,0.8927438920175848,4.0791015625,1.40625,4.619140625,31.494705882352942,332.8307296706616
0.64313818359375,0.0819873046875,0.6245654296875001,0.9002392000390343,4.041015625,1.3056640625,4.18115234375,31.541764705882358,332.8307296706616
0.62702490234375,0.0810107421875,0.6333544921875001,0.8949083088691516,4.11181640625,1.3759765625,4.1298828125,31.494705882352942,332.8307296706616
0.63044287109375,0.0766162109375,0.6538623046875001,0.9115175099703786,4.212890625,1.83349609375,4.1552734375,31.353529411764708,332.8307296706616
0.63874365234375,0.0419482421875,0.6641162109375001,0.922390074785086,4.32275390625,2.36376953125,4.13671875,31.40058823529412,332.8307296706616
0.59772802734375,0.0365771484375,0.6548388671875001,0.8873728779039158,4.26611328125,3.2119140625,4.259765625,31.494705882352942,332.8307296706616
0.58503271484375,0.0473193359375,0.6660693359375001,0.8877785519301741,4.09521484375,3.9091796875,4.61376953125,31.494705882352942,333.2093388878169
0.61139990234375,0.0478076171875,0.6870654296875001,0.9209529377328478,4.0126953125,4.56396484375,4.4443359375,31.494705882352942,333.2093388878169
0.63386083984375,0.0692919921875,0.7070849609375001,0.9521292383141706,3.92626953125,4.75439453125,4.0244140625,31.58882352941177,333.2093388878169
0.62946630859375,0.0897998046875,0.7012255859375001,0.9465776042934596,3.71142578125,5.05419921875,3.52734375,31.494705882352942,333.2093388878169
0.63825537109375,0.0912646484375,0.6919482421875001,0.9457756206684608,3.31982421875,5.044921875,3.00830078125,31.541764705882358,333.2093388878169
0.64069677734375,0.0941943359375,0.7026904296875001,0.9555829495108088,2.892578125,4.63671875,2.5703125,31.40058823529412,333.2093388878169
0.61872412109375,0.0902880859375,0.7144091796875001,0.949395572196994,2.5009765625,4.04052734375,2.38427734375,31.494705882352942,333.2093388878169
0.57331396484375,0.1005419921875,0.7158740234375001,0.922644683456468,2.2734375,3.51025390625,2.4677734375,31.494705882352942,333.2093388878169
0.55231787109375,0.1083544921875,0.7139208984375001,0.909108781132682,2.10107421875,3.0,2.78564453125,31.494705882352942,332.9718917789781
0.53083349609375,0.1093310546875,0.7119677734375001,0.89478242635165,2.05322265625,3.01220703125,2.966796875,31.494705882352942,332.9718917789781
0.52546240234375,0.1181201171875,0.7061083984375001,0.888060903713943,2.07958984375,3.08935546875,3.0087890625,31.541764705882358,332.9718917789781
0.53132177734375,0.1137255859375,0.6948779296875001,0.8820950499483236,2.0283203125,2.96484375,2.97216796875,31.40058823529412,332.9718917789781
0.53815771484375,0.1200732421875,0.6816943359375001,0.8767773247435942,1.9501953125,2.70703125,2.9013671875,31.541764705882358,332.9718917789781
0.55720068359375,0.1215380859375,0.6831591796875001,0.889916048243873,1.841796875,2.173828125,2.77001953125,31.353529411764708,332.9718917789781
0.55475927734375,0.1220263671875,0.6865771484375001,0.8910872408717944,1.8505859375,1.6396484375,2.6064453125,31.44764705882353,332.9718917789781
0.55231787109375,0.1498583984375,0.7007373046875001,0.904734955935984,2.10888671875,1.048828125,2.58447265625,31.44764705882353,332.9718917789781
0.52790380859375,0.1571826171875,0.6856005859375001,0.8794526534791638,2.310546875,0.60595703125,2.83544921875,31.541764705882358,332.9718917789781
0.50397802734375,0.1664599609375,0.7197802734375001,0.8943077840824007,2.619140625,0.04443359375,3.0634765625,31.541764705882358,333.33900857165133
0.50007177734375,0.1522998046875,0.7524951171875001,0.9162510105831356,2.9580078125,-0.18603515625,3.16943359375,31.494705882352942,333.33900857165133
0.52936865234375,0.1396044921875,0.7564013671875001,0.9337363721127538,3.12548828125,-0.73974609375,3.1875,31.40058823529412,333.33900857165133
0.54548193359375,0.1225146484375,0.7749560546875001,0.9555716957171534,3.33544921875,-1.1494140625,3.2099609375,31.494705882352942,333.33900857165133
0.54743505859375,0.1142138671875,0.7778857421875001,0.9580376708324492,3.33544921875,-1.26611328125,3.24365234375,31.541764705882358,333.33900857165133
0.55768896484375,0.1107958984375,0.7905810546875001,0.9738126702040112,3.3154296875,-1.13427734375,3.21875,31.44764705882353,333.33900857165133
0.57331396484375,0.1078662109375,0.6772998046875001,0.8939010276180465,3.2744140625,-0.767578125,3.21728515625,31.494705882352942,333.33900857165133
0.59968115234375,0.1034716796875,0.8110888671875001,1.013996559880349,3.15771484375,-0.28466796875,3.20751953125,31.494705882352942,333.33900857165133
0.61432958984375,0.1273974609375,0.8218310546875001,1.0339425711613195,3.0849609375,0.3349609375,3.29052734375,31.44764705882353,333.2202825937473
0.63679052734375,0.1352099609375,0.8350146484375001,1.0587886344104065,3.06103515625,0.6357421875,3.462890625,31.541764705882358,333.2202825937473
0.64704443359375,0.1415576171875,0.8286669921875001,1.0608459086830366,2.98291015625,1.01708984375,3.85546875,31.40058823529412,333.2202825937473
0.64899755859375,0.1630419921875,0.8330615234375001,1.0685373293007243,2.9931640625,1.486328125,4.4228515625,31.494705882352942,333.2202825937473
0.63679052734375,0.1742724609375,0.8516162109375001,1.0775542849840505,2.81005859375,1.982421875,5.09228515625,31.494705882352942,333.2202825937473
0.61530615234375,0.1835498046875,0.8726123046875001,1.0833948616293692,2.8876953125,2.6162109375,5.7001953125,31.494705882352942,333.2202825937473
0.61921240234375,0.1825732421875,0.8887255859375001,1.098448977003086,3.11328125,3.21337890625,6.16162109375,31.58882352941177,333.2202825937473
0.62116552734375,0.1620654296875,0.8882373046875001,1.0959367341678752,3.3515625,3.7216796875,6.38232421875,31.58882352941177,333.2202825937473
0.61335302734375,0.1527880859375,0.8745654296875001,1.0790786932196694,3.5419921875,4.2490234375,6.76416015625,31.494705882352942,333.2202825937473
0.59186865234375,0.1259326171875,0.8638232421875001,1.0546838955071915,3.63427734375,4.65380859375,6.90966796875,31.40058823529412,332.9281168533912
0.56794287109375,0.0888232421875,0.8530810546875001,1.0286865212714944,3.81396484375,4.9609375,7.09814453125,31.541764705882358,332.9281168533912
0.54401708984375,0.0404833984375,0.8428271484375001,1.003967679626391,3.880859375,5.1376953125,7.40673828125,31.541764705882358,332.9281168533912
0.51764990234375,-0.0200634765625,0.8472216796875001,0.9930501190880432,4.1884765625,5.08544921875,7.79150390625,31.494705882352942,332.9281168533912
0.51472021484375,-0.0835400390625,0.8359912109375001,0.9852903848409909,4.330078125,4.80419921875,8.2001953125,31.541764705882358,332.9281168533912
0.53083349609375,-0.1641064453125,0.8296435546875001,0.9985106678462322,4.38720703125,4.22216796875,8.53955078125,31.494705882352942,332.9281168533912
0.55622412109375,-0.2485791015625,0.8364794921875001,1.0348307994403685,4.3701171875,2.98974609375,8.783203125,31.494705882352942,332.9281168533912
0.59772802734375,-0.3198681640625,0.8657763671875001,1.0996195501323855,4.3642578125,1.03271484375,8.947265625,31.494705882352942,332.9281168533912
0.63141943359375,-0.3711376953125,0.8857958984375001,1.1493772503797106,3.8955078125,-1.17626953125,9.06591796875,31.494705882352942,333.3384575552843
0.66022802734375,-0.4853955078125,0.9063037109375,1.22184134139988,3.390625,-2.9775390625,9.1220703125,31.44764705882353,333.3384575552843
0.69196630859375,-0.3101025390625,0.9751513671875,1.2352737129436215,2.84375,-4.70751953125,9.0859375,31.494705882352942,333.3384575552843
0.70417333984375,-0.1904736328125,1.0322802734375005,1.264018536363962,2.455078125,-5.748046875,9.134765625,31.494705882352942,333.3384575552843
0.71540380859375,-0.0635205078125,1.1074755859375005,1.3199771352984908,2.3662109375,-5.70751953125,9.16552734375,31.494705882352942,333.3384575552843
0.69001318359375,-0.1074658203125,1.1611865234375005,1.3549986119112776,2.43017578125,-4.42138671875,9.2412109375,31.58882352941177,333.3384575552843
0.65095068359375,0.0761279296875,1.2061083984375005,1.372672474748127,2.69287109375,-2.62353515625,9.42626953125,31.541764705882358,333.3384575552843
0.62214208984375,0.0971240234375,1.2144091796875005,1.3679486509343486,3.083984375,-0.51171875,9.615234375,31.494705882352942,333.3384575552843
0.61970068359375,0.0897998046875,1.2007373046875005,1.354201985317064,3.568359375,1.6220703125,9.14599609375,31.541764705882358,333.24106690105657
0.59040380859375,0.0692919921875,1.1558154296875005,1.2997258729774597,3.896484375,3.33056640625,8.5009765625,31.494705882352942,333.24106690105657
0.52448583984375,0.0136279296875,1.0664599609375005,1.188531852727131,4.24951171875,5.0029296875,7.728515625,31.541764705882358,333.24106690105657
0.4282944335937499,-0.0317822265625,0.9663623046875,1.057498149262493,4.19677734375,6.70556640625,6.79248046875,31.494705882352942,333.24106690105657
0.3633530273437499,-0.0791455078125,0.8980029296875001,0.9719561181525118,4.11376953125,7.71337890625,6.013671875,31.541764705882358,333.24106690105657
0.4512436523437499,-0.1333447265625,0.8452685546875001,0.967409209913804,3.6533203125,8.07275390625,5.32080078125,31.58882352941177,333.24106690105657
0.3076889648437499,-0.1763134765625,0.9141162109375,0.9804934411830124,3.36572265625,7.55126953125,4.8505859375,31.494705882352942,333.24106690105657
0.2910874023437499,-0.2041455078125,0.7744677734375001,0.8521781481923216,2.681640625,6.205078125,4.544921875,31.541764705882358,333.24106690105657
0.3130600585937499,-0.2275830078125,0.7744677734375001,0.8657949860243738,2.22900390625,3.57275390625,4.35498046875,31.494705882352942,333.1759564266196
0.3570053710937499,-0.2461376953125,0.6787646484375001,0.8054551806351601,1.5615234375,0.39794921875,3.76318359375,31.58882352941177,333.1759564266196
0.3985092773437499,-0.2681103515625,0.6777880859375001,0.830716253712918,0.91552734375,-2.640625,3.24951171875,31.541764705882358,333.1759564266196
0.4214584960937499,-0.2734814453125,0.8403857421875001,0.979115703342488,0.3544921875,-5.64013671875,2.53125,31.541764705882358,333.1759564266196
0.4307358398437499,-0.2559033203125,0.8862841796875001,1.0180960270216202,-0.0361328125,-7.73779296875,2.13720703125,31.58882352941177,333.1759564266196
0.4214584960937499,-0.2534619140625,0.9639208984375,1.0821338661433662,0.18701171875,-8.556640625,2.11376953125,31.494705882352942,333.1759564266196
0.4136459960937499,-0.2422314453125,1.0269091796875005,1.1332791123589228,0.72900390625,-8.61474609375,2.45703125,31.494705882352942,333.1759564266196
0.4522202148437499,-0.1811962890625,1.1182177734375005,1.2197320225012005,3.08056640625,-4.4140625,4.86669921875,31.494705882352942,333.0676232395984
0.4668686523437499,-0.1558056640625,1.0977099609375005,1.202999959200595,3.5380859375,-2.19921875,5.3203125,31.494705882352942,333.0676232395984
0.4756577148437499,-0.1392041015625,1.0938037109375005,1.200847451445373,3.72216796875,-0.18798828125,5.49853515625,31.541764705882358,333.0676232395984
0.4580795898437499,-0.1152783203125,1.0630419921875005,1.1632644922456197,3.72705078125,1.6689453125,5.4814453125,31.353529411764708,333.0676232395984
0.4248764648437499,-0.1050244140625,1.0415576171875005,1.1297753793779528,3.51416015625,3.22216796875,5.38525390625,31.58882352941177,333.0676232395984
0.4024155273437499,-0.1040478515625,1.0044482421875005,1.087051279055261,3.224609375,3.9619140625,5.37060546875,31.494705882352942,333.10699805693315
0.3770249023437499,-0.1064892578125,0.9668505859375,1.043210330922992,2.89306640625,4.3037109375,5.080078125,31.44764705882353,333.10699805693315
0.3672592773437499,-0.1143017578125,0.8081591796875001,0.8950226412483954,2.396484375,4.21533203125,4.796875,31.494705882352942,333.10699805693315
0.3653061523437499,-0.1318798828125,0.9209521484375,0.9994967474396708,2.0654296875,3.64306640625,4.43505859375,31.58882352941177,333.10699805693315
0.3648178710937499,-0.1460400390625,0.9087451171875,0.9900694218542836,1.88818359375,2.83984375,4.072265625,31.541764705882358,333.10699805693315
0.3775131835937499,-0.1421337890625,1.0430224609375005,1.1183085762885263,1.822265625,1.5498046875,3.76708984375,31.494705882352942,333.10699805693315
0.3906967773437499,-0.1440869140625,0.9224169921875,1.0120563808934169,1.7646484375,0.59130859375,3.37890625,31.40058823529412,333.10699805693315
0.4072983398437499,-0.1392041015625,0.9233935546875,1.0187862270219965,2.00732421875,-0.36376953125,2.94287109375,31.40058823529412,333.10699805693315
0.4121811523437499,-0.1289501953125,0.9155810546875,1.0123290586174185,2.2763671875,-0.8203125,2.6396484375,31.541764705882358,332.99976111909666
0.4234116210937499,-0.1191845703125,0.9185107421875,1.0184028408206869,2.4775390625,-1.00439453125,2.5224609375,31.541764705882358,332.99976111909666
0.4341538085937499,-0.1040478515625,1.0498583984375005,1.1408409800235015,2.7353515625,-1.22802734375,2.58837890625,31.44764705882353,332.99976111909666
0.4365952148437499,-0.1094189453125,0.9165576171875,1.0211100591230056,2.931640625,-1.19921875,2.73486328125,31.494705882352942,332.99976111909666
0.4278061523437499,-0.1216259765625,0.9229052734375,1.0244828577856695,3.0400390625,-1.13671875,2.9521484375,31.541764705882358,332.99976111909666
0.4224350585937499,-0.1245556640625,0.9229052734375,1.0226043398685056,3.060546875,-1.0927734375,3.15234375,31.40058823529412,332.99976111909666
0.4180405273437499,-0.1392041015625,0.8960498046875001,0.9985193622930756,3.123046875,-1.0068359375,3.3046875,31.44764705882353,332.99976111909666
0.4234116210937499,-0.1421337890625,0.9312060546875,1.0327749663683563,2.91796875,-1.2421875,3.25244140625,31.44764705882353,332.99976111909666
0.4263413085937499,-0.1362744140625,0.9458544921875,1.0464121309182068,2.79443359375,-1.46435546875,3.33349609375,31.541764705882358,333.02329802416745
0.4268295898437499,-0.1289501953125,0.9517138671875,1.0509856976354637,2.68359375,-1.66943359375,3.18603515625,31.44764705882353,333.02329802416745
0.4400131835937499,-0.1313916015625,0.9688037109375,1.0721268511812103,2.580078125,-1.783203125,2.95849609375,31.58882352941177,333.02329802416745
0.4556381835937499,-0.1147900390625,0.9692919921875,1.0771768069984586,2.45361328125,-1.85009765625,2.86328125,31.494705882352942,333.02329802416745
0.4756577148437499,-0.1235791015625,0.9824755859375,1.098535540160903,2.35205078125,-1.8681640625,2.59033203125,31.494705882352942,333.02329802416745
0.4834702148437499,-0.1299267578125,0.9883349609375,1.1078945825519952,2.322265625,-1.80078125,2.55224609375,31.58882352941177,333.02329802416745
0.4868881835937499,-0.1226025390625,1.0039599609375005,1.122509282399669,2.3583984375,-1.6943359375,2.69921875,31.541764705882358,333.02329802416745
0.4800522460937499,-0.1309033203125,1.0064013671875005,1.1226885365609471,2.466796875,-1.451171875,2.9658203125,31.541764705882358,333.02329802416745
0.4668686523437499,-0.1318798828125,0.9995654296875,1.1110759156143493,2.5625,-1.22314453125,3.28466796875,31.58882352941177,333.02329802416745
0.4644272460937499,-0.1343212890625,0.9966357421875,1.10770830014732,2.63671875,-0.5458984375,3.53759765625,31.494705882352942,333.0134569157085
0.4678452148437499,-0.1274853515625,1.0054248046875005,1.1162484928527818,2.71533203125,-0.08056640625,3.623046875,31.494705882352942,333.0134569157085
0.4883530273437499,-0.1269970703125,0.9883349609375,1.1096949716904612,2.79541015625,0.68212890625,3.560546875,31.541764705882358,333.0134569157085
0.50934912109375,-0.1216259765625,0.9707568359375,1.102995122316116,2.79345703125,1.1796875,3.47607421875,31.494705882352942,333.0134569157085
0.51764990234375,-0.1177197265625,0.9468310546875,1.0854991485667262,2.7490234375,1.47314453125,3.490234375,31.541764705882358,333.0134569157085
0.50104833984375,-0.1196728515625,1.0498583984375005,1.169433062227604,2.716796875,1.48876953125,3.64111328125,31.541764705882358,333.0134569157085
0.4849350585937499,-0.1191845703125,0.9253466796875,1.0514910605718812,2.73779296875,1.130859375,3.814453125,31.494705882352942,333.0134569157085
0.4771225585937499,-0.1118603515625,0.9316943359375,1.0527169656601685,2.7216796875,0.74169921875,3.9638671875,31.58882352941177,333.0134569157085
0.4820053710937499,-0.0947705078125,0.9146044921875,1.038177250783226,2.67138671875,0.26318359375,3.9306640625,31.541764705882358,333.0134569157085
0.50544287109375,-0.0981884765625,0.9121630859375,1.0474516543574603,2.7099609375,0.06982421875,3.83056640625,31.58882352941177,333.2842903326424
0.52546240234375,-0.1064892578125,0.9272998046875,1.0711375383580757,2.82958984375,-0.0107421875,3.9189453125,31.541764705882358,333.2842903326424
0.50251318359375,-0.1289501953125,0.9375537109375,1.0715197681094526,2.88818359375,-0.32568359375,4.3359375,31.44764705882353,333.2842903326424
0.4683334960937499,-0.1265087890625,0.9731982421875,1.0874077229219474,3.1953125,-0.31298828125,4.8349609375,31.494705882352942,333.2842903326424
0.4580795898437499,-0.1313916015625,1.0059130859375005,1.1130866094122602,3.27001953125,-0.1767578125,5.09375,31.494705882352942,333.2842903326424
0.4727280273437499,-0.1289501953125,1.0215380859375005,1.132978376549304,3.20947265625,0.0322265625,5.025390625,31.58882352941177,333.2842903326424
0.4815170898437499,-0.1328564453125,1.0186083984375005,1.134492226610688,3.09326171875,0.8349609375,4.67529296875,31.494705882352942,333.2842903326424
0.50690771484375,-0.1411572265625,1.0195849609375005,1.1473597023378734,2.98681640625,1.4765625,4.328125,31.541764705882358,333.2842903326424
0.52888037109375,-0.1499462890625,1.0254443359375005,1.1635009336645066,2.96435546875,1.775390625,4.17919921875,31.494705882352942,333.04628768880525
0.52936865234375,-0.1606884765625,1.0205615234375005,1.1608607925609713,2.9970703125,1.90576171875,4.20654296875,31.541764705882358,333.04628768880525
0.52350927734375,-0.1538525390625,0.9961474609375,1.1358003042670757,3.0380859375,1.94580078125,4.4111328125,31.58882352941177,333.04628768880525
0.50641943359375,-0.1509228515625,0.9697802734375,1.104405780767958,3.041015625,1.9453125,4.7392578125,31.494705882352942,333.04628768880525
0.4917709960937499,-0.1343212890625,0.9580615234375,1.0852478076392664,3.10009765625,2.0166015625,5.02587890625,31.635882352941177,333.04628768880525
0.4820053710937499,-0.1191845703125,0.9536669921875,1.075181320313812,3.1279296875,2.05419921875,5.19287109375,31.44764705882353,333.04628768880525
0.4795639648437499,-0.1094189453125,0.9380419921875,1.0591868961977633,3.14794921875,2.07861328125,5.19873046875,31.44764705882353,333.04628768880525
0.4702866210937499,-0.0962353515625,0.9482958984375,1.0628715161596531,3.15625,2.02685546875,5.115234375,31.58882352941177,333.04628768880525
0.4619858398437499,-0.0908642578125,0.9448779296875,1.0556900736364283,3.16357421875,1.912109375,5.00634765625,31.494705882352942,333.14422863229663
0.4566147460937499,-0.1020947265625,0.9531787109375,1.0618239093779185,3.138671875,1.77294921875,4.9072265625,31.541764705882358,333.14422863229663
0.4439194335937499,-0.1035595703125,0.9565966796875,1.059653837682219,3.15869140625,1.6416015625,4.85546875,31.494705882352942,333.14422863229663
0.4488022460937499,-0.1182080078125,0.9590380859375,1.06543448390244,3.1318359375,1.5087890625,4.75048828125,31.44764705882353,333.14422863229663
0.4556381835937499,-0.1235791015625,0.9478076171875,1.0588754543808507,3.0654296875,1.40478515625,4.8984375,31.58882352941177,333.14422863229663
0.4629624023437499,-0.1304150390625,0.9434130859375,1.0589478358803546,3.02294921875,1.37744140625,4.9462890625,31.494705882352942,333.14422863229663
0.4668686523437499,-0.1338330078125,0.9399951171875,1.058049352751445,2.96826171875,1.470703125,4.98291015625,31.494705882352942,333.14422863229663
0.4639389648437499,-0.1206494140625,0.9463427734375,1.0608300000713091,2.880859375,1.64306640625,5.0048828125,31.44764705882353,333.14422863229663
0.4619858398437499,-0.2339306640625,0.9395068359375,1.0727663149904316,2.7958984375,1.90283203125,5.029296875,31.58882352941177,333.14422863229663
0.58063818359375,-0.1020947265625,0.9375537109375,1.10750665656311,2.701171875,2.06298828125,4.97119140625,31.44764705882353,333.0895104248145
0.4561264648437499,-0.0923291015625,0.9443896484375,1.052828486982614,2.630859375,2.1337890625,4.88330078125,31.44764705882353,333.0895104248145
0.4502670898437499,-0.0732861328125,0.9370654296875,1.042210597228022,2.5712890625,2.18115234375,4.77099609375,31.58882352941177,333.0895104248145
0.4448959960937499,-0.0547314453125,0.9478076171875,1.0484594687659088,2.5048828125,2.16552734375,4.5810546875,31.494705882352942,333.0895104248145
0.4527084960937499,-0.0303173828125,0.9478076171875,1.0508108323264995,2.45458984375,2.11865234375,4.3154296875,31.541764705882358,333.0895104248145
0.4478256835937499,-0.0249462890625,0.9585498046875,1.058294802165561,2.4267578125,1.71923828125,3.984375,31.541764705882358,333.0895104248145
0.4204819335937499,-0.0112744140625,0.9692919921875,1.0566262986553023,2.4111328125,1.5205078125,3.7255859375,31.494705882352942,333.0895104248145
0.3946030273437499,-0.0005322265624999,0.9775927734375,1.0542293218893075,2.4052734375,1.34375,3.58447265625,31.40058823529412,333.0895104248145
0.3726303710937499,0.0019091796875,0.9897998046875,1.0576202966036337,2.4521484375,1.15771484375,3.52587890625,31.494705882352942,333.0895104248145
0.3457749023437499,0.0072802734375,1.0039599609375005,1.0618610495906615,2.54931640625,1.052734375,3.521484375,31.494705882352942,333.186348984222
0.3443100585937499,0.0097216796875,1.0088427734375005,1.0660242347253863,2.66943359375,0.99267578125,3.5400390625,31.494705882352942,333.186348984222
0.3506577148437499,0.0072802734375,1.0137255859375005,1.0726851350443398,2.7880859375,0.9580078125,3.5419921875,31.541764705882358,333.186348984222
0.3579819335937499,0.0082568359375,1.0107958984375005,1.0723467668703497,2.84375,0.91748046875,3.45166015625,31.58882352941177,333.186348984222
0.3931381835937499,0.0058154296875,1.0171435546875005,1.090491843832024,2.82666015625,0.86767578125,3.251953125,31.58882352941177,333.186348984222
0.4385483398437499,0.0287646484375,1.0230029296875005,1.1134123429927705,2.68701171875,0.125,2.927734375,31.44764705882353,333.186348984222
0.4746811523437499,0.0609912109375,1.0562060546875005,1.1595746436347028,2.43017578125,-0.84814453125,2.6083984375,31.541764705882358,333.186348984222
0.4922592773437499,0.1127490234375,1.1084521484375005,1.2180713048885157,2.18798828125,-1.6865234375,2.458984375,31.494705882352942,333.186348984222
0.4629624023437499,0.1630419921875,1.1455615234375005,1.246285714104439,2.146484375,-1.7158203125,2.85009765625,31.541764705882358,332.8619025739021
0.3672592773437499,0.1669482421875,1.1631396484375005,1.231115321215629,2.2021484375,-1.0673828125,3.5625,31.58882352941177,332.8619025739021
0.2842514648437499,0.1386279296875,1.1553271484375005,1.1978302960236002,2.31591796875,0.20703125,4.38037109375,31.58882352941177,332.8619025739021
0.20222021484375,0.0897998046875,1.1279833984375005,1.149479694193846,2.55908203125,1.767578125,5.23046875,31.635882352941177,332.8619025739021
0.15534521484375,0.0458544921875,1.0772021484375005,1.08931135990909,2.84716796875,3.16748046875,5.70751953125,31.541764705882358,332.8619025739021
0.15095068359375,0.0063037109375,1.0103076171875005,1.0215416423210992,3.05810546875,4.15185546875,5.83349609375,31.58882352941177,332.8619025739021
0.15876318359375,-0.0166455078125,0.9331591796875,0.9467147807181456,3.1015625,4.6279296875,5.66455078125,31.40058823529412,332.8619025739021
0.20270849609375,-0.0420361328125,0.8662646484375001,0.8906583025958752,3.06005859375,4.46337890625,5.27734375,31.541764705882358,332.8619025739021
0.23200537109375,-0.0430126953125,0.8081591796875001,0.8419013266930796,2.89453125,3.833984375,4.76904296875,31.58882352941177,333.1108461630172
0.2686264648437499,-0.0185986328125,0.7647021484375001,0.8107252694852142,2.6591796875,2.7265625,4.30224609375,31.541764705882358,333.1108461630172
0.2993881835937499,0.0004443359375,0.7329638671875001,0.791750915700415,2.34423828125,1.427734375,3.77734375,31.494705882352942,333.1108461630172
0.3096420898437499,0.0370654296875,0.7310107421875001,0.794750762864839,1.89111328125,-0.32421875,3.29833984375,31.494705882352942,333.1108461630172
0.2949936523437499,0.0707568359375,0.7583544921875001,0.8167798482920307,1.45947265625,-2.0966796875,2.8837890625,31.541764705882358,333.1108461630172
0.2725327148437499,0.1156787109375,0.8311083984375001,0.8822679948732204,1.05712890625,-3.89794921875,2.5791015625,31.58882352941177,333.1108461630172
0.22761083984375,0.1762255859375,0.9365771484375,0.9798157513169052,0.83447265625,-5.62109375,2.37060546875,31.494705882352942,333.1108461630172
0.19831396484375,0.2099169921875,1.0801318359375005,1.118069029741371,0.8388671875,-6.9658203125,2.20068359375,31.494705882352942,333.1108461630172
0.19245458984375,0.2265185546875,1.1763232421875005,1.213295427701,0.87890625,-7.76806640625,2.04296875,31.58882352941177,333.1108461630172
0.21686865234375,0.2167529296875,1.2778857421875005,1.314155932522319,1.28662109375,-8.03515625,1.8662109375,31.44764705882353,333.2842903326424
0.2764389648437499,0.2011279296875,1.3398974609375005,1.3828218074687078,1.609375,-7.4052734375,1.697265625,31.494705882352942,333.2842903326424
0.3291733398437499,0.1737841796875,1.3638232421875005,1.413707842768219,1.98388671875,-6.21728515625,1.6650390625,31.58882352941177,333.2842903326424
0.3784897460937499,0.1444873046875,1.3584521484375005,1.4175765618506924,2.13623046875,-4.3525390625,1.916015625,31.58882352941177,333.2842903326424
0.3931381835937499,0.1029833984375,1.3350146484375005,1.3955025343208205,2.3623046875,-2.18212890625,2.48095703125,31.40058823529412,333.2842903326424
0.3716538085937499,0.0824755859375,1.2925341796875005,1.3474321435153656,2.32763671875,0.0283203125,3.30712890625,31.58882352941177,333.2842903326424
0.3277084960937499,0.0692919921875,1.2593310546875005,1.303115092343601,2.2822265625,2.39599609375,4.1572265625,31.494705882352942,333.2842903326424
0.3052475585937499,0.0663623046875,1.1914599609375005,1.2317292178186203,2.2607421875,4.6728515625,4.93701171875,31.494705882352942,333.2842903326424
0.2822983398437499,0.0746630859375,1.1187060546875005,1.1561877727578338,2.13818359375,6.55517578125,5.27734375,31.494705882352942,333.2842903326424
0.2661850585937499,0.0917529296875,1.0435107421875005,1.0808273472601926,1.92529296875,8.07861328125,5.3828125,31.44764705882353,333.2952339525074
0.23786474609375,0.1044482421875,0.9805224609375,1.01435367063625,1.75146484375,9.109375,5.322265625,31.541764705882358,333.2952339525074
0.21491552734375,0.1215380859375,0.9165576171875,0.949230243856158,1.65576171875,9.48046875,5.19091796875,31.58882352941177,333.2952339525074
0.3238022460937499,0.1332568359375,0.8613818359375001,0.929830063066628,1.64208984375,9.2216796875,5.0693359375,31.494705882352942,333.2952339525074
0.20563818359375,0.1415576171875,0.8169482421875001,0.8542423847765843,1.71826171875,8.03857421875,4.9833984375,31.494705882352942,333.2952339525074
0.21491552734375,0.1396044921875,0.7930224609375001,0.8334042966554353,1.8662109375,6.34228515625,4.943359375,31.58882352941177,333.2952339525074
0.22663427734375,0.1527880859375,0.7578662109375001,0.8056478688312482,2.0244140625,3.880859375,5.02099609375,31.541764705882358,333.2952339525074
0.23737646484375,0.1518115234375,0.7500537109375001,0.8012333580182777,2.1240234375,0.8671875,5.10986328125,31.541764705882358,333.2952339525074
0.2505600585937499,0.1552294921875,0.7539599609375001,0.8095258864941685,2.18896484375,-2.36865234375,5.01904296875,31.58882352941177,333.2952339525074
0.2666733398437499,0.1532763671875,0.7876513671875001,0.8455784949689505,2.10009765625,-5.48291015625,4.75390625,31.494705882352942,333.3586940695343
0.2617905273437499,0.1723193359375,0.8335498046875001,0.8905242897526318,1.92822265625,-7.62646484375,4.44140625,31.494705882352942,333.3586940695343
0.2652084960937499,0.1850146484375,0.8926318359375001,0.94939852594467,1.751953125,-9.15478515625,4.1171875,31.58882352941177,333.3586940695343
0.2622788085937499,0.1845263671875,0.9688037109375,1.020500261612433,1.6396484375,-9.65234375,3.611328125,31.44764705882353,333.3586940695343
0.2534897460937499,0.1859912109375,0.9395068359375,0.9907183639632224,1.6162109375,-8.9091796875,3.43505859375,31.58882352941177,333.3586940695343
0.2617905273437499,0.1698779296875,1.1265185546875005,1.1689468958242049,1.65087890625,-7.255859375,3.5615234375,31.541764705882358,333.3586940695343
0.2539780273437499,0.1674365234375,1.1611865234375005,1.2003724296930214,1.765625,-5.21533203125,3.943359375,31.494705882352942,333.3586940695343
0.2691147460937499,0.1586474609375,1.1919482421875005,1.232206303944632,1.99853515625,-2.41064453125,4.49560546875,31.494705882352942,333.3586940695343
0.2754624023437499,0.1474169921875,1.1963427734375005,1.236465663189532,2.27197265625,0.2021484375,4.92041015625,31.494705882352942,332.9270119410253
0.2871811523437499,0.1361865234375,1.1826708984375005,1.2246347363350596,2.42431640625,2.04248046875,5.18115234375,31.44764705882353,332.9270119410253
0.2949936523437499,0.1288623046875,1.1382373046875005,1.1828824583511013,2.41162109375,3.583984375,5.2197265625,31.58882352941177,332.9270119410253
0.2901108398437499,0.1308154296875,1.1035693359375005,1.1485391831629892,2.3525390625,4.34228515625,5.044921875,31.68294117647059,332.9270119410253
0.2910874023437499,0.1195849609375,1.0542529296875005,1.1002189229604864,2.20263671875,4.65234375,4.77734375,31.494705882352942,332.9270119410253
0.2739975585937499,0.1064013671875,1.0024951171875005,1.044697263823106,1.96923828125,4.67822265625,4.5458984375,31.494705882352942,332.9270119410253
0.2603256835937499,0.0849169921875,0.9741748046875,1.011927323076442,1.74267578125,4.62255859375,4.4169921875,31.541764705882358,332.9270119410253
0.23786474609375,0.0663623046875,0.9580615234375,0.9893763063713746,1.5400390625,4.0947265625,4.4091796875,31.541764705882358,332.9270119410253
0.23151708984375,0.0531787109375,0.9443896484375,0.9738069347989868,1.41259765625,3.23095703125,4.4755859375,31.494705882352942,332.9483472170351
0.24470068359375,0.0404833984375,0.9341357421875,0.9665024133091906,1.27978515625,2.0,4.52880859375,31.541764705882358,332.9483472170351
0.2710678710937499,0.0287646484375,0.9409716796875,0.9796595825657736,1.1474609375,0.83837890625,4.56298828125,31.58882352941177,332.9483472170351
0.2881577148437499,0.0189990234375,0.9443896484375,0.9875563981826332,1.0654296875,-0.39599609375,4.53662109375,31.635882352941177,332.9483472170351
0.3037827148437499,0.0038623046875,0.9600146484375,1.0069394125020208,0.97021484375,-1.4833984375,4.4853515625,31.494705882352942,332.9483472170351
0.3081772460937499,0.0028857421875,0.9839404296875,1.0310772578674805,0.86767578125,-2.21044921875,4.39697265625,31.541764705882358,332.9483472170351
0.3267319335937499,-0.0054150390625,1.0278857421875005,1.0785787769422812,0.8740234375,-2.50537109375,4.28759765625,31.494705882352942,332.9483472170351
0.3423569335937499,-0.0195751953125,1.0557177734375005,1.1100141780189436,0.64599609375,-2.84326171875,4.236328125,31.494705882352942,332.9483472170351
0.3628647460937499,-0.0171337890625,1.0942919921875005,1.153013163346806,0.56982421875,-2.83447265625,4.22509765625,31.44764705882353,332.9483472170351
0.3882553710937499,-0.0195751953125,1.1284716796875005,1.193555090187041,0.52978515625,-2.60595703125,4.2119140625,31.58882352941177,333.14202454554334
0.4185288085937499,-0.0142041015625,1.1274951171875005,1.2027524098524005,0.50927734375,-2.18310546875,4.17626953125,31.44764705882353,333.14202454554334
0.3457749023437499,-0.0205517578125,1.0986865234375005,1.1519959785620757,0.47265625,-1.54833984375,4.03369140625,31.541764705882358,333.14202454554334
0.50251318359375,-0.0342236328125,1.0552294921875005,1.1692732947907003,0.46728515625,-0.7216796875,3.8974609375,31.40058823529412,333.14202454554334
0.4898178710937499,-0.0308056640625,0.9917529296875,1.1065461623108566,0.443359375,0.42333984375,3.91943359375,31.494705882352942,333.14202454554334
0.4546616210937499,-0.0142041015625,0.9434130859375,1.0473524702386066,0.4072265625,1.65966796875,4.16650390625,31.44764705882353,333.14202454554334
0.3916733398437499,0.0331591796875,0.8989794921875001,0.9811583275473948,0.40234375,2.6923828125,4.4482421875,31.44764705882353,333.14202454554334
0.3511459960937499,0.0736865234375,0.8608935546875001,0.9326687122507415,0.3974609375,3.3046875,4.55615234375,31.40058823529412,333.14202454554334
0.3272202148437499,0.1293505859375,0.8389208984375001,0.9097213402575244,0.43212890625,3.4931640625,4.30224609375,31.494705882352942,333.14202454554334
0.4561264648437499,0.1684130859375,0.8247607421875001,0.9574155844248224,0.4873046875,2.9912109375,3.7587890625,31.58882352941177,333.21807856453813
0.3589584960937499,0.2001513671875,0.8272021484375001,0.9236748162013124,0.525390625,1.857421875,3.11767578125,31.44764705882353,333.21807856453813
0.3921616210937499,0.2216357421875,0.8511279296875001,0.9629807329162988,0.55078125,-0.19775390625,2.05517578125,31.541764705882358,333.21807856453813
0.4112045898437499,0.2314013671875,0.8735888671875001,0.9928712486111936,0.486328125,-2.37109375,1.39111328125,31.58882352941177,333.21807856453813
0.3902084960937499,0.2133349609375,0.9209521484375,1.0227058891458471,0.3662109375,-4.15869140625,0.927734375,31.494705882352942,333.21807856453813
0.3550522460937499,0.1840380859375,0.9570849609375,1.0372770782122256,0.3955078125,-5.23876953125,0.732421875,31.40058823529412,333.21807856453813
0.3262436523437499,0.1386279296875,1.0225146484375005,1.082214779908913,0.61376953125,-5.38720703125,0.326171875,31.58882352941177,333.21807856453813
0.3159897460937499,0.0731982421875,1.0840380859375005,1.1315237841330474,0.89111328125,-4.90576171875,0.0859375,31.58882352941177,333.21807856453813
0.3150131835937499,0.1249560546875,1.1221240234375005,1.1721815752759888,1.201171875,-3.91943359375,-0.123046875,31.541764705882358,333.01290552101017
0.3252670898437499,-0.0561962890625,1.1382373046875005,1.1851332686335674,1.3818359375,-2.8505859375,-0.2177734375,31.58882352941177,333.01290552101017
0.3238022460937499,-0.1030712890625,1.1616748046875005,1.2103552937258153,1.4775390625,-1.39501953125,-0.24462890625,31.494705882352942,333.01290552101017
0.3404038085937499,-0.1206494140625,1.1807177734375005,1.2347167669267165,1.57763671875,-0.36474609375,-0.126953125,31.494705882352942,333.01290552101017
0.3530991210937499,-0.1235791015625,1.3018115234375005,1.3544977025505944,1.623046875,0.830078125,-0.31103515625,31.494705882352942,333.01290552101017
0.3555405273437499,-0.1279736328125,1.1592333984375005,1.219265512237616,1.51806640625,1.9423828125,-0.49072265625,31.541764705882358,333.01290552101017
0.3291733398437499,0.0121630859375,1.1494677734375005,1.195733745653595,1.27685546875,3.10986328125,-0.716796875,31.44764705882353,333.01290552101017
0.2891342773437499,-0.0967236328125,1.1367724609375005,1.1769476281574471,1.01123046875,4.19384765625,-0.9755859375,31.58882352941177,333.01290552101017
0.2627670898437499,-0.0781689453125,1.1021044921875005,1.135689763630935,0.716796875,5.4169921875,-1.20751953125,31.541764705882358,333.01290552101017
0.23981787109375,-0.0566845703125,1.0659716796875005,1.0940847196187515,0.47900390625,6.3037109375,-1.44580078125,31.494705882352942,333.08785761393267
0.23005224609375,-0.0391064453125,1.0537646484375005,1.0792929557327646,0.49169921875,6.9111328125,-1.7109375,31.58882352941177,333.08785761393267
0.24421240234375,-0.0268994140625,1.0195849609375005,1.0487691683613394,0.38720703125,7.15869140625,-1.876953125,31.44764705882353,333.08785761393267
0.24274755859375,-0.0312939453125,0.9780810546875,1.0082401686875306,0.48974609375,6.89111328125,-2.1259765625,31.541764705882358,333.08785761393267
0.24470068359375,-0.0454541015625,0.9522021484375,0.9841917655564354,0.5009765625,6.22607421875,-2.44677734375,31.58882352941177,333.08785761393267
0.24665380859375,-0.0610791015625,0.9321826171875,0.9661952130537708,0.8154296875,4.95263671875,-2.5703125,31.541764705882358,333.08785761393267
0.24714208984375,-0.0698681640625,0.9204638671875,0.9556225738855108,1.056640625,3.4912109375,-2.60693359375,31.541764705882358,333.08785761393267
0.23884130859375,-0.0850048828125,0.9014208984375,0.9363923520259078,1.275390625,1.75439453125,-2.57763671875,31.494705882352942,333.08785761393267
0.23005224609375,-0.1006298828125,0.9019091796875,0.9362107549329992,1.4580078125,0.10595703125,-2.60205078125,31.44764705882353,333.08785761393267
0.22370458984375,-0.1069775390625,0.9048388671875,0.9382011047500356,1.5517578125,-1.48486328125,-2.7021484375,31.494705882352942,333.229022039313
0.3296616210937499,-0.1167431640625,0.9160693359375,0.9805553421518112,1.5927734375,-2.48291015625,-2.8564453125,31.58882352941177,333.229022039313
0.18708349609375,-0.1172314453125,0.9424365234375,0.9679514693359784,1.66259765625,-3.1552734375,-2.97265625,31.494705882352942,333.229022039313
0.16706396484375,-0.1240673828125,0.9658740234375,0.9880362913266908,1.6494140625,-3.3427734375,-3.06298828125,31.494705882352942,333.229022039313
0.15583349609375,-0.1333447265625,1.0005419921875005,1.0213467446158335,1.611328125,-3.11767578125,-3.17041015625,31.541764705882358,333.229022039313
0.16022802734375,-0.1553173828125,1.0195849609375005,1.0437193122291637,1.5166015625,-2.2490234375,-3.28125,31.494705882352942,333.229022039313
0.17731787109375,-0.1724072265625,1.0405810546875005,1.069567581106843,1.4384765625,-1.16552734375,-3.34326171875,31.541764705882358,333.229022039313
0.19880224609375,-0.1870556640625,1.0474169921875005,1.0824021942110489,1.41015625,-0.36376953125,-3.3330078125,31.494705882352942,333.229022039313
0.21149755859375,-0.1938916015625,1.0459521484375005,1.0845925812343595,1.388671875,0.55224609375,-3.1533203125,31.494705882352942,333.16446191526984
0.3262436523437499,-0.2129345703125,1.0352099609375005,1.1060902834547366,1.45556640625,1.43115234375,-2.9990234375,31.541764705882358,333.16446191526984
0.19684912109375,-0.2143994140625,1.0225146484375005,1.0631335247724012,1.5400390625,1.92041015625,-2.45556640625,31.494705882352942,333.16446191526984
0.18757177734375,-0.2207470703125,1.0190966796875005,1.0594670751172652,1.6767578125,1.9052734375,-2.09375,31.58882352941177,333.16446191526984
0.17097021484375,-0.2104931640625,1.0186083984375005,1.0540878786174186,1.78076171875,1.4462890625,-1.99609375,31.494705882352942,333.16446191526984
0.16608740234375,-0.1929150390625,1.0117724609375005,1.0433047254878631,1.80126953125,0.7724609375,-1.91015625,31.58882352941177,333.16446191526984
0.16852880859375,-0.1807080078125,1.0073779296875005,1.0372403948145608,1.86767578125,0.212890625,-2.1552734375,31.44764705882353,333.16446191526984
0.17145849609375,-0.1719189453125,1.0205615234375005,1.0490471689877268,1.74853515625,-0.5673828125,-2.57470703125,31.40058823529412,333.16446191526984
0.18268896484375,-0.1582470703125,1.0371630859375005,1.0649528909625856,1.43994140625,-1.23974609375,-3.04931640625,31.541764705882358,333.1321821553279
0.19587255859375,-0.1592236328125,1.0620654296875005,1.0916506773658716,1.3193359375,-1.794921875,-3.34228515625,31.541764705882358,333.1321821553279
0.21442724609375,-0.1597119140625,1.0840380859375005,1.1165238515696367,1.314453125,-2.5224609375,-3.478515625,31.58882352941177,333.1321821553279
0.24811865234375,-0.1758251953125,1.0942919921875005,1.1357606830284477,1.326171875,-3.296875,-3.4052734375,31.58882352941177,333.1321821553279
0.2744858398437499,-0.1875439453125,1.0942919921875005,1.143673979709163,1.37109375,-3.5888671875,-3.09521484375,31.541764705882358,333.1321821553279
0.2876694335937499,-0.1938916015625,1.0786669921875005,1.133079933727294,1.39208984375,-3.43994140625,-2.56103515625,31.494705882352942,333.1321821553279
0.3076889648437499,-0.2017041015625,1.1699755859375005,1.2264582811345646,1.39013671875,-3.076171875,-2.00341796875,31.494705882352942,333.1321821553279
0.3482163085937499,-0.1973095703125,1.0386279296875005,1.1130739600019866,1.38037109375,-2.89404296875,-1.42822265625,31.44764705882353,333.1321821553279
0.3838608398437499,-0.1704541015625,1.0361865234375005,1.1180725631453987,1.18896484375,-3.3271484375,-1.07470703125,31.494705882352942,333.1321821553279
0.4458725585937499,-0.0923291015625,1.0737841796875005,1.1663359147558792,0.84619140625,-4.45849609375,-1.01171875,31.494705882352942,333.1102951034944
0.4990952148437499,-0.0308056640625,1.1206591796875005,1.2271601441686906,0.62158203125,-5.5341796875,-1.228515625,31.541764705882358,333.1102951034944
0.51179052734375,0.0277880859375,1.1724169921875005,1.2795559093563862,0.24560546875,-6.255859375,-1.58935546875,31.541764705882358,333.1102951034944
0.4595444335937499,0.0541552734375,1.2310107421875005,1.31510506328168,-0.12060546875,-5.90087890625,-1.90087890625,31.541764705882358,333.1102951034944
0.3740952148437499,0.0790576171875,1.2842333984375005,1.3399450579283794,-0.14013671875,-4.568359375,-1.8310546875,31.494705882352942,333.1102951034944
0.2886459960937499,0.1005419921875,1.3237841796875005,1.358613174396926,0.1025390625,-2.1474609375,-1.29443359375,31.58882352941177,333.1102951034944
0.24616552734375,0.1137255859375,1.3223193359375005,1.3498368056707617,0.384765625,0.42919921875,-0.64111328125,31.541764705882358,333.1102951034944
0.21735693359375,0.1117724609375,1.2715380859375005,1.294815131049566,0.98583984375,3.30908203125,-0.10400390625,31.44764705882353,333.1102951034944
0.21589208984375,0.1151904296875,1.2090380859375005,1.233552318629456,1.36572265625,5.6396484375,0.546875,31.494705882352942,333.1102951034944
0.19538427734375,0.1332568359375,1.0952685546875005,1.120511315000638,1.50244140625,7.5830078125,0.93603515625,31.58882352941177,332.79679341761346
0.20319677734375,0.1493701171875,1.0000537109375005,1.031362102751191,1.66162109375,8.4990234375,1.07421875,31.494705882352942,332.79679341761346
0.24030615234375,0.1630419921875,0.8965380859375001,0.9423960301312831,1.52783203125,8.4541015625,0.8349609375,31.44764705882353,332.79679341761346
0.2905991210937499,0.1918505859375,0.8203662109375001,0.8912099733244534,1.3125,7.2734375,0.1787109375,31.494705882352942,332.79679341761346
0.3565170898437499,0.2270068359375,0.7383349609375001,0.850749700826037,1.1103515625,5.283203125,-0.66748046875,31.40058823529412,332.79679341761346
0.4102280273437499,0.2279833984375,0.7998583984375001,0.9273817563077564,0.9306640625,2.4482421875,-1.78369140625,31.494705882352942,332.79679341761346
0.4527084960937499,0.2104052734375,0.6328662109375001,0.8060614135859391,0.76806640625,-0.38134765625,-2.87548828125,31.541764705882358,332.79679341761346
0.4619858398437499,0.1635302734375,0.5942919921875001,0.7702960719910664,0.53857421875,-3.662109375,-3.79541015625,31.494705882352942,332.79679341761346
0.4849350585937499,0.1103076171875,0.6055224609375001,0.7835733738219504,0.28173828125,-7.47412109375,-4.71240234375,31.494705882352942,332.79679341761346
0.51130224609375,0.0619677734375,0.6514208984375001,0.8304331271851062,0.1591796875,-10.42431640625,-5.142578125,31.541764705882358,332.9374036764716
0.53181005859375,0.0282763671875,0.7090380859375001,0.8867674433991833,0.1376953125,-13.220703125,-5.22119140625,31.58882352941177,332.9374036764716
0.54401708984375,0.0038623046875,0.7920458984375001,0.9608882435909124,0.1689453125,-15.58154296875,-4.77587890625,31.58882352941177,332.9374036764716
0.55768896484375,-0.0015087890625,0.8760302734375001,1.0384836531847337,0.26220703125,16.0,-3.78466796875,31.44764705882353,332.9374036764716
0.55964208984375,0.0087451171875,0.9556201171875,1.107468082688054,0.62890625,16.0,-2.33935546875,31.44764705882353,332.9374036764716
0.4585678710937499,0.0375537109375,1.0376513671875005,1.1350837561302338,1.19775390625,16.0,-0.35302734375,31.494705882352942,332.9374036764716
0.61384130859375,0.0785693359375,1.1021044921875005,1.263965428477225,1.6162109375,-15.20703125,1.650390625,31.44764705882353,332.9374036764716
0.65583349609375,0.1347216796875,1.1509326171875005,1.3315079402250822,1.9365234375,-12.65478515625,3.47509765625,31.541764705882358,332.9374036764716
0.73054052734375,0.2040576171875,1.1851123046875005,1.4070608188509988,2.04443359375,-9.4658203125,4.314453125,31.635882352941177,333.36963754204635
0.78083349609375,0.2489794921875,1.1914599609375005,1.446121908647097,1.998046875,-5.93310546875,4.25390625,31.58882352941177,333.36963754204635
0.80280615234375,0.2880419921875,1.1768115234375005,1.453393019523491,1.4521484375,-1.91748046875,3.71533203125,31.44764705882353,333.36963754204635
0.76569677734375,0.3222216796875,1.1523974609375005,1.4206119363395606,0.94140625,1.97314453125,2.779296875,31.494705882352942,333.36963754204635
0.69098974609375,0.3388232421875,1.1314013671875005,1.3683336845692644,0.544921875,5.27294921875,2.1611328125,31.44764705882353,333.36963754204635
0.62311865234375,0.3515185546875,1.0972216796875005,1.309861658177893,0.3798828125,8.00439453125,1.728515625,31.494705882352942,333.36963754204635
0.55573583984375,0.3524951171875,1.0269091796875005,1.2196874987693866,0.38671875,9.99609375,1.5126953125,31.494705882352942,333.36963754204635
0.51569677734375,0.3476123046875,0.9541552734375,1.1389423893953,0.4970703125,11.0712890625,1.4423828125,31.494705882352942,333.36963754204635
0.4961655273437499,0.3466357421875,0.8945849609375001,1.0801013010925082,0.64453125,11.15576171875,1.4150390625,31.44764705882353,333.36963754204635
0.50788427734375,0.3246630859375,0.8325732421875001,1.0278768224597972,1.1689453125,10.22900390625,1.369140625,31.353529411764708,333.02329802416745
0.52595068359375,0.3031787109375,0.7822802734375001,0.99020395805506,1.56689453125,8.40869140625,1.35791015625,31.541764705882358,333.02329802416745
0.54548193359375,0.2772998046875,0.7412646484375001,0.9612070539587568,1.89111328125,5.7548828125,1.1181640625,31.541764705882358,333.02329802416745
0.54352880859375,0.2558154296875,0.7095263671875001,0.929673472554656,2.076171875,2.62451171875,0.7138671875,31.541764705882358,333.02329802416745
0.52936865234375,0.2362841796875,0.6978076171875001,0.9071917406258334,2.107421875,-0.48193359375,0.49609375,31.494705882352942,333.02329802416745
0.51032568359375,0.2226123046875,0.7173388671875001,0.9080548397049346,1.9697265625,-3.42333984375,0.12060546875,31.494705882352942,333.02329802416745
0.50153662109375,0.2167529296875,0.7681201171875001,0.9426183370030464,1.7197265625,-5.76123046875,-0.4638671875,31.494705882352942,333.02329802416745
0.4942124023437499,0.2157763671875,0.8320849609375001,0.9915496565908216,1.431640625,-7.25146484375,-0.75439453125,31.541764705882358,333.02329802416745
0.4863999023437499,0.2279833984375,0.8960498046875001,1.0447327636499335,1.24072265625,-7.51220703125,-1.11279296875,31.494705882352942,333.01290552101017
0.50934912109375,0.2314013671875,0.9307177734375,1.0859183641911936,0.8408203125,-6.53515625,-1.1357421875,31.541764705882358,333.01290552101017
0.51618505859375,0.2406787109375,0.9492724609375,1.107019178563907,0.52392578125,-4.9306640625,-0.94775390625,31.494705882352942,333.01290552101017
0.53815771484375,0.2455615234375,0.9746630859375,1.1401238173672206,0.27490234375,-2.73779296875,-0.7080078125,31.494705882352942,333.01290552101017
0.56013037109375,0.2558154296875,0.9854052734375,1.1619858517237878,0.15185546875,-0.744140625,-0.62060546875,31.494705882352942,333.01290552101017
0.4654038085937499,0.2533740234375,0.9790576171875,1.1132622865162278,0.1201171875,1.02099609375,-0.8037109375,31.494705882352942,333.01290552101017
0.59186865234375,0.2558154296875,0.9375537109375,1.1378738930945222,0.056640625,2.19287109375,-1.19189453125,31.58882352941177,333.01290552101017
0.59772802734375,0.2343310546875,0.8911669921875001,1.098348053136037,-0.05908203125,2.58837890625,-1.6865234375,31.44764705882353,333.01290552101017
0.60847021484375,0.2235888671875,0.8574755859375001,1.0749383072349072,-0.10400390625,2.28271484375,-2.1689453125,31.541764705882358,333.04518497507
0.60602880859375,0.2011279296875,0.8447802734375001,1.0589509296162298,-0.09716796875,1.43359375,-2.3837890625,31.58882352941177,333.04518497507
0.60651708984375,0.1752490234375,0.8359912109375001,1.0475955828720722,-0.06201171875,0.23291015625,-2.63037109375,31.44764705882353,333.04518497507
0.60456396484375,0.1483935546875,0.8359912109375001,1.0423049167230931,-0.0068359375,-1.35302734375,-2.94775390625,31.494705882352942,333.04518497507
0.60212255859375,0.1352099609375,0.8428271484375001,1.0446008382379808,0.00830078125,-2.81982421875,-3.1044921875,31.494705882352942,333.04518497507
0.61970068359375,0.1239794921875,0.8735888671875001,1.078219532657228,-0.02001953125,-4.0185546875,-3.3037109375,31.58882352941177,333.04518497507
0.63044287109375,0.1093310546875,0.8916552734375001,1.0974792115939669,-0.0712890625,-4.63916015625,-3.48974609375,31.40058823529412,333.04518497507
0.64753271484375,0.1059130859375,0.9160693359375,1.1268093125328231,-0.19921875,-4.94287109375,-3.6337890625,31.40058823529412,333.04518497507
0.66022802734375,0.0897998046875,0.9282763671875,1.1426557079413533,-0.30322265625,-4.66552734375,-3.640625,31.541764705882358,333.04518497507
0.67097021484375,0.0844287109375,0.9517138671875,1.167513820661247,-0.4169921875,-4.1220703125,-3.4443359375,31.44764705882353,333.3805810285337
0.66950537109375,0.0707568359375,0.9585498046875,1.1713503744916425,-0.376953125,-3.22900390625,-3.068359375,31.541764705882358,333.3805810285337
0.63630224609375,0.0653857421875,0.9741748046875,1.165406535829146,-0.63671875,-1.75732421875,-2.57421875,31.58882352941177,333.3805810285337
0.59675146484375,0.0648974609375,0.9883349609375,1.1563433686585596,-0.71337890625,-0.279296875,-1.875,31.494705882352942,333.3805810285337
0.56940771484375,0.0648974609375,1.0098193359375005,1.161108055864298,-0.716796875,0.88330078125,-1.1396484375,31.494705882352942,333.3805810285337
0.55231787109375,0.0756396484375,0.9976123046875,1.1428065005105572,-0.75390625,2.12646484375,-0.70654296875,31.494705882352942,333.3805810285337
0.54108740234375,0.0839404296875,0.9897998046875,1.1311610080225725,-0.78857421875,3.0107421875,-0.52197265625,31.494705882352942,333.3805810285337
0.53669287109375,0.0878466796875,0.9707568359375,1.1127107043317042,-0.86083984375,3.85400390625,-0.55810546875,31.58882352941177,333.3805810285337
0.52595068359375,0.1127490234375,0.9439013671875,1.0864098005988692,-0.94384765625,4.36474609375,-0.71337890625,31.44764705882353,333.3805810285337
0.53620458984375,0.1430224609375,0.9297412109375,1.0827693687104616,-0.9853515625,4.701171875,-0.8623046875,31.494705882352942,333.33680716640646
0.52155615234375,0.1562060546875,0.9165576171875,1.066067079124517,-0.9716796875,4.806640625,-0.9716796875,31.494705882352942,333.33680716640646
0.52350927734375,0.1781787109375,0.8936083984375001,1.050878483105615,-0.97607421875,4.5322265625,-0.95068359375,31.494705882352942,333.33680716640646
0.52399755859375,0.1903857421875,0.8706591796875001,1.0338605222246404,-0.96533203125,4.0625,-0.83056640625,31.44764705882353,333.33680716640646
0.51764990234375,0.1923388671875,0.8711474609375001,1.0314327704340782,-0.8955078125,3.57958984375,-0.62841796875,31.44764705882353,333.33680716640646
0.51716162109375,0.1835498046875,0.8750537109375001,1.0328918966468006,-0.87451171875,2.7978515625,-0.48486328125,31.541764705882358,333.33680716640646
0.50690771484375,0.1820849609375,0.8726123046875001,1.0254572632049344,-0.56298828125,2.150390625,-0.05810546875,31.541764705882358,333.33680716640646
0.4859116210937499,0.1610888671875,0.8853076171875001,1.0226579602662451,-0.4912109375,1.87255859375,0.2060546875,31.541764705882358,333.33680716640646
0.4551499023437499,0.1381396484375,0.8965380859375001,1.0149012442648977,-0.17529296875,1.53515625,0.365234375,31.635882352941177,333.2498093086448
0.4341538085937499,0.1073779296875,0.9082568359375,1.0123981575090064,-0.0595703125,1.40966796875,0.4208984375,31.494705882352942,333.2498093086448
0.4409897460937499,0.0697802734375,0.9253466796875,1.02742772024582,0.02978515625,1.203125,0.3115234375,31.494705882352942,333.2498093086448
0.4673569335937499,0.0253466796875,0.9385302734375,1.0487630960841454,0.13671875,0.78759765625,0.12451171875,31.494705882352942,333.2498093086448
0.51911474609375,-0.0249462890625,0.9390185546875,1.0732466086586856,0.1982421875,0.0126953125,-0.49755859375,31.44764705882353,333.2498093086448
0.60847021484375,-0.0542431640625,0.9565966796875,1.1350134496069464,0.224609375,-1.15185546875,-0.90087890625,31.541764705882358,333.2498093086448
0.69343115234375,-0.0630322265625,0.9629443359375,1.1883104050458873,0.09619140625,-2.31640625,-1.4638671875,31.44764705882353,333.2498093086448
0.82917333984375,-0.0117626953125,0.9512255859375,1.26194171967282,-0.2431640625,-2.4482421875,-1.62744140625,31.494705882352942,333.2498093086448
0.64606787109375,0.0727099609375,0.9897998046875,1.1842272103944227,-0.7138671875,-1.55615234375,-1.50048828125,31.494705882352942,333.0988010436531
0.57575537109375,0.1264208984375,1.0317919921875005,1.1883060237360143,-1.0732421875,-0.29345703125,-1.4189453125,31.58882352941177,333.0988010436531
0.53034521484375,0.1772021484375,1.0742724609375005,1.211085450596795,-1.224609375,0.9990234375,-1.5322265625,31.40058823529412,333.0988010436531
0.4839584960937499,0.2006396484375,1.1094287109375005,1.22690837437801,-1.0537109375,2.1484375,-1.765625,31.58882352941177,333.0988010436531
0.4512436523437499,0.1986865234375,1.0981982421875005,1.2038008753610054,-0.70361328125,3.21435546875,-1.943359375,31.541764705882358,333.0988010436531
0.4322006835937499,0.1869677734375,1.0649951171875005,1.1644608103479903,-0.33349609375,3.63134765625,-2.0703125,31.494705882352942,333.0988010436531
0.4346420898437499,0.1518115234375,1.0205615234375005,1.1196009592855969,-0.12353515625,4.02880859375,-2.28076171875,31.58882352941177,333.0988010436531
0.4551499023437499,0.1151904296875,0.9790576171875,1.085810336323974,0.24853515625,4.07177734375,-2.6884765625,31.494705882352942,333.0988010436531
0.4898178710937499,0.0751513671875,0.9351123046875,1.0583025546652205,0.3681640625,3.8310546875,-3.14013671875,31.58882352941177,333.22847207913514
0.51374365234375,0.0395068359375,0.8945849609375001,1.0323640747066107,0.353515625,3.38671875,-3.78955078125,31.541764705882358,333.22847207913514
0.51618505859375,0.1376513671875,0.8691943359375001,1.0202419846437671,0.25537109375,2.87158203125,-4.2119140625,31.494705882352942,333.22847207913514
0.53034521484375,-0.0142041015625,0.8853076171875001,1.0321033768276655,0.044921875,1.78369140625,-4.55322265625,31.494705882352942,333.22847207913514
0.53376318359375,-0.0527783203125,0.8945849609375001,1.0430584545415913,-0.21630859375,0.7470703125,-4.80322265625,31.541764705882358,333.22847207913514
0.54499365234375,-0.0879345703125,0.9375537109375,1.0880062181089325,-0.4599609375,-0.416015625,-5.03173828125,31.541764705882358,333.22847207913514
0.54889990234375,0.0121630859375,0.9912646484375,1.1331569382457232,-0.7236328125,-1.49072265625,-5.20361328125,31.541764705882358,333.22847207913514
0.51960302734375,-0.1304150390625,1.0415576171875005,1.171254736750194,-0.9052734375,-1.73583984375,-5.224609375,31.541764705882358,333.22847207913514
0.4790756835937499,-0.1504345703125,1.0742724609375005,1.1858353135594497,-0.99658203125,-1.1640625,-4.9267578125,31.494705882352942,333.22847207913514
0.4268295898437499,-0.1543408203125,1.0859912109375005,1.1770223013241583,-0.98828125,-0.2158203125,-4.31689453125,31.541764705882358,333.26075270275555
0.4058334960937499,-0.1670361328125,1.1016162109375005,1.1858162473237268,-0.96923828125,0.88818359375,-3.72265625,31.44764705882353,333.26075270275555
0.4024155273437499,-0.1523876953125,1.0806201171875005,1.1631423403867347,-0.908203125,2.099609375,-2.82958984375,31.58882352941177,333.26075270275555
0.4019272460937499,-0.1221142578125,1.0532763671875005,1.1339526042958328,-0.8466796875,2.90869140625,-2.3701171875,31.541764705882358,333.26075270275555
0.3950913085937499,-0.0845166015625,1.0371630859375005,1.1130801700225346,-0.82373046875,3.65478515625,-1.95703125,31.494705882352942,333.26075270275555
0.3794663085937499,-0.0527783203125,1.0083544921875005,1.0786839260726413,-0.73583984375,4.4833984375,-1.98291015625,31.541764705882358,333.26075270275555
0.3740952148437499,-0.0312939453125,0.9688037109375,1.0389933450742042,-0.70947265625,4.89892578125,-2.3232421875,31.494705882352942,333.26075270275555
0.3633530273437499,-0.0259228515625,0.9277880859375,0.9967387567063746,-0.69091796875,5.27001953125,-2.75048828125,31.541764705882358,333.26075270275555
0.3462631835937499,-0.0176220703125,0.8682177734375001,0.934885464528863,-0.66943359375,5.552734375,-3.45068359375,31.58882352941177,333.26075270275555
0.4571030273437499,-0.0176220703125,0.8403857421875001,0.956818640412568,-0.59521484375,5.09228515625,-3.91796875,31.58882352941177,333.206585266126
0.3277084960937499,-0.0215283203125,0.8032763671875001,0.8678186729204738,-0.62109375,4.2763671875,-4.13330078125,31.494705882352942,333.206585266126
0.21003271484375,-0.0371533203125,0.7852099609375001,0.8136638085046856,-0.39013671875,3.02001953125,-4.57275390625,31.541764705882358,333.206585266126
0.3340561523437499,-0.0513134765625,0.7485888671875001,0.8213475986893158,-0.2978515625,1.40625,-4.83203125,31.541764705882358,333.206585266126
0.3360092773437499,-0.0605908203125,0.7466357421875001,0.8209984247725995,-0.20556640625,-0.2060546875,-5.10498046875,31.494705882352942,333.206585266126
0.3506577148437499,-0.0669384765625,0.7690966796875001,0.8479099570887737,-0.10400390625,-1.9052734375,-5.3544921875,31.58882352941177,333.206585266126
0.3511459960937499,-0.0630322265625,0.7881396484375001,0.8651246601486311,-0.0380859375,-3.56787109375,-5.59033203125,31.58882352941177,333.206585266126
0.3565170898437499,-0.0635205078125,0.8442919921875001,0.9186774506513982,-0.0244140625,-4.94091796875,-5.7041015625,31.541764705882358,333.1414746322547
0.3667709960937499,-0.0513134765625,0.8857958984375001,0.9600981252670112,-0.1240234375,-6.0498046875,-5.76513671875,31.494705882352942,333.1414746322547
0.4019272460937499,-0.0415478515625,0.9673388671875,1.048339744116172,0.0,-6.53857421875,-5.79052734375,31.541764705882358,333.1414746322547
0.4322006835937499,-0.0283642578125,1.0151904296875005,1.1037271268521265,0.11962890625,-6.78271484375,-5.7861328125,31.541764705882358,333.1414746322547
0.4927475585937499,-0.0425244140625,1.0640185546875005,1.1733473343433891,-0.03857421875,-6.47509765625,-5.84375,31.40058823529412,333.1414746322547
0.55817724609375,-0.0581494140625,1.0942919921875005,1.229804113092123,-0.15576171875,-5.4716796875,-5.85693359375,31.494705882352942,333.1414746322547
0.61139990234375,-0.0810986328125,1.1021044921875005,1.2629414636197007,-0.279296875,-4.0849609375,-5.720703125,31.541764705882358,333.1414746322547
0.64069677734375,-0.1186962890625,1.0947802734375005,1.2740192371560812,-0.41357421875,-2.18310546875,-5.4560546875,31.494705882352942,333.2372198544183
0.65876318359375,-0.1509228515625,1.0864794921875005,1.2795250392729085,-0.466796875,-0.576171875,-5.11181640625,31.494705882352942,333.2372198544183
0.60749365234375,-0.1670361328125,1.0591357421875005,1.232362823068747,-0.5732421875,1.05419921875,-4.00146484375,31.541764705882358,333.2372198544183
0.52253271484375,-0.1660595703125,1.0283740234375005,1.1654052304050226,-0.59814453125,2.56103515625,-3.0146484375,31.58882352941177,333.2372198544183
0.4668686523437499,-0.1494580078125,1.0078662109375005,1.1207579282744622,-0.5703125,3.447265625,-2.263671875,31.541764705882358,333.2372198544183
0.4492905273437499,-0.1123486328125,0.9736865234375,1.078215952014933,-0.58642578125,3.39697265625,-1.98388671875,31.58882352941177,333.2372198544183
0.4722397460937499,-0.0771923828125,0.9673388671875,1.07921894244243,-0.6455078125,2.84765625,-2.166015625,31.635882352941177,333.2372198544183
0.4966538085937499,-0.0376416015625,0.9439013671875,1.067254274639975,-0.68798828125,1.859375,-2.51953125,31.494705882352942,333.2372198544183
0.52399755859375,0.0248583984375,1.0513232421875005,1.1749348666835644,-0.75732421875,0.57470703125,-3.19140625,31.494705882352942,333.20548692099294
0.50593115234375,0.0546435546875,0.8076708984375001,0.9546122402125372,-0.86279296875,-0.27099609375,-3.4228515625,31.494705882352942,333.20548692099294
0.4663803710937499,0.0751513671875,0.9336474609375,1.0463536495118346,-0.61474609375,-1.05517578125,-3.49853515625,31.541764705882358,333.20548692099294
0.4483139648437499,0.1034716796875,0.9600146484375,1.0645749972575218,-0.33544921875,-1.39111328125,-3.19677734375,31.541764705882358,333.20548692099294
0.4492905273437499,0.1186083984375,0.9653857421875,1.0714007473208351,-0.06884765625,-1.767578125,-3.072265625,31.58882352941177,333.20548692099294
0.4600327148437499,0.1278857421875,0.9717333984375,1.0827052504815204,0.09521484375,-2.29150390625,-3.03125,31.58882352941177,333.20548692099294
0.4888413085937499,0.1195849609375,0.9756396484375,1.0977882817161613,0.14404296875,-2.7421875,-3.4306640625,31.44764705882353,333.20548692099294
0.4878647460937499,0.1171435546875,0.9766162109375,1.0979589456586534,0.03173828125,-3.21142578125,-3.94580078125,31.541764705882358,333.20548692099294
0.50300146484375,0.1142138671875,0.9907763671875,1.1170018311847756,-0.23974609375,-3.69140625,-4.625,31.494705882352942,333.20548692099294
0.50690771484375,0.1181201171875,0.9839404296875,1.1131246842228069,-0.623046875,-3.93603515625,-5.3154296875,31.494705882352942,333.03314067489083
0.50934912109375,0.1117724609375,0.9751513671875,1.1058253926866806,-0.93896484375,-3.857421875,-5.64599609375,31.541764705882358,333.03314067489083
0.51227880859375,0.1044482421875,0.9683154296875,1.1004425402542282,-1.09130859375,-3.4453125,-6.123046875,31.58882352941177,333.03314067489083
0.50641943359375,0.0814990234375,0.9458544921875,1.0759848762570756,-1.10107421875,-3.02099609375,-5.97900390625,31.44764705882353,333.03314067489083
0.50788427734375,0.0609912109375,0.8062060546875001,0.9547955642960384,-1.0390625,-2.5634765625,-5.39697265625,31.541764705882358,333.03314067489083
0.51130224609375,0.0453662109375,0.9102099609375,1.0449738049086132,-0.81298828125,-2.16455078125,-4.9892578125,31.44764705882353,333.03314067489083
0.51520849609375,0.0551318359375,0.8950732421875001,1.0342318031568485,-0.564453125,-2.0244140625,-4.31103515625,31.58882352941177,333.03314067489083
0.53669287109375,0.0727099609375,0.8540576171875001,1.0113062789177054,-0.37646484375,-2.13525390625,-3.82666015625,31.58882352941177,333.03314067489083
0.56159521484375,0.1088427734375,0.8726123046875001,1.0434022086218695,-0.30810546875,-2.671875,-3.66943359375,31.58882352941177,333.28154121655183
0.57282568359375,0.1503466796875,0.8765185546875001,1.0578365490893036,-0.35546875,-2.97119140625,-3.6826171875,31.541764705882358,333.28154121655183
0.56891943359375,0.1781787109375,0.8647998046875001,1.050378825538444,-0.5439453125,-2.92724609375,-3.7919921875,31.494705882352942,333.28154121655183
0.55329443359375,0.2167529296875,0.8691943359375001,1.0529080474570296,-0.7265625,-2.671875,-3.89453125,31.494705882352942,333.28154121655183
0.56940771484375,0.2577685546875,0.8994677734375001,1.095313676058999,-0.8564453125,-2.54345703125,-3.98095703125,31.58882352941177,333.28154121655183
0.57136083984375,0.2748583984375,0.9248583984375,1.1213221685398718,-0.99853515625,-2.59130859375,-4.03173828125,31.44764705882353,333.28154121655183
0.56159521484375,0.2831591796875,0.9517138671875,1.1407574638693725,-0.7646484375,-2.69580078125,-4.02685546875,31.44764705882353,333.28154121655183
0.54792333984375,0.2782763671875,0.9785693359375,1.1555326339475496,-0.63818359375,-2.8310546875,-4.0810546875,31.40058823529412,333.28154121655183
0.54743505859375,0.2567919921875,1.0117724609375005,1.1786902830432997,-0.55810546875,-2.76416015625,-4.291015625,31.541764705882358,332.8279690390838
0.55475927734375,0.2440966796875,1.0259326171875005,1.1915866648475957,-0.4921875,-2.408203125,-4.52001953125,31.494705882352942,332.8279690390838
0.55524755859375,0.2108935546875,1.0273974609375005,1.1867272161174496,-0.47119140625,-1.8369140625,-4.9951171875,31.541764705882358,332.8279690390838
0.55231787109375,0.1981982421875,1.0259326171875005,1.1818947960562909,-0.4765625,-0.63232421875,-5.23193359375,31.44764705882353,332.8279690390838
0.55622412109375,0.1679248046875,1.0205615234375005,1.1743635876664948,-0.43115234375,0.2607421875,-5.22607421875,31.58882352941177,332.8279690390838
0.54450537109375,0.1464404296875,1.0171435546875005,1.162975455217919,-0.49755859375,1.21826171875,-4.9326171875,31.494705882352942,332.8279690390838
0.54304052734375,0.1444873046875,0.9878466796875,1.1364905006744468,-0.3486328125,1.796875,-4.42041015625,31.58882352941177,332.8279690390838
0.52936865234375,0.1493701171875,0.9771044921875,1.121283100133877,-0.32666015625,2.2275390625,-3.80224609375,31.44764705882353,332.8279690390838
0.51179052734375,0.1669482421875,0.9565966796875,1.097669561861601,-0.2685546875,2.5009765625,-3.177734375,31.541764705882358,332.8279690390838
0.4971420898437499,0.1869677734375,0.9424365234375,1.0818011862201615,-0.19921875,2.97705078125,-2.681640625,31.635882352941177,332.8164749171875
0.4834702148437499,0.1967333984375,0.9463427734375,1.0807460957779165,-0.24462890625,3.1201171875,-2.40966796875,31.494705882352942,332.8164749171875
0.4893295898437499,0.2177294921875,0.9502490234375,1.0907899824479512,-0.02880859375,3.0419921875,-2.28857421875,31.635882352941177,332.8164749171875
0.4883530273437499,0.2314013671875,0.9219287109375,1.0686383018135417,0.05029296875,2.84716796875,-2.30810546875,31.58882352941177,332.8164749171875
0.4888413085937499,0.2377490234375,0.9224169921875,1.070674334524448,0.06640625,2.23876953125,-2.46728515625,31.494705882352942,332.8164749171875
0.4932358398437499,0.2362841796875,0.9160693359375,1.0669090099544274,0.0126953125,1.1494140625,-2.5009765625,31.494705882352942,332.8164749171875
0.4912827148437499,0.2367724609375,0.9214404296875,1.070734500063078,-0.08447265625,0.24365234375,-2.74853515625,31.541764705882358,332.8164749171875
0.50007177734375,0.2401904296875,0.8066943359375001,0.979039823828861,-0.1572265625,-0.521484375,-2.5263671875,31.541764705882358,332.8164749171875
0.4990952148437499,0.2309130859375,0.9390185546875,1.0881970100972111,-0.173828125,-0.80224609375,-2.49267578125,31.541764705882358,333.13053126923296
0.50202490234375,0.2294482421875,0.9429248046875,1.0926036269897448,-0.1767578125,-0.55517578125,-2.2470703125,31.58882352941177,333.13053126923296
0.4951889648437499,0.2255419921875,0.9565966796875,1.1005264688920846,-0.1201171875,-0.02978515625,-1.80126953125,31.541764705882358,333.13053126923296
0.4712631835937499,0.2138232421875,0.9595263671875,1.0901835700644786,-0.04833984375,0.69287109375,-1.421875,31.494705882352942,333.13053126923296
0.4600327148437499,0.2094287109375,0.9492724609375,1.0754574323448565,0.05029296875,1.33203125,-1.14697265625,31.541764705882358,333.13053126923296
0.4463608398437499,0.1947802734375,0.9487841796875,1.0664749288622248,0.11669921875,1.67041015625,-0.962890625,31.541764705882358,333.13053126923296
0.4414780273437499,0.1981982421875,0.9478076171875,1.0642014240885935,0.13427734375,1.72802734375,-0.8408203125,31.494705882352942,333.13053126923296
0.4385483398437499,0.2021044921875,0.9282763671875,1.0463593484175973,0.24462890625,1.640625,-0.78662109375,31.494705882352942,333.13053126923296
0.4409897460937499,0.2060107421875,0.9116748046875,1.033471495281058,0.01953125,1.55322265625,-0.80712890625,31.541764705882358,333.13053126923296
0.4414780273437499,0.2118701171875,0.9146044921875,1.0374455032983316,-0.11083984375,1.443359375,-0.87109375,31.541764705882358,332.9144145075653
0.4478256835937499,0.2143115234375,0.9170458984375,1.04280892391912,-0.19873046875,1.37353515625,-0.93408203125,31.44764705882353,332.9144145075653
0.4439194335937499,0.2211474609375,0.9165576171875,1.0421365211073483,-0.27392578125,0.97119140625,-0.93310546875,31.541764705882358,332.9144145075653
0.4502670898437499,0.2357958984375,0.9194873046875,1.0506174667298231,-0.29150390625,0.705078125,-0.8505859375,31.58882352941177,332.9144145075653
0.4556381835937499,0.2362841796875,0.9233935546875,1.0564525662601345,-0.2900390625,0.447265625,-0.73095703125,31.58882352941177,332.9144145075653
0.4751694335937499,0.2377490234375,0.9131396484375,1.0564727191536236,-0.2080078125,0.2509765625,-0.744140625,31.58882352941177,332.9144145075653
0.4834702148437499,0.2367724609375,0.9238818359375,1.0692812042090272,-0.10791015625,0.1044921875,-0.4833984375,31.494705882352942,332.9144145075653
0.4854233398437499,0.2318896484375,0.9233935546875,1.0686740778908903,0.0458984375,0.0498046875,-0.32421875,31.541764705882358,332.9144145075653
0.4947006835937499,0.2318896484375,0.9248583984375,1.074180912398358,0.17041015625,0.07421875,-0.1640625,31.541764705882358,333.0659707964176
0.4907944335937499,0.2191943359375,0.9312060546875,1.075206979720812,0.29638671875,0.09619140625,-0.02197265625,31.541764705882358,333.0659707964176
0.50348974609375,0.2045458984375,0.9365771484375,1.0828285662857589,0.3935546875,0.078125,0.0869140625,31.494705882352942,333.0659707964176
0.50641943359375,0.1874560546875,0.9399951171875,1.0840623762020152,0.49365234375,0.0166015625,0.16259765625,31.541764705882358,333.0659707964176
0.51325537109375,0.1781787109375,0.9556201171875,1.0992672729420192,0.5859375,-0.1484375,0.220703125,31.494705882352942,333.0659707964176
0.53229833984375,0.1620654296875,0.9590380859375,1.1087654289248334,0.666015625,-0.34716796875,0.26025390625,31.541764705882358,333.0659707964176
0.54743505859375,0.1444873046875,0.9780810546875,1.1301346265520815,0.7158203125,-0.45361328125,0.2265625,31.494705882352942,333.0659707964176
0.55720068359375,0.1347216796875,0.9883349609375,1.142553512001295,0.7666015625,-0.455078125,0.07958984375,31.541764705882358,333.0659707964176
0.58454443359375,0.1205615234375,0.9902880859375,1.1562429541098906,0.75146484375,-0.43994140625,-0.15771484375,31.541764705882358,333.0659707964176
0.58307958984375,0.0995654296875,1.0225146484375005,1.181283746248325,0.7294921875,-0.3583984375,-0.4814453125,31.494705882352942,332.9576375066995
0.57331396484375,0.0849169921875,1.0410693359375005,1.191522202930512,0.68115234375,-0.140625,-0.7470703125,31.541764705882358,332.9576375066995
0.54645849609375,0.0565966796875,1.0435107421875005,1.1792941707501992,0.56591796875,0.55712890625,-0.91162109375,31.44764705882353,332.9576375066995
0.51276708984375,0.0536669921875,1.0298388671875005,1.1516849946262715,0.490234375,1.51171875,-0.837890625,31.494705882352942,332.9576375066995
0.51569677734375,0.0370654296875,1.0205615234375005,1.1440554336926685,0.5478515625,2.3759765625,-0.64111328125,31.541764705882358,332.9576375066995
0.51960302734375,0.1381396484375,1.0088427734375005,1.1431682334688509,0.6865234375,2.8232421875,-0.49072265625,31.541764705882358,332.9576375066995
0.50641943359375,-0.0063916015625,0.9668505859375,1.0914676132710652,0.83642578125,2.7802734375,-0.00244140625,31.58882352941177,332.9576375066995
0.4741928710937499,-0.0215283203125,0.9507373046875,1.0626494107164712,0.94287109375,2.509765625,0.42822265625,31.541764705882358,332.9576375066995
0.4380600585937499,-0.0205517578125,0.9517138671875,1.0478923010888714,0.9677734375,2.2353515625,0.662109375,31.494705882352942,333.05447754220893
0.4263413085937499,-0.0181103515625,0.9375537109375,1.0300979842421911,0.93701171875,2.05029296875,0.6337890625,31.541764705882358,333.05447754220893
0.4219467773437499,-0.0107861328125,0.9219287109375,1.0139565925732252,0.85546875,2.06298828125,0.45068359375,31.541764705882358,333.05447754220893
0.4317124023437499,0.0067919921875,0.9082568359375,1.0056600864718088,0.7958984375,2.1142578125,0.21875,31.40058823529412,333.05447754220893
0.4307358398437499,0.1352099609375,0.8940966796875001,1.0016106877878417,0.80712890625,2.02685546875,0.07568359375,31.494705882352942,333.05447754220893
0.4405014648437499,0.0194873046875,0.8916552734375001,0.9947212786617043,0.8076171875,1.75390625,0.07666015625,31.40058823529412,333.05447754220893
0.4326889648437499,0.0150927734375,0.8960498046875001,0.9951647022418444,0.826171875,1.32470703125,0.224609375,31.44764705882353,333.05447754220893
0.4370834960937499,0.0170458984375,0.8857958984375001,0.9879103799939418,0.8544921875,0.99560546875,0.4326171875,31.541764705882358,333.05447754220893
0.4287827148437499,0.0150927734375,0.8862841796875001,0.9846735781583444,0.75732421875,0.455078125,0.609375,31.541764705882358,332.9570873051196
0.4331772460937499,0.0307177734375,0.8848193359375001,0.985642615448014,0.916015625,0.17236328125,0.666015625,31.541764705882358,332.9570873051196
0.4492905273437499,0.0277880859375,0.9028857421875,1.0088789913197556,0.888671875,-0.04736328125,0.533203125,31.40058823529412,332.9570873051196
0.4600327148437499,0.0321826171875,0.9033740234375,1.014273358516926,0.86376953125,-0.1728515625,0.37109375,31.40058823529412,332.9570873051196
0.4654038085937499,0.0390185546875,0.9238818359375,1.035220169547867,0.7734375,-0.20556640625,-0.02099609375,31.44764705882353,332.9570873051196
0.4624741210937499,0.0326708984375,0.8057177734375001,0.9295863761476028,0.64501953125,-0.0888671875,-0.39208984375,31.44764705882353,332.9570873051196
0.4346420898437499,0.0214404296875,0.9453662109375,1.040716441241923,0.55615234375,0.01806640625,-0.69287109375,31.58882352941177,332.9570873051196
0.4258530273437499,0.0155810546875,0.9497607421875,1.0409798449362804,0.51171875,0.4296875,-0.65771484375,31.58882352941177,332.9570873051196
0.4087631835937499,0.0072802734375,0.9439013671875,1.0286350828264872,0.453125,0.63623046875,-0.564453125,31.44764705882353,333.12998186058445
0.4136459960937499,-0.0034619140625,0.9390185546875,1.0260949473517391,0.46484375,0.8935546875,-0.43896484375,31.541764705882358,333.12998186058445
0.4165756835937499,-0.0098095703125,0.9346240234375,1.0233052296445164,0.4912109375,0.71484375,-0.31591796875,31.494705882352942,333.12998186058445
0.4326889648437499,-0.0146923828125,1.0444873046875005,1.1306588062115044,0.61669921875,0.37060546875,-0.26025390625,31.494705882352942,333.12998186058445
0.4444077148437499,-0.0229931640625,0.9287646484375,1.029869251309836,0.4951171875,-0.3251953125,-0.3212890625,31.494705882352942,333.12998186058445
0.4551499023437499,-0.0273876953125,0.9238818359375,1.030276257240407,0.47607421875,-0.76513671875,-0.43603515625,31.58882352941177,333.12998186058445
0.4654038085937499,-0.0332470703125,0.9473193359375,1.055992422784841,0.4697265625,-1.32958984375,-0.5478515625,31.541764705882358,333.12998186058445
0.4761459960937499,-0.0200634765625,0.9531787109375,1.0656768777037238,0.45654296875,-1.7197265625,-0.64208984375,31.541764705882358,333.12998186058445
0.4849350585937499,-0.0093212890625,0.9727099609375,1.0869285006798484,0.4609375,-1.93212890625,-0.63427734375,31.541764705882358,333.12998186058445
0.4981186523437499,-0.0063916015625,1.0039599609375005,1.1207580682506435,0.42041015625,-1.96923828125,-0.83837890625,31.58882352941177,332.8815844211809
0.4976303710937499,-0.0024853515625,1.0200732421875005,1.134985278598014,0.40380859375,-1.8564453125,-0.751953125,31.541764705882358,332.8815844211809
0.50348974609375,0.0009326171875,1.0356982421875005,1.1515961284524383,0.388671875,-1.537109375,-0.86474609375,31.541764705882358,332.8815844211809
0.50690771484375,0.0053271484375,1.0610888671875005,1.175964877854709,0.40576171875,-1.14453125,-0.77734375,31.541764705882358,332.8815844211809
0.50300146484375,0.0116748046875,1.0684130859375005,1.1809544008563335,0.4521484375,-0.7080078125,-0.591796875,31.541764705882358,332.8815844211809
0.50690771484375,0.0111865234375,1.0835498046875005,1.196311309364352,0.5078125,-0.26806640625,-0.49072265625,31.58882352941177,332.8815844211809
0.50300146484375,0.0326708984375,1.0732958984375005,1.1857663964046343,0.5693359375,0.0947265625,-0.17431640625,31.44764705882353,332.8815844211809
0.51032568359375,0.0482958984375,1.0723193359375005,1.1885426182374594,0.50341796875,0.4169921875,-0.0224609375,31.44764705882353,332.8815844211809
0.50544287109375,0.0507373046875,1.0522998046875005,1.16849546382166,0.68408203125,0.71240234375,0.0654296875,31.494705882352942,333.1628118077227
0.4995834960937499,0.0683154296875,1.0298388671875005,1.1466554669440492,0.7080078125,0.83642578125,0.11279296875,31.40058823529412,333.1628118077227
0.4932358398437499,0.0727099609375,1.0122607421875005,1.1283794318844576,0.73779296875,0.8662109375,0.12548828125,31.541764705882358,333.1628118077227
0.4790756835937499,0.0805224609375,0.9946826171875,1.10697375138764,0.7568359375,0.7958984375,0.10888671875,31.44764705882353,333.1628118077227
0.4644272460937499,0.0902880859375,0.9839404296875,1.091779911223001,0.79638671875,0.67919921875,0.0537109375,31.541764705882358,333.1628118077227
0.57819677734375,0.0795458984375,0.9561083984375,1.1201706713048902,0.8095703125,0.48046875,-0.01953125,31.494705882352942,333.1628118077227
0.4483139648437499,0.0844287109375,0.9429248046875,1.0474830812950875,0.81591796875,0.28564453125,-0.1240234375,31.494705882352942,333.1628118077227
0.4502670898437499,0.0644091796875,0.9268115234375,1.0324091217152802,0.822265625,0.083984375,-0.24072265625,31.58882352941177,333.1628118077227
0.4326889648437499,0.0575732421875,0.9111865234375,1.0103441487966631,0.79443359375,-0.16162109375,-0.2861328125,31.541764705882358,333.1628118077227
0.4273178710937499,0.0424365234375,0.9131396484375,1.0090715727965571,0.77490234375,-0.45947265625,-0.29833984375,31.494705882352942,332.90347113146845
0.4341538085937499,0.0321826171875,1.0474169921875005,1.1342872677979796,0.78369140625,-0.7373046875,-0.32470703125,31.494705882352942,332.90347113146845
0.4287827148437499,0.0321826171875,0.8032763671875001,0.9111219783759807,0.78173828125,-0.85107421875,-0.3154296875,31.44764705882353,332.90347113146845
0.4180405273437499,0.0341357421875,0.9365771484375,1.0262065515147771,0.74755859375,-0.669921875,-0.27490234375,31.494705882352942,332.90347113146845
0.4092514648437499,0.0434130859375,0.9370654296875,1.023456436309231,0.72314453125,-0.25341796875,-0.228515625,31.44764705882353,332.90347113146845
0.4273178710937499,0.0492724609375,0.9600146484375,1.0519774064006835,0.73486328125,-0.11328125,-0.2216796875,31.44764705882353,332.90347113146845
0.4585678710937499,0.0585498046875,0.9722216796875,1.0765349815416043,0.7314453125,0.07568359375,-0.2294921875,31.58882352941177,332.90347113146845
0.4756577148437499,0.0639208984375,0.9785693359375,1.089923891005512,0.712890625,0.04833984375,-0.19091796875,31.494705882352942,332.90347113146845
0.4571030273437499,0.0771044921875,0.9907763671875,1.0938583501073496,0.6328125,0.04248046875,-0.1494140625,31.494705882352942,332.90347113146845
0.4580795898437499,0.0927294921875,1.0171435546875005,1.1193822761662318,0.6044921875,0.02099609375,-0.14697265625,31.494705882352942,332.7623089271352
0.4673569335937499,0.1054248046875,1.0459521484375005,1.1504576435673644,0.6376953125,-0.1220703125,-0.22802734375,31.58882352941177,332.7623089271352
0.4624741210937499,0.1054248046875,1.0659716796875005,1.1667443267574198,0.716796875,0.11669921875,-0.37109375,31.635882352941177,332.7623089271352
0.4541733398437499,0.0868701171875,1.0703662109375005,1.165977557846504,0.822265625,0.39013671875,-0.46337890625,31.494705882352942,332.7623089271352
0.4546616210937499,0.0697802734375,1.0649951171875005,1.1600866674045631,0.955078125,0.50439453125,-0.42578125,31.541764705882358,332.7623089271352
0.4492905273437499,0.0439013671875,1.0718310546875005,1.1630181072512482,1.00146484375,0.68310546875,-0.23095703125,31.494705882352942,332.7623089271352
0.4458725585937499,0.0067919921875,1.0645068359375005,1.1541331263864147,1.30224609375,0.4501953125,0.033203125,31.44764705882353,332.7623089271352
0.4370834960937499,-0.0142041015625,1.0459521484375005,1.1336929195685028,1.4951171875,0.15478515625,0.36328125,31.541764705882358,332.7623089271352
0.4370834960937499,-0.0166455078125,1.0293505859375005,1.118428220431578,1.55419921875,-0.048828125,0.64501953125,31.541764705882358,332.7623089271352
0.4419663085937499,-0.0083447265625,1.0210498046875005,1.1126304669771412,1.5126953125,-0.2060546875,0.712890625,31.494705882352942,333.01125399705484
0.4507553710937499,0.0111865234375,1.0151904296875005,1.1108182350886997,1.38330078125,-0.23876953125,0.6435546875,31.494705882352942,333.01125399705484
0.4468491210937499,0.0346240234375,1.0034716796875005,1.099012453048695,1.21826171875,0.16650390625,0.548828125,31.494705882352942,333.01125399705484
0.4468491210937499,0.0409716796875,1.0010302734375005,1.0970024721471818,1.01123046875,0.57080078125,0.45751953125,31.541764705882358,333.01125399705484
0.4448959960937499,0.0551318359375,1.0034716796875005,1.099057495588353,0.8544921875,0.8779296875,0.3779296875,31.44764705882353,333.01125399705484
0.4419663085937499,0.0634326171875,0.9883349609375,1.0845109081362767,0.69384765625,1.4697265625,0.68115234375,31.494705882352942,333.01125399705484
0.4488022460937499,0.0692919921875,0.9907763671875,1.0898911166063183,0.6171875,1.85009765625,0.86328125,31.494705882352942,333.01125399705484
0.57966162109375,0.0854052734375,0.9854052734375,1.1464402333390096,0.57421875,2.240234375,1.01708984375,31.40058823529412,333.01125399705484
0.4395249023437499,0.1059130859375,0.9927294921875,1.0908306771501886,0.6533203125,2.84130859375,1.1923828125,31.494705882352942,333.01125399705484
0.4229233398437499,0.1259326171875,0.9834521484375,1.0779152581361022,0.76220703125,3.37451171875,1.29931640625,31.494705882352942,333.2705979170657
0.4077866210937499,0.1264208984375,0.9751513671875,1.0645150824823728,0.8486328125,3.6708984375,1.330078125,31.541764705882358,333.2705979170657
0.3955795898437499,0.1273974609375,0.9907763671875,1.0744073411567563,0.90234375,3.7001953125,1.32861328125,31.541764705882358,333.2705979170657
0.3765366210937499,0.0150927734375,0.9712451171875,1.0417891804464543,0.93310546875,3.6435546875,1.27734375,31.58882352941177,333.2705979170657
0.3584702148437499,0.1615771484375,0.9609912109375,1.0383218081724186,0.96533203125,3.43359375,1.166015625,31.541764705882358,333.2705979170657
0.3594467773437499,0.1576708984375,0.9575732421875,1.0348954595080493,0.9443359375,3.140625,0.826171875,31.494705882352942,333.2705979170657
0.3535874023437499,0.1376513671875,0.9648974609375,1.0368216144103206,0.9931640625,2.8681640625,0.47265625,31.494705882352942,333.2705979170657
0.3394272460937499,0.1386279296875,0.9502490234375,1.0185292164803874,0.703125,2.3310546875,0.2109375,31.58882352941177,333.2705979170657
0.3203842773437499,0.1210498046875,0.9517138671875,1.01146350669757,0.57177734375,1.91064453125,-0.03369140625,31.541764705882358,333.0862087932972
0.3111069335937499,0.1117724609375,0.9531787109375,1.0088757416741694,0.52099609375,1.546875,-0.20068359375,31.58882352941177,333.0862087932972
0.3189194335937499,0.0932177734375,0.9551318359375,1.011274434775122,0.47802734375,1.353515625,-0.38720703125,31.494705882352942,333.0862087932972
