AccX,AccY,AccZ,Magnitude,GyroX,GyroY,GyroZ,Temperature,Altitude
0.19391943359375,0.9511279296875,5.371093750006217e-05,0.9706951572155986,-0.24169921875,1.154296875,1.20947265625,30.31823529411765,309.7825036575021
0.21198583984375,0.9545458984375,0.0254443359375,0.9781325486606682,-0.4033203125,1.35498046875,1.25146484375,30.17705882352941,309.7825036575021
0.24030615234375,0.9779833984375,0.0210498046875,1.007294231469138,-0.529296875,1.5791015625,1.205078125,30.17705882352941,309.7825036575021
0.2666733398437499,0.9897021484375,0.0171435546875,1.0251433627900768,-0.60498046875,1.84228515625,1.00634765625,30.08294117647059,309.7825036575021
0.2656967773437499,0.9980029296875,0.0044482421875,1.0327751023404108,-0.69677734375,2.0634765625,0.82275390625,30.130000000000003,309.7825036575021
0.2700913085937499,1.0126513671875,0.0078662109375,1.0480810959649594,-0.859375,2.1494140625,0.7724609375,30.17705882352941,309.7825036575021
0.2793686523437499,1.0111865234375,0.0186083984375,1.0492336734905097,-1.048828125,2.16796875,0.818359375,30.224117647058826,309.7825036575021
0.2564194335937499,1.0238818359375,0.0176318359375,1.0556494785324395,-1.1982421875,2.24609375,1.0283203125,30.17705882352941,309.50264599250926
0.24860693359375,1.0170458984375,-0.0111767578124999,1.0470495150061567,-1.46484375,2.23681640625,1.326171875,30.130000000000003,309.50264599250926
0.24323583984375,1.1298388671875,-0.0136181640624999,1.1558049117322788,-1.8203125,2.2431640625,1.7548828125,30.224117647058826,309.50264599250926
0.21247412109375,0.9691943359375,0.0137255859375,0.992306053925512,-2.18505859375,1.896484375,2.39208984375,30.224117647058826,309.50264599250926
0.20710302734375,0.9179248046875,0.0317919921875,0.9415350985294076,-2.5576171875,1.67236328125,3.111328125,30.224117647058826,309.50264599250926
0.19880224609375,0.8749560546875,0.0679248046875,0.8998245438851235,-2.7919921875,1.6318359375,3.43017578125,30.17705882352941,309.50264599250926
0.23347021484375,0.8642138671875,0.0801318359375,0.8987741988892844,-2.8857421875,2.08935546875,3.3564453125,30.27117647058824,309.50264599250926
0.2945053710937499,0.8651904296875,0.1025927734375,0.9196810155632804,-3.2373046875,2.56640625,3.01513671875,30.17705882352941,309.50264599250926
0.3443100585937499,0.8983935546875,0.1299365234375,0.9708469991074276,-3.2734375,2.6630859375,2.8544921875,30.224117647058826,309.43059834082567
0.3814194335937499,0.9369677734375,0.1314013671875,1.0201253413586722,-3.22021484375,2.5341796875,2.46484375,30.130000000000003,309.43059834082567
0.4048569335937499,0.9604052734375,0.1255419921875,1.0497848435407608,-3.14599609375,2.2197265625,2.2294921875,30.17705882352941,309.43059834082567
0.4048569335937499,0.9726123046875,0.1318896484375,1.0617338231748257,-3.05322265625,2.03564453125,1.70556640625,30.17705882352941,309.43059834082567
0.3941147460937499,0.9745654296875,0.1201708984375,1.058085655635591,-3.001953125,2.005859375,1.48046875,30.17705882352941,309.43059834082567
0.3462631835937499,0.9638232421875,0.1216357421875,1.031333451542617,-3.087890625,1.9951171875,1.46337890625,30.03588235294118,309.43059834082567
0.3340561523437499,0.9438037109375,0.1299365234375,1.009575384912455,-3.14208984375,2.05126953125,1.615234375,30.224117647058826,309.43059834082567
0.3252670898437499,0.9408740234375,0.1504443359375,1.0068148319977048,-3.33203125,1.9462890625,1.78173828125,30.17705882352941,309.43059834082567
0.3521225585937499,0.9350146484375,0.1567919921875,1.0113488111811058,-3.404296875,1.8740234375,1.9052734375,30.224117647058826,309.3976129948651
0.3970444335937499,0.9423388671875,0.1738818359375,1.0372471815960738,-3.40234375,1.5146484375,1.8408203125,30.224117647058826,309.3976129948651
0.4131577148437499,0.9472216796875,0.1860888671875,1.050027273120106,-3.318359375,1.138671875,1.69677734375,30.130000000000003,309.3976129948651
0.4400131835937499,0.9374560546875,0.2070849609375,1.0560869458775854,-3.25,0.83349609375,1.43212890625,30.17705882352941,309.3976129948651
0.4478256835937499,0.9301318359375,0.2095263671875,1.0533728559524709,-3.30322265625,0.18115234375,1.28857421875,30.130000000000003,309.3976129948651
0.4287827148437499,0.9335498046875,0.2085498046875,1.048266605122972,-3.41796875,-0.35400390625,1.29736328125,30.17705882352941,309.3976129948651
0.3872788085937499,0.9169482421875,0.2134326171875,1.0180041436634957,-3.55810546875,-0.82080078125,1.5234375,30.224117647058826,309.3976129948651
0.3599350585937499,0.9047412109375,0.1856005859375,0.9912403758291344,-3.9248046875,-1.19873046875,1.75634765625,30.27117647058824,309.3976129948651
0.3609116210937499,0.9159716796875,0.2427294921875,1.013991579160133,-4.1328125,-1.3359375,2.18212890625,30.224117647058826,309.3976129948651
0.4029038085937499,0.9394091796875,0.2959521484375,1.0641469635465126,-4.4091796875,-1.4541015625,2.30712890625,30.224117647058826,309.281692485862
0.4072983398437499,0.9452685546875,0.3022998046875,1.0727580109393595,-4.44091796875,-1.60546875,2.2568359375,30.17705882352941,309.281692485862
0.4536850585937499,0.9491748046875,0.3257373046875,1.1013027439854337,-4.5869140625,-1.39306640625,1.9619140625,30.17705882352941,309.281692485862
0.52399755859375,0.9682177734375,0.3477099609375,1.1545221154865932,-4.65283203125,-1.53662109375,1.4296875,30.130000000000003,309.281692485862
0.61139990234375,0.9696826171875,0.3506396484375,1.1987670256217096,-4.5361328125,-2.02978515625,0.8720703125,30.17705882352941,309.281692485862
0.60309912109375,0.9584521484375,0.3887255859375,1.1972746768686648,-4.61181640625,-2.357421875,0.072265625,30.17705882352941,309.281692485862
0.58649755859375,0.9701708984375,0.4014208984375,1.2026427965584066,-4.38427734375,-2.96240234375,-0.45849609375,30.224117647058826,309.281692485862
0.58991552734375,1.0189990234375,0.3789599609375,1.236919557271848,-4.0966796875,-3.5791015625,-0.787109375,30.224117647058826,309.281692485862
0.57624365234375,1.0370654296875,0.3672412109375,1.2419450709794797,-3.939453125,-4.40380859375,-0.9248046875,30.17705882352941,309.281692485862
0.57429052734375,1.0868701171875,0.4072802734375,1.2949801089450206,-3.70947265625,-5.5966796875,-1.0,30.130000000000003,309.19875971387216
0.52448583984375,1.0707568359375,0.4141162109375,1.2621797946666402,-3.83251953125,-6.341796875,-1.01416015625,30.17705882352941,309.19875971387216
0.53327490234375,1.0658740234375,0.4204638671875,1.2638272899881724,-3.52490234375,-7.419921875,-1.03173828125,30.224117647058826,309.19875971387216
0.4820053710937499,1.0541552734375,0.4526904296875,1.244387858912955,-3.42236328125,-7.833984375,-0.95556640625,30.08294117647059,309.19875971387216
0.4917709960937499,1.0673388671875,0.4824755859375,1.2703675299037946,-2.93603515625,-9.08203125,-0.97314453125,30.224117647058826,309.19875971387216
0.55622412109375,1.0634326171875,0.4692919921875,1.2886074569534676,-2.65478515625,-10.326171875,-1.041015625,30.27117647058824,309.19875971387216
0.62214208984375,1.0180224609375,0.4365771484375,1.2704448502261765,-2.73193359375,-12.1259765625,-1.3134765625,30.224117647058826,309.19875971387216
0.83063818359375,0.9784716796875,0.4092333984375,1.3471594539589988,-3.1826171875,-13.9091796875,-2.1875,30.27117647058824,309.19875971387216
0.66901708984375,0.9804248046875,0.4194873046875,1.2588829425103456,-3.54345703125,-15.439453125,-2.458984375,30.130000000000003,309.7034340456639
0.52888037109375,0.9789599609375,0.5171435546875001,1.2269940946075648,-3.75048828125,-15.4013671875,-1.931640625,30.130000000000003,309.7034340456639
0.4722397460937499,0.9721240234375,0.5527880859375001,1.2139234583322984,-3.638671875,-14.4609375,-0.92626953125,30.224117647058826,309.7034340456639
0.4268295898437499,0.9564990234375,0.6265185546875001,1.2204914501834043,-3.17919921875,-12.1923828125,0.169921875,30.17705882352941,309.7034340456639
0.4556381835937499,0.9184130859375,0.6196826171875001,1.197954630532477,-2.9990234375,-9.20947265625,0.97900390625,30.27117647058824,309.7034340456639
0.50397802734375,0.9106005859375,0.6099169921875001,1.2063109120430202,-2.78955078125,-5.44189453125,1.09130859375,30.27117647058824,309.7034340456639
0.57184912109375,0.8949755859375,0.6235888671875001,1.2316069957580038,-2.6884765625,-1.56103515625,0.5634765625,30.17705882352941,309.7034340456639
0.61091162109375,0.8720263671875,0.6104052734375001,1.2272887157054495,-2.51318359375,2.005859375,0.10205078125,30.08294117647059,309.3696428783621
0.59479833984375,0.8466357421875,0.5977099609375001,1.1949202242970731,-2.30078125,4.484375,-0.15087890625,30.224117647058826,309.3696428783621
0.59968115234375,0.8290576171875,0.5376513671875001,1.155864615658569,-2.12109375,5.78515625,-0.07470703125,30.130000000000003,309.3696428783621
0.62409521484375,0.8124560546875,0.4858935546875,1.1338748716133094,-2.00244140625,6.26416015625,0.15478515625,30.17705882352941,309.3696428783621
0.61628271484375,0.8100146484375,0.4478076171875,1.1119621294404125,-2.1357421875,6.00341796875,0.51025390625,30.27117647058824,309.3696428783621
0.61677099609375,0.7885302734375,0.4004443359375,1.078212465117298,-2.14501953125,5.49609375,1.12353515625,30.224117647058826,309.3696428783621
0.64460302734375,0.7641162109375,0.3818896484375,1.0701524892565202,-2.15869140625,4.02978515625,1.27880859375,30.224117647058826,309.3696428783621
0.65436865234375,0.7377490234375,0.3452685546875,1.044836030011004,-2.35791015625,2.29541015625,1.09765625,30.17705882352941,309.7863782619412
0.64704443359375,0.7138232421875,0.3208544921875,1.0154593666359228,-2.5,0.7919921875,0.669921875,30.130000000000003,309.7863782619412
0.61774755859375,0.6903857421875,0.3423388671875,0.9876438726340302,-2.70068359375,-0.70361328125,0.1923828125,30.17705882352941,309.7863782619412
0.59382177734375,0.6669482421875,0.3950732421875,0.9764871364729948,-2.7734375,-1.76513671875,-0.0087890625,30.17705882352941,309.7863782619412
0.57477880859375,0.6547412109375,0.4395068359375,0.9758191384391612,-2.73779296875,-2.6806640625,-0.23486328125,30.31823529411765,309.7863782619412
0.53522802734375,0.6537646484375,0.4731982421875,0.9683975594817604,-2.68701171875,-3.06201171875,-0.1318359375,30.08294117647059,309.7863782619412
0.54108740234375,0.6586474609375,0.4995654296875,0.988006919668774,-2.583984375,-2.94140625,0.10546875,30.224117647058826,309.7863782619412
0.55427099609375,0.6645068359375,0.5254443359375001,1.0123622979384534,-2.474609375,-2.59423828125,0.29931640625,30.08294117647059,309.67844261129443
0.4619858398437499,0.6664599609375,0.5488818359375001,0.9792196207036856,-2.4921875,-2.17431640625,0.494140625,30.130000000000003,309.67844261129443
0.61774755859375,0.6747607421875,0.5718310546875001,1.07884422436744,-2.51708984375,-1.51611328125,0.6826171875,30.224117647058826,309.67844261129443
0.64460302734375,0.6776904296875,0.5923388671875001,1.1070874919949762,-2.56982421875,-0.83837890625,0.83984375,30.224117647058826,309.67844261129443
0.65143896484375,0.6815966796875,0.5933154296875001,1.1139883113313995,-2.59619140625,0.22119140625,1.00390625,30.224117647058826,309.67844261129443
0.65778662109375,0.6815966796875,0.5835498046875001,1.1125590533548215,-2.73046875,0.8544921875,1.56005859375,30.17705882352941,309.67844261129443
0.64802099609375,0.6957568359375,0.5522998046875001,1.0995653051956251,-2.98193359375,1.3623046875,2.119140625,30.224117647058826,309.67844261129443
0.68220068359375,0.7011279296875,0.5591357421875001,1.1267701294741648,-3.17822265625,1.41796875,2.2646484375,30.224117647058826,309.4945532531685
0.67194677734375,0.6889208984375,0.5386279296875001,1.1028347666473095,-3.2685546875,1.3623046875,2.51318359375,30.224117647058826,309.4945532531685
0.64850927734375,0.6635302734375,0.5264208984375001,1.066750049862057,-3.3447265625,1.68798828125,2.29345703125,30.17705882352941,309.4945532531685
0.62604833984375,0.6562060546875,0.5171435546875001,1.0440212479564164,-3.35693359375,2.0615234375,1.90185546875,30.17705882352941,309.4945532531685
0.62214208984375,0.6562060546875,0.5303271484375001,1.048291014238667,-3.49560546875,2.1923828125,1.47998046875,30.224117647058826,309.4945532531685
0.59186865234375,0.6610888671875,0.5606005859375001,1.0495808729678373,-3.31982421875,2.07666015625,0.91796875,30.31823529411765,309.4945532531685
0.56110693359375,0.6684130859375,0.5806201171875001,1.0482064514504283,-3.224609375,1.7666015625,0.58056640625,30.130000000000003,309.4945532531685
0.54450537109375,0.6645068359375,0.5776904296875001,1.035268886188578,-3.26318359375,1.44873046875,0.4091796875,30.130000000000003,309.7513979561087
0.52790380859375,0.6742724609375,0.6016162109375001,1.046550451707558,-3.30615234375,1.06884765625,0.31005859375,30.17705882352941,309.7513979561087
0.54743505859375,0.6620654296875,0.5908740234375001,1.042663842347118,-3.4140625,0.626953125,0.07861328125,30.224117647058826,309.7513979561087
0.4585678710937499,0.6527880859375,0.5898974609375001,0.9921672197577928,-3.6708984375,0.48681640625,-0.3291015625,30.27117647058824,309.7513979561087
0.61970068359375,0.6435107421875,0.5942919921875001,1.0729948669660334,-3.88720703125,0.20361328125,-1.0849609375,30.17705882352941,309.7513979561087
0.64264990234375,0.6000537109375,0.5928271484375001,1.060427923489774,-4.1044921875,0.16455078125,-1.94970703125,30.224117647058826,309.7513979561087
0.65973974609375,0.5917529296875,0.5913623046875001,1.0654282884243766,-4.41455078125,-0.04248046875,-2.69580078125,30.130000000000003,309.7513979561087
0.65534521484375,0.5888232421875,0.6328662109375001,1.0847625556338072,-4.6650390625,-0.32763671875,-3.05712890625,30.17705882352941,309.6984294008392
0.66608740234375,0.5619677734375,0.6626513671875001,1.0948000001730038,-4.74267578125,-0.64599609375,-3.298828125,30.130000000000003,309.6984294008392
0.65827490234375,0.5546435546875,0.6885302734375001,1.1022836555315416,-4.8017578125,-0.80419921875,-3.412109375,30.224117647058826,309.6984294008392
0.61530615234375,0.5292529296875,0.6978076171875001,1.0703484457408103,-4.79443359375,-0.57421875,-3.25390625,30.130000000000003,309.6984294008392
0.60261083984375,0.5219287109375,0.7041552734375001,1.063665385686641,-4.79296875,0.08740234375,-2.970703125,30.27117647058824,309.6984294008392
0.60358740234375,0.5136279296875,0.6865771484375001,1.0485797934252368,-4.931640625,0.8564453125,-2.6083984375,30.17705882352941,309.6984294008392
0.59186865234375,0.5087451171875,0.6953662109375001,1.045305822811155,-5.10791015625,1.60498046875,-2.3056640625,30.08294117647059,309.6984294008392
0.59089208984375,0.5229052734375,0.7017138671875001,1.0559288509326268,-5.30224609375,2.32421875,-2.2353515625,30.17705882352941,309.2347121589541
0.60309912109375,0.5429248046875,0.7256396484375001,1.0885994638954737,-5.49560546875,2.634765625,-2.3408203125,30.130000000000003,309.2347121589541
0.60505224609375,0.5805224609375,0.7397998046875001,1.1182120993674172,-5.3515625,2.958984375,-2.69287109375,30.17705882352941,309.2347121589541
0.60798193359375,0.6015185546875,0.7344287109375001,1.127320777178817,-5.3232421875,2.89208984375,-3.15966796875,30.130000000000003,309.2347121589541
0.59186865234375,0.6352099609375,0.7339404296875001,1.1368679564625346,-5.384765625,2.7705078125,-3.7080078125,30.130000000000003,309.2347121589541
0.56501318359375,0.6420458984375,0.7329638671875001,1.1263653332456642,-5.39453125,2.7421875,-4.3603515625,30.17705882352941,309.2347121589541
0.56208349609375,0.6283740234375,0.7231982421875001,1.110768863182208,-5.400390625,2.6982421875,-5.2158203125,30.130000000000003,309.2347121589541
0.54304052734375,0.6054248046875,0.7188037109375001,1.085408210456415,-5.3837890625,2.65625,-5.9287109375,30.224117647058826,309.71941680650707
0.52204443359375,0.5644091796875,0.6909716796875001,1.033697235602331,-5.35302734375,2.5390625,-6.642578125,30.17705882352941,309.71941680650707
0.51081396484375,0.5077685546875,0.6919482421875001,0.9987753409426946,-5.21240234375,2.2568359375,-7.41357421875,30.17705882352941,309.71941680650707
0.4917709960937499,0.4511279296875,0.7012255859375001,0.9680250223607648,-5.1357421875,1.91796875,-8.09423828125,30.17705882352941,309.71941680650707
0.4761459960937499,0.4096240234375,0.7070849609375001,0.9457674091219368,-5.00390625,1.68310546875,-8.54345703125,30.130000000000003,309.71941680650707
0.57477880859375,0.3647021484375,0.7236865234375001,0.993529325228216,-4.88427734375,1.560546875,-8.6630859375,30.27117647058824,309.71941680650707
0.4170639648437499,0.3236865234375,0.7612841796875001,0.9264280427905416,-4.86865234375,1.703125,-8.525390625,30.27117647058824,309.71941680650707
0.3550522460937499,0.2846240234375,0.7832568359375001,0.9058499893562902,-4.58447265625,2.16552734375,-8.1083984375,30.17705882352941,309.36463228872856
0.2871811523437499,0.3778857421875,0.8438037109375001,0.968129821357641,-4.30224609375,2.89111328125,-7.5029296875,30.17705882352941,309.36463228872856
0.22712255859375,0.2235888671875,0.8613818359375001,0.91845266913185,-3.81591796875,4.474609375,-7.220703125,30.130000000000003,309.36463228872856
0.17194677734375,0.1674365234375,0.8682177734375001,0.9007789882832014,-3.6826171875,5.3935546875,-6.50341796875,30.08294117647059,309.36463228872856
0.12995458984375,0.1098193359375,0.8418505859375001,0.858871871125445,-3.6767578125,5.89794921875,-6.10107421875,30.224117647058826,309.36463228872856
0.08991552734375,0.0927294921875,0.8638232421875001,0.8734266738096453,-3.40576171875,6.42919921875,-5.38427734375,30.17705882352941,309.36463228872856
0.0440170898437499,0.0849169921875,0.8325732421875001,0.838049284569285,-3.0830078125,6.296875,-4.98291015625,30.130000000000003,309.36463228872856
0.0342514648437499,0.0966357421875,0.8110888671875001,0.8175431364690023,-2.7568359375,5.56640625,-4.4267578125,30.130000000000003,309.36463228872856
0.0552475585937499,0.1195849609375,0.7847216796875001,0.7957015584907225,-2.47412109375,4.591796875,-4.1552734375,30.08294117647059,309.36463228872856
0.06306005859375,0.1361865234375,0.7173388671875001,0.7328699683666168,-2.66552734375,1.81005859375,-3.9111328125,30.17705882352941,309.5735122235321
0.10505224609375,0.1537646484375,0.7554248046875001,0.7780399585211529,-2.775390625,-1.3095703125,-3.91748046875,30.17705882352941,309.5735122235321
0.13727880859375,0.1698779296875,0.8272021484375001,0.8555509199711299,-2.712890625,-4.3134765625,-4.0322265625,30.224117647058826,309.5735122235321
0.13581396484375,0.1718310546875,0.8774951171875001,0.9044164002767212,-2.82568359375,-7.79833984375,-3.71630859375,30.27117647058824,309.5735122235321
0.12214208984375,0.1459521484375,0.9536669921875,0.9724718256756204,-3.0703125,-10.26708984375,-3.6025390625,30.27117647058824,309.5735122235321
0.10700537109375,0.1625537109375,1.0342333984375005,1.0523842363063238,-2.9677734375,-11.54296875,-3.046875,30.130000000000003,309.5735122235321
0.11579443359375,0.1732958984375,1.1216357421875005,1.140835902932171,-2.6630859375,-11.79833984375,-2.7177734375,30.130000000000003,309.5735122235321
0.16071630859375,0.1596240234375,1.1201708984375005,1.142843997408506,-2.43798828125,-10.947265625,-2.70068359375,30.224117647058826,309.5735122235321
0.17878271484375,0.1474169921875,1.1616748046875005,1.1845604165926924,-2.25244140625,-8.283203125,-2.96923828125,30.17705882352941,309.5735122235321
0.16462255859375,0.1264208984375,1.1831591796875005,1.2012279029553452,-2.12158203125,-5.52685546875,-3.0908203125,30.03588235294118,309.76839526973487
0.14020849609375,0.0766162109375,1.2148974609375005,1.2253588481533382,-2.04736328125,-2.53515625,-3.28271484375,30.224117647058826,309.76839526973487
0.10505224609375,0.0487841796875,1.2354052734375005,1.2408231381765529,-1.6826171875,0.740234375,-3.0673828125,30.130000000000003,309.76839526973487
0.09528662109375,0.0404833984375,1.2329638671875005,1.2373028503557522,-1.51953125,2.68701171875,-2.45068359375,30.17705882352941,309.76839526973487
0.11823583984375,0.0697802734375,1.0537646484375005,1.0626706614380477,-1.72021484375,3.43212890625,-1.56494140625,30.17705882352941,309.76839526973487
0.15729833984375,0.1205615234375,1.1328662109375005,1.1500711719433103,-2.09228515625,3.06689453125,-0.57177734375,30.130000000000003,309.76839526973487
0.21589208984375,0.1635302734375,1.1025927734375005,1.1353688250186562,-2.40234375,2.09814453125,0.232421875,30.224117647058826,309.76839526973487
0.3057358398437499,0.1933154296875,1.0557177734375005,1.11596831329212,-2.67626953125,0.34326171875,0.6220703125,30.224117647058826,309.76839526973487
0.3740952148437499,0.2299365234375,1.0200732421875005,1.110570778476741,-3.10400390625,-1.904296875,0.64306640625,30.31823529411765,309.4785785128008
0.4146225585937499,0.2655810546875,1.0166552734375005,1.129616354215904,-3.58251953125,-4.2353515625,0.615234375,30.130000000000003,309.4785785128008
0.4199936523437499,0.3022021484375,1.0137255859375005,1.1381389941978142,-4.109375,-6.146484375,0.2294921875,30.27117647058824,309.4785785128008
0.4048569335937499,0.3549365234375,1.0444873046875005,1.175092678048073,-4.298828125,-6.87744140625,0.09033203125,30.224117647058826,309.4785785128008
0.3887436523437499,0.3847216796875,1.0689013671875005,1.2007008498516345,-3.92529296875,-6.45947265625,0.076171875,30.08294117647059,309.4785785128008
0.3267319335937499,0.4140185546875,1.0786669921875005,1.2007029608068207,-3.33349609375,-4.8408203125,0.322265625,30.224117647058826,309.4785785128008
0.2915756835937499,0.4062060546875,1.0303271484375005,1.1452483446551225,-2.51123046875,-2.431640625,0.3798828125,30.224117647058826,309.4785785128008
0.2573959960937499,0.3817919921875,1.0479052734375005,1.1446061707861426,-2.26953125,0.22607421875,-0.05029296875,30.27117647058824,309.41361841081584
0.24128271484375,0.3280810546875,0.8799365234375001,0.969609618458123,-2.33203125,2.1953125,-0.9912109375,30.17705882352941,309.41361841081584
0.18122412109375,0.2377490234375,0.8604052734375001,0.9108589433994412,-2.39111328125,3.53173828125,-2.15869140625,30.224117647058826,309.41361841081584
0.08649755859375,0.1381396484375,0.8374560546875001,0.8531688189601565,-2.29150390625,4.275390625,-3.24755859375,30.27117647058824,309.41361841081584
0.07722021484375,0.0771044921875,0.8364794921875001,0.8435674277414136,-2.04443359375,3.76806640625,-3.6328125,30.17705882352941,309.41361841081584
0.13141943359375,-0.0161572265625,0.8062060546875001,0.8170069314951242,-1.861328125,2.181640625,-4.08349609375,30.17705882352941,309.41361841081584
0.19587255859375,-0.0669384765625,0.8115771484375001,0.8375585273403372,-1.82763671875,-0.400390625,-4.146484375,30.130000000000003,309.41361841081584
0.23639990234375,-0.0815869140625,0.8633349609375001,0.8988262307873146,-1.96533203125,-3.9794921875,-3.66796875,30.130000000000003,309.7983725306496
0.19733740234375,-0.0303173828125,0.9570849609375,0.977687484075108,-2.1904296875,-7.2841796875,-2.626953125,30.27117647058824,309.7983725306496
0.24567724609375,0.0268115234375,1.0313037109375005,1.060501537589978,-2.62451171875,-11.08154296875,-1.30322265625,30.224117647058826,309.7983725306496
0.3618881835937499,0.0868701171875,1.0620654296875005,1.125385468016292,-3.13916015625,-14.36474609375,0.107421875,30.224117647058826,309.7983725306496
0.52448583984375,0.0146044921875,1.0249560546875005,1.151448479711196,-3.771484375,16.0,1.02490234375,30.130000000000003,309.7983725306496
0.69636083984375,0.1713427734375,0.9790576171875,1.2136023166795673,-4.4189453125,16.0,1.52197265625,30.224117647058826,309.7983725306496
0.90925146484375,0.1464404296875,0.9624560546875,1.332105357309321,-4.83349609375,16.0,0.892578125,30.130000000000003,309.7983725306496
1.08893896484375,0.0932177734375,0.9902880859375,1.4748383354081154,-4.99169921875,-15.70458984375,0.2275390625,30.17705882352941,309.0318460429216
1.17243505859375,0.0634326171875,1.0430224609375005,1.5705169586996204,-4.89013671875,-15.40576171875,-0.4501953125,30.17705882352941,309.0318460429216
1.15778662109375,0.0482958984375,1.1128466796875005,1.6066207039251863,-4.51708984375,-14.80419921875,-0.37744140625,30.17705882352941,309.0318460429216
1.13044287109375,0.0678271484375,1.2344287109375005,1.6752062109658803,-3.83740234375,-13.6787109375,-0.134765625,30.17705882352941,309.0318460429216
1.11188818359375,0.0731982421875,1.3535693359375005,1.7532265291926867,-2.7431640625,-11.77978515625,-0.16259765625,30.27117647058824,309.0318460429216
1.02204443359375,0.0492724609375,1.3862841796875005,1.7230166646027112,-1.6298828125,-8.5166015625,-0.5791015625,30.224117647058826,309.0318460429216
0.92145849609375,-0.0107861328125,1.3794482421875005,1.6589392856758167,-0.97998046875,-3.841796875,-1.5849609375,30.224117647058826,309.0318460429216
0.88434912109375,-0.1103955078125,1.3267138671875005,1.5982584964617206,-0.39208984375,0.32568359375,-2.34912109375,30.130000000000003,309.54651986133246
0.87702490234375,-0.1167431640625,1.2119677734375005,1.5005557402300789,-0.18310546875,2.61083984375,-2.6982421875,30.130000000000003,309.54651986133246
0.84626318359375,-0.3335400390625,1.1646044921875005,1.4777394752754454,-0.23095703125,3.8515625,-2.1708984375,30.130000000000003,309.54651986133246
0.80866552734375,-0.3516064453125,0.8691943359375001,1.2381703522235012,-0.560546875,4.1669921875,-1.0791015625,30.224117647058826,309.54651986133246
0.83161474609375,-0.3867626953125,0.7871630859375001,1.2086331917784692,-0.93994140625,3.44677734375,0.53759765625,30.130000000000003,309.54651986133246
0.92585302734375,-0.3135205078125,0.6939013671875001,1.1987485326144411,-1.10205078125,1.53515625,1.9931640625,30.17705882352941,309.54651986133246
0.97028662109375,-0.3110791015625,0.6509326171875001,1.2091069458989254,-1.7119140625,-0.5244140625,2.611328125,30.17705882352941,309.54651986133246
0.97468115234375,-0.1963330078125,0.6968310546875001,1.2141348843797122,-2.1748046875,-2.18310546875,2.4521484375,30.224117647058826,309.63246834335445
0.90095068359375,-0.1055126953125,0.8208544921875001,1.2233753146457356,-2.08544921875,-2.5068359375,1.91015625,30.224117647058826,309.63246834335445
0.91999365234375,-0.0996533203125,0.8872607421875001,1.282010424774,-1.6396484375,-3.2109375,1.33349609375,30.31823529411765,309.63246834335445
0.79938818359375,0.0038623046875,0.9292529296875,1.2257843989868755,-0.85693359375,-4.13916015625,0.53857421875,30.224117647058826,309.63246834335445
0.88093115234375,0.1630419921875,0.9170458984375,1.2820279116412394,0.34765625,-4.62060546875,-0.95263671875,30.130000000000003,309.63246834335445
0.84577490234375,0.1034716796875,0.8604052734375001,1.21092477408425,0.77001953125,-4.919921875,-2.62548828125,30.224117647058826,309.63246834335445
1.04352880859375,-0.0005322265624999,0.8022998046875001,1.3162969399918112,0.4560546875,-5.501953125,-3.7568359375,30.224117647058826,309.63246834335445
1.02790380859375,-0.0771923828125,0.8189013671875001,1.3164894047683653,0.14501953125,-6.79638671875,-3.9296875,30.224117647058826,309.55651365916464
1.08747412109375,-0.0981884765625,0.8369677734375001,1.375774688948454,0.59130859375,-9.07080078125,-3.85400390625,30.27117647058824,309.55651365916464
1.16218115234375,-0.1226025390625,0.9263232421875,1.491231424851415,1.33349609375,-11.74072265625,-4.24169921875,30.130000000000003,309.55651365916464
1.19880224609375,-0.1592236328125,0.7188037109375001,1.406825421060819,1.443359375,-13.72265625,-5.07080078125,30.17705882352941,309.55651365916464
1.15973974609375,-0.1758251953125,0.7144091796875001,1.3734231882409884,1.2744140625,-13.9091796875,-5.701171875,30.27117647058824,309.55651365916464
1.01813818359375,-0.1948681640625,0.7700732421875001,1.2913526863679954,1.4150390625,-12.64794921875,-5.46630859375,30.130000000000003,309.55651365916464
0.94782568359375,-0.2270947265625,0.7939990234375001,1.257131652028601,1.67236328125,-10.58935546875,-4.171875,30.08294117647059,309.55651365916464
0.96100927734375,-0.2285595703125,0.7847216796875001,1.2615729954678654,1.8759765625,-8.2177734375,-2.6240234375,30.27117647058824,309.8793245478157
0.97419287109375,-0.2407666015625,0.7554248046875001,1.2560600869604075,1.939453125,-5.88232421875,-1.00439453125,30.130000000000003,309.8793245478157
1.00446630859375,-0.2017041015625,0.7393115234375001,1.2634154654643763,1.919921875,-3.72705078125,0.05615234375,30.17705882352941,309.8793245478157
0.99665380859375,-0.1689892578125,0.7017138671875001,1.2305602524231325,1.81787109375,-1.6025390625,0.76416015625,30.17705882352941,309.8793245478157
0.97419287109375,-0.1323681640625,0.6689990234375001,1.189173147320225,1.72021484375,0.17822265625,1.1513671875,30.224117647058826,309.8793245478157
0.97126318359375,-0.1006298828125,0.6768115234375001,1.1880877002045402,1.60791015625,1.57177734375,0.95654296875,30.17705882352941,309.8793245478157
0.98102880859375,-0.0718212890625,0.6782763671875001,1.194836662953788,1.61669921875,1.76171875,0.77587890625,30.130000000000003,309.8793245478157
0.97419287109375,-0.0376416015625,0.6245654296875001,1.1578214958355215,1.4072265625,1.345703125,0.865234375,30.224117647058826,309.5984889544212
0.95856787109375,-0.0088330078125,0.5786669921875001,1.1197258027604562,1.1298828125,0.78857421875,0.88232421875,30.17705882352941,309.5984889544212
0.95954443359375,0.0263232421875,0.4326708984375,1.0529114585162067,0.95654296875,0.40234375,0.77587890625,30.17705882352941,309.5984889544212
0.96882177734375,0.0390185546875,0.5317919921875001,1.1058665411432584,0.884765625,-0.08544921875,0.6337890625,30.224117647058826,309.5984889544212
0.96491552734375,0.0404833984375,0.5083544921875001,1.0913868105238067,0.78662109375,-0.35693359375,0.45068359375,30.130000000000003,309.5984889544212
0.94538427734375,0.0575732421875,0.5093310546875001,1.0753995691527063,0.791015625,-0.47509765625,0.33154296875,30.27117647058824,309.5984889544212
0.94196630859375,0.0453662109375,0.5225146484375001,1.0781373648345214,0.8544921875,-0.56298828125,0.15576171875,30.130000000000003,309.5984889544212
0.94489599609375,0.0209521484375,0.5244677734375001,1.08089494463275,0.880859375,-0.6728515625,-0.06640625,30.130000000000003,309.5874955973732
0.93659521484375,-0.0327587890625,0.5293505859375001,1.076334417159196,1.10888671875,-0.75341796875,-0.3544921875,30.224117647058826,309.5874955973732
0.92341162109375,-0.0688916015625,0.5234912109375001,1.0637096044812435,1.2861328125,-0.7724609375,-0.83203125,30.130000000000003,309.5874955973732
0.89509130859375,0.0126513671875,0.5186083984375001,1.0345545798756552,1.4130859375,-0.55419921875,-1.34765625,30.17705882352941,309.5874955973732
0.89216162109375,-0.1411572265625,0.5396044921875001,1.052164782128909,1.59912109375,-0.56298828125,-1.82958984375,30.17705882352941,309.5874955973732
0.88825537109375,-0.1807080078125,0.5601123046875001,1.0655415441111626,1.63525390625,-1.076171875,-2.1142578125,30.224117647058826,309.5874955973732
0.89264990234375,-0.1821728515625,0.6719287109375001,1.132033121681009,1.98046875,-2.02490234375,-2.19580078125,30.130000000000003,309.5874955973732
0.87751318359375,-0.2178173828125,0.5186083984375001,1.0423187950747288,1.94091796875,-2.85693359375,-2.24609375,30.224117647058826,309.34064432618743
0.88727880859375,-0.2466259765625,0.5151904296875001,1.055229470464383,1.82568359375,-3.48583984375,-1.8251953125,30.17705882352941,309.34064432618743
0.90729833984375,-0.2661572265625,0.5200732421875001,1.0791228493429674,1.677734375,-4.01318359375,-1.162109375,30.130000000000003,309.34064432618743
0.93268896484375,-0.2544384765625,0.5459521484375001,1.110275367591425,1.61279296875,-4.73095703125,-0.166015625,30.08294117647059,309.34064432618743
0.93561865234375,-0.2397900390625,0.5352099609375001,1.1042333212387003,1.48681640625,-4.91015625,1.076171875,30.17705882352941,309.34064432618743
0.93317724609375,-0.1963330078125,0.5308154296875001,1.0913896842916115,1.13134765625,-4.6767578125,2.51318359375,30.224117647058826,309.34064432618743
0.97419287109375,-0.1216259765625,0.5498583984375001,1.1252505883566195,0.9697265625,-4.12890625,3.98974609375,30.17705882352941,309.34064432618743
1.01764990234375,-0.0654736328125,0.5293505859375001,1.148960470671765,0.7705078125,-3.435546875,4.583984375,30.17705882352941,309.7923755743512
1.06257177734375,-0.0049267578125,0.5264208984375001,1.185833891091726,0.5205078125,-2.6181640625,4.57666015625,30.224117647058826,309.7923755743512
1.10944677734375,0.0487841796875,0.5249560546875001,1.2283447835600882,0.2919921875,-1.3857421875,3.955078125,30.224117647058826,309.7923755743512
1.13288427734375,0.1156787109375,0.5239794921875001,1.2535401302909703,0.15478515625,-0.17041015625,2.95263671875,30.130000000000003,309.7923755743512
1.11725927734375,0.1547412109375,0.5190966796875001,1.241641855784376,0.15185546875,1.15380859375,1.73828125,30.17705882352941,309.7923755743512
1.10309912109375,0.1855029296875,0.5230029296875001,1.234816209944685,0.27490234375,2.267578125,0.41552734375,30.17705882352941,309.7923755743512
1.07819677734375,0.1942919921875,0.5103076171875001,1.2085824477718594,0.4208984375,3.171875,-0.54296875,30.17705882352941,309.7923755743512
1.05182958984375,0.1913623046875,0.4976123046875,1.1792298433734572,0.53271484375,3.634765625,-1.31591796875,30.08294117647059,310.3090879445926
1.02692724609375,0.1815966796875,0.4834521484375,1.1494707054431843,0.57958984375,4.02880859375,-1.830078125,30.130000000000003,310.3090879445926
0.99616552734375,0.1664599609375,0.4575732421875,1.1087957198823173,0.578125,4.197265625,-2.13916015625,30.17705882352941,310.3090879445926
0.98981787109375,0.1439990234375,0.4614794921875,1.101561826860912,0.541015625,3.92236328125,-2.54248046875,30.224117647058826,310.3090879445926
0.97468115234375,0.1142138671875,0.4395068359375,1.07527411157707,0.39892578125,3.31982421875,-2.71240234375,30.224117647058826,310.3090879445926
0.97663427734375,0.0893115234375,0.4316943359375,1.071518109777896,0.203125,2.61328125,-2.89697265625,30.08294117647059,310.3090879445926
0.98493505859375,0.0605029296875,0.4282763671875,1.0757222321952664,-0.03173828125,1.6396484375,-3.14111328125,30.224117647058826,310.3090879445926
0.96442724609375,0.0458544921875,0.3071826171875,1.0132046721980263,-0.1806640625,0.93212890625,-3.28125,30.224117647058826,310.2871012397741
0.95856787109375,0.0526904296875,0.4380419921875,1.0552295635516715,-0.41845703125,0.26904296875,-3.22509765625,30.27117647058824,310.2871012397741
0.96052099609375,0.0712451171875,0.4565966796875,1.065906646269569,-0.6640625,-0.44921875,-2.98583984375,30.17705882352941,310.2871012397741
0.96393896484375,0.0834521484375,0.4551318359375,1.0692462658839237,-0.96533203125,-1.18359375,-2.865234375,30.17705882352941,310.2871012397741
0.97956396484375,0.1137255859375,0.4819873046875,1.0976296424555765,-1.15185546875,-1.376953125,-2.56640625,30.224117647058826,310.2871012397741
0.99567724609375,0.1220263671875,0.4932177734375,1.1178226087856953,-1.42431640625,-1.64306640625,-2.564453125,30.224117647058826,310.2871012397741
1.02448583984375,0.1371630859375,0.5190966796875001,1.1566530642534254,-1.73388671875,-1.705078125,-2.72802734375,30.224117647058826,310.2871012397741
1.02643896484375,0.1376513671875,0.5337451171875001,1.1650788374868009,-2.2138671875,-1.361328125,-2.91552734375,30.224117647058826,309.8783265528529
1.01130224609375,0.1337451171875,0.4282763671875,1.1063636997014517,-2.50537109375,-0.671875,-3.00439453125,30.224117647058826,309.8783265528529
0.98005224609375,0.1537646484375,0.5781787109375001,1.1482319425812284,-2.986328125,0.29296875,-3.31201171875,30.130000000000003,309.8783265528529
0.91559912109375,0.1606005859375,0.5835498046875001,1.0975630611960003,-3.32470703125,1.796875,-3.3720703125,30.130000000000003,309.8783265528529
0.86139990234375,0.1728076171875,0.6069873046875001,1.067851044091656,-3.61328125,3.60595703125,-3.4501953125,30.17705882352941,309.8783265528529
0.81403662109375,0.1815966796875,0.6030810546875001,1.0292423101865962,-3.748046875,5.5595703125,-3.56591796875,30.08294117647059,309.8783265528529
0.77253271484375,0.1825732421875,0.5781787109375001,0.9820541767377498,-3.6982421875,7.36376953125,-3.69189453125,30.27117647058824,309.8783265528529
0.73493505859375,0.1654833984375,0.5415576171875001,0.9277925135731728,-3.58447265625,9.02099609375,-3.85693359375,30.17705882352941,309.97527158461384
0.74030615234375,0.1664599609375,0.5210498046875001,0.9204645657265702,-3.45263671875,10.0517578125,-4.10986328125,30.224117647058826,309.97527158461384
0.75593115234375,0.1674365234375,0.5024951171875001,0.9230212561267837,-3.36865234375,10.83740234375,-4.46826171875,30.130000000000003,309.97527158461384
0.77888037109375,0.1562060546875,0.4829638671875,0.9296822365759588,-2.986328125,11.0966796875,-4.8173828125,30.224117647058826,309.97527158461384
0.80134130859375,0.1386279296875,0.4443896484375,0.9267403926594496,-2.728515625,11.02099609375,-5.119140625,30.08294117647059,309.97527158461384
0.82038427734375,0.1391162109375,0.4194873046875,0.9318547534097884,-2.52685546875,10.6357421875,-5.2705078125,30.17705882352941,309.97527158461384
0.84138037109375,0.1259326171875,0.4106982421875,0.944697305526724,-2.212890625,10.06787109375,-5.32421875,30.17705882352941,309.97527158461384
0.84968115234375,0.1039599609375,0.4063037109375,0.9475486476418574,-1.92578125,9.31201171875,-5.36669921875,30.17705882352941,310.0282439559084
0.82331396484375,0.0834521484375,0.4038623046875,0.9208229509156846,-1.75146484375,8.814453125,-5.01220703125,30.17705882352941,310.0282439559084
0.77497412109375,0.0722216796875,0.3872607421875,0.8693513339390051,-1.60986328125,8.59326171875,-4.7353515625,30.17705882352941,310.0282439559084
0.73542333984375,0.0468310546875,0.4155810546875,0.8460190597647634,-1.5634765625,8.12060546875,-4.1640625,30.27117647058824,310.0282439559084
0.67634130859375,0.0258349609375,0.4199755859375,0.7965453557083205,-1.57763671875,7.6376953125,-3.775390625,30.130000000000003,310.0282439559084
0.59919287109375,0.0116748046875,0.4502490234375,0.7495949445803947,-1.58544921875,7.4873046875,-3.388671875,30.224117647058826,310.0282439559084
0.54304052734375,-0.0142041015625,0.4981005859375,0.7370203284511606,-1.4716796875,6.84423828125,-3.13916015625,30.130000000000003,310.0282439559084
0.4947006835937499,-0.0268994140625,0.5352099609375001,0.7293161503159996,-1.3369140625,6.0341796875,-3.212890625,30.224117647058826,309.9432890396826
0.3335678710937499,-0.0395947265625,0.5381396484375001,0.6343733508100824,-1.34814453125,5.27880859375,-3.54833984375,30.27117647058824,309.9432890396826
0.4546616210937499,-0.0347119140625,0.5391162109375001,0.7060937583416852,-1.61767578125,4.28271484375,-4.13232421875,30.130000000000003,309.9432890396826
0.4639389648437499,-0.0161572265625,0.5317919921875001,0.7059059016789931,-2.03076171875,3.04541015625,-5.02392578125,30.27117647058824,309.9432890396826
0.50348974609375,0.0009326171875,0.5503466796875001,0.7459116985538053,-2.4609375,1.9609375,-6.1123046875,30.224117647058826,309.9432890396826
0.53864599609375,0.0160693359375,0.5596240234375001,0.7769020403330629,-2.78955078125,0.8603515625,-7.00537109375,30.17705882352941,309.9432890396826
0.4590561523437499,0.0321826171875,0.5815966796875001,0.7416353347010981,-2.87890625,-0.21630859375,-7.6376953125,30.17705882352941,309.9432890396826
0.60944677734375,0.0243701171875,0.6152880859375001,0.8663709977388713,-3.0126953125,-1.0947265625,-7.7998046875,30.17705882352941,309.7803843272705
0.61384130859375,0.0204638671875,0.6411669921875001,0.8878710682678655,-3.173828125,-1.6376953125,-7.3232421875,30.224117647058826,309.7803843272705
0.61774755859375,0.0067919921875,0.6592333984375001,0.9034638072008582,-3.171875,-2.34765625,-6.3173828125,30.224117647058826,309.7803843272705
0.60944677734375,0.0028857421875,0.6841357421875001,0.9162289100771142,-3.244140625,-2.58740234375,-5.1962890625,30.224117647058826,309.7803843272705
0.59772802734375,-0.0288525390625,0.7041552734375001,0.9240919395776832,-3.21630859375,-2.49072265625,-3.79736328125,30.224117647058826,309.7803843272705
0.59870458984375,-0.0439892578125,0.7422412109375001,0.954622572494928,-3.19677734375,-2.31396484375,-2.7802734375,30.27117647058824,309.7803843272705
0.59723974609375,-0.0537548828125,0.7866748046875001,0.9891623476813242,-3.0751953125,-2.26513671875,-2.16796875,30.17705882352941,309.7803843272705
0.60114599609375,-0.0713330078125,0.8374560546875001,1.0333429005687695,-2.98291015625,-2.4638671875,-2.1904296875,30.224117647058826,309.9422915601082
0.61530615234375,-0.0688916015625,0.8623583984375001,1.0616071407227847,-3.02685546875,-2.7822265625,-2.5859375,30.17705882352941,309.9422915601082
0.60944677734375,-0.0688916015625,0.8843310546875001,1.0762029741016492,-3.1357421875,-2.95556640625,-3.32861328125,30.27117647058824,309.9422915601082
0.63239599609375,-0.0576611328125,0.9063037109375,1.1066326936123434,-3.203125,-2.67724609375,-4.0439453125,30.17705882352941,309.9422915601082
0.65241552734375,-0.0181103515625,0.9082568359375,1.1184384136733412,-3.154296875,-1.9873046875,-4.9228515625,30.224117647058826,309.9422915601082
0.65290380859375,-0.0078564453125,0.8970263671875001,1.1095050294788105,-3.17236328125,-0.732421875,-5.36669921875,30.224117647058826,309.9422915601082
0.63727880859375,0.0282763671875,0.8750537109375001,1.0828863420735724,-3.16015625,0.84375,-5.27490234375,30.17705882352941,309.9422915601082
0.59235693359375,0.0629443359375,0.8677294921875001,1.052522302763785,-3.04345703125,2.5009765625,-4.83447265625,30.17705882352941,310.0392372725162
0.56306005859375,0.0907763671875,0.8872607421875001,1.0547552337156096,-2.76806640625,3.65478515625,-4.1181640625,30.31823529411765,310.0392372725162
0.55768896484375,0.0956591796875,0.8814013671875001,1.0473948778980031,-2.34033203125,4.556640625,-3.42919921875,30.130000000000003,310.0392372725162
0.56745458984375,0.1005419921875,0.8765185546875001,1.048998656071224,-1.9990234375,4.83837890625,-3.375,30.224117647058826,310.0392372725162
0.59528662109375,0.0717333984375,0.8560107421875001,1.0451154158488916,-1.4931640625,4.853515625,-3.80615234375,30.17705882352941,310.0392372725162
0.59382177734375,0.0565966796875,0.8301318359375001,1.02222617479514,-0.94970703125,4.59521484375,-4.2568359375,30.17705882352941,310.0392372725162
0.59821630859375,0.0434130859375,0.8120654296875001,1.009553222961372,-0.58056640625,3.62158203125,-4.97607421875,30.130000000000003,310.0392372725162
0.57526708984375,0.0248583984375,0.8145068359375001,0.9974826065747172,-0.263671875,2.24462890625,-5.47119140625,30.130000000000003,309.90931166167525
0.58014990234375,-0.0078564453125,0.8213427734375001,1.0056040892918123,-0.05322265625,0.6103515625,-5.8017578125,30.17705882352941,309.90931166167525
0.56647802734375,-0.0425244140625,0.8252490234375001,1.0018690692596377,-0.0205078125,-1.32373046875,-6.02294921875,30.17705882352941,309.90931166167525
0.55915380859375,-0.1060009765625,0.8208544921875001,0.9988449759805064,-0.17529296875,-2.92236328125,-6.29150390625,30.130000000000003,309.90931166167525
0.53425146484375,-0.1553173828125,0.8389208984375001,1.0066461100737436,-0.533203125,-4.40576171875,-6.24560546875,30.224117647058826,309.90931166167525
0.53327490234375,-0.1958447265625,0.8564990234375001,1.0277781159090067,-0.92529296875,-5.63330078125,-6.1875,30.130000000000003,309.90931166167525
0.53425146484375,-0.2163525390625,0.8882373046875001,1.0588666385739982,-1.3310546875,-6.47314453125,-5.78076171875,30.17705882352941,309.90931166167525
0.54645849609375,-0.1938916015625,0.8814013671875001,1.0550256921940375,-1.7138671875,-6.89404296875,-5.45263671875,30.08294117647059,310.19015380077155
0.60944677734375,-0.1479931640625,0.8843310546875001,1.0841442548427855,-2.13330078125,-7.2099609375,-5.22314453125,30.130000000000003,310.19015380077155
0.68952490234375,-0.0698681640625,0.8975146484375001,1.1339570959527137,-2.79443359375,-7.361328125,-5.31005859375,30.27117647058824,310.19015380077155
0.81940771484375,0.0170458984375,0.8882373046875001,1.2085880502625834,-3.21044921875,-7.1513671875,-5.990234375,30.224117647058826,310.19015380077155
0.93806005859375,0.0976123046875,0.8848193359375001,1.2932092223627984,-3.53857421875,-6.72216796875,-6.69775390625,30.224117647058826,310.19015380077155
1.04499365234375,0.1459521484375,0.9551318359375,1.4232324431004206,-3.52783203125,-7.236328125,-7.234375,30.27117647058824,310.19015380077155
1.04499365234375,0.1537646484375,0.9902880859375,1.447869398011297,-3.36865234375,-8.08544921875,-6.951171875,30.224117647058826,310.19015380077155
0.89850927734375,0.1645068359375,1.0020068359375005,1.3558757759501554,-2.998046875,-7.52587890625,-5.45556640625,30.17705882352941,310.3510694072737
0.70612646484375,0.1908740234375,1.0039599609375005,1.2421687004354836,-1.9150390625,-5.55908203125,-3.15185546875,30.17705882352941,310.3510694072737
0.58649755859375,0.1537646484375,0.9556201171875,1.1317388222195917,-0.8115234375,-2.1220703125,-0.88330078125,30.08294117647059,310.3510694072737
0.61286474609375,0.1171435546875,0.8936083984375001,1.0898907189105769,-0.36572265625,0.9892578125,0.06298828125,30.27117647058824,310.3510694072737
0.66901708984375,0.1098193359375,0.8286669921875001,1.070669480740827,-0.607421875,3.10986328125,0.03857421875,30.17705882352941,310.3510694072737
0.70270849609375,0.1498583984375,0.7910693359375001,1.0686662080954883,-1.01220703125,4.35888671875,-0.7451171875,30.130000000000003,310.3510694072737
0.73347021484375,0.1811083984375,0.7397998046875001,1.0573942306742534,-1.8154296875,4.80419921875,-2.04443359375,30.130000000000003,310.3510694072737
0.77448583984375,0.2084521484375,0.7026904296875001,1.066327554872841,-2.5732421875,4.3818359375,-3.47509765625,30.224117647058826,310.2321347228487
0.81110693359375,0.2240771484375,0.6846240234375001,1.0848110801625728,-3.17138671875,3.29052734375,-4.5595703125,30.130000000000003,310.2321347228487
0.82868505859375,0.2445849609375,0.6528857421875001,1.082959150570809,-3.66552734375,2.02734375,-5.80810546875,30.224117647058826,310.2321347228487
0.81452490234375,0.2621630859375,0.6372607421875001,1.066902785496285,-3.86669921875,0.6962890625,-6.259765625,30.224117647058826,310.2321347228487
0.79792333984375,0.2655810546875,0.6284716796875001,1.0498531349886788,-3.9912109375,-0.52783203125,-6.7099609375,30.27117647058824,310.2321347228487
0.75934912109375,0.2856005859375,0.6318896484375001,1.0283303507123385,-3.595703125,-1.40234375,-6.49853515625,30.27117647058824,310.2321347228487
0.73835302734375,0.2943896484375,0.6397021484375001,1.0203182331069012,-3.14013671875,-2.09423828125,-5.80322265625,30.17705882352941,310.2321347228487
0.72761083984375,0.2939013671875,0.6421435546875001,1.013974305749168,-2.72216796875,-2.24609375,-5.181640625,30.224117647058826,310.16717104044096
0.73249365234375,0.2890185546875,0.6426318359375001,1.0163928139444611,-2.3916015625,-2.05322265625,-4.5224609375,30.224117647058826,310.16717104044096
0.74909521484375,0.2714404296875,0.6270068359375001,1.0138841748854224,-2.32958984375,-1.82763671875,-4.1201171875,30.224117647058826,310.16717104044096
0.76716162109375,0.2445849609375,0.6406787109375001,1.0289936669603583,-2.3935546875,-1.6591796875,-3.8818359375,30.130000000000003,310.16717104044096
0.79401708984375,0.2231005859375,0.6509326171875001,1.0506903837611543,-2.4912109375,-1.53076171875,-4.08740234375,30.36529411764706,310.16717104044096
0.78327490234375,0.2040576171875,0.6748583984375001,1.0538467354010634,-2.6484375,-1.49853515625,-4.46484375,30.224117647058826,310.16717104044096
0.75153662109375,0.2045458984375,0.6963427734375001,1.044767713671917,-2.8740234375,-1.2626953125,-4.84521484375,30.224117647058826,310.16717104044096
0.71393896484375,0.2118701171875,0.7236865234375001,1.0384218681654704,-3.0810546875,-1.43115234375,-5.046875,30.224117647058826,310.6199313169937
0.69196630859375,0.2108935546875,0.7290576171875001,1.027043559357005,-3.30810546875,-1.36328125,-5.16357421875,30.17705882352941,310.6199313169937
0.58893896484375,0.2084521484375,0.7402880859375001,0.9686732435039408,-3.41357421875,-1.234375,-5.2861328125,30.224117647058826,310.6199313169937
0.73786474609375,0.1947802734375,0.7490771484375001,1.069345740515965,-3.32470703125,-0.8046875,-5.4423828125,30.27117647058824,310.6199313169937
0.75934912109375,0.1898974609375,0.7690966796875001,1.0973521932737442,-3.2373046875,-0.431640625,-5.51123046875,30.27117647058824,310.6199313169937
0.77888037109375,0.1796435546875,0.7808154296875001,1.1174073449078334,-2.86328125,-0.2646484375,-5.3564453125,30.224117647058826,310.6199313169937
0.78571630859375,0.1679248046875,0.7935107421875001,1.1292511481448586,-2.75,-0.3115234375,-4.83935546875,30.17705882352941,310.6199313169937
0.77741552734375,0.1557177734375,0.7969287109375001,1.124152257230309,-2.44482421875,-0.66650390625,-4.32763671875,30.17705882352941,310.2751120601059
0.76227880859375,0.1430224609375,0.9243701171875,1.2066418358042117,-2.3330078125,-0.88232421875,-3.52587890625,30.130000000000003,310.2751120601059
0.76325537109375,0.1552294921875,0.8267138671875001,1.1358304340650318,-2.19775390625,-1.28662109375,-3.033203125,30.130000000000003,310.2751120601059
0.77546240234375,0.1689013671875,0.8228076171875001,1.1431893912157856,-2.19921875,-1.296875,-2.95361328125,30.17705882352941,310.2751120601059
0.78962255859375,0.1835498046875,0.8296435546875001,1.159958078412953,-2.3486328125,-1.0390625,-3.20703125,30.130000000000003,310.2751120601059
0.78669287109375,0.2133349609375,0.8418505859375001,1.171797716344952,-2.501953125,-0.56494140625,-3.51171875,30.27117647058824,310.2751120601059
0.78766943359375,0.2421435546875,0.8403857421875001,1.1769897337558357,-2.9736328125,0.14111328125,-4.17236328125,30.08294117647059,310.2751120601059
0.76911474609375,0.2509326171875,0.8306201171875001,1.1594974989640978,-3.30810546875,1.04541015625,-4.49462890625,30.17705882352941,310.286105330031
0.74177099609375,0.2777880859375,0.8242724609375001,1.143160321737374,-3.466796875,1.85400390625,-4.50732421875,30.130000000000003,310.286105330031
0.71589208984375,0.2899951171875,0.8306201171875001,1.1342523667024107,-3.45849609375,2.5732421875,-4.6064453125,30.17705882352941,310.286105330031
0.70075537109375,0.2772998046875,0.8110888671875001,1.107166844821487,-3.4326171875,2.8642578125,-4.3486328125,30.08294117647059,310.286105330031
0.67975927734375,0.2841357421875,0.7847216796875001,1.0763800024595915,-3.34375,2.92822265625,-4.0029296875,30.224117647058826,310.286105330031
0.66950537109375,0.2831591796875,0.7715380859375001,1.060041310995368,-3.18115234375,2.79150390625,-3.6826171875,30.224117647058826,310.286105330031
0.66608740234375,0.2826708984375,0.7681201171875001,1.0552647908523467,-2.8935546875,2.65771484375,-3.568359375,30.224117647058826,310.286105330031
0.67341162109375,0.2748583984375,0.7456591796875001,1.0416515554003534,-2.55810546875,2.5009765625,-3.74560546875,30.224117647058826,310.39404707710924
0.58503271484375,0.2377490234375,0.7349169921875001,0.9689638078838938,-2.44580078125,1.92431640625,-3.88134765625,30.17705882352941,310.39404707710924
0.68952490234375,0.2216357421875,0.7100146484375001,1.014242473062033,-2.47021484375,1.26904296875,-4.20166015625,30.17705882352941,310.39404707710924
0.69684912109375,0.2084521484375,0.7266162109375001,1.0281158075598833,-2.42919921875,0.71728515625,-4.2666015625,30.17705882352941,310.39404707710924
0.69147802734375,0.1981982421875,0.7285693359375001,1.02383479271503,-2.29248046875,0.08837890625,-4.28076171875,30.17705882352941,310.39404707710924
0.69196630859375,0.1952685546875,0.7466357421875001,1.0365385242191845,-2.01318359375,-0.1435546875,-4.24169921875,30.224117647058826,310.39404707710924
0.68268896484375,0.1796435546875,0.7485888671875001,1.0289418455565194,-1.76708984375,-0.28759765625,-4.068359375,30.224117647058826,310.39404707710924
0.66169287109375,0.1518115234375,0.7666552734375001,1.0240334479860669,-1.64599609375,-0.19677734375,-3.86376953125,30.27117647058824,310.1561778016492
0.65973974609375,0.2621630859375,0.7730029296875001,1.0495330130632274,-1.70458984375,-0.12744140625,-3.49755859375,30.27117647058824,310.1561778016492
0.69294287109375,0.1073779296875,0.8545458984375001,1.105417810115242,-1.88037109375,0.203125,-3.03466796875,30.17705882352941,310.1561778016492
0.70466162109375,0.0971240234375,0.8760302734375001,1.128454747054635,-2.076171875,0.39306640625,-3.24755859375,30.08294117647059,310.1561778016492
0.69538427734375,0.0888232421875,0.8911669921875001,1.1338551360266902,-2.20751953125,0.84130859375,-3.46435546875,30.224117647058826,310.1561778016492
0.68024755859375,0.0937060546875,0.9087451171875,1.1390062570811352,-2.24560546875,1.4296875,-3.53662109375,30.224117647058826,310.16717104044096
0.66657568359375,0.0971240234375,0.9097216796875,1.1319672046400502,-2.26123046875,1.96826171875,-3.48486328125,30.224117647058826,310.16717104044096
0.66218115234375,0.1010302734375,0.9033740234375,1.1246224348161518,-2.208984375,2.54443359375,-3.34130859375,30.17705882352941,310.16717104044096
0.67292333984375,0.0873583984375,0.8955615234375001,1.1236048030093713,-2.09130859375,2.765625,-3.234375,30.224117647058826,310.16717104044096
0.67682958984375,0.0878466796875,0.8755419921875001,1.1101302233989638,-2.1162109375,3.1376953125,-2.822265625,30.17705882352941,310.16717104044096
0.65876318359375,0.0873583984375,0.8594287109375001,1.0863784474205251,-1.9794921875,3.30517578125,-2.47802734375,30.224117647058826,310.16717104044096
0.64264990234375,0.0971240234375,0.8516162109375001,1.071299278279727,-1.99365234375,3.32275390625,-2.16796875,30.224117647058826,310.16717104044096
0.62214208984375,0.1059130859375,0.8564990234375001,1.0638932929938718,-1.95458984375,3.15234375,-2.0849609375,30.224117647058826,310.16717104044096
0.62263037109375,0.1244677734375,0.8677294921875001,1.0752280117467208,-1.94921875,2.82373046875,-2.224609375,30.08294117647059,310.58595744363464
0.61286474609375,0.1381396484375,0.8604052734375001,1.0653558063079451,-2.017578125,2.3955078125,-2.47119140625,30.17705882352941,310.58595744363464
0.60505224609375,0.1620654296875,0.8647998046875001,1.067816522718404,-2.09912109375,1.87841796875,-2.80126953125,30.224117647058826,310.58595744363464
0.60993505859375,0.1762255859375,0.8647998046875001,1.0728256778378835,-2.10888671875,1.4775390625,-3.1044921875,30.224117647058826,310.58595744363464
0.62116552734375,0.1586474609375,0.8652880859375001,1.0769118352435063,-2.158203125,1.1552734375,-3.3916015625,30.130000000000003,310.58595744363464
0.63825537109375,0.1518115234375,0.8530810546875001,1.076180255926103,-2.20263671875,0.94091796875,-3.611328125,30.224117647058826,310.58595744363464
0.65290380859375,0.1464404296875,0.8433154296875001,1.076526403146851,-2.1943359375,0.81005859375,-3.72509765625,30.17705882352941,310.58595744363464
0.65290380859375,0.1347216796875,0.8462451171875001,1.077294812304288,-2.130859375,0.80810546875,-3.7119140625,30.224117647058826,310.58595744363464
0.63386083984375,0.1293505859375,0.8398974609375001,1.0601598385427822,-2.0078125,0.94140625,-3.56591796875,30.130000000000003,310.09520152163856
0.62848974609375,0.1259326171875,0.8389208984375001,1.055768278957017,-1.92138671875,1.0537109375,-3.4951171875,30.130000000000003,310.09520152163856
0.61384130859375,0.1244677734375,0.8472216796875001,1.0536023696314871,-1.7880859375,1.15625,-3.15283203125,30.130000000000003,310.09520152163856
0.61286474609375,0.1190966796875,0.8447802734375001,1.0504479646828209,-1.66015625,1.19140625,-3.00634765625,30.224117647058826,310.09520152163856
0.60114599609375,0.1215380859375,0.8550341796875001,1.0522506656623098,-1.56689453125,1.2197265625,-2.9658203125,30.130000000000003,310.09520152163856
0.59089208984375,0.1273974609375,0.8452685546875001,1.039164329851988,-1.4990234375,1.2109375,-3.00927734375,30.17705882352941,310.09520152163856
0.57917333984375,0.1273974609375,0.8711474609375001,1.053835741155584,-1.421875,1.14208984375,-3.111328125,30.224117647058826,310.09520152163856
0.57331396484375,0.1269091796875,0.8608935546875001,1.0420808772241694,-1.359375,1.06689453125,-3.291015625,30.130000000000003,310.09520152163856
0.57233740234375,0.1278857421875,0.8691943359375001,1.048534052285509,-1.31005859375,0.90185546875,-3.54345703125,30.17705882352941,310.09520152163856
0.58454443359375,0.1308154296875,0.8779833984375001,1.0628545147016242,-1.26611328125,0.724609375,-3.7978515625,30.17705882352941,309.95727770458325
0.70710302734375,0.1147021484375,0.8804248046875001,1.1350326474793124,-1.26123046875,0.52734375,-4.01953125,30.27117647058824,309.95727770458325
0.58796240234375,0.1039599609375,0.8711474609375001,1.0561275295842891,-1.22265625,0.392578125,-4.14599609375,30.17705882352941,309.95727770458325
0.58503271484375,0.0917529296875,0.8945849609375001,1.0728299631718143,-1.10888671875,0.40185546875,-4.1259765625,30.224117647058826,309.95727770458325
0.58747412109375,0.0795458984375,0.9028857421875,1.0801185381052285,-0.9677734375,0.4873046875,-3.96435546875,30.17705882352941,309.95727770458325
0.57477880859375,0.0609912109375,0.9165576171875,1.083590546398639,-0.8408203125,0.7138671875,-3.70263671875,30.224117647058826,309.95727770458325
0.55280615234375,0.0614794921875,0.9365771484375,1.0892892751716845,-0.65576171875,1.0087890625,-3.3173828125,30.17705882352941,309.95727770458325
0.53425146484375,0.0463427734375,0.9282763671875,1.072039782012027,-0.47216796875,1.27685546875,-2.8779296875,30.224117647058826,309.95727770458325
0.50788427734375,0.0356005859375,0.9316943359375,1.061728862050051,-0.35986328125,1.48828125,-2.4716796875,30.17705882352941,310.16315948064977
0.4805405273437499,0.0321826171875,0.9165576171875,1.0353901607091285,-0.30419921875,1.728515625,-2.181640625,30.17705882352941,310.16315948064977
0.4624741210937499,0.0399951171875,0.8994677734375001,1.0121878272005114,-0.28515625,1.91748046875,-2.05078125,30.130000000000003,310.16315948064977
0.4658920898437499,0.0448779296875,0.8838427734375001,1.000123750397772,-0.30224609375,1.9609375,-2.0576171875,30.224117647058826,310.16315948064977
0.4824936523437499,0.0688037109375,0.8579638671875001,0.986729989708488,-0.3095703125,1.83935546875,-2.17333984375,30.224117647058826,310.16315948064977
0.50544287109375,0.0868701171875,0.8301318359375001,0.975775475320336,-0.3603515625,1.5166015625,-2.27099609375,30.27117647058824,310.16315948064977
0.53718115234375,0.1024951171875,0.8198779296875001,0.9855296337854584,-0.48095703125,1.03271484375,-2.625,30.27117647058824,310.16315948064977
0.55182958984375,0.1283740234375,0.8091357421875001,0.9877734737306776,-0.58984375,0.615234375,-2.76123046875,30.17705882352941,310.16315948064977
0.56550146484375,0.1283740234375,0.7959521484375001,0.9847901396928336,-0.67138671875,-0.19384765625,-3.0986328125,30.224117647058826,310.16315948064977
0.57770849609375,0.1488818359375,0.8125537109375001,1.0080458524736489,-0.6845703125,-0.79296875,-3.20849609375,30.17705882352941,310.0562204956019
0.54743505859375,0.1488818359375,0.8389208984375001,1.012738474772656,-0.57666015625,-1.455078125,-3.17138671875,30.130000000000003,310.0562204956019
0.53620458984375,0.1405810546875,0.8696826171875001,1.0313225730801463,-0.34228515625,-1.94091796875,-2.98291015625,30.17705882352941,310.0562204956019
0.52595068359375,0.1210498046875,0.8945849609375001,1.0447772150670034,-0.2373046875,-2.26904296875,-2.68798828125,30.224117647058826,310.0562204956019
0.52936865234375,0.0917529296875,0.9331591796875,1.0767710178239036,0.1376953125,-2.69287109375,-2.44384765625,30.224117647058826,310.0562204956019
0.55768896484375,0.0585498046875,0.9551318359375,1.1075747763283423,0.38916015625,-2.62841796875,-2.28857421875,30.17705882352941,310.0562204956019
0.58991552734375,0.0341357421875,0.9644091796875,1.131039629792636,0.64306640625,-2.15234375,-2.21142578125,30.08294117647059,310.0562204956019
0.62604833984375,0.0170458984375,0.9751513671875,1.158942308918916,0.83984375,-1.40869140625,-2.15771484375,30.130000000000003,310.0562204956019
0.66071630859375,-0.0098095703125,0.9717333984375,1.1751204473373615,0.9267578125,-0.87060546875,-1.92236328125,30.17705882352941,310.0562204956019
0.65339208984375,-0.0225048828125,0.9810107421875,1.1789019336263966,0.9990234375,-0.07763671875,-1.61279296875,30.130000000000003,310.40102584370675
0.61432958984375,-0.0400830078125,0.9717333984375,1.150336163958945,0.73046875,0.5859375,-0.990234375,30.27117647058824,310.40102584370675
0.56501318359375,-0.0518017578125,0.9766162109375,1.1294700275851188,0.52880859375,1.22802734375,-0.20849609375,30.17705882352941,310.40102584370675
0.55817724609375,-0.0532666015625,0.9839404296875,1.1324919152349138,0.3466796875,1.6337890625,0.3935546875,30.224117647058826,310.40102584370675
0.55817724609375,-0.0371533203125,0.9873583984375,1.1348210494311917,0.19140625,2.150390625,0.92919921875,30.130000000000003,310.40102584370675
0.57770849609375,-0.0200634765625,0.9810107421875,1.1386534704807894,0.14697265625,2.37939453125,1.02978515625,30.08294117647059,310.40102584370675
0.59284521484375,-0.1064892578125,0.9561083984375,1.130021539774933,0.1474609375,2.48291015625,0.8779296875,30.27117647058824,310.40102584370675
0.59479833984375,0.0551318359375,0.9150927734375,1.0928034445462993,0.17919921875,2.49365234375,0.564453125,30.31823529411765,310.40102584370675
0.59723974609375,0.0771044921875,0.8882373046875001,1.0731290353299243,0.2060546875,2.22412109375,0.24853515625,30.17705882352941,310.40102584370675
0.55524755859375,0.1000537109375,0.8643115234375001,1.0321555144180246,0.2001953125,1.9453125,-0.16845703125,30.17705882352941,310.12118319703416
0.51423193359375,0.1083544921875,0.8511279296875001,1.0002969210184085,0.15625,1.5927734375,-0.330078125,30.224117647058826,310.12118319703416
0.4839584960937499,0.1347216796875,0.8569873046875001,0.9933745503659188,0.107421875,1.1142578125,-0.36279296875,30.130000000000003,310.12118319703416
0.4512436523437499,0.1508349609375,0.8662646484375001,0.9883250782784428,0.09130859375,0.306640625,-0.31884765625,30.27117647058824,310.12118319703416
0.4336655273437499,0.1493701171875,0.8608935546875001,0.9754562696591886,0.10107421875,-0.4658203125,-0.28662109375,30.17705882352941,310.12118319703416
0.4356186523437499,0.1483935546875,0.8804248046875001,0.9934445601298544,0.10595703125,-1.1787109375,-0.36474609375,30.224117647058826,310.12118319703416
0.4580795898437499,0.1259326171875,0.9106982421875,1.0271646523447515,0.1171875,-2.03662109375,-0.6083984375,30.224117647058826,310.12118319703416
0.4854233398437499,0.0937060546875,0.9429248046875,1.064670761712332,0.19580078125,-2.55078125,-0.95556640625,30.17705882352941,310.12118319703416
0.50983740234375,0.0590380859375,0.9775927734375,1.1041319228683726,0.326171875,-2.7890625,-1.337890625,30.130000000000003,309.97027047622976
0.53034521484375,0.0292529296875,1.0093310546875005,1.1405573018307964,0.4287109375,-2.7607421875,-1.56787109375,30.130000000000003,309.97027047622976
0.54352880859375,0.0092333984375,1.0366748046875005,1.1705569068148347,0.49072265625,-2.65576171875,-1.677734375,30.224117647058826,309.97027047622976
0.56208349609375,-0.0146923828125,1.0659716796875005,1.20517606373072,0.52197265625,-2.39892578125,-1.6357421875,30.27117647058824,309.97027047622976
0.56257177734375,-0.0273876953125,1.0742724609375005,1.2129709027206503,0.5146484375,-1.97314453125,-1.4326171875,30.130000000000003,309.97027047622976
0.54694677734375,-0.0268994140625,1.0855029296875005,1.2158087703597822,0.5087890625,-1.181640625,-1.22021484375,30.130000000000003,309.97027047622976
0.54548193359375,-4.394531249999993e-05,1.0708544921875005,1.2017819624401571,0.427734375,-0.44189453125,-0.83056640625,30.130000000000003,309.97027047622976
0.55475927734375,0.0053271484375,1.0693896484375005,1.2047325240461948,0.30224609375,0.15625,-0.7109375,30.17705882352941,309.97027047622976
0.56208349609375,0.0248583984375,1.0459521484375005,1.1876749106446902,0.03759765625,0.8095703125,-0.85107421875,30.224117647058826,309.97027047622976
0.54987646484375,0.0551318359375,1.0303271484375005,1.1691782065751355,-0.22265625,1.41455078125,-1.0126953125,30.224117647058826,310.2291217055799
0.53766943359375,0.0844287109375,1.0073779296875005,1.1450008385468833,-0.42138671875,1.775390625,-1.5751953125,30.224117647058826,310.2291217055799
0.50544287109375,0.0976123046875,0.9844287109375,1.1109007808458713,-0.61328125,2.05859375,-2.08447265625,30.224117647058826,310.2291217055799
0.4595444335937499,0.1088427734375,0.9585498046875,1.0685717401480408,-0.69970703125,2.33642578125,-2.533203125,30.130000000000003,310.2291217055799
0.4185288085937499,0.1000537109375,0.9399951171875,1.0338123277614804,-0.6884765625,2.5166015625,-2.85986328125,30.224117647058826,310.2291217055799
0.3736069335937499,0.0858935546875,0.9248583984375,1.001160776662049,-0.55908203125,2.50341796875,-3.10107421875,30.27117647058824,310.2291217055799
0.3399155273437499,0.0634326171875,0.9028857421875,0.9668344874372804,-0.3828125,2.357421875,-3.28125,30.130000000000003,310.2291217055799
0.3394272460937499,0.0512255859375,0.8755419921875001,0.940430059137352,-0.32666015625,1.6298828125,-3.439453125,30.224117647058826,310.0872029098556
0.3633530273437499,0.0253466796875,0.8647998046875001,0.9383744342417834,-0.32958984375,0.74072265625,-3.71240234375,30.27117647058824,310.0872029098556
0.4209702148437499,-0.0024853515625,0.8731005859375001,0.9692918713795076,-0.38330078125,-0.76220703125,-4.18017578125,30.27117647058824,310.0872029098556
0.4639389648437499,-0.0337353515625,0.8916552734375001,1.0056970536370478,-0.4404296875,-2.50439453125,-4.51123046875,30.17705882352941,310.0872029098556
0.4947006835937499,-0.0508251953125,0.9087451171875,1.035919714475403,-0.49560546875,-3.939453125,-4.9482421875,30.224117647058826,310.0872029098556
0.4927475585937499,-0.0762158203125,0.9370654296875,1.0614615524273254,-0.5244140625,-4.9052734375,-4.98291015625,30.224117647058826,310.0872029098556
0.4990952148437499,-0.0947705078125,0.9658740234375,1.091324934097225,-0.5859375,-5.6865234375,-4.65087890625,30.224117647058826,310.0872029098556
0.4947006835937499,-0.1074658203125,1.0034716796875005,1.1239364220534964,-0.615234375,-5.80322265625,-4.171875,30.224117647058826,310.22512804641684
0.4903061523437499,-0.1020947265625,1.0230029296875005,1.139016439902082,-0.62255859375,-5.41455078125,-3.7294921875,30.17705882352941,310.22512804641684
0.50300146484375,-0.0884228515625,1.0625537109375005,1.1789187685928386,-0.6552734375,-4.64697265625,-3.015625,30.224117647058826,310.22512804641684
0.50788427734375,-0.0889111328125,1.0767138671875005,1.1938024880627645,-0.720703125,-3.578125,-2.6953125,30.27117647058824,310.22512804641684
0.52106787109375,-0.0762158203125,1.0718310546875005,1.194212036174732,-0.82666015625,-2.14794921875,-2.6171875,30.130000000000003,310.22512804641684
0.53083349609375,-0.0561962890625,1.0542529296875005,1.181690087643197,-0.87646484375,-0.5517578125,-2.732421875,30.224117647058826,310.22512804641684
0.52741552734375,-0.0420361328125,1.0239794921875005,1.152591937923256,-1.1806640625,1.0029296875,-2.974609375,30.27117647058824,310.22512804641684
0.52692724609375,-0.0303173828125,0.9990771484375,1.1299232783275817,-1.306640625,2.173828125,-3.01171875,30.17705882352941,309.97527158461384
0.51276708984375,-0.0215283203125,0.9697802734375,1.09720888428358,-1.36328125,2.66357421875,-3.12744140625,30.224117647058826,309.97527158461384
0.4883530273437499,-0.0254345703125,0.9302294921875,1.0509341105979009,-1.39990234375,2.8154296875,-3.32080078125,30.130000000000003,309.97527158461384
0.4790756835937499,-0.0098095703125,0.9121630859375,1.0303646119833298,-1.33154296875,2.61279296875,-3.3623046875,30.224117647058826,309.97527158461384
0.4702866210937499,-0.0132275390625,0.8862841796875001,1.0034162251696808,-1.248046875,1.79296875,-3.40771484375,30.08294117647059,309.97527158461384
0.4776108398437499,-0.0166455078125,0.8779833984375001,0.9996219461368634,-1.14892578125,0.966796875,-3.47509765625,30.224117647058826,309.97527158461384
0.4693100585937499,-0.0181103515625,0.8716357421875001,0.990115540222322,-1.08544921875,-0.17041015625,-3.537109375,30.17705882352941,309.97527158461384
0.4580795898437499,-0.0078564453125,0.8716357421875001,0.98470680987953,-1.064453125,-1.1025390625,-3.58935546875,30.17705882352941,310.3930518790333
0.3340561523437499,0.0063037109375,0.8862841796875001,0.947170996628718,-1.04638671875,-1.736328125,-3.50439453125,30.17705882352941,310.3930518790333
0.3330795898437499,0.0141162109375,0.9038623046875,0.9633838001631084,-1.01171875,-2.24853515625,-3.71484375,30.17705882352941,310.3930518790333
0.4580795898437499,0.0185107421875,0.9277880859375,1.0348769446728052,-1.0341796875,-2.38232421875,-3.84716796875,30.17705882352941,310.3930518790333
0.4746811523437499,0.0229052734375,0.9463427734375,1.0589671821067057,-1.07275390625,-2.54833984375,-4.03369140625,30.224117647058826,310.3930518790333
0.4903061523437499,0.0297412109375,0.9605029296875,1.078819049049669,-1.10595703125,-2.4794921875,-4.22705078125,30.130000000000003,310.3930518790333
0.4854233398437499,0.0302294921875,0.9780810546875,1.0923333697189643,-1.14501953125,-2.1083984375,-4.43505859375,30.224117647058826,310.3930518790333
0.51032568359375,0.0189990234375,0.9878466796875,1.1120406147244015,-1.203125,-1.52734375,-4.58740234375,30.17705882352941,310.1241940411977
0.51374365234375,0.0028857421875,0.9888232421875,1.114321440214478,-1.23779296875,-1.03466796875,-4.67919921875,30.130000000000003,310.1241940411977
0.51276708984375,0.0014208984375,0.9902880859375,1.1151693147360875,-1.2470703125,-0.46533203125,-4.65087890625,30.224117647058826,310.1241940411977
0.51130224609375,0.0004443359375,0.9751513671875,1.1010678331613315,-1.12646484375,-0.10498046875,-4.55517578125,30.130000000000003,310.1241940411977
0.51423193359375,-0.0024853515625,0.9639208984375,1.0925127719823295,-1.2353515625,0.404296875,-4.45654296875,30.224117647058826,310.1241940411977
0.51374365234375,0.0053271484375,0.9385302734375,1.06995326673301,-1.18359375,0.662109375,-4.39892578125,30.03588235294118,310.1241940411977
0.51179052734375,0.0033740234375,0.9175341796875,1.0506235761716771,-1.1435546875,0.77685546875,-4.43603515625,30.224117647058826,310.1241940411977
0.51618505859375,0.0038623046875,0.8980029296875001,1.0357949574313756,-1.1064453125,0.73095703125,-4.537109375,30.17705882352941,310.1561778016492
0.54157568359375,0.0121630859375,0.8750537109375001,1.029160414486027,-1.12158203125,0.3447265625,-4.6884765625,30.17705882352941,310.1561778016492
0.54645849609375,0.0063037109375,0.8555224609375001,1.0151725498126822,-1.15576171875,-0.35107421875,-4.9169921875,30.27117647058824,310.1561778016492
0.56794287109375,0.0121630859375,0.8447802734375001,1.018018052823658,-1.13916015625,-0.97119140625,-5.14892578125,30.17705882352941,310.1561778016492
0.70514990234375,0.0229052734375,0.8330615234375001,1.0916741904793092,-1.1005859375,-1.6064453125,-5.31103515625,30.130000000000003,310.1561778016492
0.59479833984375,0.0287646484375,0.8228076171875001,1.0156893447222854,-0.95263671875,-2.2353515625,-5.43359375,30.17705882352941,310.1561778016492
0.60309912109375,0.0468310546875,0.8359912109375001,1.031892921921623,-0.6953125,-2.75732421875,-5.435546875,30.17705882352941,310.1561778016492
0.62751318359375,0.0385302734375,0.8447802734375001,1.0530484736916288,-0.55126953125,-3.7138671875,-5.25390625,30.17705882352941,310.31709436193864
0.62507177734375,0.0360888671875,0.8599169921875001,1.0637078389385632,-0.310546875,-4.23046875,-4.95458984375,30.31823529411765,310.31709436193864
0.63190771484375,0.0004443359375,0.8672412109375001,1.0730400157784503,-0.189453125,-4.80615234375,-4.455078125,30.17705882352941,310.31709436193864
0.62507177734375,-0.0225048828125,0.8877490234375001,1.0859647900352545,-0.20556640625,-5.05859375,-3.82958984375,30.08294117647059,310.31709436193864
0.62311865234375,-0.0298291015625,0.9214404296875,1.1127529355887595,-0.1904296875,-4.89404296875,-3.1533203125,30.224117647058826,310.31709436193864
0.62018896484375,-0.0410595703125,0.9644091796875,1.147347073162139,-0.06396484375,-4.2578125,-2.55078125,30.224117647058826,310.31709436193864
0.62653662109375,-0.0415478515625,0.9722216796875,1.1573631046458224,-0.025390625,-3.3662109375,-2.091796875,30.130000000000003,310.31709436193864
0.61628271484375,-0.0415478515625,0.9775927734375,1.1563815284160612,-0.09130859375,-2.0791015625,-1.9306640625,30.224117647058826,310.25014103923
0.61872412109375,-0.0322705078125,1.0029833984375005,1.1789133221907993,-0.18701171875,-0.74365234375,-1.9169921875,30.17705882352941,310.25014103923
0.59675146484375,-0.0200634765625,0.9766162109375,1.144680775304126,-0.390625,0.7978515625,-1.8828125,30.224117647058826,310.25014103923
0.60261083984375,-0.0024853515625,0.9771044921875,1.1479891941662914,-0.59423828125,2.17333984375,-2.14697265625,30.224117647058826,310.25014103923
0.60114599609375,0.0268115234375,0.9609912109375,1.1338427906494395,-0.78369140625,3.13916015625,-2.25927734375,30.27117647058824,310.25014103923
0.59138037109375,0.0385302734375,0.9419482421875,1.1128709791553877,-0.94287109375,3.767578125,-2.31103515625,30.130000000000003,310.25014103923
0.57477880859375,0.0541552734375,0.9321826171875,1.0964797783069593,-1.0224609375,4.2099609375,-2.39453125,30.17705882352941,310.25014103923
0.58356787109375,0.0605029296875,0.9292529296875,1.098964545381908,-1.064453125,4.16943359375,-2.4697265625,30.17705882352941,310.4780137711252
0.57380224609375,0.0653857421875,0.9170458984375,1.083742355333907,-1.0322265625,4.00439453125,-2.56103515625,30.224117647058826,310.4780137711252
0.57184912109375,0.0624560546875,0.8994677734375001,1.0676864949578768,-0.98583984375,3.7919921875,-2.64501953125,30.224117647058826,310.4780137711252
0.57380224609375,0.0683154296875,0.8945849609375001,1.0649874496402143,-0.92333984375,3.646484375,-2.7041015625,30.130000000000003,310.4780137711252
0.57868505859375,0.0692919921875,0.8989794921875001,1.0713738397938697,-0.7958984375,3.46728515625,-2.7783203125,30.27117647058824,310.4780137711252
0.59235693359375,0.0634326171875,0.8814013671875001,1.063850931183425,-0.63037109375,3.2744140625,-2.78955078125,30.27117647058824,310.4780137711252
0.59186865234375,0.0507373046875,0.8706591796875001,1.054006728103891,-0.45263671875,3.0458984375,-2.75341796875,30.27117647058824,310.4780137711252
0.70661474609375,0.0409716796875,0.8677294921875001,1.1197935298730417,-0.27734375,2.82958984375,-2.603515625,30.17705882352941,310.316099594209
0.56061865234375,0.0287646484375,0.8740771484375001,1.0388125623884643,-0.15185546875,2.43310546875,-2.474609375,30.130000000000003,310.316099594209
0.54987646484375,0.0189990234375,0.8823779296875001,1.0398634046259332,-0.0556640625,1.83447265625,-2.0869140625,30.27117647058824,310.316099594209
0.56013037109375,0.0189990234375,0.8892138671875001,1.0510986143610643,-0.06640625,0.9423828125,-1.8955078125,30.224117647058826,310.316099594209
0.55134130859375,0.0219287109375,0.8999560546875001,1.0556415145748768,-0.10009765625,0.32177734375,-1.8955078125,30.224117647058826,310.316099594209
0.54792333984375,0.0439013671875,0.9092333984375,1.062474794628403,-0.0751953125,-0.0576171875,-2.0,30.130000000000003,310.316099594209
0.53718115234375,0.0575732421875,0.9214404296875,1.0681435924593774,-0.0537109375,-0.24365234375,-2.130859375,30.130000000000003,310.316099594209
0.52595068359375,0.0805224609375,0.9526904296875,1.091204400241457,-0.0224609375,-0.2744140625,-2.1728515625,30.224117647058826,310.3810639590199
0.51179052734375,0.0863818359375,0.9590380859375,1.0904794430604323,0.0517578125,-0.1904296875,-2.13818359375,30.17705882352941,310.3810639590199
0.51374365234375,0.0893115234375,0.9712451171875,1.1023729705516112,0.1484375,0.00537109375,-2.08984375,30.17705882352941,310.3810639590199
0.50690771484375,0.0912646484375,0.9741748046875,1.1019533644898327,0.26416015625,0.5546875,-2.1220703125,30.17705882352941,310.3810639590199
0.51325537109375,0.0893115234375,0.9780810546875,1.1081742524142684,0.32666015625,1.05078125,-2.19580078125,30.17705882352941,310.3810639590199
0.51325537109375,0.0819873046875,0.9575732421875,1.0895409621670884,0.3427734375,1.537109375,-2.29833984375,30.224117647058826,310.3810639590199
0.51423193359375,0.0741748046875,0.9556201171875,1.0877252371584687,0.33349609375,1.8974609375,-2.32177734375,30.130000000000003,310.3810639590199
0.50690771484375,0.0771044921875,0.9448779296875,1.0750324814135344,0.30615234375,2.3505859375,-2.31396484375,30.27117647058824,310.2831202536807
0.51130224609375,0.0731982421875,0.9375537109375,1.070418110091814,0.30224609375,2.50439453125,-2.21630859375,30.224117647058826,310.2831202536807
0.52057958984375,0.0692919921875,0.9302294921875,1.0682375193179716,0.2373046875,2.4384765625,-2.060546875,30.224117647058826,310.2831202536807
0.52448583984375,0.0712451171875,0.9165576171875,1.0584134960137708,0.1552734375,2.193359375,-1.97509765625,30.224117647058826,310.2831202536807
0.53864599609375,0.0771044921875,0.9009326171875,1.052503773169312,0.04736328125,1.8291015625,-1.953125,30.17705882352941,310.2831202536807
0.54743505859375,0.0946826171875,0.9038623046875,1.060950991898314,0.005859375,1.40625,-2.00244140625,30.17705882352941,310.2831202536807
0.55964208984375,0.1093310546875,0.8999560546875001,1.0653982582172976,-0.0400390625,1.0068359375,-2.15625,30.27117647058824,310.2831202536807
0.55280615234375,0.1332568359375,0.9023974609375,1.066617646534887,-0.02978515625,0.71875,-2.3408203125,30.224117647058826,310.5519845073625
0.55182958984375,0.1391162109375,0.9019091796875,1.066447084846364,-0.06640625,0.62158203125,-2.54638671875,30.130000000000003,310.5519845073625
0.54450537109375,0.1518115234375,0.9102099609375,1.0714546237653757,-0.09765625,0.35107421875,-2.82177734375,30.130000000000003,310.5519845073625
0.54841162109375,0.1664599609375,0.8994677734375001,1.0665394977208311,-0.2490234375,0.2275390625,-3.08154296875,30.224117647058826,310.5519845073625
0.54938818359375,0.1840380859375,0.8960498046875001,1.0670532535110353,-0.2060546875,0.07958984375,-3.337890625,30.224117647058826,310.5519845073625
0.56354833984375,0.1894091796875,0.8804248046875001,1.062360769889194,-0.2646484375,-0.046875,-3.58056640625,30.224117647058826,310.5519845073625
0.56110693359375,0.1928271484375,0.8779833984375001,1.0596594490841766,-0.298828125,-0.15234375,-3.8583984375,30.17705882352941,310.5519845073625
0.56452490234375,0.1894091796875,0.8696826171875001,1.053998129673014,-0.31494140625,-0.2607421875,-4.05712890625,30.17705882352941,310.5619845015634
0.56208349609375,0.1796435546875,0.8613818359375001,1.0441208409972438,-0.3056640625,-0.3505859375,-4.18359375,30.17705882352941,310.5619845015634
0.54938818359375,0.1747607421875,0.8540576171875001,1.030428603425951,-0.3291015625,-0.5390625,-4.1767578125,30.27117647058824,310.5619845015634
0.52546240234375,0.1679248046875,0.8638232421875001,1.024939056748997,-0.30712890625,-0.77880859375,-4.048828125,30.27117647058824,310.5619845015634
0.50593115234375,0.1703662109375,0.8691943359375001,1.0200440041326193,-0.375,-1.16650390625,-3.92236328125,30.17705882352941,310.5619845015634
0.4986069335937499,0.1723193359375,0.8643115234375001,1.0125893725062274,-0.2060546875,-1.46337890625,-3.8837890625,30.224117647058826,310.5619845015634
0.4907944335937499,0.1703662109375,0.8516162109375001,0.9975740536959424,-0.26123046875,-1.53515625,-3.99609375,30.224117647058826,310.5619845015634
0.50007177734375,0.1679248046875,0.8535693359375001,1.0034197196476942,-0.390625,-1.55078125,-4.18212890625,30.17705882352941,310.3590776728549
0.51862646484375,0.1732958984375,0.8540576171875001,1.0141100985236151,-0.50048828125,-1.7109375,-4.4228515625,30.224117647058826,310.3590776728549
0.52595068359375,0.1581591796875,0.8682177734375001,1.0273463631146635,-0.56396484375,-2.04541015625,-4.662109375,30.224117647058826,310.3590776728549
0.52009130859375,0.1449755859375,0.8877490234375001,1.03904341507317,-0.55810546875,-2.412109375,-4.74755859375,30.130000000000003,310.3590776728549
0.4956772460937499,0.1269091796875,0.9077685546875,1.042039164841452,-0.4482421875,-2.81494140625,-4.63818359375,30.17705882352941,310.3590776728549
0.4917709960937499,0.1190966796875,0.9268115234375,1.0559367081829127,-0.38916015625,-3.197265625,-4.40283203125,30.17705882352941,310.3590776728549
0.4800522460937499,0.1103076171875,0.9336474609375,1.055611439263652,-0.4931640625,-3.26806640625,-4.173828125,30.17705882352941,310.3590776728549
0.4859116210937499,0.1078662109375,0.9380419921875,1.061917135224337,-0.38330078125,-3.0224609375,-4.07080078125,30.17705882352941,310.6279429118852
0.50593115234375,0.1156787109375,0.9497607421875,1.0823092730253157,-0.44287109375,-2.73583984375,-4.02734375,30.130000000000003,310.6279429118852
0.53083349609375,0.1151904296875,0.9644091796875,1.1068595672135744,-0.48095703125,-2.21337890625,-4.0244140625,30.17705882352941,310.6279429118852
0.55817724609375,0.1073779296875,0.9766162109375,1.1299872040455572,-0.39794921875,-1.92822265625,-3.97802734375,30.130000000000003,310.6279429118852
0.55720068359375,0.0902880859375,0.9844287109375,1.1347794619121672,-0.30126953125,-1.77001953125,-3.7626953125,30.130000000000003,310.6279429118852
0.53571630859375,0.0819873046875,1.0005419921875005,1.1378919806175658,-0.20068359375,-1.74951171875,-3.39697265625,30.224117647058826,310.6279429118852
0.50934912109375,0.0717333984375,0.9888232421875,1.1146091745094189,-0.1552734375,-1.380859375,-2.9599609375,30.27117647058824,310.6279429118852
0.4981186523437499,0.0575732421875,0.9888232421875,1.1086966556813156,-0.17236328125,-1.0341796875,-2.5703125,30.224117647058826,310.2201459206165
0.4971420898437499,0.0644091796875,1.0000537109375005,1.1186626947753702,-0.140625,-0.83203125,-2.33642578125,30.130000000000003,310.2201459206165
0.50739599609375,0.0629443359375,1.0151904296875005,1.1366724659318854,-0.005859375,-0.783203125,-2.26318359375,30.224117647058826,310.2201459206165
0.53034521484375,0.0722216796875,0.9888232421875,1.1243902446280591,0.04443359375,-0.73388671875,-2.34814453125,30.17705882352941,310.2201459206165
0.52692724609375,0.0854052734375,0.9746630859375,1.1112670761325056,0.04248046875,-0.58447265625,-2.4111328125,30.130000000000003,310.2201459206165
0.51569677734375,0.0917529296875,0.9727099609375,1.1047743816617044,0.08349609375,-0.45361328125,-2.31787109375,30.17705882352941,310.2201459206165
0.51227880859375,0.1020068359375,0.9561083984375,1.0894853105365547,0.16943359375,-0.34619140625,-2.12890625,30.31823529411765,310.2201459206165
0.50641943359375,0.1107958984375,0.9414599609375,1.0747479852879125,0.2705078125,-0.2939453125,-1.89111328125,30.224117647058826,310.10121181782114
0.50397802734375,0.1298388671875,0.9282763671875,1.0642128534069928,0.302734375,-0.2236328125,-1.73681640625,30.130000000000003,310.10121181782114
0.4995834960937499,0.1469287109375,0.9067919921875,1.0456784557225918,0.28466796875,-0.16064453125,-1.34912109375,30.224117647058826,310.10121181782114
0.51325537109375,0.1718310546875,0.9097216796875,1.0585605895767365,0.2119140625,-0.11181640625,-1.240234375,30.224117647058826,310.10121181782114
0.52790380859375,0.1869677734375,0.9209521484375,1.077864666432484,0.12109375,-0.00927734375,-1.2734375,30.17705882352941,310.10121181782114
0.52399755859375,0.1977099609375,0.9185107421875,1.0757902460888695,0.060546875,0.185546875,-1.408203125,30.17705882352941,310.10121181782114
0.51716162109375,0.2079638671875,0.9170458984375,1.0731627519761098,0.0234375,0.37646484375,-1.4931640625,30.17705882352941,310.10121181782114
0.50007177734375,0.2152880859375,0.9399951171875,1.0862833713072806,0.02685546875,0.716796875,-1.4541015625,30.17705882352941,310.6489360244328
0.4995834960937499,0.2152880859375,0.9268115234375,1.074668427698714,0.1123046875,0.8564453125,-1.33251953125,30.31823529411765,310.6489360244328
0.50690771484375,0.2147998046875,0.9258349609375,1.0771558672522945,0.21337890625,0.90625,-1.21240234375,30.130000000000003,310.6489360244328
0.51813818359375,0.2050341796875,0.9058154296875,1.0634884977271295,0.30029296875,0.90087890625,-1.17578125,30.130000000000003,310.6489360244328
0.52399755859375,0.1942919921875,0.8994677734375001,1.058945274833885,0.353515625,0.83984375,-1.23974609375,30.08294117647059,310.6489360244328
0.53669287109375,0.1815966796875,0.8945849609375001,1.0589139928681297,0.337890625,0.75146484375,-1.365234375,30.17705882352941,310.6489360244328
0.53278662109375,0.1728076171875,0.8833544921875001,1.0459632952653517,0.26171875,0.73974609375,-1.53759765625,30.17705882352941,310.6489360244328
0.52741552734375,0.1679248046875,0.8701708984375001,1.0312920396280325,0.1875,0.44921875,-1.6044921875,30.224117647058826,310.49801247322534
0.52350927734375,0.1649951171875,0.8755419921875001,1.0333726976480213,0.146484375,0.3720703125,-1.6044921875,30.17705882352941,310.49801247322534
0.51227880859375,0.1601123046875,0.8765185546875001,1.027789036990587,0.11328125,-0.0517578125,-1.48291015625,30.224117647058826,310.49801247322534
0.50886083984375,0.1606005859375,0.8774951171875001,1.0270002839424437,0.00244140625,-0.2578125,-1.2998046875,30.27117647058824,310.49801247322534
0.51520849609375,0.1562060546875,0.8774951171875001,1.029484243034405,0.16796875,-0.70703125,-1.11181640625,30.17705882352941,310.49801247322534
0.52009130859375,0.1552294921875,0.8843310546875001,1.037609068389562,0.24267578125,-0.9853515625,-0.958984375,30.224117647058826,310.49801247322534
0.52839208984375,0.1571826171875,0.8955615234375001,1.0516344507560855,0.27685546875,-1.169921875,-0.884765625,30.130000000000003,310.49801247322534
0.54157568359375,0.1503466796875,0.9087451171875,1.0685158085705688,0.2568359375,-1.31640625,-0.88427734375,30.17705882352941,310.24014233315575
0.54889990234375,0.1635302734375,0.9263232421875,1.0890858561841137,0.2705078125,-1.38134765625,-0.91552734375,30.224117647058826,310.24014233315575
0.54157568359375,0.1635302734375,0.9482958984375,1.1042243804517118,0.27294921875,-1.3359375,-0.98828125,30.17705882352941,310.24014233315575
0.52985693359375,0.1728076171875,0.9399951171875,1.0927953435898852,0.1982421875,-1.10888671875,-0.9931640625,30.27117647058824,310.24014233315575
0.52790380859375,0.1835498046875,0.9297412109375,1.0848002955586502,0.08154296875,-0.53369140625,-0.9912109375,30.224117647058826,310.24014233315575
0.54401708984375,0.1850146484375,0.9307177734375,1.0938101242770484,-0.00146484375,-0.1484375,-1.02197265625,30.224117647058826,310.24014233315575
0.55085302734375,0.1874560546875,0.9282763671875,1.095571012783562,-0.0576171875,0.04736328125,-1.076171875,30.17705882352941,310.24014233315575
0.54499365234375,0.1942919921875,0.9253466796875,1.09134501278553,-0.08154296875,0.0595703125,-1.125,30.17705882352941,310.3151052686218
0.53913427734375,0.2040576171875,0.9111865234375,1.078223613464909,-0.1298828125,-0.04443359375,-1.169921875,30.27117647058824,310.3151052686218
0.53278662109375,0.2035693359375,0.9155810546875,1.0786986260551206,-0.1416015625,-0.27587890625,-1.24560546875,30.17705882352941,310.3151052686218
0.53034521484375,0.2040576171875,0.9126513671875,1.0750991005805544,-0.193359375,-0.578125,-1.32763671875,30.224117647058826,310.3151052686218
0.53034521484375,0.2011279296875,0.9048388671875,1.0679194101528455,-0.2626953125,-0.80908203125,-1.4443359375,30.224117647058826,310.3151052686218
0.54011083984375,0.2040576171875,0.9014208984375,1.0704760000059932,-0.3408203125,-0.91845703125,-1.51220703125,30.31823529411765,310.3151052686218
0.55036474609375,0.1928271484375,0.8975146484375001,1.0703346238804314,-0.35107421875,-0.88427734375,-1.60498046875,30.224117647058826,310.3151052686218
0.57282568359375,0.1972216796875,0.8940966796875001,1.0800159847667152,-0.28662109375,-1.00146484375,-1.6318359375,30.130000000000003,310.28212611252195
0.59040380859375,0.1967333984375,0.8945849609375001,1.0897536141708006,-0.1748046875,-1.27734375,-1.5927734375,30.27117647058824,310.28212611252195
0.59723974609375,0.1889208984375,0.8887255859375001,1.0872992169961826,-0.0693359375,-1.43701171875,-1.46044921875,30.27117647058824,310.28212611252195
0.60554052734375,0.1884326171875,0.8872607421875001,1.0906043306823017,-0.005859375,-1.55810546875,-1.30810546875,30.17705882352941,310.28212611252195
0.61384130859375,0.2001513671875,0.8945849609375001,1.1032424820766564,0.052734375,-1.60595703125,-1.16455078125,30.224117647058826,310.28212611252195
0.62116552734375,0.1962451171875,0.8892138671875001,1.1022976276753589,0.04736328125,-1.45556640625,-1.1015625,30.224117647058826,310.28212611252195
0.61774755859375,0.1947802734375,0.8794482421875001,1.0922365182301907,-0.03515625,-1.0068359375,-1.1064453125,30.224117647058826,310.28212611252195
0.60602880859375,0.2084521484375,0.8892138671875001,1.0960951220730428,-0.1591796875,-0.55078125,-1.12353515625,30.224117647058826,310.18617149071054
0.59235693359375,0.2167529296875,0.8916552734375001,1.0922077164869362,-0.3017578125,-0.12841796875,-1.1298828125,30.224117647058826,310.18617149071054
0.57966162109375,0.2299365234375,0.8862841796875001,1.0836872459081093,-0.3955078125,0.1455078125,-1.1337890625,30.130000000000003,310.18617149071054
0.56403662109375,0.2333544921875,0.8931201171875001,1.0817833298234698,-0.4931640625,0.529296875,-1.16064453125,30.17705882352941,310.18617149071054
0.56110693359375,0.2397021484375,0.8770068359375001,1.068381533523319,-0.54638671875,0.67236328125,-1.2275390625,30.17705882352941,310.18617149071054
0.56110693359375,0.2489794921875,0.8789599609375001,1.0721018568159362,-0.60498046875,0.67041015625,-1.33349609375,30.27117647058824,310.18617149071054
0.56989599609375,0.2397021484375,0.8696826171875001,1.0670456508356805,-0.62255859375,0.54345703125,-1.482421875,30.17705882352941,310.18617149071054
0.57477880859375,0.2382373046875,0.8716357421875001,1.0709232275060474,-0.6162109375,0.31005859375,-1.6328125,30.224117647058826,310.0142622291981
0.56696630859375,0.2270068359375,0.8760302734375001,1.0679007157136655,-0.57861328125,0.08544921875,-1.7158203125,30.17705882352941,310.0142622291981
0.55866552734375,0.2108935546875,0.8867724609375001,1.0690877701705084,-0.4794921875,-0.15087890625,-1.73681640625,30.17705882352941,310.0142622291981
0.56794287109375,0.1933154296875,0.9053271484375,1.0860696137354409,-0.365234375,-0.32666015625,-1.71533203125,30.224117647058826,310.0142622291981
0.57331396484375,0.1786669921875,0.9209521484375,1.0994378818713844,-0.2509765625,-0.4775390625,-1.66943359375,30.224117647058826,310.0142622291981
0.59919287109375,0.1566943359375,0.9380419921875,1.1240587132314572,-0.09423828125,-0.490234375,-1.609375,30.27117647058824,310.0142622291981
0.60309912109375,0.1317919921875,0.9522021484375,1.13480686046472,-0.01025390625,-0.271484375,-1.53125,30.27117647058824,310.0142622291981
0.61042333984375,0.1161669921875,0.9551318359375,1.1394684058460018,0.0068359375,0.07080078125,-1.43212890625,30.17705882352941,310.206168949399
0.59821630859375,0.1034716796875,0.9551318359375,1.1317446551171448,-0.06103515625,0.5390625,-1.2744140625,30.27117647058824,310.206168949399
0.59333349609375,0.1005419921875,0.9712451171875,1.1425718390720223,-0.12255859375,0.91455078125,-1.0966796875,30.17705882352941,310.206168949399
0.59186865234375,0.1078662109375,0.9683154296875,1.1399905229694272,-0.17041015625,1.3388671875,-0.94384765625,30.17705882352941,310.206168949399
0.60651708984375,0.1205615234375,0.9575732421875,1.1398879661438588,-0.21435546875,1.5263671875,-0.86376953125,30.224117647058826,310.206168949399
0.60749365234375,0.1308154296875,0.9492724609375,1.1345833681914308,-0.28076171875,1.67822265625,-0.8564453125,30.224117647058826,310.206168949399
0.59528662109375,0.1410693359375,0.9331591796875,1.1158193283099684,-0.33154296875,1.91064453125,-0.91162109375,30.17705882352941,310.206168949399
0.58210302734375,0.1591357421875,0.9048388671875,1.0876127502275263,-0.388671875,2.09765625,-0.98046875,30.17705882352941,310.2081576974806
0.55231787109375,0.1698779296875,0.9009326171875,1.0703238399833772,-0.41259765625,2.2275390625,-1.02734375,30.17705882352941,310.2081576974806
0.52643896484375,0.1762255859375,0.8843310546875001,1.044143120041252,-0.3798828125,2.26416015625,-1.11474609375,30.17705882352941,310.2081576974806
0.4995834960937499,0.1806201171875,0.8794482421875001,1.0274417292424731,-0.3056640625,2.16357421875,-1.21875,30.31823529411765,310.2081576974806
0.4844467773437499,0.1635302734375,0.8633349609375001,1.0033833191688224,-0.17919921875,1.84423828125,-1.33203125,30.27117647058824,310.2081576974806
0.4737045898437499,0.1415576171875,0.8511279296875001,0.9843034847631944,-0.09228515625,1.36669921875,-1.4501953125,30.130000000000003,310.2081576974806
0.4859116210937499,0.1190966796875,0.8535693359375001,0.989380985202024,-0.021484375,0.498046875,-1.50390625,30.224117647058826,310.2081576974806
0.4810288085937499,0.0981005859375,0.8564990234375001,0.9872198421870352,0.03125,-0.49462890625,-1.4794921875,30.224117647058826,310.28013915665133
0.4854233398437499,0.0756396484375,0.8564990234375001,0.9873944259667464,0.07958984375,-1.04736328125,-1.41357421875,30.224117647058826,310.28013915665133
0.50202490234375,0.0668505859375,0.8613818359375001,0.9992380450605836,0.15185546875,-1.48486328125,-1.35986328125,30.224117647058826,310.28013915665133
0.51911474609375,0.0429248046875,0.8887255859375001,1.0301241796838825,0.22509765625,-1.7529296875,-1.35107421875,30.130000000000003,310.28013915665133
0.54841162109375,0.0321826171875,0.8989794921875001,1.053544092277778,0.2841796875,-2.17138671875,-1.310546875,30.08294117647059,310.28013915665133
0.55280615234375,0.0336474609375,0.9155810546875,1.0700539525646904,0.3359375,-2.26220703125,-1.2548828125,30.224117647058826,310.28013915665133
0.56013037109375,0.0165576171875,0.9277880859375,1.0838869496936108,0.34912109375,-2.15673828125,-1.17919921875,30.224117647058826,310.28013915665133
0.55964208984375,-0.1113720703125,0.9409716796875,1.1004684042462498,0.33154296875,-1.99951171875,-1.046875,30.27117647058824,310.3880825209126
0.54743505859375,0.0160693359375,0.9512255859375,1.0976217391602423,0.296875,-1.603515625,-0.904296875,30.31823529411765,310.3880825209126
0.53718115234375,0.0204638671875,0.9434130859375,1.0858225504251344,0.21484375,-0.98876953125,-0.86669921875,30.224117647058826,310.3880825209126
0.54108740234375,0.0185107421875,0.9502490234375,1.0936596504833491,0.14013671875,-0.49462890625,-0.658203125,30.130000000000003,310.3880825209126
0.54645849609375,0.0263232421875,0.9463427734375,1.0931031268227551,0.12890625,0.04345703125,-0.6533203125,30.17705882352941,310.3880825209126
0.55964208984375,0.0248583984375,0.9272998046875,1.0833753442233367,0.15234375,0.30078125,-0.68212890625,30.224117647058826,310.3880825209126
0.55280615234375,0.0141162109375,0.9150927734375,1.069200025008356,0.177734375,0.43798828125,-0.71044921875,30.224117647058826,310.3880825209126
0.54889990234375,-0.1103955078125,0.9146044921875,1.07237104029702,0.212890625,0.37890625,-0.71728515625,30.17705882352941,310.0332636657951
0.54987646484375,0.0097216796875,0.9048388671875,1.0588635479693145,0.251953125,0.0830078125,-0.71533203125,30.224117647058826,310.0332636657951
0.55964208984375,-0.0039501953125,0.9023974609375,1.061855004355177,0.26416015625,-0.35888671875,-0.70751953125,30.224117647058826,310.0332636657951
0.55085302734375,-0.0093212890625,0.9004443359375001,1.0556163821604354,0.25830078125,-0.62939453125,-0.71630859375,30.224117647058826,310.0332636657951
0.56208349609375,-0.0093212890625,0.9058154296875,1.066079891786122,0.21923828125,-1.087890625,-0.728515625,30.224117647058826,310.0332636657951
0.56696630859375,-0.0098095703125,0.9185107421875,1.0794484731861782,0.14013671875,-1.251953125,-0.71435546875,30.130000000000003,310.0332636657951
0.57477880859375,-0.0151806640625,0.9346240234375,1.0973254743039231,0.11328125,-1.59033203125,-0.6474609375,30.17705882352941,310.0332636657951
0.57429052734375,-0.0068798828125,0.9424365234375,1.1036501000286447,0.130859375,-1.6298828125,-0.54248046875,30.27117647058824,310.184182988532
0.57429052734375,-0.0093212890625,0.9575732421875,1.1166212475051824,0.1884765625,-1.47802734375,-0.44775390625,30.224117647058826,310.184182988532
0.57087255859375,-0.0137158203125,0.9727099609375,1.1279398343835774,0.22998046875,-1.15478515625,-0.32568359375,30.17705882352941,310.184182988532
0.56452490234375,-0.0088330078125,0.9878466796875,1.137808178017215,0.2607421875,-0.67822265625,-0.21337890625,30.224117647058826,310.184182988532
0.54645849609375,-4.394531249999993e-05,0.9897998046875,1.1306283842375648,0.2919921875,-0.06640625,-0.13525390625,30.224117647058826,310.184182988532
0.54157568359375,0.0004443359375,0.9795458984375,1.119292001954893,0.30322265625,0.53369140625,-0.11962890625,30.17705882352941,310.184182988532
0.52888037109375,0.0058154296875,0.9668505859375,1.1020654797598917,0.31787109375,1.03369140625,-0.00537109375,30.27117647058824,310.184182988532
0.51667333984375,0.0072802734375,0.9453662109375,1.077367910821993,0.31640625,1.58056640625,-0.15625,30.130000000000003,310.3890755082372
0.51130224609375,0.0087451171875,0.9253466796875,1.0572478146318476,0.3203125,1.82177734375,-0.16796875,30.224117647058826,310.3890755082372
0.51130224609375,0.0067919921875,0.9097216796875,1.0435850001374278,0.34521484375,1.77587890625,-0.16943359375,30.27117647058824,310.3890755082372
0.51325537109375,0.0087451171875,0.8843310546875001,1.0225208884496748,0.37841796875,1.51416015625,-0.16162109375,30.224117647058826,310.3890755082372
0.53229833984375,-4.394531249999993e-05,0.8818896484375001,1.030082946443062,0.451171875,1.09814453125,-0.15673828125,30.130000000000003,310.3890755082372
0.53620458984375,-0.0059033203125,0.8784716796875001,1.0292048889182337,0.560546875,0.365234375,-0.24658203125,30.27117647058824,310.3890755082372
0.54011083984375,-0.0239697265625,0.8814013671875001,1.0340032094670677,0.65625,-0.6123046875,-0.04345703125,30.130000000000003,310.3890755082372
0.53425146484375,-0.0278759765625,0.8887255859375001,1.037321003767377,0.78515625,-1.20458984375,0.0537109375,30.224117647058826,310.206168949399
0.53083349609375,-0.0395947265625,0.8989794921875001,1.0447564645985052,0.84521484375,-1.6904296875,0.15234375,30.27117647058824,310.206168949399
0.53864599609375,-0.0395947265625,0.9224169921875,1.068906150677234,0.89111328125,-2.087890625,0.26220703125,30.08294117647059,310.206168949399
0.54743505859375,-0.0435009765625,1.0479052734375005,1.1830819669141932,0.91943359375,-2.20751953125,0.345703125,30.27117647058824,310.206168949399
0.55231787109375,-0.0381298828125,0.9341357421875,1.085872231676001,0.931640625,-2.072265625,0.419921875,30.17705882352941,310.206168949399
0.56696630859375,-0.0469189453125,0.9419482421875,1.1004174996199314,0.94677734375,-1.708984375,0.51513671875,30.224117647058826,310.206168949399
0.56354833984375,-0.0405712890625,0.9282763671875,1.0867059283521288,0.97900390625,-1.29052734375,0.68310546875,30.224117647058826,310.206168949399
0.56013037109375,-0.0430126953125,0.9356005859375,1.091304073568069,0.99267578125,-0.69189453125,0.75927734375,30.17705882352941,310.5909949810018
0.56940771484375,-0.0444775390625,0.9282763671875,1.0899084416057434,0.88330078125,-0.35888671875,1.0888671875,30.224117647058826,310.5909949810018
0.57380224609375,-0.0342236328125,0.9346240234375,1.0972430632506265,1.03759765625,0.0517578125,1.31494140625,30.224117647058826,310.5909949810018
0.70710302734375,-0.0215283203125,0.9409716796875,1.1772365360572568,1.099609375,0.23095703125,1.46435546875,30.31823529411765,310.5909949810018
0.57477880859375,-0.0137158203125,0.9229052734375,1.0873421477502112,1.14208984375,0.38427734375,1.59326171875,30.130000000000003,310.5909949810018
0.56745458984375,-0.0034619140625,0.9248583984375,1.0850713126537317,1.17333984375,0.87158203125,1.6806640625,30.17705882352941,310.5909949810018
0.55329443359375,-4.394531249999993e-05,0.9194873046875,1.0731223768324387,1.1923828125,1.1865234375,1.6953125,30.17705882352941,310.5909949810018
0.54548193359375,0.0058154296875,0.9180224609375,1.067871526863307,1.2177734375,1.30615234375,1.6806640625,30.27117647058824,310.25014103923
0.53278662109375,0.0092333984375,0.9224169921875,1.0652698938482377,1.2421875,1.34765625,1.6611328125,30.224117647058826,310.25014103923
0.53034521484375,0.0141162109375,0.9351123046875,1.0751280559528076,1.27685546875,1.3681640625,1.57666015625,30.130000000000003,310.25014103923
0.50934912109375,0.0150927734375,0.9351123046875,1.0649410036931526,1.28857421875,1.29150390625,1.5146484375,30.27117647058824,310.25014103923
0.50886083984375,0.0033740234375,0.9561083984375,1.0830946440285654,1.23779296875,1.14990234375,1.47216796875,30.224117647058826,310.25014103923
0.50690771484375,0.0126513671875,0.9697802734375,1.0943442178804337,1.20654296875,1.05908203125,1.44873046875,30.224117647058826,310.25014103923
0.51227880859375,-0.1089306640625,0.9668505859375,1.099588797157836,1.212890625,1.10302734375,1.4052734375,30.17705882352941,310.25014103923
0.52057958984375,0.0131396484375,0.9634326171875,1.095161251863717,1.2587890625,1.26318359375,1.40625,30.27117647058824,310.04425662754574
0.52692724609375,-0.1113720703125,0.9546435546875,1.0960841104714645,1.31787109375,1.79736328125,1.451171875,30.130000000000003,310.04425662754574
0.52595068359375,0.0111865234375,0.9673388671875,1.101132936502649,1.40380859375,2.322265625,1.60986328125,30.224117647058826,310.04425662754574
0.52497412109375,0.0004443359375,0.9507373046875,1.0860476268456338,1.5078125,2.84912109375,1.8212890625,30.27117647058824,310.04425662754574
0.51911474609375,0.0033740234375,0.9468310546875,1.0798057926158662,1.62451171875,3.20703125,2.068359375,30.224117647058826,310.04425662754574
0.52057958984375,0.0082568359375,0.9351123046875,1.070283283565409,1.70556640625,3.3837890625,2.25830078125,30.17705882352941,310.04425662754574
0.51911474609375,0.0077685546875,0.9316943359375,1.0665808950435642,1.744140625,3.388671875,2.36865234375,30.31823529411765,310.04425662754574
0.51325537109375,-0.1089306640625,0.9316943359375,1.0692760640488028,1.73828125,3.1767578125,2.3623046875,30.17705882352941,310.2481535679168
0.52106787109375,0.0219287109375,0.9204638671875,1.0579443867459768,1.7138671875,2.76611328125,2.2890625,30.130000000000003,310.2481535679168
0.51667333984375,0.0253466796875,0.9102099609375,1.046936467636084,1.60400390625,2.13916015625,2.18603515625,30.31823529411765,310.2481535679168
0.52204443359375,0.0312060546875,0.8984912109375001,1.0396108236389778,1.5185546875,1.59765625,2.0703125,30.17705882352941,310.2481535679168
0.51618505859375,0.0346240234375,0.8945849609375001,1.0334060625184962,1.5166015625,0.88427734375,1.978515625,30.224117647058826,310.2481535679168
0.51130224609375,0.0360888671875,0.9033740234375,1.038661166799379,1.55517578125,0.4130859375,1.9267578125,30.17705882352941,310.2481535679168
0.51276708984375,0.0380419921875,0.9082568359375,1.043699076182221,1.6279296875,0.0322265625,1.9326171875,30.27117647058824,310.2481535679168
0.50788427734375,0.0341357421875,0.9238818359375,1.0548314248461317,1.68994140625,-0.20263671875,1.94970703125,30.17705882352941,310.4510629085857
0.51179052734375,0.0272998046875,0.9385302734375,1.0693520923313509,1.7314453125,-0.3115234375,1.94091796875,30.224117647058826,310.4510629085857
0.50837255859375,0.0253466796875,0.9463427734375,1.0745463030226832,1.63134765625,-0.26708984375,1.93115234375,30.224117647058826,310.4510629085857
0.50739599609375,0.0263232421875,0.9624560546875,1.088331414200591,1.7646484375,-0.068359375,1.91259765625,30.31823529411765,310.4510629085857
0.50739599609375,0.0180224609375,0.9658740234375,1.091186572086349,1.72265625,0.23486328125,1.90771484375,30.224117647058826,310.4510629085857
0.50788427734375,0.1366748046875,0.9741748046875,1.1070876169017871,1.69677734375,0.56591796875,1.9072265625,30.17705882352941,310.4510629085857
0.50251318359375,0.0067919921875,0.9878466796875,1.1083350997839143,1.6455078125,0.93408203125,1.89794921875,30.27117647058824,310.4510629085857
0.4951889648437499,0.0082568359375,0.9795458984375,1.0976294699890543,1.61181640625,1.162109375,1.89013671875,30.130000000000003,310.2691462555833
0.4883530273437499,0.0087451171875,0.9736865234375,1.0893257558298317,1.60107421875,1.306640625,1.8369140625,30.130000000000003,310.2691462555833
0.4873764648437499,0.0106982421875,0.9678271484375,1.083669534554772,1.5732421875,1.35498046875,1.796875,30.130000000000003,310.2691462555833
0.4824936523437499,0.0126513671875,0.9634326171875,1.077572544891749,1.576171875,1.33984375,1.8740234375,30.17705882352941,310.2691462555833
0.4766342773437499,0.0170458984375,0.9546435546875,1.067152807005129,1.55517578125,1.30224609375,1.71337890625,30.224117647058826,310.2691462555833
0.4673569335937499,0.0204638671875,0.9595263671875,1.0674886990345431,1.5546875,1.27587890625,1.68603515625,30.31823529411765,310.2691462555833
0.4575913085937499,0.0282763671875,0.9668505859375,1.0700417815064749,1.564453125,1.1953125,1.689453125,30.17705882352941,310.2691462555833
0.4488022460937499,0.0336474609375,0.9639208984375,1.0638134733922544,1.56591796875,1.111328125,1.68017578125,30.224117647058826,310.06425455908186
0.4483139648437499,0.0365771484375,0.9688037109375,1.0681310449509522,1.59619140625,1.00830078125,1.64208984375,30.17705882352941,310.06425455908186
0.4473374023437499,0.0321826171875,0.9736865234375,1.0720130215200263,1.611328125,0.96875,1.57666015625,30.130000000000003,310.06425455908186
0.4409897460937499,0.0336474609375,0.9717333984375,1.0676469010989842,1.5009765625,0.9296875,1.50048828125,30.27117647058824,310.06425455908186
0.4351303710937499,0.0336474609375,0.9619677734375,1.056339239358279,1.59423828125,0.9052734375,1.4326171875,30.17705882352941,310.06425455908186
0.4463608398437499,0.0219287109375,0.9839404296875,1.080674621189477,1.6123046875,0.79443359375,1.3193359375,30.130000000000003,310.06425455908186
0.4478256835937499,0.0194873046875,0.9902880859375,1.0870133812791591,1.62646484375,0.69873046875,1.21435546875,30.130000000000003,310.06425455908186
0.4448959960937499,0.0209521484375,0.9834521484375,1.0796062097499866,1.61572265625,0.783203125,1.19091796875,30.17705882352941,310.356096611268
0.4322006835937499,0.0248583984375,0.9785693359375,1.0700529501426284,1.56103515625,0.875,1.21142578125,30.130000000000003,310.356096611268
0.4409897460937499,0.0307177734375,0.9707568359375,1.066669757837061,1.54248046875,1.21484375,1.17529296875,30.224117647058826,310.356096611268
0.4468491210937499,0.0248583984375,0.9800341796875,1.0773852933611474,1.55615234375,1.29248046875,1.24609375,30.224117647058826,310.356096611268
0.4400131835937499,0.0263232421875,0.9756396484375,1.0705966740181934,1.6083984375,1.26171875,1.14453125,30.224117647058826,310.356096611268
0.4317124023437499,0.0321826171875,0.9722216796875,1.0642491783604218,1.66748046875,1.24755859375,1.21923828125,30.27117647058824,310.356096611268
0.4097397460937499,0.0370654296875,0.9766162109375,1.0597356883076126,1.69873046875,0.98388671875,1.26123046875,30.17705882352941,310.356096611268
0.3975327148437499,0.0287646484375,0.9839404296875,1.06160182438822,1.69140625,0.662109375,1.20556640625,30.17705882352941,310.2911320717193
0.3906967773437499,0.0312060546875,0.9883349609375,1.0632138941376197,1.63916015625,0.546875,1.0888671875,30.224117647058826,310.2911320717193
0.4029038085937499,0.0419482421875,0.9751513671875,1.0559409656461012,1.55908203125,0.61376953125,0.99169921875,30.27117647058824,310.2911320717193
0.4126694335937499,0.0556201171875,0.9561083984375,1.0428484685807708,1.4658203125,0.759765625,0.6494140625,30.224117647058826,310.2911320717193
0.4380600585937499,0.0595263671875,0.9575732421875,1.0546973582403538,1.42919921875,0.86865234375,0.45849609375,30.224117647058826,310.2911320717193
0.4400131835937499,0.0590380859375,0.9570849609375,1.055039676874859,1.43603515625,0.90087890625,0.37158203125,30.17705882352941,310.2911320717193
0.4400131835937499,0.0487841796875,0.9614794921875,1.058505697585621,1.37548828125,0.759765625,0.46044921875,30.224117647058826,310.2911320717193
0.4258530273437499,0.0556201171875,0.9585498046875,1.050362854636545,1.52392578125,0.57421875,0.609375,30.130000000000003,310.23716064739847
0.4112045898437499,0.0507373046875,0.9609912109375,1.0465025543660378,1.5673828125,0.48583984375,0.76220703125,30.17705882352941,310.23716064739847
0.4043686523437499,0.0429248046875,0.9605029296875,1.0430351977733212,1.6103515625,0.1318359375,0.8447265625,30.17705882352941,310.23716064739847
0.4004624023437499,0.0434130859375,0.9668505859375,1.0474038797184355,1.6181640625,-0.01904296875,0.8076171875,30.27117647058824,310.23716064739847
0.4097397460937499,0.0526904296875,0.9707568359375,1.0550032110989098,1.57470703125,-0.16943359375,0.66552734375,30.31823529411765,310.23716064739847
0.4131577148437499,0.0541552734375,0.9746630859375,1.0600001047477356,1.47998046875,-0.19970703125,0.46875,30.130000000000003,310.23716064739847
0.4048569335937499,0.0536669921875,0.9668505859375,1.0495662619659012,1.4326171875,-0.1337890625,0.29833984375,30.224117647058826,310.23716064739847
0.4170639648437499,0.0482958984375,0.9658740234375,1.053179696788928,1.412109375,-0.03173828125,0.20263671875,30.17705882352941,310.2581533685249
0.4126694335937499,0.0526904296875,0.9619677734375,1.0480717246140845,1.37548828125,0.07373046875,0.20458984375,30.224117647058826,310.2581533685249
0.4082749023437499,0.0502490234375,0.9668505859375,1.0507204270251476,1.38525390625,0.15478515625,0.2958984375,30.17705882352941,310.2581533685249
0.4043686523437499,0.0619677734375,0.9629443359375,1.0462388857508669,1.39501953125,0.15185546875,0.41259765625,30.224117647058826,310.2581533685249
0.4024155273437499,0.0629443359375,0.9629443359375,1.0455438968250326,1.42626953125,0.0673828125,0.4775390625,30.17705882352941,310.2581533685249
0.4126694335937499,0.0663623046875,0.9639208984375,1.050639574426254,1.40283203125,-0.10546875,0.4580078125,30.17705882352941,310.2581533685249
0.4160874023437499,0.0707568359375,0.9546435546875,1.0437813816731174,1.357421875,-0.3017578125,0.3681640625,30.27117647058824,310.2581533685249
0.4229233398437499,0.0795458984375,0.9473193359375,1.0404833615122768,1.33349609375,-0.4306640625,0.2333984375,30.17705882352941,310.1082261664187
0.4238999023437499,0.0819873046875,0.9414599609375,1.035741233796068,1.30322265625,-0.59375,0.11279296875,30.224117647058826,310.1082261664187
0.4214584960937499,0.0854052734375,0.9414599609375,1.0350208610018343,1.27880859375,-0.7392578125,0.02099609375,30.130000000000003,310.1082261664187
0.4131577148437499,0.0761279296875,0.9399951171875,1.0296045742661386,1.2763671875,-0.8837890625,0.00341796875,30.224117647058826,310.1082261664187
0.4087631835937499,0.0805224609375,0.9487841796875,1.0362251814168633,1.2744140625,-1.08544921875,0.0009765625,30.17705882352941,310.1082261664187
0.4068100585937499,0.0868701171875,0.9575732421875,1.0440245951062173,1.2978515625,-1.2763671875,0.01708984375,30.27117647058824,310.1082261664187
0.4019272460937499,0.0829638671875,0.9595263671875,1.0436088173924425,1.29833984375,-1.3935546875,0.013671875,30.17705882352941,310.1082261664187
0.4175522460937499,0.0834521484375,0.9717333984375,1.060933521449701,1.2841796875,-1.38671875,-0.0517578125,30.17705882352941,310.4740407388972
0.4175522460937499,0.0800341796875,0.9688037109375,1.0579867572245212,1.25390625,-1.353515625,-0.1533203125,30.36529411764706,310.4740407388972
0.4282944335937499,0.0844287109375,0.9717333984375,1.065284059167719,1.22900390625,-1.31103515625,-0.21875,30.224117647058826,310.4740407388972
0.4278061523437499,0.0854052734375,0.9829638671875,1.075420907789273,1.2109375,-1.26953125,-0.2138671875,30.130000000000003,310.4740407388972
0.4258530273437499,0.0854052734375,0.9829638671875,1.074645441913274,1.22900390625,-1.1484375,-0.1650390625,30.224117647058826,310.4740407388972
0.4253647460937499,0.0800341796875,0.9648974609375,1.0575290763195524,1.2353515625,-0.97119140625,-0.07958984375,30.27117647058824,310.4740407388972
0.4268295898437499,0.0795458984375,0.9702685546875,1.0629826512882434,1.2421875,-0.7978515625,0.0205078125,30.224117647058826,310.4740407388972
0.4297592773437499,0.0800341796875,0.9727099609375,1.0664254190932934,1.25927734375,-0.666015625,0.07373046875,30.224117647058826,310.0852468579983
0.4380600585937499,0.0707568359375,0.9775927734375,1.0735878051860823,1.29248046875,-0.5048828125,0.08984375,30.130000000000003,310.0852468579983
0.3360092773437499,0.0697802734375,0.9619677734375,1.0213488719112498,1.310546875,-0.57568359375,0.0927734375,30.31823529411765,310.0852468579983
0.4531967773437499,0.0717333984375,0.9609912109375,1.0649117836446718,1.2509765625,-0.400390625,0.115234375,30.224117647058826,310.0852468579983
0.3335678710937499,0.0766162109375,0.9409716796875,1.0012818136660384,1.1767578125,-0.17822265625,0.1416015625,30.224117647058826,310.0852468579983
0.4776108398437499,0.0854052734375,0.9316943359375,1.0504572864639503,1.1171875,-0.0498046875,0.07421875,30.224117647058826,310.0852468579983
0.4824936523437499,0.0785693359375,0.9316943359375,1.0521537913820824,1.10009765625,-0.119140625,0.01806640625,30.27117647058824,310.0852468579983
0.4795639648437499,0.0751513671875,0.9307177734375,1.0496975269854003,1.08203125,-0.29296875,0.052734375,30.224117647058826,310.1931891054075
0.4580795898437499,0.0746630859375,0.9429248046875,1.0509608338696972,1.11865234375,-0.5341796875,0.20166015625,30.27117647058824,310.1931891054075
0.4463608398437499,0.0707568359375,0.9512255859375,1.0531261294451126,1.1318359375,-0.798828125,0.39111328125,30.17705882352941,310.1931891054075
0.4361069335937499,0.0683154296875,0.9522021484375,1.0495452286352038,1.14501953125,-0.95556640625,0.52587890625,30.27117647058824,310.1931891054075
0.4502670898437499,0.0658740234375,0.9536669921875,1.056674297571469,1.10205078125,-0.96240234375,0.51123046875,30.27117647058824,310.1931891054075
0.4658920898437499,0.0746630859375,0.9414599609375,1.053079709152696,1.01123046875,-0.802734375,0.40869140625,30.08294117647059,310.1931891054075
0.4932358398437499,0.0717333984375,0.9463427734375,1.0695755789074195,0.98095703125,-0.7421875,0.236328125,30.224117647058826,310.1931891054075
0.51081396484375,0.0644091796875,0.9395068359375,1.0713321351853031,0.951171875,-0.4326171875,0.15087890625,30.17705882352941,310.0852468579983
0.50788427734375,0.0580615234375,0.9336474609375,1.06443184891843,0.94873046875,-0.27294921875,0.2373046875,30.27117647058824,310.0852468579983
0.4912827148437499,0.0546435546875,0.9399951171875,1.0620430520037656,0.97705078125,-0.1591796875,0.513671875,30.130000000000003,310.0852468579983
0.4761459960937499,0.0463427734375,0.9453662109375,1.059518728021508,1.02587890625,-0.19775390625,0.76220703125,30.17705882352941,310.0852468579983
0.4761459960937499,0.0399951171875,0.9341357421875,1.0492493525502613,1.08837890625,-0.2802734375,1.21826171875,30.224117647058826,310.0852468579983
0.4937241210937499,0.0453662109375,0.9448779296875,1.0670594654728285,1.10009765625,-0.39404296875,1.4013671875,30.130000000000003,310.0852468579983
0.50104833984375,0.0399951171875,0.9482958984375,1.0732726397576735,1.0869140625,-0.45751953125,1.4501953125,30.17705882352941,310.0852468579983
0.51179052734375,0.0570849609375,0.9370654296875,1.069242655415247,1.12353515625,-0.494140625,1.42626953125,30.224117647058826,310.32113304556884
0.50837255859375,0.0580615234375,0.9453662109375,1.074956311492409,0.927734375,-0.458984375,1.3798828125,30.130000000000003,310.32113304556884
0.50739599609375,0.0580615234375,0.9390185546875,1.0689142544672392,0.8837890625,-0.37646484375,1.41455078125,30.17705882352941,310.32113304556884
0.50739599609375,0.0629443359375,0.9287646484375,1.060196424473227,0.892578125,-0.26318359375,1.494140625,30.224117647058826,310.32113304556884
0.50788427734375,0.0585498046875,0.9390185546875,1.0691727478987336,0.9072265625,-0.23974609375,1.501953125,30.27117647058824,310.32113304556884
0.50788427734375,0.0683154296875,0.9229052734375,1.0556361024733465,0.935546875,-0.24365234375,1.81494140625,30.130000000000003,310.32113304556884
0.51276708984375,0.0609912109375,0.9282763671875,1.0622368051038682,0.9619140625,-0.26611328125,1.984375,30.31823529411765,310.32113304556884
0.51764990234375,0.0722216796875,0.9233935546875,1.0610528022920418,0.8798828125,-0.36962890625,2.10986328125,30.27117647058824,310.2571606767621
0.51667333984375,0.0751513671875,0.9238818359375,1.0612053123079863,1.0322265625,-0.4111328125,2.1767578125,30.17705882352941,310.2571606767621
0.51764990234375,0.0849169921875,0.9160693359375,1.055630307069496,1.05322265625,-0.43212890625,2.24267578125,30.224117647058826,310.2571606767621
0.50934912109375,0.0839404296875,0.9233935546875,1.0578932742642402,1.0732421875,-0.4326171875,2.27880859375,30.224117647058826,310.2571606767621
0.50837255859375,0.0800341796875,0.9243701171875,1.0579736489150566,1.10791015625,-0.46484375,2.32177734375,30.27117647058824,310.2571606767621
0.50934912109375,0.0810107421875,0.9224169921875,1.0568123650795251,1.162109375,-0.50537109375,2.42578125,30.224117647058826,310.2571606767621
0.51374365234375,0.0771044921875,1.0464404296875005,1.1682958597562298,1.2138671875,-0.54248046875,2.5986328125,30.17705882352941,310.2571606767621
0.4907944335937499,0.0722216796875,0.9326708984375,1.0563948844327613,1.29541015625,-0.560546875,2.8017578125,30.17705882352941,310.07425402464224
0.4829819335937499,0.0736865234375,0.9414599609375,1.060682850791273,1.34814453125,-0.58740234375,3.02685546875,30.27117647058824,310.07425402464224
0.4893295898437499,0.0668505859375,0.9404833984375,1.0622718442439247,1.38037109375,-0.60888671875,3.138671875,30.224117647058826,310.07425402464224
0.4912827148437499,0.0609912109375,0.9487841796875,1.0701729081513651,1.43896484375,-0.5947265625,3.42919921875,30.27117647058824,310.07425402464224
0.4829819335937499,0.0546435546875,0.9512255859375,1.0682170105315605,1.4638671875,-0.5439453125,3.5634765625,30.224117647058826,310.07425402464224
0.4888413085937499,0.0453662109375,0.9648974609375,1.0826130556233422,1.48681640625,-0.4990234375,3.66943359375,30.17705882352941,310.07425402464224
