AccX,AccY,AccZ,Magnitude,GyroX,GyroY,GyroZ,Temperature,Altitude
0.12604833984375,0.9853076171875,0.0239794921875,0.9936268416818484,0.34912109375,-0.68310546875,2.14501953125,31.259411764705884,330.13172896819765
0.11432958984375,0.9906787109375,0.0259326171875,0.9975911307007598,0.30322265625,-0.701171875,2.38720703125,31.259411764705884,330.13172896819765
0.13434912109375,0.9945849609375,0.0215380859375,1.0038490025932998,0.21875,-0.8330078125,2.595703125,31.91823529411765,330.13172896819765
0.13386083984375,1.0009326171875,0.0073779296875,1.0098709137508446,0.10498046875,-0.9267578125,2.9443359375,31.91823529411765,330.2942980224188
0.14264990234375,1.0126513671875,0.0044482421875,1.022659069760765,-0.13623046875,-0.9169921875,3.13720703125,31.871176470588235,330.2942980224188
0.14509130859375,1.0356005859375,-0.0097119140624999,1.045760193686056,-0.27734375,-0.83056640625,3.74169921875,31.965294117647066,330.2942980224188
0.17585302734375,1.0326708984375,-0.0219189453124999,1.047766153237108,-0.3857421875,-0.86767578125,4.01953125,31.824117647058824,330.2942980224188
0.18464208984375,1.0185107421875,-0.0517041015624999,1.0364025026077393,-0.86376953125,-0.97900390625,4.44384765625,31.871176470588235,330.2942980224188
0.18317724609375,1.0219287109375,-0.0834423828124999,1.0415636442264573,-1.13427734375,-1.21533203125,4.6552734375,31.91823529411765,330.2942980224188
0.14704443359375,1.0336474609375,-0.0941845703124999,1.0482937909948706,-1.69677734375,-1.49365234375,4.75146484375,31.91823529411765,330.2942980224188
0.15241552734375,1.0385302734375,-0.1884228515624999,1.0664327418138406,-2.0693359375,-1.76171875,4.529296875,31.824117647058824,329.9213794719475
0.15925146484375,1.0404833984375,-0.0253369140624999,1.0529048820729914,-2.34765625,-2.14794921875,4.3798828125,31.871176470588235,329.9213794719475
0.13044287109375,1.0497607421875,-0.0727001953124999,1.0603293247174232,-2.4921875,-1.8583984375,4.47509765625,31.824117647058824,329.9213794719475
0.14850927734375,1.0370654296875,0.0923388671875,1.0517063170408136,-2.53076171875,-0.7900390625,4.63525390625,31.871176470588235,329.9213794719475
0.19001318359375,1.0395068359375,0.1196826171875,1.0634864365646957,-2.6162109375,0.45849609375,4.75927734375,31.91823529411765,329.9213794719475
0.23932958984375,1.0189990234375,0.1118701171875,1.0526882660412344,-2.43359375,2.03564453125,5.16357421875,32.71823529411765,329.9213794719475
0.2593491210937499,1.0023974609375,0.1089404296875,1.0411199035301095,-2.4599609375,3.28125,5.48193359375,31.91823529411765,329.9213794719475
0.2759506835937499,0.9823779296875,0.0669482421875,1.0225933911604126,-2.6474609375,4.00146484375,5.6298828125,31.824117647058824,329.9213794719475
0.2783920898437499,0.9716357421875,0.0562060546875,1.012293085903168,-2.82080078125,4.33349609375,5.96875,31.91823529411765,330.27066815340845
0.3003647460937499,0.9657763671875,0.0547412109375,1.0128867519563831,-3.02099609375,4.064453125,5.95849609375,31.91823529411765,330.27066815340845
0.3404038085937499,0.9599169921875,0.0679248046875,1.020749314909034,-3.31591796875,3.5146484375,5.80810546875,31.824117647058824,330.27066815340845
0.3594467773437499,0.9604052734375,0.0645068359375,1.0274927770412958,-3.58642578125,3.1865234375,5.63623046875,31.871176470588235,330.27066815340845
0.3999741210937499,0.9823779296875,0.0747607421875,1.0633131537107223,-3.90869140625,3.08837890625,5.63671875,31.965294117647066,330.27066815340845
0.4820053710937499,0.9872607421875,0.1050341796875,1.103650818751322,-4.2109375,3.20654296875,5.73095703125,31.306470588235296,330.27066815340845
0.53669287109375,1.0033740234375,0.1147998046875,1.1436685113914336,-4.4658203125,3.4609375,5.88818359375,31.91823529411765,330.27066815340845
0.58063818359375,1.0370654296875,0.1231005859375,1.1949055025223223,-4.7021484375,3.70947265625,6.6220703125,31.965294117647066,330.27066815340845
0.61579443359375,1.1103076171875,0.1323779296875,1.276522504892875,-4.85302734375,3.8994140625,7.1513671875,31.871176470588235,330.27066815340845
0.69489599609375,1.1347216796875,0.1748583984375,1.3420317415188336,-4.896484375,3.72900390625,7.166015625,31.259411764705884,329.98205804124046
0.74518896484375,1.1718310546875,0.2065966796875,1.4039860405690712,-4.9912109375,2.96728515625,6.8876953125,31.91823529411765,329.98205804124046
0.77106787109375,1.1762255859375,0.2388232421875,1.4265653969783552,-5.0341796875,2.08837890625,6.0751953125,31.965294117647066,329.98205804124046
0.78473974609375,1.1474169921875,0.2876513671875,1.419551172767199,-4.9580078125,1.3671875,4.74951171875,32.624117647058824,329.98205804124046
0.75886083984375,1.1210498046875,0.3272021484375,1.3927252725431385,-4.697265625,0.7880859375,3.48974609375,31.91823529411765,329.98205804124046
0.75690771484375,1.0668505859375,0.3467333984375,1.3532566316472248,-4.396484375,0.41015625,2.07666015625,31.965294117647066,329.98205804124046
0.76520849609375,1.0224169921875,0.3569873046875,1.3260167736932436,-4.29638671875,-0.109375,0.95458984375,31.91823529411765,329.98205804124046
0.78376318359375,0.9594287109375,0.3296435546875,1.2819723290598803,-4.46142578125,-0.65087890625,-0.19873046875,31.91823529411765,329.98205804124046
0.81745458984375,0.9013232421875,0.3389208984375,1.2631242887228804,-4.76953125,-1.3359375,-0.94091796875,31.965294117647066,329.98205804124046
0.85407568359375,0.8466357421875,0.3345263671875,1.2482568820556033,-5.00927734375,-1.9287109375,-1.45263671875,31.824117647058824,330.25345178448663
0.86872412109375,0.8026904296875,0.3462451171875,1.232428174644753,-5.41015625,-2.23681640625,-1.67822265625,31.965294117647066,330.25345178448663
0.85407568359375,0.7431201171875,0.3506396484375,1.1851670535967782,-5.56103515625,-2.255859375,-1.7431640625,32.71823529411765,330.25345178448663
0.84382177734375,0.6732958984375,0.3398974609375,1.1317653655789637,-5.734375,-2.1611328125,-1.3388671875,31.91823529411765,330.25345178448663
0.81598974609375,0.6064013671875,0.3789599609375,1.084975822703328,-5.884765625,-2.3564453125,-0.400390625,31.965294117647066,330.25345178448663
0.77155615234375,0.5771044921875,0.4019091796875,1.0439729306067105,-5.88232421875,-2.5439453125,0.9736328125,31.259411764705884,330.25345178448663
0.71345068359375,0.5468310546875,0.4795458984375,1.0188230214317215,-5.76904296875,-2.65576171875,2.4375,31.259411764705884,330.25345178448663
0.68561865234375,0.5302294921875,0.5566943359375001,1.0301091371752646,-5.34375,-2.52783203125,3.849609375,31.871176470588235,330.0918300285518
0.67097021484375,0.5189990234375,0.6040576171875001,1.0413676682223176,-4.98046875,-2.1650390625,4.59423828125,31.91823529411765,330.0918300285518
0.66657568359375,0.5312060546875,0.6392138671875001,1.0654094905246214,-4.6962890625,-1.357421875,4.94970703125,31.824117647058824,330.0918300285518
0.66511083984375,0.5512255859375,0.8008349609375001,1.177946819907234,-4.47998046875,0.09716796875,4.94677734375,31.259411764705884,330.0918300285518
0.64313818359375,0.5766162109375,0.6685107421875001,1.092254361553329,-4.28125,2.056640625,4.84033203125,31.965294117647066,330.0918300285518
0.63923193359375,0.5712451171875,0.6323779296875001,1.0652888316284996,-4.26171875,3.93798828125,4.80859375,31.306470588235296,330.0918300285518
0.64264990234375,0.5365771484375,0.5908740234375001,1.024717543902206,-4.43603515625,5.5576171875,4.8427734375,32.624117647058824,330.0918300285518
0.68073583984375,0.5199755859375,0.5483935546875001,1.0171093276740777,-4.6337890625,6.41162109375,4.96484375,31.965294117647066,329.89601647804113
0.67585302734375,0.5053271484375,0.5005419921875001,0.9811600926763776,-5.095703125,6.51318359375,5.1259765625,31.91823529411765,329.89601647804113
0.68268896484375,0.5160693359375,0.4951708984375,0.9887294882189992,-5.1806640625,6.31396484375,5.404296875,31.91823529411765,329.89601647804113
0.70368505859375,0.5341357421875,0.4824755859375,1.006606349968057,-5.01025390625,6.05810546875,5.3603515625,31.91823529411765,329.89601647804113
0.70075537109375,0.5346240234375,0.4946826171875,1.0107382590466805,-4.77294921875,5.57666015625,4.8408203125,31.91823529411765,329.89601647804113
0.74128271484375,0.5272998046875,0.4956591796875,1.0359648496730385,-4.615234375,4.80517578125,3.97021484375,31.965294117647066,329.89601647804113
0.72858740234375,0.5141162109375,0.5244677734375001,1.0345151166499378,-4.53173828125,3.9560546875,2.833984375,31.824117647058824,329.89601647804113
0.72272802734375,0.4999560546875,0.5483935546875001,1.035870334042669,-4.43798828125,2.90966796875,1.85546875,31.824117647058824,329.97112768240083
0.67878271484375,0.4945849609375,0.5703662109375001,1.0152230652104988,-4.4140625,2.38427734375,1.076171875,31.91823529411765,329.97112768240083
0.67682958984375,0.4633349609375,0.6104052734375001,1.022434436800386,-4.47998046875,1.92138671875,0.302734375,31.91823529411765,329.97112768240083
0.65436865234375,0.4408740234375,0.6377490234375001,1.0145403168960956,-4.4384765625,1.7646484375,-0.03515625,31.965294117647066,329.97112768240083
0.63532568359375,0.4179248046875,0.6480029296875001,0.9991034298262288,-4.3779296875,1.9453125,0.0087890625,31.965294117647066,329.97112768240083
0.62653662109375,0.3749560546875,0.6689990234375001,0.9903029202616326,-4.50732421875,2.3681640625,0.138671875,32.71823529411765,329.97112768240083
0.61530615234375,0.3739794921875,0.6802294921875001,0.9905425199003598,-4.423828125,2.94677734375,0.310546875,32.624117647058824,329.97112768240083
0.61921240234375,0.3759326171875,0.6909716796875001,1.0010949974962051,-4.5048828125,3.52734375,0.3603515625,32.71823529411765,330.3276360427857
0.63434912109375,0.3817919921875,0.7134326171875001,1.0281780157141656,-4.61328125,4.2001953125,0.2802734375,31.91823529411765,330.3276360427857
0.63923193359375,0.3998583984375,0.7153857421875001,1.039365654547122,-4.697265625,4.6044921875,-0.0361328125,31.871176470588235,330.3276360427857
0.64264990234375,0.4145068359375,0.7285693359375001,1.0562329720709152,-4.787109375,4.71728515625,-0.46240234375,31.91823529411765,330.3276360427857
0.64753271484375,0.4066943359375,0.7451708984375001,1.0676977884938754,-4.87890625,4.63232421875,-1.07666015625,31.871176470588235,330.3276360427857
0.63972021484375,0.3998583984375,0.7681201171875001,1.0766323450969115,-4.9189453125,4.47998046875,-1.7216796875,31.871176470588235,330.3276360427857
0.61970068359375,0.4052294921875,0.8003466796875001,1.0903186168601846,-4.861328125,4.033203125,-2.18603515625,31.91823529411765,330.3276360427857
0.59626318359375,0.4076708984375,0.8403857421875001,1.1081396758596038,-4.84326171875,3.76025390625,-2.396484375,31.91823529411765,330.0676358139256
0.59040380859375,0.4179248046875,0.8652880859375001,1.1278126046646548,-4.84814453125,3.55615234375,-2.58642578125,31.965294117647066,330.0676358139256
0.57917333984375,0.4145068359375,0.8809130859375001,1.1328131088580369,-4.921875,3.38720703125,-2.90673828125,31.91823529411765,330.0676358139256
0.58405615234375,0.4032763671875,0.8945849609375001,1.1419438119969307,-5.06787109375,3.1943359375,-3.32080078125,31.871176470588235,330.0676358139256
0.56745458984375,0.3930224609375,0.9268115234375,1.155617136560655,-5.2392578125,2.95849609375,-3.810546875,31.871176470588235,330.0676358139256
0.57136083984375,0.3881396484375,0.9414599609375,1.167669668204403,-5.46533203125,2.93212890625,-4.154296875,31.259411764705884,330.0676358139256
0.52839208984375,0.3852099609375,0.9639208984375,1.1647868530591652,-5.66845703125,3.365234375,-4.79541015625,31.91823529411765,330.0676358139256
0.50690771484375,0.3744677734375,0.9829638671875,1.1676469967021526,-5.72802734375,3.79931640625,-5.3154296875,31.259411764705884,329.7862459942216
0.4976303710937499,0.3520068359375,0.9966357421875,1.1682583624298448,-5.73974609375,4.013671875,-5.8369140625,31.91823529411765,329.7862459942216
0.4400131835937499,0.3095263671875,0.9854052734375,1.122693959473833,-5.33837890625,3.89599609375,-5.8974609375,31.91823529411765,329.7862459942216
0.3916733398437499,0.3856982421875,0.9736865234375,1.1181397878148736,-5.23095703125,3.87646484375,-5.580078125,31.824117647058824,329.7862459942216
0.4561264648437499,0.2294482421875,1.0371630859375005,1.1560298934738622,-4.875,3.76123046875,-4.93115234375,31.965294117647066,329.7862459942216
0.3418686523437499,0.1708544921875,0.9829638671875,1.0546484708907444,-4.21337890625,3.66015625,-4.41064453125,32.57705882352941,329.7862459942216
0.3223374023437499,0.1322802734375,0.9927294921875,1.0520985297724106,-3.21728515625,3.86669921875,-3.7626953125,31.259411764705884,329.7862459942216
0.3076889648437499,0.1186083984375,0.9761279296875,1.0303233406957897,-2.46484375,4.12890625,-3.33935546875,31.91823529411765,330.1969381639881
0.3008530273437499,0.1039599609375,0.9414599609375,0.993814407013938,-1.8896484375,4.912109375,-2.9501953125,31.965294117647066,330.1969381639881
0.3003647460937499,0.0966357421875,0.8960498046875001,0.9499803681364152,-1.7861328125,5.6591796875,-2.79248046875,31.91823529411765,330.1969381639881
0.2530014648437499,0.1107958984375,0.8779833984375001,0.9204022600230392,-1.51025390625,6.2578125,-2.759765625,31.871176470588235,330.1969381639881
0.20710302734375,0.1518115234375,0.8745654296875001,0.9114840061064386,-1.5576171875,6.92578125,-3.10107421875,31.965294117647066,330.1969381639881
0.16706396484375,0.1811083984375,0.8355029296875001,0.8710773592800501,-1.677734375,7.25927734375,-3.4970703125,31.824117647058824,330.1969381639881
0.13972021484375,0.2104052734375,0.8418505859375001,0.8789223666340532,-1.95947265625,7.2080078125,-3.7763671875,31.965294117647066,330.1969381639881
0.13972021484375,0.2231005859375,0.7832568359375001,0.8263091920851803,-2.42431640625,5.796875,-4.005859375,31.91823529411765,330.21926332094284
0.14948583984375,0.2445849609375,0.8286669921875001,0.876844800048257,-2.671875,4.455078125,-4.4462890625,31.91823529411765,330.21926332094284
0.14020849609375,0.2309130859375,0.8149951171875001,0.8586013723920533,-2.67822265625,2.84228515625,-4.48046875,31.91823529411765,330.21926332094284
0.12897802734375,0.1825732421875,0.7944873046875001,0.8253353243439597,-2.6630859375,1.61669921875,-4.36376953125,31.91823529411765,330.21926332094284
0.15583349609375,0.1313037109375,0.8306201171875001,0.8552511456217616,-2.54150390625,0.54736328125,-4.3623046875,31.965294117647066,330.21926332094284
0.16608740234375,0.0692919921875,0.8691943359375001,0.8876289759941588,-2.283203125,-0.119140625,-4.330078125,31.91823529411765,330.21926332094284
0.16706396484375,0.0253466796875,0.9014208984375,0.9171218341422062,-2.23779296875,-0.34716796875,-4.3720703125,31.91823529411765,330.21926332094284
0.13825537109375,0.0019091796875,0.9443896484375,0.954457961714006,-2.09326171875,-0.224609375,-4.10986328125,31.871176470588235,329.9483346667121
0.11335302734375,-0.0254345703125,0.9834521484375,0.9902898335544544,-2.013671875,0.18603515625,-3.7431640625,31.965294117647066,329.9483346667121
0.10798193359375,-0.0327587890625,1.0127490234375005,1.01901610424816,-1.78369140625,0.72802734375,-3.1689453125,31.259411764705884,329.9483346667121
0.08698583984375,-0.0371533203125,1.0283740234375005,1.0327148868998637,-1.57373046875,1.146484375,-2.6787109375,31.965294117647066,329.9483346667121
0.07575537109375,-0.0415478515625,1.0186083984375005,1.0222661931152868,-1.43896484375,1.78515625,-2.1767578125,31.965294117647066,329.9483346667121
0.06745458984375,-0.0381298828125,1.0181201171875005,1.0210644361038987,-1.26171875,2.146484375,-1.7939453125,31.91823529411765,329.9483346667121
0.0620834960937499,-0.0478955078125,0.9981005859375,1.0011758685688648,-1.18310546875,2.1298828125,-1.6259765625,31.91823529411765,329.9483346667121
0.0425522460937499,-0.0474072265625,0.9824755859375,0.98453868168864,-1.31103515625,1.7236328125,-1.53173828125,31.259411764705884,330.52252308342594
0.07526708984375,-0.0425244140625,0.9736865234375,0.9775167039640352,-1.59228515625,0.73974609375,-1.568359375,31.259411764705884,330.52252308342594
0.09186865234375,-0.0225048828125,0.9790576171875,0.983615848188065,-1.85009765625,-0.328125,-1.6025390625,32.71823529411765,330.52252308342594
0.0513413085937499,0.0116748046875,0.9839404296875,0.9853481619236076,-2.10986328125,-0.91845703125,-1.46533203125,31.259411764705884,330.52252308342594
0.0562241210937499,0.0814990234375,1.0166552734375005,1.0214652160608846,-2.23046875,-0.91259765625,-1.3974609375,31.965294117647066,330.52252308342594
0.08161474609375,0.1308154296875,1.0361865234375005,1.0475954155960048,-2.29296875,-0.58984375,-1.5302734375,31.91823529411765,330.52252308342594
0.14850927734375,0.1689013671875,1.0825732421875005,1.1056887003109537,-2.44970703125,-0.37451171875,-2.0361328125,31.91823529411765,330.52252308342594
0.19001318359375,0.1835498046875,1.1138232421875005,1.1447260613689751,-2.57470703125,-0.09765625,-2.44384765625,31.965294117647066,330.1750778816579
0.19733740234375,0.1796435546875,1.1411669921875005,1.1719539074395402,-2.490234375,0.00146484375,-2.78564453125,31.306470588235296,330.1750778816579
0.17145849609375,0.1513232421875,1.1270068359375005,1.1499744117843331,-2.2138671875,0.16943359375,-2.990234375,31.91823529411765,330.1750778816579
0.11432958984375,0.1107958984375,1.0684130859375005,1.080209937200591,-2.05712890625,0.3984375,-3.01318359375,31.77705882352941,330.1750778816579
0.08698583984375,0.0644091796875,1.0039599609375005,1.0097775408113243,-2.0654296875,0.23876953125,-3.17431640625,31.965294117647066,330.1750778816579
0.0596420898437499,0.0409716796875,0.9673388671875,0.9700414122030776,-2.18115234375,-0.73193359375,-3.35595703125,32.012352941176474,330.1750778816579
0.0332749023437499,0.1356982421875,0.9331591796875,0.9435609607724408,-2.30322265625,-1.791015625,-3.5947265625,31.871176470588235,330.1750778816579
0.0264389648437499,-0.0337353515625,0.9072802734375,0.908292126672845,-2.4716796875,-3.123046875,-3.72216796875,31.965294117647066,329.95926487516374
0.0196030273437499,-0.0659619140625,0.9263232421875,0.9288756654173852,-2.6220703125,-3.9990234375,-3.67041015625,31.259411764705884,329.95926487516374
0.0215561523437499,-0.1045361328125,0.9356005859375,0.9416692238646504,-2.408203125,-4.49755859375,-3.392578125,31.259411764705884,329.95926487516374
0.0454819335937499,-0.1396923828125,0.9336474609375,0.9451349900486709,-2.4169921875,-4.6513671875,-3.14013671875,31.259411764705884,329.95926487516374
0.0567124023437499,-0.1689892578125,0.9741748046875,0.9903485325498028,-2.1904296875,-4.24169921875,-2.8759765625,32.71823529411765,329.95926487516374
0.0611069335937499,-0.1987744140625,0.9478076171875,0.9703528246044156,-2.10986328125,-3.51904296875,-2.51123046875,31.824117647058824,329.95926487516374
0.08503271484375,-0.2349072265625,0.9214404296875,0.9547064643897982,-2.61669921875,-3.54931640625,-2.0986328125,31.91823529411765,329.95926487516374
0.09919287109375,-0.2397900390625,0.9629443359375,0.9972964868200076,-2.8837890625,-3.984375,-1.908203125,31.91823529411765,330.04531020753336
0.14167333984375,-0.2187939453125,0.9814990234375,1.0155207820309038,-2.87158203125,-4.68505859375,-1.77685546875,31.91823529411765,330.04531020753336
0.19977880859375,-0.1846142578125,1.0230029296875005,1.0585504195360782,-2.65283203125,-5.5283203125,-1.52587890625,31.91823529411765,330.04531020753336
0.22126318359375,-0.1392041015625,1.0620654296875005,1.0937632994588724,-2.16455078125,-6.4130859375,-1.232421875,31.871176470588235,330.04531020753336
0.23786474609375,-0.1016064453125,1.0894091796875005,1.119694542252787,-1.6240234375,-7.24853515625,-0.62744140625,31.965294117647066,330.04531020753336
0.24714208984375,-0.0776806640625,1.0991748046875005,1.129291259773727,-0.990234375,-7.69287109375,-0.21923828125,31.91823529411765,330.04531020753336
0.2656967773437499,-0.0693798828125,1.1231005859375005,1.1561847913560734,-0.34521484375,-7.82958984375,0.09814453125,31.91823529411765,330.04531020753336
0.2725327148437499,-0.0566845703125,1.1177294921875005,1.1518708429669295,0.228515625,-7.517578125,0.255859375,31.965294117647066,330.0129848256551
0.2886459960937499,-0.0542431640625,1.1216357421875005,1.159450546621532,0.4609375,-7.130859375,0.25048828125,31.91823529411765,330.0129848256551
0.3291733398437499,-0.0352001953125,1.1255419921875005,1.173217336042787,0.576171875,-6.6689453125,0.08447265625,31.259411764705884,330.0129848256551
0.3516342773437499,-0.0264111328125,1.1118701171875005,1.1664473286154184,0.47021484375,-6.36376953125,0.013671875,31.91823529411765,330.0129848256551
0.3716538085937499,-0.0015087890625,1.1191943359375005,1.1792899522514626,0.35595703125,-5.84716796875,0.09130859375,31.965294117647066,330.0129848256551
0.3936264648437499,0.0214404296875,1.0962451171875005,1.1649698892280471,0.1728515625,-5.6123046875,0.16259765625,31.91823529411765,330.0129848256551
0.4434311523437499,0.0370654296875,1.0391162109375005,1.1303837988842254,-0.0693359375,-5.28759765625,0.25537109375,31.259411764705884,330.0129848256551
0.52253271484375,0.0272998046875,1.0029833984375005,1.1312654042969723,-0.15234375,-5.54443359375,0.197265625,31.91823529411765,329.94786916185694
0.58356787109375,-0.0044384765625,0.9673388671875,1.1297414059060964,-0.23046875,-6.3583984375,0.0390625,31.965294117647066,329.94786916185694
0.65729833984375,-0.0405712890625,0.8975146484375001,1.1132024439505297,-0.07470703125,-7.33447265625,-0.20849609375,31.91823529411765,329.94786916185694
0.73298193359375,-0.0806103515625,0.8486865234375001,1.1242906024770876,-0.06787109375,-8.673828125,-0.55224609375,32.624117647058824,329.94786916185694
0.80768896484375,0.0111865234375,0.8164599609375001,1.1485179450278735,-0.0419921875,-10.2568359375,-0.92626953125,31.871176470588235,329.94786916185694
0.85261083984375,-0.1118603515625,0.8374560546875001,1.2003293822961696,-0.25,-11.736328125,-1.18115234375,31.259411764705884,329.94786916185694
0.83649755859375,-0.2358837890625,0.9165576171875,1.2631101270673963,0.04931640625,-12.5,-1.330078125,31.91823529411765,329.94786916185694
0.75837255859375,-0.1191845703125,0.9697802734375,1.2368539437529067,0.27978515625,-12.3037109375,-1.15478515625,31.965294117647066,329.9911245280608
0.82038427734375,-0.1733837890625,1.0156787109375005,1.3170784125002424,0.43017578125,-11.87109375,-0.6728515625,32.67117647058824,329.9911245280608
0.64997412109375,-0.2529736328125,1.0874560546875005,1.291906609576114,0.34716796875,-10.8564453125,-0.3642578125,31.91823529411765,329.9911245280608
0.57331396484375,-0.2915478515625,1.1162646484375005,1.28830734585613,0.1123046875,-9.5673828125,0.17578125,31.91823529411765,329.9911245280608
0.57673193359375,-0.3037548828125,1.0825732421875005,1.2636659276721744,-0.19189453125,-8.0791015625,0.69091796875,32.624117647058824,329.9911245280608
0.69782568359375,-0.3135205078125,1.0254443359375005,1.2793716737556735,-0.54296875,-6.86572265625,0.935546875,31.91823529411765,329.9911245280608
0.82526708984375,-0.3208447265625,0.9702685546875,1.3135555474959968,-0.72607421875,-5.966796875,1.2919921875,31.91823529411765,329.9911245280608
0.92780615234375,-0.3271923828125,0.9121630859375,1.341611198166018,-0.9365234375,-5.4306640625,1.5498046875,31.824117647058824,330.3167057883647
0.99470068359375,-0.3296337890625,0.8818896484375001,1.3696047739602808,-1.0302734375,-5.2236328125,1.6591796875,31.871176470588235,330.3167057883647
0.98200537109375,-0.3223095703125,0.8921435546875001,1.365334438935183,-0.91162109375,-4.78564453125,1.998046875,31.259411764705884,330.3167057883647
1.00788427734375,-0.2969189453125,0.8774951171875001,1.368937272956699,-0.81982421875,-4.4892578125,1.56689453125,32.71823529411765,330.3167057883647
1.00886083984375,-0.2539501953125,0.8564990234375001,1.34754646414099,-0.5810546875,-3.9072265625,1.3681640625,31.871176470588235,330.3167057883647
1.00104833984375,-0.2139111328125,0.8374560546875001,1.3225688620929377,-0.2548828125,-3.70703125,0.81201171875,31.259411764705884,330.3167057883647
1.03132177734375,-0.2119580078125,0.7881396484375001,1.3151862647315404,0.09619140625,-3.8125,0.27099609375,31.259411764705884,330.3167057883647
1.04889990234375,-0.2002392578125,0.7422412109375001,1.300464832557957,0.15380859375,-3.8994140625,-0.111328125,31.871176470588235,330.1860080158501
1.09675146484375,-0.1841259765625,0.7207568359375001,1.3252383059029955,0.134765625,-3.95947265625,-0.5615234375,31.91823529411765,330.1860080158501
1.14460302734375,-0.1855908203125,0.6719287109375001,1.3401672415675867,-0.02099609375,-4.34130859375,-1.2392578125,31.91823529411765,330.1860080158501
1.19929052734375,-0.2344189453125,0.6616748046875001,1.3896271291451228,-0.29833984375,-4.6298828125,-1.88427734375,31.91823529411765,330.1860080158501
1.18268896484375,-0.2920361328125,0.6724169921875001,1.3914678946399537,-0.47314453125,-5.11279296875,-2.65673828125,31.871176470588235,330.1860080158501
1.17097021484375,-0.3516064453125,0.6939013671875001,1.4058084662645876,-0.5869140625,-5.14404296875,-3.04248046875,32.67117647058824,330.1860080158501
1.13483740234375,-0.3574658203125,0.6919482421875001,1.3763829817010853,-0.71826171875,-4.98779296875,-3.2158203125,32.67117647058824,330.1860080158501
1.10944677734375,-0.3647900390625,0.6758349609375001,1.3493319898316518,-0.923828125,-4.43017578125,-3.43017578125,31.965294117647066,330.32624373992616
1.07331396484375,-0.3501416015625,0.6709521484375001,1.313308339182486,-1.044921875,-3.97021484375,-3.6123046875,31.965294117647066,330.32624373992616
1.02692724609375,-0.3281689453125,0.6860888671875001,1.2778858944036589,-1.1396484375,-3.64501953125,-3.62158203125,31.91823529411765,330.32624373992616
1.00056005859375,-0.3022900390625,0.8018115234375001,1.3173463544894717,-1.1044921875,-3.5712890625,-3.458984375,32.71823529411765,330.32624373992616
1.00593115234375,-0.2778759765625,0.6528857421875001,1.2310046035486264,-1.0693359375,-3.697265625,-3.22900390625,31.965294117647066,330.32624373992616
1.04548193359375,-0.3599072265625,0.6201708984375001,1.267745096015604,-0.8935546875,-3.8671875,-2.68408203125,31.259411764705884,330.32624373992616
1.10309912109375,-0.1870556640625,0.5747607421875001,1.2578423602246795,-0.6181640625,-4.08056640625,-2.310546875,31.91823529411765,330.32624373992616
1.16413427734375,-0.1523876953125,0.5024951171875001,1.2770794682268565,-0.0166015625,-4.3505859375,-2.27001953125,31.91823529411765,330.0562403579145
1.08356787109375,-0.1309033203125,0.4795458984375,1.192149017213749,0.3701171875,-4.765625,-2.375,31.965294117647066,330.0562403579145
1.21345068359375,-0.1201611328125,0.4561083984375,1.3018971274559843,0.74755859375,-5.20068359375,-2.5283203125,31.965294117647066,330.0562403579145
1.18610693359375,-0.2363720703125,0.4536669921875,1.291717907804734,1.06591796875,-5.37158203125,-2.62451171875,31.77705882352941,330.0562403579145
1.17048193359375,-0.1113720703125,0.4522021484375,1.2597295257183374,1.306640625,-5.17333984375,-2.8037109375,31.259411764705884,330.0562403579145
1.12848974609375,-0.0933056640625,0.4551318359375,1.2203852023311,1.48095703125,-4.8349609375,-2.69921875,31.91823529411765,330.0562403579145
1.08210302734375,-0.0952587890625,0.4556201171875,1.17796896812527,1.560546875,-4.478515625,-2.49755859375,31.91823529411765,330.0562403579145
1.06306005859375,-0.1045361328125,0.4565966796875,1.1616819784873953,1.533203125,-4.0048828125,-2.48779296875,31.259411764705884,330.369037687592
1.04059912109375,-0.1196728515625,0.4487841796875,1.1395505088235305,1.5322265625,-3.77978515625,-2.1435546875,31.871176470588235,330.369037687592
0.99616552734375,-0.1484814453125,0.4634326171875,1.1086759166426392,1.6669921875,-3.68115234375,-1.92822265625,31.259411764705884,330.369037687592
0.98005224609375,-0.1592236328125,0.4756396484375,1.1009485208151937,1.7998046875,-3.91748046875,-1.54248046875,31.965294117647066,330.369037687592
0.96784521484375,-0.1611767578125,0.4648974609375,1.0857402803345872,1.908203125,-3.91162109375,-1.169921875,31.91823529411765,330.369037687592
0.98591162109375,-0.1768017578125,0.4360888671875,1.092453242138158,1.8876953125,-3.4345703125,-0.8564453125,32.67117647058824,330.369037687592
0.99665380859375,-0.1714306640625,0.3721240234375,1.0775822825124075,1.70556640625,-2.71875,-0.544921875,31.91823529411765,330.369037687592
1.01423193359375,-0.1504345703125,0.3228076171875,1.0749426648806413,1.4833984375,-1.787109375,-0.47314453125,31.91823529411765,330.434618005214
1.04255224609375,-0.1221142578125,0.3066943359375,1.093566867407917,1.048828125,-1.255859375,-0.666015625,31.259411764705884,330.434618005214
1.06403662109375,-0.1045361328125,0.2881396484375,1.107305825458208,0.67431640625,-0.78466796875,-0.88818359375,31.91823529411765,330.434618005214
1.06354833984375,-0.0854931640625,0.3101123046875,1.1111317625756214,0.4765625,-0.341796875,-0.9892578125,31.91823529411765,330.434618005214
1.04743505859375,-0.0957470703125,0.3403857421875,1.1055090035496111,0.44970703125,0.04345703125,-0.970703125,31.91823529411765,330.434618005214
1.02692724609375,-0.1103955078125,0.3667529296875,1.0960266640685514,0.5458984375,0.27490234375,-0.88623046875,31.91823529411765,330.434618005214
0.99909521484375,-0.1226025390625,0.3926318359375,1.0804547142291077,0.6982421875,0.2734375,-0.7197265625,31.871176470588235,330.434618005214
0.99177099609375,-0.1211376953125,0.3931201171875,1.0736980378374203,0.92724609375,0.138671875,-0.5888671875,31.91823529411765,330.41275784350614
0.99860693359375,-0.1333447265625,0.4058154296875,1.0861320301399782,1.1474609375,-0.01904296875,-0.6220703125,31.91823529411765,330.41275784350614
1.02448583984375,-0.1338330078125,0.4014208984375,1.1084318868215872,1.2890625,-0.06640625,-0.86328125,31.91823529411765,330.41275784350614
1.03425146484375,-0.1147900390625,0.4033740234375,1.1160481389185548,1.33642578125,0.0576171875,-1.1103515625,31.91823529411765,330.41275784350614
1.02595068359375,-0.1030712890625,0.3901904296875,1.1024731594080666,1.35205078125,0.2646484375,-1.30712890625,31.91823529411765,330.41275784350614
1.05036474609375,-0.0908642578125,0.3838427734375,1.121988274406019,1.42138671875,0.53515625,-1.53125,31.91823529411765,330.41275784350614
1.07233740234375,-0.0713330078125,0.3887255859375,1.1428488454871766,1.5673828125,0.94140625,-1.73388671875,31.871176470588235,330.41275784350614
1.05427099609375,-0.0391064453125,0.3994677734375,1.1280918177544774,1.904296875,1.564453125,-1.72998046875,31.965294117647066,330.58625063989666
1.04108740234375,-0.0107861328125,0.4111865234375,1.11939880160581,2.4052734375,2.03173828125,-1.52587890625,31.91823529411765,330.58625063989666
1.03473974609375,0.0297412109375,0.4204638671875,1.1173006512951,3.08837890625,2.623046875,-1.1884765625,31.91823529411765,330.58625063989666
1.04108740234375,0.0482958984375,0.4131396484375,1.1211065258198276,3.7177734375,2.80419921875,-0.92578125,31.259411764705884,330.58625063989666
1.05524755859375,0.0492724609375,0.4048388671875,1.1313132606447098,4.15478515625,2.736328125,-0.8974609375,32.624117647058824,330.58625063989666
1.05866552734375,0.0346240234375,0.4067919921875,1.1346590883137084,4.41259765625,2.5126953125,-1.01171875,31.91823529411765,330.58625063989666
1.06159521484375,0.1356982421875,0.3794482421875,1.1355084242801146,4.314453125,2.23681640625,-1.310546875,31.824117647058824,330.58625063989666
1.07184912109375,-0.0332470703125,0.4199755859375,1.151670698966226,4.0185546875,1.6552734375,-1.6689453125,32.624117647058824,330.58625063989666
1.05524755859375,-0.0723095703125,0.4233935546875,1.139314787943949,3.79150390625,1.50390625,-1.8525390625,31.91823529411765,330.130893599011
1.02888037109375,-0.0928173828125,0.4702685546875,1.1350605261844169,3.81298828125,1.482421875,-1.76513671875,31.259411764705884,330.130893599011
1.02399755859375,-0.1069775390625,0.4756396484375,1.1341288590965215,3.970703125,1.7041015625,-1.580078125,31.91823529411765,330.130893599011
1.01911474609375,-0.0986767578125,0.4761279296875,1.1291721629878324,4.07421875,2.08740234375,-1.37451171875,31.91823529411765,330.130893599011
1.01862646484375,-0.0869580078125,0.4893115234375,1.1333963724009009,4.26611328125,2.55908203125,-0.75048828125,31.91823529411765,330.130893599011
1.01081396484375,-0.0854931640625,0.4961474609375,1.129254734601227,4.41650390625,2.8544921875,-0.2880859375,31.91823529411765,330.130893599011
1.03962255859375,-0.0674267578125,0.4883349609375,1.1505791872270028,4.55322265625,3.0361328125,0.0908203125,31.965294117647066,330.130893599011
1.04059912109375,-0.0420361328125,0.5024951171875001,1.1563368497458664,4.638671875,3.07080078125,0.37109375,31.91823529411765,330.130893599011
1.05231787109375,-0.0122509765625,0.5020068359375001,1.1659905023532555,4.61328125,3.1435546875,0.578125,31.91823529411765,330.47926619564265
1.06159521484375,0.0175341796875,0.5190966796875001,1.1818431412412769,4.58642578125,3.15234375,0.61572265625,31.965294117647066,330.47926619564265
1.06159521484375,0.0414599609375,0.5269091796875001,1.1858906409020356,4.517578125,3.21240234375,0.52392578125,31.91823529411765,330.47926619564265
1.05280615234375,0.0585498046875,0.5518115234375001,1.1900944632423975,4.45703125,3.31640625,0.390625,31.91823529411765,330.47926619564265
1.03034521484375,0.0683154296875,0.5596240234375001,1.1745030043780973,4.400390625,3.51318359375,0.349609375,31.965294117647066,330.47926619564265
0.99225927734375,0.0819873046875,0.5967333984375001,1.1607717865349028,4.43359375,3.83251953125,0.4638671875,31.965294117647066,330.47926619564265
0.95222021484375,0.1034716796875,0.6050341796875001,1.1329148620459333,4.4755859375,4.22216796875,0.65771484375,31.871176470588235,330.47926619564265
0.92878271484375,0.1127490234375,0.6172412109375001,1.120864124752964,4.51025390625,4.71875,0.8603515625,31.965294117647066,330.47926619564265
0.91462255859375,0.1117724609375,0.6353076171875001,1.1192154735211008,4.6630859375,5.30810546875,1.00537109375,31.91823529411765,330.47926619564265
0.90778662109375,0.1049365234375,0.6470263671875001,1.1197014527202376,4.7724609375,5.72412109375,1.341796875,32.67117647058824,330.2315908726734
0.89850927734375,0.0976123046875,0.6455615234375001,1.110674013400034,4.99853515625,5.951171875,1.38134765625,32.67117647058824,330.2315908726734
0.88923193359375,0.0912646484375,0.6533740234375001,1.1072309073902369,5.08544921875,6.1357421875,1.59716796875,32.71823529411765,330.2315908726734
0.87507177734375,0.0844287109375,0.6523974609375001,1.0947608276568055,5.23779296875,6.18896484375,1.6728515625,31.871176470588235,330.2315908726734
0.84138037109375,0.0810107421875,0.6543505859375001,1.0689519907499945,5.13623046875,6.20458984375,1.7900390625,31.871176470588235,330.2315908726734
0.79792333984375,0.0790576171875,0.6553271484375001,1.035560444678144,5.13671875,6.138671875,1.87646484375,31.824117647058824,330.2315908726734
0.76520849609375,0.0736865234375,0.6465380859375001,1.0044825746612482,5.115234375,6.29638671875,2.291015625,31.91823529411765,330.2315908726734
0.74177099609375,0.0668505859375,0.6460498046875001,0.98593790961848,5.140625,6.2353515625,2.57421875,31.91823529411765,330.2315908726734
0.73395849609375,0.0551318359375,0.6504443359375001,0.9822486586782464,5.17822265625,6.12841796875,2.79931640625,31.965294117647066,330.42647449964
0.70319677734375,0.0541552734375,0.6128466796875001,0.934344451533651,5.1396484375,6.1904296875,3.06201171875,31.965294117647066,330.42647449964
0.71735693359375,0.0492724609375,0.5908740234375001,0.9306776333162224,5.10498046875,5.93017578125,3.1787109375,32.71823529411765,330.42647449964
0.77546240234375,0.0536669921875,0.5571826171875001,0.956386194167976,4.98388671875,5.5751953125,3.0556640625,32.71823529411765,330.42647449964
0.78766943359375,0.0556201171875,0.5596240234375001,0.9678304508860144,4.93017578125,5.1279296875,2.90087890625,31.91823529411765,330.42647449964
0.78034521484375,0.0619677734375,0.5469287109375001,0.954939618050322,4.84130859375,5.05712890625,2.7177734375,31.91823529411765,330.42647449964
0.78962255859375,0.0712451171875,0.5151904296875001,0.9455161715194468,4.53369140625,5.01318359375,2.56494140625,31.91823529411765,330.42647449964
0.78425146484375,0.0756396484375,0.5122607421875001,0.9397780506650516,4.24853515625,5.05517578125,2.31103515625,31.965294117647066,330.42647449964
0.76032568359375,0.0688037109375,0.5278857421875001,0.9281661772419432,3.96337890625,5.14599609375,2.16796875,31.91823529411765,330.42647449964
0.71393896484375,0.0590380859375,0.5322802734375001,0.8924778039839583,3.7880859375,5.56787109375,2.24072265625,32.624117647058824,330.42647449964
0.65485693359375,0.0595263671875,0.5205615234375001,0.8386687615202566,3.59326171875,5.73046875,2.47265625,31.965294117647066,330.42647449964
0.62702490234375,0.0561083984375,0.5249560546875001,0.8196872817651107,3.30908203125,5.88818359375,2.71533203125,31.965294117647066,330.42647449964
0.59723974609375,0.0634326171875,0.5269091796875001,0.7989695206178626,3.1181640625,6.240234375,2.91796875,31.91823529411765,330.42647449964
0.60505224609375,0.0868701171875,0.5420458984375001,0.8169751488118707,2.88525390625,6.115234375,2.97412109375,31.824117647058824,330.42647449964
0.60456396484375,0.0927294921875,0.4287646484375,0.7469507815503507,2.80517578125,5.7177734375,2.99609375,31.871176470588235,330.42647449964
0.62604833984375,0.1029833984375,0.5698779296875001,0.8528205901124595,2.65234375,5.244140625,2.703125,31.91823529411765,330.32810103054555
0.62604833984375,0.1210498046875,0.5757373046875001,0.8591059440166996,2.59521484375,4.5029296875,2.57177734375,32.67117647058824,330.32810103054555
0.61774755859375,0.1366748046875,0.5776904296875001,0.8567486684771873,2.53564453125,4.044921875,2.50732421875,31.259411764705884,330.32810103054555
0.62360693359375,0.1659716796875,0.5898974609375001,0.8743061366049075,2.3779296875,3.7294921875,2.54248046875,32.67117647058824,330.32810103054555
0.58845068359375,0.1689013671875,0.6167529296875001,0.8690144159551513,2.33251953125,3.48583984375,2.69873046875,31.259411764705884,330.32810103054555
0.56989599609375,0.1776904296875,0.6294482421875001,0.8675024061979019,2.3955078125,3.580078125,2.94580078125,31.965294117647066,330.32810103054555
0.55036474609375,0.1894091796875,0.6841357421875001,0.8982309863454785,2.6650390625,3.92236328125,3.19189453125,31.965294117647066,330.32810103054555
0.54011083984375,0.1796435546875,0.7012255859375001,0.9031660137709302,2.79443359375,3.82666015625,3.3837890625,31.965294117647066,330.57624668162407
0.54499365234375,0.1903857421875,0.7334521484375001,0.9333899860030908,2.97998046875,3.62841796875,3.64111328125,31.965294117647066,330.57624668162407
0.53278662109375,0.2006396484375,0.7481005859375001,0.9400916651165724,2.9921875,2.93994140625,4.1044921875,31.259411764705884,330.57624668162407
0.53815771484375,0.2157763671875,0.8013232421875001,0.9890865003387564,3.22509765625,2.7255859375,4.27490234375,31.965294117647066,330.57624668162407
0.54499365234375,0.2284716796875,0.8276904296875001,1.0169999198183284,3.3994140625,1.9990234375,4.27099609375,31.91823529411765,330.57624668162407
0.55622412109375,0.2294482421875,0.8320849609375001,1.0268384249470843,3.623046875,1.82568359375,4.0634765625,31.306470588235296,330.57624668162407
0.56061865234375,0.2152880859375,0.8486865234375001,1.0396687204907076,3.71923828125,1.927734375,3.72265625,31.91823529411765,330.57624668162407
0.56940771484375,0.1942919921875,0.8584521484375001,1.048291283522251,3.6572265625,1.92578125,3.6611328125,31.91823529411765,330.5967182254122
0.55915380859375,0.1649951171875,0.8555224609375001,1.0352753505851326,3.5029296875,2.02783203125,3.71337890625,31.965294117647066,330.5967182254122
0.54645849609375,0.1527880859375,0.8604052734375001,1.0306591685501794,3.38818359375,2.3486328125,4.05810546875,31.871176470588235,330.5967182254122
0.53571630859375,0.1483935546875,0.8555224609375001,1.0202604037865344,3.27880859375,2.9111328125,4.39990234375,31.91823529411765,330.5967182254122
0.51911474609375,0.1405810546875,0.8345263671875001,0.9928128776764504,3.0673828125,3.72802734375,4.84228515625,31.259411764705884,330.5967182254122
0.51960302734375,0.1469287109375,0.8247607421875001,0.9858020257517334,2.84716796875,4.185546875,5.125,31.965294117647066,330.5967182254122
0.52839208984375,0.1435107421875,0.7891162109375001,0.9604675570247077,2.609375,4.29296875,5.61767578125,31.871176470588235,330.5967182254122
0.52350927734375,0.1430224609375,0.7686083984375001,0.9408912040965484,2.43701171875,4.19189453125,5.73095703125,31.965294117647066,330.8458002498624
0.52350927734375,0.1415576171875,0.7412646484375001,0.918462738205502,2.296875,3.94970703125,5.71728515625,32.67117647058824,330.8458002498624
0.53522802734375,0.1430224609375,0.7397998046875001,0.9242446735592064,2.2470703125,3.57080078125,5.5087890625,32.624117647058824,330.8458002498624
0.52057958984375,0.1474169921875,0.7373583984375001,0.9145667207447532,2.21435546875,3.25634765625,5.2685546875,31.91823529411765,330.8458002498624
0.52302099609375,0.1493701171875,0.7397998046875001,0.918240788289852,2.1748046875,2.99365234375,5.0029296875,32.71823529411765,330.8458002498624
0.51960302734375,0.1508349609375,0.7388232421875001,0.9157501158407004,2.1083984375,2.466796875,4.84130859375,31.91823529411765,330.8458002498624
0.52302099609375,0.1527880859375,0.7373583984375001,0.9168383550581086,2.0576171875,1.74169921875,4.765625,32.71823529411765,330.8458002498624
0.53864599609375,0.1400927734375,0.7524951171875001,0.9359564069273036,2.0576171875,1.107421875,4.72802734375,31.965294117647066,330.85626899384107
0.55427099609375,0.1381396484375,0.7773974609375001,0.9646998040080996,2.060546875,0.25048828125,4.71533203125,31.91823529411765,330.85626899384107
0.58356787109375,0.1479052734375,0.7949755859375001,0.9972028942598316,2.06494140625,-0.30322265625,4.6669921875,31.824117647058824,330.85626899384107
0.59919287109375,0.1620654296875,0.8330615234375001,1.0388882529422372,2.08544921875,-1.0498046875,4.63525390625,31.91823529411765,330.85626899384107
0.62165380859375,0.1791552734375,0.8735888671875001,1.087063741743565,2.162109375,-1.3818359375,4.62109375,31.824117647058824,330.85626899384107
0.62018896484375,0.1830615234375,0.9180224609375,1.1229029843503686,2.2666015625,-1.5068359375,4.32568359375,31.871176470588235,330.85626899384107
0.59919287109375,0.1845263671875,0.9653857421875,1.1511089036993405,2.31591796875,-1.06884765625,4.263671875,31.871176470588235,330.85626899384107
0.56110693359375,0.1820849609375,1.0039599609375005,1.1644447290843043,2.2998046875,-0.18505859375,4.35302734375,31.871176470588235,330.7588213328078
0.50593115234375,0.1728076171875,1.0366748046875005,1.1664147864905363,2.30859375,1.1279296875,4.51708984375,31.259411764705884,330.7588213328078
0.4712631835937499,0.1601123046875,1.0615771484375005,1.1724636371367574,2.20458984375,2.59814453125,5.06787109375,31.871176470588235,330.7588213328078
0.4673569335937499,0.1376513671875,1.0718310546875005,1.177366643004319,2.220703125,3.8603515625,5.26513671875,31.91823529411765,330.7588213328078
0.4868881835937499,0.1049365234375,1.0806201171875005,1.1898788236390698,2.34521484375,4.498046875,5.6650390625,32.624117647058824,330.7588213328078
0.52057958984375,0.0849169921875,1.0645068359375005,1.1880188587230958,2.55029296875,4.31298828125,6.10009765625,31.871176470588235,330.7588213328078
0.54108740234375,0.0888232421875,1.0273974609375005,1.164564591625827,2.7783203125,3.5830078125,6.69482421875,31.965294117647066,330.7588213328078
0.55378271484375,0.1044482421875,0.9780810546875,1.1288167610796649,3.3095703125,2.763671875,7.11767578125,31.871176470588235,330.6390529157901
0.54499365234375,0.0717333984375,0.9111865234375,1.064154425842646,3.56103515625,2.45458984375,7.20849609375,32.012352941176474,330.6390529157901
0.58503271484375,0.1376513671875,0.8452685546875001,1.037154812874882,3.669921875,2.41552734375,6.794921875,32.012352941176474,330.6390529157901
0.60554052734375,-0.0415478515625,0.8237841796875001,1.0232428494392785,3.72412109375,2.15185546875,6.19140625,31.306470588235296,330.6390529157901
0.62702490234375,-0.1020947265625,0.7861865234375001,1.0107783194082685,3.53662109375,1.7998046875,5.44189453125,31.91823529411765,330.6390529157901
0.61774755859375,-0.1460400390625,0.7505419921875001,0.982981699318302,3.0595703125,1.37939453125,4.9609375,31.965294117647066,330.6390529157901
0.60309912109375,-0.1606884765625,0.7700732421875001,0.9912427223930568,2.8671875,0.58642578125,4.95068359375,31.871176470588235,330.6390529157901
0.59626318359375,-0.1709423828125,0.7832568359375001,0.9991207901919532,2.66162109375,-0.4423828125,5.20947265625,31.965294117647066,330.8120883492152
0.59577490234375,-0.1597119140625,0.7949755859375001,1.006201675606279,2.748046875,-1.162109375,5.53564453125,31.824117647058824,330.8120883492152
0.58161474609375,-0.1440869140625,0.8003466796875001,0.99979575882505,2.80322265625,-2.06689453125,5.80029296875,31.91823529411765,330.8120883492152
0.57624365234375,-0.1147900390625,0.7979052734375001,0.9909017737968816,2.77392578125,-2.34375,5.75390625,31.824117647058824,330.8120883492152
0.58845068359375,-0.0913525390625,0.8257373046875001,1.0180675762284617,2.67822265625,-2.47705078125,5.60595703125,31.965294117647066,330.8120883492152
0.58161474609375,-0.0737744140625,0.8760302734375001,1.054109774654871,2.64990234375,-2.54638671875,5.16796875,31.965294117647066,330.8120883492152
0.56940771484375,-0.0474072265625,0.9023974609375,1.0680794766122867,2.72509765625,-2.37744140625,4.95263671875,31.871176470588235,330.8120883492152
0.54792333984375,-0.0239697265625,0.9409716796875,1.0891382998090398,2.845703125,-2.05419921875,5.0283203125,31.91823529411765,330.9527966822152
0.53815771484375,-0.0171337890625,0.9663623046875,1.1062383995750742,3.00341796875,-1.6982421875,5.3564453125,31.259411764705884,330.9527966822152
0.60114599609375,-0.0713330078125,0.9683154296875,1.141971837653632,4.482421875,-0.40234375,6.81396484375,31.91823529411765,330.9527966822152
0.61970068359375,-0.1050244140625,0.9482958984375,1.137683688812105,4.72265625,0.0400390625,7.02294921875,32.71823529411765,330.9527966822152
0.63532568359375,-0.1348095703125,0.9297412109375,1.1341212738491573,4.83935546875,0.33251953125,7.15966796875,31.91823529411765,330.9527966822152
0.63483740234375,-0.1621533203125,0.9136279296875,1.1242900962865394,4.81494140625,0.51953125,7.32177734375,31.824117647058824,331.0502464145765
0.61774755859375,-0.1748486328125,0.8897021484375001,1.097157237354447,4.67822265625,0.61279296875,7.5634765625,31.965294117647066,331.0502464145765
0.60309912109375,-0.1782666015625,0.8857958984375001,1.0863433641282092,4.5244140625,0.73828125,7.75439453125,31.91823529411765,331.0502464145765
0.58063818359375,-0.1670361328125,0.8843310546875001,1.071019693654935,4.302734375,0.99267578125,8.23388671875,31.259411764705884,331.0502464145765
0.70319677734375,-0.1489697265625,0.8892138671875001,1.1434067468304054,4.125,1.30859375,8.43017578125,31.259411764705884,331.0502464145765
0.58112646484375,-0.1240673828125,0.8906787109375001,1.070705024615568,3.9892578125,1.6865234375,8.38623046875,31.259411764705884,331.0502464145765
0.60163427734375,-0.0967236328125,0.8828662109375001,1.0727404211805025,3.8642578125,1.87841796875,8.3134765625,32.71823529411765,331.0502464145765
0.60798193359375,-0.0684033203125,0.8848193359375001,1.075744534290111,3.8271484375,1.87548828125,8.185546875,32.624117647058824,331.0502464145765
0.59772802734375,-0.0469189453125,0.8818896484375001,1.0664002691872811,3.9521484375,2.03173828125,8.10693359375,32.012352941176474,330.94232683496625
0.58014990234375,-0.0127392578125,0.8867724609375001,1.059764877393201,4.16357421875,2.01513671875,8.0234375,31.965294117647066,330.94232683496625
0.56989599609375,0.0033740234375,0.8662646484375001,1.0369220180565122,4.34912109375,1.94970703125,7.904296875,31.91823529411765,330.94232683496625
0.56501318359375,0.0199755859375,0.8691943359375001,1.0368884777516447,4.4609375,1.81201171875,7.69775390625,31.965294117647066,330.94232683496625
0.56306005859375,0.0326708984375,0.8643115234375001,1.0320554378206448,4.478515625,1.8642578125,7.4208984375,31.871176470588235,330.94232683496625
0.57429052734375,0.0312060546875,0.8853076171875001,1.0557239244689545,4.46337890625,1.66796875,7.23779296875,31.91823529411765,330.94232683496625
0.57526708984375,0.0277880859375,0.8862841796875001,1.056978736560822,4.4013671875,1.41748046875,6.78759765625,31.871176470588235,330.94232683496625
0.57526708984375,0.0077685546875,0.8960498046875001,1.064846386846355,4.26904296875,1.04443359375,6.6162109375,31.965294117647066,330.94232683496625
0.57673193359375,-0.0112744140625,0.9209521484375,1.086692088565517,4.15673828125,0.728515625,6.20556640625,31.91823529411765,330.94232683496625
0.56989599609375,-0.0317822265625,0.9380419921875,1.0980502426556134,4.052734375,0.21923828125,6.02001953125,31.91823529411765,330.6846221641096
0.55085302734375,-0.0415478515625,0.9561083984375,1.1042230532215649,3.9912109375,-0.09423828125,5.8857421875,31.965294117647066,330.6846221641096
0.55671240234375,-0.0561962890625,0.9883349609375,1.135734439399931,3.94189453125,-0.2509765625,5.8203125,31.965294117647066,330.6846221641096
0.54499365234375,-0.0674267578125,1.0166552734375005,1.1554879461822023,3.87646484375,-0.42431640625,5.81689453125,31.91823529411765,330.6846221641096
0.53473974609375,-0.0796337890625,1.0347216796875005,1.1674489671194117,3.85693359375,-0.06689453125,5.859375,31.91823529411765,330.6846221641096
0.51472021484375,-0.0762158203125,1.0645068359375005,1.184871535058705,3.91259765625,0.71337890625,5.90283203125,31.871176470588235,330.6846221641096
0.4898178710937499,-0.0752392578125,1.0703662109375005,1.1795195285690232,3.87646484375,1.53564453125,6.01123046875,31.965294117647066,330.6846221641096
0.4820053710937499,-0.0669384765625,1.0718310546875005,1.177128602659986,4.06982421875,2.69921875,6.203125,31.259411764705884,330.6846221641096
0.4751694335937499,-0.0703564453125,1.0557177734375005,1.1598603524436246,4.16015625,3.53173828125,6.421875,31.91823529411765,330.61904102232944
0.4751694335937499,-0.0630322265625,1.0332568359375005,1.1390253470484342,4.21240234375,4.29736328125,6.58544921875,31.91823529411765,330.61904102232944
0.4849350585937499,-0.0601025390625,1.0107958984375005,1.1227121957800033,4.2275390625,4.62548828125,6.68115234375,31.965294117647066,330.61904102232944
0.4771225585937499,-0.0483837890625,0.9888232421875,1.0989805872959222,4.21630859375,5.0166015625,6.6611328125,31.965294117647066,330.61904102232944
0.4756577148437499,-0.0591259765625,0.9585498046875,1.0717107216321444,4.17626953125,5.06103515625,6.53173828125,31.91823529411765,330.61904102232944
0.4673569335937499,-0.0727978515625,0.8052294921875001,0.9338718143614828,4.1015625,4.87890625,6.36083984375,31.871176470588235,330.61904102232944
0.4492905273437499,-0.0893994140625,0.9102099609375,1.0189879323060644,3.9775390625,4.73046875,6.2177734375,31.259411764705884,330.61904102232944
0.4263413085937499,-0.0972119140625,0.9150927734375,1.0142050343232685,3.82666015625,4.33447265625,6.080078125,31.91823529411765,330.61904102232944
0.4195053710937499,-0.1074658203125,0.9009326171875,0.9996065424076924,3.63427734375,3.6650390625,5.9384765625,31.965294117647066,330.61904102232944
0.4087631835937499,0.0116748046875,0.8980029296875001,0.986728383626174,3.388671875,3.240234375,5.77001953125,31.965294117647066,330.43600948473204
0.3950913085937499,-0.2334423828125,0.8887255859375001,1.0002128050167387,3.18603515625,2.830078125,5.66357421875,31.91823529411765,330.43600948473204
0.4029038085937499,-0.0991650390625,0.8809130859375001,0.9737417773350108,3.0029296875,2.70849609375,5.572265625,31.871176470588235,330.43600948473204
0.4248764648437499,-0.0996533203125,0.8794482421875001,0.9817739074319056,2.78857421875,2.6884765625,5.5146484375,31.871176470588235,330.43600948473204
0.4282944335937499,-0.0908642578125,0.8779833984375001,0.981094940934398,2.74462890625,2.70361328125,5.47314453125,32.012352941176474,330.43600948473204
0.4473374023437499,-0.0781689453125,0.8818896484375001,0.99194278442264,2.47509765625,2.76708984375,5.38232421875,31.824117647058824,330.43600948473204
0.4522202148437499,-0.0786572265625,0.8818896484375001,0.9941928555491882,2.36474609375,2.873046875,5.29296875,32.012352941176474,330.43600948473204
0.4654038085937499,-0.0640087890625,0.8897021484375001,1.0061151738569092,2.2626953125,2.595703125,5.2607421875,31.965294117647066,330.43600948473204
0.4854233398437499,-0.0430126953125,0.8975146484375001,1.0212827497725574,2.1533203125,1.8837890625,5.37451171875,31.871176470588235,330.43600948473204
0.52497412109375,0.0023974609375,0.9141162109375,1.0541404188891697,2.00732421875,1.07177734375,5.13720703125,32.57705882352941,330.3276360427857
0.57868505859375,0.0605029296875,0.9443896484375,1.109237940937979,1.8056640625,-0.36181640625,4.853515625,31.965294117647066,330.3276360427857
0.61091162109375,0.1186083984375,0.9985888671875,1.176631074992547,1.68017578125,-1.7373046875,4.193359375,31.965294117647066,330.3276360427857
0.58307958984375,0.1664599609375,1.0444873046875005,1.2077435391427391,1.744140625,-2.44482421875,3.96826171875,31.871176470588235,330.3276360427857
0.4878647460937499,0.1728076171875,1.0586474609375005,1.1783925193196692,1.9208984375,-2.17578125,4.298828125,31.91823529411765,330.3276360427857
0.3936264648437499,0.1303271484375,1.0454638671875005,1.124687359687074,2.1279296875,-1.13818359375,4.931640625,31.871176470588235,330.3276360427857
0.4488022460937499,0.0771044921875,1.0347216796875005,1.1304943667394407,2.6220703125,0.07470703125,6.22412109375,31.871176470588235,330.3276360427857
0.3072006835937499,0.0326708984375,0.9932177734375,1.0401544082862533,3.083984375,1.4833984375,7.1865234375,31.871176470588235,330.4906610518429
0.3413803710937499,0.0370654296875,0.9429248046875,1.0035046542697177,3.37646484375,2.17578125,7.4697265625,31.871176470588235,330.4906610518429
0.3770249023437499,0.0756396484375,0.8984912109375001,0.977320617573884,3.79150390625,2.2109375,7.36279296875,31.91823529411765,330.4906610518429
0.4209702148437499,0.1322802734375,0.8501513671875001,0.9578472423393348,3.8935546875,1.658203125,6.7021484375,31.91823529411765,330.4906610518429
0.4468491210937499,0.1923388671875,0.8232958984375001,0.956286836277295,3.7568359375,0.779296875,5.81982421875,31.965294117647066,330.4906610518429
0.4238999023437499,0.2416552734375,0.7988818359375001,0.936109281108816,3.4033203125,-0.15478515625,4.833984375,31.824117647058824,330.4906610518429
0.3853256835937499,0.2772998046875,0.8267138671875001,0.9533241223827432,2.94775390625,-1.2353515625,3.96630859375,31.91823529411765,330.4906610518429
0.3321030273437499,0.2865771484375,0.8667529296875001,0.9714316877162886,2.5263671875,-2.23095703125,3.16748046875,31.259411764705884,330.4906610518429
0.2735092773437499,0.2719287109375,0.9346240234375,1.011075968368219,2.21044921875,-3.1015625,2.75146484375,31.259411764705884,330.4906610518429
0.24274755859375,0.2245654296875,1.0283740234375005,1.080235687938049,2.02734375,-3.734375,2.61376953125,32.012352941176474,330.6955524032616
0.2544663085937499,0.1742724609375,1.1040576171875005,1.1463277083453418,2.0234375,-4.02685546875,2.6455078125,31.91823529411765,330.6955524032616
0.3174545898437499,0.1308154296875,1.1533740234375005,1.2033959162293997,2.11474609375,-4.07861328125,2.859375,32.012352941176474,330.6955524032616
0.3872788085937499,0.0995654296875,1.1963427734375005,1.2614016735087918,2.34130859375,-3.662109375,3.18359375,32.71823529411765,330.6955524032616
0.3350327148437499,0.0756396484375,1.2002490234375005,1.2484254061392674,2.55615234375,-2.63037109375,3.5791015625,31.259411764705884,330.6955524032616
0.50251318359375,0.0673388671875,1.1924365234375005,1.2957464586667151,2.62451171875,-0.9970703125,3.89599609375,31.871176470588235,330.6955524032616
0.51764990234375,0.0707568359375,1.1733935546875005,1.2844533410796002,2.50634765625,0.79931640625,4.5263671875,32.67117647058824,330.6955524032616
0.50544287109375,0.0946826171875,1.1523974609375005,1.2619259890786645,2.2177734375,2.85986328125,4.767578125,31.965294117647066,330.6955524032616
0.4844467773437499,0.1195849609375,1.1304248046875005,1.2356575099977911,1.92431640625,4.173828125,5.11083984375,31.871176470588235,330.6955524032616
0.4644272460937499,0.1464404296875,1.0869677734375005,1.191065240384825,1.70947265625,4.7626953125,5.107421875,31.91823529411765,330.7706752751346
0.4243881835937499,0.1649951171875,1.0381396484375005,1.1336060377078343,1.513671875,4.94384765625,4.97900390625,31.965294117647066,330.7706752751346
0.3731186523437499,0.1889208984375,0.9951708984375,1.0794784628190364,1.4150390625,4.68505859375,4.86279296875,31.259411764705884,330.7706752751346
0.3252670898437499,0.2206591796875,0.9683154296875,1.0450473313140751,1.478515625,4.203125,4.4169921875,32.012352941176474,330.7706752751346
0.2993881835937499,0.2377490234375,0.9487841796875,1.022912167415332,1.673828125,3.42431640625,4.0009765625,31.871176470588235,330.7706752751346
0.2920639648437499,0.2538623046875,0.9224169921875,1.000300223321846,1.92041015625,2.583984375,3.546875,31.824117647058824,330.7706752751346
0.2822983398437499,0.2523974609375,0.8906787109375001,0.9678354183865772,2.11572265625,1.4990234375,3.14794921875,31.91823529411765,330.7706752751346
0.2813217773437499,0.2431201171875,0.8682177734375001,0.9444847462515636,2.21533203125,0.48779296875,2.82275390625,31.91823529411765,330.7706752751346
0.2862045898437499,0.2357958984375,0.8604052734375001,0.9369151549241992,2.259765625,-0.3896484375,2.56103515625,31.91823529411765,330.6522948079924
0.2945053710937499,0.2226123046875,0.8442919921875001,0.921476326268497,2.46484375,-1.1591796875,2.439453125,31.871176470588235,330.6522948079924
0.3076889648437499,0.1972216796875,0.8540576171875001,0.928968946467732,2.41796875,-1.69287109375,2.3857421875,31.91823529411765,330.6522948079924
0.3091538085937499,0.1874560546875,0.8794482421875001,0.9508654271208454,2.37841796875,-2.09326171875,2.40576171875,31.259411764705884,330.6522948079924
0.3238022460937499,0.1615771484375,0.8906787109375001,0.9613863092377788,2.31884765625,-2.46826171875,2.4658203125,31.965294117647066,330.6522948079924
0.3394272460937499,0.1479052734375,0.9316943359375,1.0025672849836205,2.25244140625,-2.77099609375,2.52685546875,31.259411764705884,330.6522948079924
0.3501694335937499,0.0136279296875,0.9551318359375,1.0173893928640472,2.16552734375,-2.7314453125,2.63671875,31.259411764705884,330.6522948079924
0.3501694335937499,0.1322802734375,0.9663623046875,1.0363265927713154,2.04296875,-2.26416015625,2.80126953125,31.965294117647066,330.6522948079924
0.3457749023437499,0.1166552734375,1.0044482421875005,1.068683773220669,1.9267578125,-1.41552734375,3.06640625,31.259411764705884,330.6522948079924
0.3369858398437499,0.1190966796875,1.0444873046875005,1.10394619661519,1.9091796875,-0.595703125,3.40283203125,31.91823529411765,330.58717690365745
0.3233139648437499,0.1230029296875,1.0664599609375005,1.1211594395345863,1.95556640625,0.33251953125,3.7099609375,31.91823529411765,330.58717690365745
0.3369858398437499,0.1332568359375,1.0820849609375005,1.1411506049888345,1.96728515625,1.06689453125,3.9296875,32.71823529411765,330.58717690365745
0.3692124023437499,0.1518115234375,1.0825732421875005,1.1538324667789577,1.88671875,1.6171875,3.939453125,31.871176470588235,330.58717690365745
0.3911850585937499,0.1703662109375,1.0557177734375005,1.1386792406327737,1.78125,2.11669921875,3.8779296875,31.259411764705884,330.58717690365745
0.4043686523437499,0.1923388671875,1.0220263671875005,1.115816356779085,1.72607421875,2.728515625,3.76806640625,31.965294117647066,330.58717690365745
0.4077866210937499,0.2030810546875,0.9824755859375,1.0829543481048862,1.7373046875,3.0869140625,3.74658203125,32.624117647058824,330.58717690365745
0.4077866210937499,0.2113818359375,0.9375537109375,1.0440206749868717,1.79248046875,3.0625,3.81298828125,31.91823529411765,330.58717690365745
0.4038803710937499,0.2099169921875,0.8999560546875001,1.0085164342401975,1.80029296875,2.52294921875,3.8935546875,32.624117647058824,330.58717690365745
0.4043686523437499,0.2240771484375,0.8706591796875001,0.9857849575968852,1.755859375,1.55224609375,3.962890625,31.871176470588235,330.67369193891324
0.4048569335937499,0.2357958984375,0.8555224609375001,0.975411463725662,1.64208984375,0.5283203125,3.91650390625,31.91823529411765,330.67369193891324
0.4019272460937499,0.2465380859375,0.8555224609375001,0.9768547589784208,1.5185546875,-0.48388671875,3.865234375,31.871176470588235,330.67369193891324
0.3863022460937499,0.2533740234375,0.8608935546875001,0.9770186966442672,1.44189453125,-1.142578125,3.4150390625,31.91823529411765,330.67369193891324
0.3731186523437499,0.2592333984375,0.8794482421875001,0.989873069781654,1.3974609375,-1.6982421875,3.0029296875,31.965294117647066,330.67369193891324
0.3682358398437499,0.2592333984375,0.9155810546875,1.0203373247674332,1.3193359375,-1.88232421875,2.62744140625,31.965294117647066,330.67369193891324
0.3526108398437499,0.2514208984375,0.9302294921875,1.0260963798210423,1.23291015625,-1.8212890625,2.4931640625,32.67117647058824,330.67369193891324
0.3482163085937499,0.2475146484375,0.9478076171875,1.0396429088684458,1.20458984375,-1.50048828125,2.25341796875,32.624117647058824,330.67369193891324
0.3418686523437499,0.2353076171875,0.9648974609375,1.050367059786923,1.201171875,-1.08642578125,2.287109375,32.67117647058824,330.67369193891324
0.3457749023437499,0.2357958984375,0.9727099609375,1.0589261810522066,1.21435546875,-0.48193359375,2.4072265625,32.71823529411765,330.7055568190735
0.3697006835937499,0.2284716796875,0.9736865234375,1.066275456808755,1.23486328125,0.2275390625,2.52099609375,31.259411764705884,330.7055568190735
0.3882553710937499,0.2133349609375,0.9839404296875,1.0790703442848255,1.2578125,0.79638671875,2.673828125,31.306470588235296,330.7055568190735
0.3994858398437499,0.2162646484375,0.9736865234375,1.0744416132686163,1.24658203125,1.16357421875,2.84521484375,31.91823529411765,330.7055568190735
0.3911850585937499,0.2123583984375,0.9819873046875,1.0781562530641635,1.12890625,1.447265625,2.8779296875,31.965294117647066,330.7055568190735
0.3965561523437499,0.2152880859375,0.9819873046875,1.0806964460364126,1.29248046875,1.5703125,3.11572265625,31.259411764705884,330.7055568190735
0.3921616210937499,0.2108935546875,0.9692919921875,1.0666741745192954,1.32763671875,1.51904296875,3.1962890625,31.965294117647066,330.7055568190735
0.3931381835937499,0.2147998046875,0.9878466796875,1.0846832026277533,1.36572265625,1.32275390625,3.2353515625,31.91823529411765,330.7055568190735
0.3911850585937499,0.2064990234375,0.9976123046875,1.0912826889543985,1.408203125,1.22021484375,3.1728515625,31.91823529411765,330.84672413195625
0.3941147460937499,0.1898974609375,0.9966357421875,1.0884255975328214,1.453125,1.189453125,3.11376953125,31.965294117647066,330.84672413195625
0.4116928710937499,0.1752490234375,1.0083544921875005,1.103169081437621,1.45263671875,1.14892578125,2.7236328125,31.259411764705884,330.84672413195625
0.4405014648437499,0.1581591796875,1.0088427734375005,1.112123917630576,1.345703125,1.09033203125,2.443359375,31.91823529411765,330.84672413195625
0.4478256835937499,0.1337451171875,1.0230029296875005,1.1247091150190418,1.2333984375,1.2392578125,2.19140625,31.824117647058824,330.84672413195625
0.4512436523437499,0.1078662109375,1.0400927734375005,1.1388805602869212,1.1826171875,1.19970703125,2.0068359375,31.871176470588235,330.84672413195625
0.3345444335937499,0.0844287109375,1.0396044921875005,1.0953655487806622,1.19140625,1.33984375,1.845703125,31.965294117647066,330.84672413195625
0.4722397460937499,0.0468310546875,1.0439990234375005,1.1467944394756575,1.150390625,1.296875,1.775390625,31.965294117647066,330.82486376663024
0.4961655273437499,0.0092333984375,1.0293505859375005,1.142728364459762,1.1083984375,0.97216796875,1.7978515625,32.67117647058824,330.82486376663024
0.4951889648437499,-0.0439892578125,1.0122607421875005,1.1277495182352808,1.12451171875,0.421875,1.97412109375,31.871176470588235,330.82486376663024
0.4771225585937499,-0.0889111328125,1.0015185546875005,1.112919826780163,1.1396484375,-0.32373046875,2.14794921875,31.91823529411765,330.82486376663024
0.4483139648437499,-0.1196728515625,0.9990771484375,1.1015725809065102,1.04052734375,-1.3125,2.212890625,32.57705882352941,330.82486376663024
0.4195053710937499,-0.1431103515625,0.9902880859375,1.0849589034846456,0.7958984375,-2.36328125,2.0146484375,32.71823529411765,330.82486376663024
0.3950913085937499,-0.1558056640625,1.0230029296875005,1.1076585851378062,0.53759765625,-3.255859375,1.49609375,31.259411764705884,330.82486376663024
0.3784897460937499,-0.1489697265625,1.1685107421875005,1.2372808177361354,0.2744140625,-4.01904296875,0.62646484375,31.965294117647066,330.63951435849583
0.3697006835937499,-0.1274853515625,1.0689013671875005,1.1381920941071448,0.115234375,-4.49951171875,0.03125,31.259411764705884,330.63951435849583
0.3780014648437499,-0.1035595703125,1.0781787109375005,1.1472048747918482,-0.12841796875,-4.3974609375,-0.3642578125,31.91823529411765,330.63951435849583
0.3794663085937499,-0.0854931640625,1.0859912109375005,1.153551329890735,-0.21875,-3.77099609375,-0.38671875,31.91823529411765,330.63951435849583
0.3858139648437499,-0.0674267578125,1.0728076171875005,1.1420660955623725,-0.02197265625,-2.892578125,-0.0986328125,31.965294117647066,330.63951435849583
0.3828842773437499,-0.0786572265625,1.0762255859375005,1.145010410849642,0.23779296875,-2.1044921875,0.70458984375,31.965294117647066,330.63951435849583
0.3814194335937499,-0.0981884765625,1.0503466796875005,1.1217619661867655,0.38232421875,-0.97119140625,1.40283203125,32.624117647058824,330.63951435849583
0.3897202148437499,-0.1035595703125,1.0249560546875005,1.1014269583144105,0.7822265625,0.19677734375,1.96142578125,31.965294117647066,330.6276620533189
0.3994858398437499,-0.1108837890625,1.0190966796875005,1.1002009786682665,1.05078125,1.22705078125,2.11083984375,31.259411764705884,330.6276620533189
0.3921616210937499,-0.1152783203125,1.0083544921875005,1.0880526688114234,1.2802734375,1.810546875,2.001953125,31.91823529411765,330.6276620533189
0.3633530273437499,-0.1147900390625,0.9717333984375,1.043775825159182,1.3056640625,2.2724609375,1.8076171875,31.91823529411765,330.6276620533189
0.3530991210937499,-0.1196728515625,0.9512255859375,1.0216803296826358,1.224609375,2.328125,1.5771484375,32.67117647058824,330.6276620533189
0.3550522460937499,-0.1269970703125,0.9341357421875,1.0073727900615377,1.080078125,2.0390625,1.345703125,31.871176470588235,330.6276620533189
0.3613999023437499,-0.1445751953125,0.9102099609375,0.9899464882020468,0.96484375,1.56591796875,1.24560546875,31.965294117647066,330.6276620533189
0.3706772460937499,-0.1494580078125,0.8984912109375001,0.983374685968102,0.8564453125,0.79931640625,1.0400390625,31.965294117647066,330.6053419966594
0.3609116210937499,-0.1553173828125,0.8980029296875001,0.9801989335699036,0.78955078125,0.18310546875,0.986328125,31.871176470588235,330.6053419966594
0.3613999023437499,-0.1650830078125,0.9097216796875,0.9927012760019704,0.75146484375,-0.28564453125,1.04248046875,32.012352941176474,330.6053419966594
0.3516342773437499,-0.1631298828125,0.9219287109375,1.0001052803182082,0.7412109375,-0.6435546875,1.189453125,31.965294117647066,330.6053419966594
0.3330795898437499,-0.1587353515625,0.8032763671875001,0.8839637136716069,0.66064453125,-1.06396484375,1.423828125,31.965294117647066,330.6053419966594
0.3306381835937499,-0.1450634765625,0.9653857421875,1.0306961976748936,0.57373046875,-1.30419921875,1.6416015625,31.824117647058824,330.6053419966594
0.3399155273437499,-0.1304150390625,0.9795458984375,1.045017136361305,0.50830078125,-1.55078125,1.80859375,31.91823529411765,330.6053419966594
0.3560288085937499,-0.1230908203125,0.9907763671875,1.0599743734502023,0.3515625,-1.68994140625,1.8544921875,31.91823529411765,330.8216387964325
0.3667709960937499,-0.1074658203125,1.0020068359375005,1.0724213562665192,0.26220703125,-1.6064453125,1.875,31.91823529411765,330.8216387964325
0.3633530273437499,-0.1099072265625,1.0147021484375005,1.0833861135228786,0.20947265625,-1.3583984375,1.841796875,31.259411764705884,330.8216387964325
0.3731186523437499,-0.0942822265625,1.0137255859375005,1.0843183252886244,0.2802734375,-0.80029296875,1.81884765625,31.306470588235296,330.8216387964325
0.3784897460937499,-0.1040478515625,1.0078662109375005,1.0816074807722056,0.4150390625,-0.263671875,1.8232421875,31.871176470588235,330.8216387964325
0.3726303710937499,-0.1084423828125,1.0107958984375005,1.0827379609811378,0.58251953125,0.240234375,1.921875,31.259411764705884,330.8216387964325
0.3750717773437499,-0.1235791015625,0.9995654296875,1.074747263652786,0.82861328125,0.56591796875,2.0849609375,31.259411764705884,330.8216387964325
0.3604233398437499,-0.1455517578125,0.9858935546875,1.059752989748454,1.0556640625,0.95703125,2.1337890625,31.91823529411765,330.72373052989724
0.3467514648437499,-0.1528759765625,0.9712451171875,1.042556818711472,1.23193359375,1.03564453125,2.37939453125,31.965294117647066,330.72373052989724
0.3413803710937499,-0.1675244140625,0.9531787109375,1.0262332298554575,1.36962890625,0.88818359375,2.814453125,31.965294117647066,330.72373052989724
0.3296616210937499,-0.1811962890625,0.9414599609375,1.013832203888109,1.34814453125,0.56201171875,3.07958984375,31.871176470588235,330.72373052989724
0.3306381835937499,-0.1787548828125,0.9419482421875,1.0141703049979358,1.26708984375,0.01025390625,3.27490234375,31.965294117647066,330.72373052989724
0.3364975585937499,-0.1665478515625,0.9443896484375,1.0162876570516557,1.17333984375,-0.54052734375,3.365234375,31.259411764705884,330.72373052989724
0.4536850585937499,-0.1606884765625,0.9473193359375,1.0625746294412726,1.10205078125,-0.94384765625,3.36669921875,31.259411764705884,330.72373052989724
0.3418686523437499,-0.1460400390625,0.9404833984375,1.0112916944192007,1.0185546875,-1.435546875,3.2958984375,31.91823529411765,330.68001193891496
0.3565170898437499,-0.1421337890625,0.9331591796875,1.00900570066723,0.99267578125,-1.74951171875,3.27978515625,31.965294117647066,330.68001193891496
0.3726303710937499,-0.1221142578125,0.9380419921875,1.016704511905823,0.9794921875,-2.05517578125,3.2890625,31.91823529411765,330.68001193891496
0.3819077148437499,-0.1240673828125,0.9419482421875,1.0239690957715666,1.00830078125,-2.216796875,3.32177734375,31.965294117647066,330.68001193891496
0.3858139648437499,-0.1299267578125,0.9331591796875,1.0180959839323451,1.01611328125,-2.1640625,3.37939453125,31.91823529411765,330.68001193891496
0.3941147460937499,-0.1304150390625,0.9224169921875,1.0115273713441713,1.0751953125,-1.8525390625,3.4541015625,31.91823529411765,330.68001193891496
0.4136459960937499,-0.1313916015625,0.9170458984375,1.0145639175954322,1.07958984375,-1.52294921875,3.498046875,31.91823529411765,330.68001193891496
0.3345444335937499,-0.1216259765625,0.9302294921875,0.9960119298275292,1.03955078125,-1.576171875,3.4189453125,31.259411764705884,330.7232717012289
0.4942124023437499,-0.1055126953125,0.9517138671875,1.0775611873575792,1.05029296875,-1.908203125,3.36669921875,32.71823529411765,330.7232717012289
0.4947006835937499,-0.1011181640625,0.9458544921875,1.072191386760203,1.03955078125,-2.1142578125,3.5849609375,31.306470588235296,330.7232717012289
0.4605209960937499,-0.0498486328125,0.9536669921875,1.0602099820433726,0.97607421875,-1.84130859375,3.93212890625,32.624117647058824,330.7232717012289
0.4536850585937499,-0.1025830078125,0.9688037109375,1.0746785734392144,0.982421875,-1.33056640625,4.21875,31.91823529411765,330.7232717012289
0.4800522460937499,0.0702685546875,0.9946826171875,1.1066983950889688,1.1171875,-0.94287109375,4.2255859375,32.012352941176474,330.7232717012289
0.51716162109375,0.0995654296875,1.0103076171875005,1.1393379211051726,1.3603515625,-0.951171875,3.8388671875,31.871176470588235,330.7232717012289
0.55671240234375,0.1161669921875,1.0269091796875005,1.1738679364918758,1.3720703125,-1.3564453125,3.39453125,31.259411764705884,330.62582273524544
0.57477880859375,0.1151904296875,1.0308154296875005,1.1858414581982986,1.361328125,-1.77734375,2.935546875,31.91823529411765,330.62582273524544
0.54889990234375,0.0941943359375,1.0298388671875005,1.1707825451746874,1.0478515625,-1.84619140625,2.52001953125,31.259411764705884,330.62582273524544
0.50153662109375,0.0575732421875,1.0381396484375005,1.154377576953075,0.974609375,-1.1337890625,2.3642578125,31.91823529411765,330.62582273524544
0.4585678710937499,0.0155810546875,1.0303271484375005,1.1278746803045008,1.02880859375,-0.287109375,2.35986328125,31.91823529411765,330.62582273524544
0.58210302734375,-0.0190869140625,1.0239794921875005,1.1780247217914226,1.19873046875,0.4130859375,2.42236328125,32.71823529411765,330.62582273524544
0.4727280273437499,-0.0537548828125,0.9854052734375,1.094250852492669,1.33154296875,1.20947265625,2.45166015625,32.624117647058824,330.62582273524544
0.4951889648437499,-0.0801220703125,0.9722216796875,1.0940048681375096,1.349609375,1.451171875,2.38232421875,32.012352941176474,330.5383862918115
0.50593115234375,-0.0913525390625,0.9385302734375,1.0701171391318378,1.365234375,1.3916015625,2.17333984375,31.824117647058824,330.5383862918115
0.51325537109375,-0.1025830078125,0.9194873046875,1.0580223310166597,1.0146484375,1.08837890625,1.80712890625,31.259411764705884,330.5383862918115
0.52106787109375,-0.1040478515625,0.9141162109375,1.057329716218965,0.72607421875,0.4365234375,1.35205078125,31.91823529411765,330.5383862918115
0.4912827148437499,-0.1108837890625,0.8027880859375001,0.9476933214412232,0.47802734375,-0.021484375,0.9248046875,32.012352941176474,330.5383862918115
0.4444077148437499,0.0058154296875,0.9385302734375,1.0384464889409386,0.2587890625,-0.1826171875,0.74560546875,31.965294117647066,330.5383862918115
0.4336655273437499,-0.1152783203125,0.9673388671875,1.0663486131242446,0.0888671875,-0.29931640625,0.43310546875,31.965294117647066,330.5383862918115
0.4331772460937499,-0.1177197265625,0.9971240234375,1.0935066431766671,0.0048828125,-0.361328125,0.38330078125,31.965294117647066,330.6476819856969
0.4273178710937499,-0.1128369140625,1.0112841796875005,1.1036432504289886,-0.0126953125,0.10400390625,0.41064453125,31.91823529411765,330.6476819856969
0.4238999023437499,-0.1162548828125,1.0288623046875005,1.118822580658642,-0.0087890625,0.5546875,0.4873046875,31.91823529411765,330.6476819856969
0.4409897460937499,-0.1099072265625,1.0571826171875005,1.1507330883805782,-0.0078125,1.05908203125,0.505859375,31.824117647058824,330.6476819856969
0.4365952148437499,-0.1055126953125,1.0664599609375005,1.157188471589388,0.07861328125,1.8642578125,0.470703125,31.965294117647066,330.6476819856969
0.4209702148437499,-0.0933056640625,1.0635302734375005,1.1476142693648337,0.20947265625,2.82275390625,0.4775390625,31.965294117647066,330.6476819856969
0.4029038085937499,-0.0928173828125,1.0439990234375005,1.1228893562902649,0.34716796875,3.62451171875,0.52099609375,31.965294117647066,330.6476819856969
0.4126694335937499,-0.0903759765625,1.0093310546875005,1.0941723157340408,0.46484375,4.0224609375,0.525390625,31.259411764705884,330.4741857971196
0.4107163085937499,-0.0928173828125,1.0024951171875005,1.087335924487837,0.59375,3.95703125,0.54443359375,31.871176470588235,330.4741857971196
0.4209702148437499,-0.0923291015625,0.9653857421875,1.0572181496738702,0.77099609375,3.50439453125,0.57763671875,31.91823529411765,330.4741857971196
0.4126694335937499,-0.1099072265625,0.9316943359375,1.0249048714350353,0.8935546875,2.96533203125,0.57421875,31.91823529411765,330.4741857971196
0.3970444335937499,-0.1250439453125,0.9126513671875,1.0031015843553983,1.048828125,2.173828125,0.5556640625,31.91823529411765,330.4741857971196
0.3892319335937499,-0.1382275390625,0.8994677734375001,0.9897730174828056,1.15673828125,1.37109375,0.6240234375,31.259411764705884,330.4741857971196
0.3775131835937499,-0.1431103515625,0.8960498046875001,0.9828031486477532,1.205078125,0.46923828125,0.380859375,32.71823529411765,330.4741857971196
0.3814194335937499,-0.1440869140625,0.8940966796875001,0.9826752748264522,1.17822265625,-0.3837890625,0.2333984375,32.71823529411765,330.5283744691921
0.3858139648437499,-0.1494580078125,0.9048388671875,0.994948987205321,1.08447265625,-1.04296875,0.03759765625,31.871176470588235,330.5283744691921
0.3892319335937499,-0.1484814453125,0.9336474609375,1.0223726419687975,0.966796875,-1.6728515625,-0.1552734375,31.965294117647066,330.5283744691921
0.3819077148437499,-0.1475048828125,0.9717333984375,1.0544557794187472,0.7822265625,-1.841796875,-0.26025390625,31.871176470588235,330.5283744691921
0.3789780273437499,-0.1450634765625,1.0034716796875005,1.0824154328983917,0.6640625,-1.6318359375,-0.28955078125,31.965294117647066,330.5283744691921
0.3745834960937499,-0.1338330078125,1.0420458984375005,1.1153850115437154,0.52783203125,-1.0322265625,-0.37353515625,31.259411764705884,330.5283744691921
0.3609116210937499,-0.1196728515625,1.0820849609375005,1.1469466649887126,0.46435546875,-0.03369140625,-0.11376953125,31.259411764705884,330.5283744691921
0.3438217773437499,-0.1138134765625,1.1143115234375005,1.1716898451760434,0.4716796875,1.1796875,0.0087890625,32.012352941176474,330.5497745341406
0.3394272460937499,-0.1089306640625,1.1216357421875005,1.176921188149992,0.51123046875,2.72119140625,0.07763671875,31.965294117647066,330.5497745341406
0.4571030273437499,-0.1060009765625,1.1294482421875005,1.2230424017259005,0.59033203125,4.07421875,0.1474609375,32.624117647058824,330.5497745341406
0.3330795898437499,-0.0996533203125,1.1089404296875005,1.162162498971329,0.66650390625,5.341796875,0.20166015625,32.71823529411765,330.5497745341406
0.3447983398437499,-0.0972119140625,1.0913623046875005,1.148654748602692,0.74169921875,6.01220703125,0.26904296875,31.965294117647066,330.5497745341406
0.3364975585937499,-0.0918408203125,1.0649951171875005,1.1206604940161156,0.85009765625,6.59423828125,0.31982421875,31.259411764705884,330.5497745341406
0.3257553710937499,-0.0967236328125,1.0293505859375005,1.083990152958388,0.98583984375,6.70703125,0.3525390625,31.965294117647066,330.5497745341406
0.3164780273437499,-0.0996533203125,0.9922412109375,1.046246503804631,1.10009765625,6.4150390625,0.33740234375,31.91823529411765,330.4741857971196
0.3096420898437499,-0.1108837890625,0.9805224609375,1.0342135828167185,1.2060546875,5.77490234375,0.287109375,31.965294117647066,330.4741857971196
0.2725327148437499,-0.1230908203125,0.9536669921875,0.9994529317047712,1.26123046875,5.06201171875,0.2099609375,31.965294117647066,330.4741857971196
0.24860693359375,-0.1362744140625,0.9424365234375,0.9841558433845355,1.21728515625,4.22412109375,0.08837890625,31.91823529411765,330.4741857971196
0.23542333984375,-0.1528759765625,0.9414599609375,0.9824164448957292,1.10205078125,3.19580078125,-0.005859375,31.91823529411765,330.4741857971196
0.20466162109375,-0.1704541015625,0.9282763671875,0.9657318436124096,0.9853515625,2.18896484375,-0.01953125,32.059411764705885,330.4741857971196
0.18561865234375,-0.1797314453125,0.9458544921875,0.980509253869286,0.931640625,1.3935546875,0.06591796875,32.059411764705885,330.4741857971196
0.17048193359375,-0.1807080078125,0.9561083984375,0.9878576533752966,0.99462890625,0.78076171875,0.232421875,31.824117647058824,330.5383862918115
0.16266943359375,-0.1846142578125,0.9629443359375,0.9938840792202502,0.853515625,0.39794921875,0.35546875,31.824117647058824,330.5383862918115
0.17389990234375,-0.1689892578125,0.9839404296875,1.01337915632048,0.859375,0.18994140625,0.4267578125,31.91823529411765,330.5383862918115
0.18268896484375,-0.1597119140625,0.9888232421875,1.018162343469541,0.86669921875,0.1416015625,0.4560546875,32.624117647058824,330.5383862918115
0.18854833984375,-0.1401806640625,1.0073779296875005,1.0344135479856746,0.87060546875,0.275390625,0.4716796875,32.67117647058824,330.5383862918115
0.18610693359375,-0.1328564453125,1.0186083984375005,1.0439586654461712,0.87939453125,0.5458984375,0.46142578125,31.965294117647066,330.5383862918115
0.19587255859375,-0.1240673828125,1.0298388671875005,1.055616818290633,0.89697265625,0.82373046875,0.4208984375,31.91823529411765,330.5383862918115
0.20173193359375,-0.1274853515625,1.0322802734375005,1.059505002736036,0.91357421875,1.22119140625,0.3642578125,31.259411764705884,330.5383862918115
0.19636083984375,-0.1186962890625,1.0308154296875005,1.0560430097979805,0.91748046875,1.5810546875,0.32177734375,31.871176470588235,330.5383862918115
0.19489599609375,-0.2358837890625,1.0068896484375005,1.0523556316029528,0.91796875,1.7626953125,0.28466796875,31.965294117647066,330.76790886123223
0.18952490234375,-0.1089306640625,1.0112841796875005,1.0346406478907184,0.92431640625,1.9853515625,0.2646484375,31.91823529411765,330.76790886123223
0.19343115234375,-0.1079541015625,1.0068896484375005,1.0309687012086208,0.93310546875,1.9775390625,0.2353515625,31.965294117647066,330.76790886123223
0.20612646484375,0.0131396484375,1.0024951171875005,1.0235512834513094,0.9677734375,1.6064453125,0.15087890625,32.012352941176474,330.76790886123223
0.20368505859375,-0.0977001953125,0.9981005859375,1.023346329893854,1.01171875,1.513671875,0.08251953125,31.965294117647066,330.76790886123223
0.17243505859375,-0.0864697265625,0.9678271484375,0.9868638468890664,1.06005859375,1.59765625,0.0546875,31.91823529411765,330.76790886123223
0.18708349609375,-0.0937939453125,0.9746630859375,0.996877961325836,1.0859375,1.61572265625,0.0068359375,32.012352941176474,330.76790886123223
0.20710302734375,-0.0952587890625,0.9697802734375,0.9962126678461344,1.09375,1.17529296875,-0.04833984375,31.91823529411765,330.76790886123223
0.21149755859375,-0.1011181640625,0.9692919921875,0.9972377181561576,1.06201171875,0.63330078125,-0.08349609375,31.965294117647066,330.76790886123223
0.18952490234375,-0.1050244140625,0.9692919921875,0.9932153755738944,1.05322265625,0.17822265625,-0.126953125,31.91823529411765,330.6062631844206
0.18952490234375,-0.1030712890625,0.9893115234375,1.0125614399351976,1.01513671875,-0.1484375,-0.28466796875,31.91823529411765,330.6062631844206
0.17927099609375,-0.1016064453125,1.0020068359375005,1.0229758838970584,0.9423828125,-0.6025390625,-0.49658203125,32.012352941176474,330.6062631844206
0.17097021484375,-0.1001416015625,1.0151904296875005,1.034345572454541,0.84228515625,-0.63037109375,-0.6259765625,32.012352941176474,330.6062631844206
0.16999365234375,-0.1025830078125,1.0361865234375005,1.055037263172501,0.6923828125,-0.4208984375,-0.97412109375,31.306470588235296,330.6062631844206
0.17194677734375,-0.0981884765625,1.0386279296875005,1.0573337446121298,0.6201171875,-0.1494140625,-1.0771484375,31.259411764705884,330.6062631844206
0.19782568359375,-0.0962353515625,1.0498583984375005,1.072659732044345,0.63232421875,-0.0009765625,-1.12255859375,31.259411764705884,330.6062631844206
0.20563818359375,-0.1045361328125,1.0464404296875005,1.071565414941939,0.6650390625,0.11474609375,-0.72802734375,31.871176470588235,330.6062631844206
0.20222021484375,-0.1089306640625,1.0259326171875005,1.0513308898124052,0.736328125,0.1923828125,-0.3857421875,31.965294117647066,330.5420681035848
0.20807958984375,-0.1172314453125,1.0205615234375005,1.0481346051918488,0.7998046875,0.1259765625,-0.15771484375,31.91823529411765,330.5420681035848
0.21003271484375,-0.1157666015625,1.0230029296875005,1.050738141256505,0.818359375,0.15380859375,-0.0517578125,32.67117647058824,330.5420681035848
0.21442724609375,-0.1128369140625,1.0107958984375005,1.039432326484303,0.8046875,-0.03955078125,-0.05224609375,32.624117647058824,330.5420681035848
0.21735693359375,-0.1196728515625,1.0078662109375005,1.037959501681974,0.78271484375,-0.31689453125,-0.1220703125,32.71823529411765,330.5420681035848
0.20759130859375,-0.1245556640625,1.0244677734375005,1.0526834679359722,0.80712890625,-0.4638671875,-0.185546875,31.91823529411765,330.5420681035848
0.19684912109375,-0.1221142578125,1.0400927734375005,1.06557704826699,0.8564453125,-0.44140625,-0.15380859375,32.012352941176474,330.5420681035848
0.18610693359375,-0.1201611328125,1.0488818359375005,1.0720203329835087,0.9619140625,-0.36279296875,-0.11376953125,31.91823529411765,330.5416063251771
0.18073583984375,-0.1250439453125,1.0371630859375005,1.0601927649700027,1.04052734375,0.0751953125,-0.04931640625,31.871176470588235,330.5416063251771
0.17097021484375,-0.1289501953125,1.0483935546875005,1.0700411266606265,1.12060546875,0.46630859375,-0.11962890625,32.71823529411765,330.5416063251771
0.18024755859375,-0.1284619140625,1.0347216796875005,1.0581307103373052,1.16943359375,0.81689453125,0.05419921875,32.059411764705885,330.5416063251771
0.17927099609375,-0.1289501953125,1.0254443359375005,1.048952967972291,1.1669921875,0.87646484375,0.00537109375,31.91823529411765,330.5416063251771
0.18122412109375,-0.1362744140625,1.0127490234375005,1.037821508000239,1.1025390625,0.89794921875,0.2138671875,31.91823529411765,330.5416063251771
0.17731787109375,-0.1416455078125,1.0190966796875005,1.044060879375704,1.0478515625,0.73828125,0.2412109375,31.91823529411765,330.5416063251771
0.16462255859375,-0.1479931640625,1.0107958984375005,1.0347516183631973,0.94970703125,0.3203125,0.1650390625,31.91823529411765,330.6590709799564
0.15925146484375,-0.1411572265625,0.9946826171875,1.0171921650311075,0.9013671875,0.08935546875,0.05224609375,31.965294117647066,330.6590709799564
0.14655615234375,-0.1421337890625,1.0034716796875005,1.024029360769466,0.80126953125,-0.12158203125,-0.12158203125,31.871176470588235,330.6590709799564
0.15192724609375,-0.1289501953125,1.0044482421875005,1.024024566214269,0.72509765625,-0.18603515625,-0.22607421875,31.824117647058824,330.6590709799564
0.15583349609375,-0.1309033203125,1.0161669921875005,1.0363470045235954,0.732421875,-0.15625,-0.263671875,31.965294117647066,330.6590709799564
0.16559912109375,-0.1274853515625,0.9971240234375,1.0187894296105673,0.74560546875,-0.09326171875,-0.1904296875,31.91823529411765,330.6590709799564
0.17634130859375,-0.1206494140625,0.9912646484375,1.0140306412885665,0.80078125,-0.03759765625,-0.001953125,32.67117647058824,330.6590709799564
0.18561865234375,-0.1152783203125,0.9849169921875,1.0088631506461383,0.85791015625,-0.08349609375,0.15380859375,31.259411764705884,330.8311928810068
0.19880224609375,-0.1094189453125,0.9888232421875,1.0145275959457285,0.89990234375,-0.17578125,0.2705078125,31.91823529411765,330.8311928810068
0.3281967773437499,-0.0957470703125,0.9819873046875,1.0397979095476535,0.9443359375,-0.25927734375,0.294921875,31.965294117647066,330.8311928810068
0.21393896484375,-0.0893994140625,0.9766162109375,1.0037635973569938,0.98974609375,-0.62109375,0.22509765625,31.91823529411765,330.8311928810068
0.21833349609375,-0.0889111328125,0.9814990234375,1.0094132147259058,0.96435546875,-0.90576171875,0.060546875,31.91823529411765,330.8311928810068
0.21198583984375,-0.0923291015625,0.9868701171875,1.0135952286229788,0.9228515625,-1.18798828125,-0.10791015625,31.871176470588235,330.8311928810068
0.3301499023437499,-0.1001416015625,0.9966357421875,1.0546611308788805,0.87548828125,-1.42041015625,-0.2744140625,31.91823529411765,330.8311928810068
0.19733740234375,-0.1064892578125,1.0083544921875005,1.0329863475902998,0.83642578125,-1.4853515625,-0.33154296875,32.67117647058824,330.64676474222745
0.19147802734375,-0.2358837890625,1.0249560546875005,1.0690369081273583,0.79345703125,-1.3857421875,-0.34521484375,32.67117647058824,330.64676474222745
0.18122412109375,-0.1191845703125,1.0371630859375005,1.059601062050325,0.77490234375,-1.15185546875,-0.30322265625,31.91823529411765,330.64676474222745
0.18220068359375,-0.1206494140625,1.0493701171875005,1.0718819958660386,0.7626953125,-0.81201171875,-0.259765625,32.71823529411765,330.64676474222745
0.18757177734375,-0.1211376953125,1.0693896484375005,1.092452165116074,0.77978515625,-0.39697265625,-0.2177734375,31.91823529411765,330.64676474222745
0.19929052734375,-0.1304150390625,1.0601123046875005,1.0865371117695275,0.7763671875,0.10107421875,-0.19775390625,31.91823529411765,330.64676474222745
0.20075537109375,-0.1357861328125,1.0562060546875005,1.0836566904909035,0.84228515625,0.52734375,-0.15234375,31.91823529411765,330.64676474222745
0.20514990234375,-0.1260205078125,1.0435107421875005,1.0709259170837533,0.8486328125,0.970703125,-0.04736328125,31.965294117647066,330.7437567651484
0.20026708984375,-0.1265087890625,1.0439990234375005,1.070535072719712,0.84619140625,1.12451171875,0.08740234375,31.259411764705884,330.7437567651484
0.20368505859375,-0.1279736328125,1.0376513671875005,1.0651691009486035,0.75390625,1.009765625,0.1787109375,31.91823529411765,330.7437567651484
0.20661474609375,-0.1265087890625,1.0249560546875005,1.053199430807865,0.87890625,0.95458984375,0.18115234375,31.871176470588235,330.7437567651484
0.19440771484375,-0.1064892578125,1.0239794921875005,1.04769667463479,0.90380859375,1.0615234375,0.109375,32.71823529411765,330.7437567651484
0.20807958984375,-0.2334423828125,1.0015185546875005,1.0492053551074072,0.86669921875,1.13818359375,0.009765625,31.91823529411765,330.7437567651484
0.22663427734375,-0.1182080078125,1.0029833984375005,1.0350419925391243,0.8720703125,1.09912109375,0.0126953125,32.67117647058824,330.7437567651484
0.21540380859375,-0.1226025390625,1.0005419921875005,1.0307834212247482,0.88037109375,0.599609375,0.1416015625,31.965294117647066,330.8972290323115
0.19245458984375,-0.1289501953125,0.9976123046875,1.0241568397891816,0.912109375,0.16064453125,0.22412109375,31.91823529411765,330.8972290323115
0.18708349609375,-0.1201611328125,1.0088427734375005,1.0330550197673456,0.95849609375,-0.154296875,0.17822265625,31.91823529411765,330.8972290323115
0.18952490234375,-0.1216259765625,1.0127490234375005,1.037484048675834,0.9423828125,-0.47265625,0.04150390625,32.624117647058824,330.8972290323115
0.18073583984375,-0.1211376953125,1.0127490234375005,1.0358573113625544,0.9228515625,-0.2978515625,-0.0634765625,31.965294117647066,330.8972290323115
0.17975927734375,-0.1230908203125,1.0293505859375005,1.0521536848798403,0.94287109375,-0.09130859375,-0.05908203125,31.259411764705884,330.8972290323115
0.18806005859375,-0.1206494140625,1.0381396484375005,1.0619118590588608,0.99658203125,0.0166015625,0.07861328125,31.965294117647066,330.8972290323115
0.19929052734375,-0.1157666015625,1.0288623046875005,1.054360594072614,1.04443359375,-0.04052734375,0.31982421875,31.965294117647066,330.8972290323115
0.19782568359375,-0.1221142578125,1.0303271484375005,1.0562295800903243,1.1220703125,-0.00390625,0.61328125,32.67117647058824,330.8972290323115
0.19294287109375,-0.1113720703125,1.0303271484375005,1.0541369561679084,1.2119140625,-0.20849609375,0.8017578125,32.67117647058824,330.831650991741
0.20124365234375,-0.1167431640625,1.0151904296875005,1.0415083208947815,1.2666015625,-0.29052734375,0.86328125,32.624117647058824,330.831650991741
0.20124365234375,0.0102099609375,1.0059130859375005,1.0258968697541202,1.291015625,-0.42529296875,0.83154296875,31.965294117647066,330.831650991741
0.20905615234375,-0.1089306640625,1.0156787109375005,1.0426761761244632,1.31689453125,-0.5625,0.73779296875,31.965294117647066,330.831650991741
0.20368505859375,-0.1064892578125,1.0078662109375005,1.0337416815981206,1.296875,-0.71044921875,0.6611328125,31.965294117647066,330.831650991741
0.20319677734375,-0.1060009765625,1.0195849609375005,1.0450256599361631,1.28759765625,-0.8388671875,0.63134765625,31.259411764705884,330.831650991741
0.19733740234375,-0.1050244140625,1.0161669921875005,1.0404650565609312,1.3125,-0.9033203125,0.63037109375,31.91823529411765,330.831650991741
0.19245458984375,-0.1064892578125,1.0205615234375005,1.0439945183296964,1.31787109375,-0.88720703125,0.654296875,32.67117647058824,330.831650991741
0.19440771484375,-0.1079541015625,1.0347216796875005,1.0583465415686193,1.29541015625,-0.837890625,0.650390625,31.91823529411765,330.73511954585007
0.19782568359375,-0.0981884765625,1.0283740234375005,1.0518218052978514,1.3720703125,-0.75146484375,0.61962890625,31.91823529411765,330.73511954585007
0.19880224609375,-0.1020947265625,1.0298388671875005,1.0538091661272573,1.24169921875,-0.61572265625,0.55908203125,31.91823529411765,330.73511954585007
0.21003271484375,-0.1030712890625,1.0332568359375005,1.059413574080121,1.2255859375,-0.5478515625,0.5615234375,31.965294117647066,330.73511954585007
0.22321630859375,-0.1040478515625,1.0176318359375005,1.0470081324185212,1.21533203125,-0.55615234375,0.5966796875,31.965294117647066,330.73511954585007
0.22272802734375,-0.1020947265625,1.0142138671875005,1.0433891295924709,1.21142578125,-0.59912109375,0.66748046875,31.871176470588235,330.73511954585007
0.22223974609375,-0.1025830078125,1.0147021484375005,1.0438075628579018,1.234375,-0.6162109375,0.7001953125,31.965294117647066,330.73511954585007
0.22370458984375,-0.1011181640625,1.0220263671875005,1.0510977698801431,1.2421875,-0.66552734375,0.7099609375,31.91823529411765,330.73511954585007
0.22858740234375,-0.0918408203125,1.0200732421875005,1.0493980923428703,1.25146484375,-0.7080078125,0.666015625,31.91823529411765,330.73511954585007
0.23347021484375,-0.0864697265625,1.0220263671875005,1.0519140887246732,1.37109375,-0.775390625,0.55224609375,31.259411764705884,330.3253177550316
0.23444677734375,-0.0820751953125,1.0244677734375005,1.0541517195852048,1.36767578125,-0.8603515625,0.4091796875,31.965294117647066,330.3253177550316
0.24323583984375,-0.0889111328125,1.0244677734375005,1.0566944128434133,1.2177734375,-0.96044921875,0.28857421875,31.965294117647066,330.3253177550316
0.23884130859375,-0.0806103515625,1.0313037109375005,1.0616640446314756,1.21337890625,-1.1064453125,0.20068359375,31.965294117647066,330.3253177550316
0.23932958984375,-0.0820751953125,1.0322802734375005,1.0628346782019125,1.21484375,-1.23193359375,0.19921875,31.259411764705884,330.3253177550316
0.23737646484375,-0.0850048828125,1.0488818359375005,1.078761568616209,1.2255859375,-1.30224609375,0.2265625,31.306470588235296,330.3253177550316
0.23444677734375,-0.0957470703125,1.0591357421875005,1.0889909610549409,1.259765625,-1.2001953125,0.224609375,32.71823529411765,330.3253177550316
0.23786474609375,-0.1133251953125,1.0684130859375005,1.100422082443529,1.287109375,-1.0087890625,0.22802734375,31.965294117647066,330.59487254752656
0.23102880859375,-0.1201611328125,1.0781787109375005,1.1091809324712902,1.279296875,-0.75830078125,0.20654296875,31.824117647058824,330.59487254752656
0.23200537109375,-0.1309033203125,1.0913623046875005,1.1234028002359606,1.22216796875,-0.52490234375,0.1533203125,31.965294117647066,330.59487254752656
0.23493505859375,-0.1352978515625,1.1016162109375005,1.1344859040967288,1.15966796875,-0.3154296875,0.14111328125,31.259411764705884,330.59487254752656
0.24274755859375,-0.1294384765625,1.1060107421875005,1.1397106905930965,1.1181640625,-0.2353515625,0.2275390625,31.91823529411765,330.59487254752656
0.2515366210937499,-0.1323681640625,1.0908740234375005,1.1272968276453443,1.10888671875,0.02685546875,0.404296875,31.91823529411765,330.59487254752656
0.2578842773437499,-0.1313916015625,1.0703662109375005,1.1088065110644725,1.2470703125,0.15625,0.66455078125,31.965294117647066,330.59487254752656
0.2686264648437499,-0.1245556640625,1.0503466796875005,1.091284765125518,1.20263671875,0.291015625,0.904296875,31.91823529411765,330.4304675106372
0.2681381835937499,-0.1157666015625,1.0230029296875005,1.0638773358275355,1.3095703125,0.41943359375,1.06982421875,31.824117647058824,330.4304675106372
0.2603256835937499,-0.2334423828125,1.0005419921875005,1.0598816376191555,1.3798828125,0.45068359375,1.2099609375,31.871176470588235,330.4304675106372
0.24225927734375,-0.1074658203125,0.9961474609375,1.030799798179444,1.41748046875,0.3251953125,1.36767578125,31.91823529411765,330.4304675106372
0.23688818359375,-0.0967236328125,0.9941943359375,1.0265933227334962,1.455078125,0.04931640625,1.53564453125,32.71823529411765,330.4304675106372
0.22712255859375,-0.0796337890625,0.9849169921875,1.0138972721544792,1.49609375,-0.03759765625,1.6630859375,31.91823529411765,330.4304675106372
0.19440771484375,-0.0742626953125,0.9810107421875,1.0028416543967027,1.52099609375,0.23388671875,1.80322265625,31.91823529411765,330.4304675106372
0.16022802734375,-0.0635205078125,0.9780810546875,0.993151763426839,1.5439453125,0.81640625,1.91796875,31.259411764705884,330.4304675106372
0.16852880859375,-0.0674267578125,0.9756396484375,0.9923815045628284,1.5810546875,1.29833984375,1.99609375,31.871176470588235,330.4304675106372
0.19343115234375,-0.0654736328125,0.9683154296875,0.989614661705042,1.6005859375,1.38232421875,2.0302734375,32.624117647058824,330.582104401859
0.20759130859375,-0.0732861328125,0.9429248046875,0.9682831176681936,1.57958984375,1.2998046875,2.12255859375,31.91823529411765,330.582104401859
0.3316147460937499,-0.0815869140625,0.9375537109375,0.9978134721809188,1.5712890625,1.05419921875,2.21484375,31.91823529411765,330.582104401859
0.21589208984375,-0.0718212890625,0.9468310546875,0.9737847493878432,1.59765625,0.65966796875,2.26953125,31.259411764705884,330.582104401859
0.22028662109375,-0.0644970703125,0.9380419921875,0.9657167527898078,1.6025390625,0.15576171875,2.27734375,31.259411764705884,330.582104401859
0.21735693359375,-0.0610791015625,0.9546435546875,0.9809785980006628,1.56005859375,-0.30322265625,2.29296875,32.624117647058824,330.582104401859
0.21296240234375,-0.0366650390625,0.9551318359375,0.9792722470910812,1.46240234375,-0.67919921875,2.271484375,31.871176470588235,330.582104401859
0.21442724609375,-0.0288525390625,0.9590380859375,0.9831406629553914,1.49560546875,-1.0390625,2.275390625,31.259411764705884,330.582104401859
0.22858740234375,-0.0210400390625,0.9746630859375,1.0013306221439675,1.26123046875,-1.34130859375,2.28857421875,31.259411764705884,330.61627177069164
0.23591162109375,-0.0142041015625,1.0132373046875005,1.0404354305187176,1.22900390625,-1.45751953125,2.34423828125,31.965294117647066,330.61627177069164
0.23200537109375,-0.0151806640625,1.0239794921875005,1.0500433063442185,1.259765625,-1.4287109375,2.38623046875,31.91823529411765,330.61627177069164
0.24421240234375,-0.0181103515625,1.0415576171875005,1.0699579207676937,1.28759765625,-1.2158203125,2.4208984375,31.91823529411765,330.61627177069164
0.24567724609375,-0.0229931640625,1.0361865234375005,1.0651612583056649,1.31005859375,-0.91552734375,2.43896484375,31.965294117647066,330.61627177069164
0.2569077148437499,-0.0273876953125,1.0308154296875005,1.0627003857544204,1.30615234375,-0.74169921875,2.4287109375,31.259411764705884,330.61627177069164
0.2637436523437499,-0.0356884765625,1.0381396484375005,1.0717127932281625,1.28857421875,-0.4150390625,2.4560546875,31.965294117647066,330.61627177069164
0.2647202148437499,-0.0395947265625,1.0132373046875005,1.0479954055857643,1.29931640625,-0.21142578125,2.49951171875,31.965294117647066,330.61627177069164
0.2554428710937499,-0.0430126953125,1.0078662109375005,1.0406226268442265,1.31689453125,-0.103515625,2.623046875,31.91823529411765,330.61627177069164
0.24811865234375,-0.0395947265625,1.0103076171875005,1.0410821722417123,1.341796875,-0.10546875,2.75341796875,31.91823529411765,330.84349830447
0.2515366210937499,-0.0439892578125,0.9873583984375,1.0198442692486047,1.34765625,-0.1962890625,2.8017578125,31.965294117647066,330.84349830447
0.2554428710937499,-0.0342236328125,0.9766162109375,1.0100502665221285,1.32421875,-0.4091796875,2.796875,31.259411764705884,330.84349830447
0.2647202148437499,-0.0303173828125,0.9775927734375,1.0132539496714257,1.2861328125,-0.677734375,2.72021484375,31.91823529411765,330.84349830447
0.2744858398437499,-0.0288525390625,0.9771044921875,1.0153364634140123,1.27099609375,-0.9384765625,2.5888671875,32.67117647058824,330.84349830447
0.2759506835937499,-0.0259228515625,0.9878466796875,1.0259930977246423,1.23779296875,-1.16259765625,2.4755859375,31.965294117647066,330.84349830447
0.2759506835937499,-0.0220166015625,0.9839404296875,1.022141027301929,1.23046875,-1.25830078125,2.3857421875,31.871176470588235,330.84349830447
0.2705795898437499,-0.0200634765625,0.9995654296875,1.0357349592237113,1.234375,-1.1962890625,2.33447265625,31.871176470588235,330.7569790754826
0.2652084960937499,-0.0308056640625,1.0132373046875005,1.0478236354220258,1.2490234375,-1.0341796875,2.28857421875,31.259411764705884,330.7569790754826
0.2637436523437499,-0.0342236328125,1.0195849609375005,1.0537008416834588,1.26416015625,-0.77978515625,2.2099609375,31.91823529411765,330.7569790754826
0.2647202148437499,-0.0337353515625,1.0239794921875005,1.058181868353705,1.2353515625,-0.46142578125,2.09228515625,31.259411764705884,330.7569790754826
0.2530014648437499,-0.0356884765625,1.0444873046875005,1.0752846777601708,1.21728515625,-0.24951171875,1.97216796875,31.965294117647066,330.7569790754826
0.2554428710937499,-0.0342236328125,1.0420458984375005,1.0734439770597812,1.21875,0.15087890625,1.83740234375,31.871176470588235,330.7569790754826
0.2608139648437499,-0.0454541015625,1.0444873046875005,1.0775173916274994,1.16943359375,0.26220703125,1.68994140625,32.71823529411765,330.7569790754826
0.2827866210937499,-0.0498486328125,1.0479052734375005,1.0865351450187968,1.1552734375,0.22705078125,1.59765625,31.965294117647066,330.755602038391
0.2910874023437499,-0.0386181640625,1.0396044921875005,1.0802780839095183,1.14990234375,0.13720703125,1.5263671875,31.91823529411765,330.755602038391
0.2905991210937499,-0.0420361328125,1.0420458984375005,1.0826239144286012,1.19775390625,0.00244140625,1.48095703125,31.91823529411765,330.755602038391
0.2969467773437499,-0.0435009765625,1.0444873046875005,1.086749029532619,1.2294921875,-0.1103515625,1.41162109375,32.012352941176474,330.755602038391
0.2910874023437499,-0.0342236328125,1.0518115234375005,1.0918839744597555,1.27880859375,-0.1826171875,1.2578125,31.91823529411765,330.755602038391
0.2940170898437499,-0.0400830078125,1.0518115234375005,1.0928678682582813,1.30712890625,-0.1455078125,1.0751953125,32.67117647058824,330.755602038391
0.2969467773437499,-0.0395947265625,1.0493701171875005,1.0912940821760675,1.27880859375,-0.123046875,0.8916015625,32.67117647058824,330.755602038391
0.2910874023437499,-0.0420361328125,1.1729052734375005,1.2092169750390374,1.2626953125,0.240234375,0.76220703125,31.965294117647066,330.7651584104503
0.2832749023437499,-0.0454541015625,1.0371630859375005,1.076112453453687,1.2744140625,0.4775390625,0.7138671875,31.91823529411765,330.7651584104503
0.2754624023437499,-0.0644970703125,1.0200732421875005,1.0585786822956544,1.30078125,0.640625,0.7451171875,31.91823529411765,330.7651584104503
0.2647202148437499,-0.0654736328125,1.0039599609375005,1.0403360956470815,1.3369140625,1.06689453125,0.8466796875,31.91823529411765,330.7651584104503
0.2622788085937499,-0.0727978515625,0.9829638671875,1.0199547366553467,1.38232421875,1.3486328125,0.9404296875,31.259411764705884,330.7651584104503
0.2530014648437499,-0.0825634765625,0.9541552734375,0.9905749616781964,1.41259765625,1.6220703125,0.97705078125,31.259411764705884,330.7651584104503
0.24177099609375,-0.0771923828125,0.9224169921875,0.9566948238558992,1.41845703125,1.62939453125,0.9658203125,32.059411764705885,330.7651584104503
0.23493505859375,-0.0801220703125,0.8999560546875001,0.9335603506342268,1.42529296875,1.7021484375,0.97998046875,31.259411764705884,330.90495829097125
0.23200537109375,-0.0713330078125,0.8980029296875001,0.9302280107303048,1.42626953125,1.4306640625,0.935546875,32.67117647058824,330.90495829097125
0.23395849609375,-0.0640087890625,0.9019091796875,0.9339560328924892,1.40966796875,1.021484375,0.83056640625,31.259411764705884,330.90495829097125
0.21540380859375,-0.0557080078125,0.8755419921875001,0.9033692284856656,1.4091796875,0.82861328125,0.7646484375,31.259411764705884,330.90495829097125
0.3296616210937499,-0.0488720703125,0.8774951171875001,0.9386495322359104,1.427734375,0.7216796875,0.7607421875,31.965294117647066,330.90495829097125
0.3306381835937499,-0.0371533203125,0.8882373046875001,0.9485080321741785,1.46142578125,0.4365234375,0.78662109375,31.91823529411765,330.90495829097125
0.22028662109375,-0.0273876953125,0.8906787109375001,0.9179242056971364,1.47265625,0.0224609375,0.7861328125,31.91823529411765,330.90495829097125
0.20270849609375,-0.0181103515625,0.9072802734375,0.9298259050979018,1.51318359375,-0.09521484375,0.76513671875,31.259411764705884,330.7970331123089
0.17975927734375,-0.0254345703125,0.8022998046875001,0.8225845195235134,1.47900390625,-0.10009765625,0.6376953125,31.871176470588235,330.7970331123089
0.16852880859375,-0.0254345703125,0.9653857421875,0.9803155144706834,1.45556640625,-0.04296875,0.39892578125,31.965294117647066,330.7970331123089
0.16266943359375,-0.0254345703125,0.9868701171875,1.000510314884541,1.447265625,0.1005859375,0.12646484375,32.67117647058824,330.7970331123089
0.14704443359375,-0.0303173828125,1.0234912109375005,1.0344445214789515,1.40576171875,0.41552734375,-0.0654296875,31.965294117647066,330.7970331123089
0.13581396484375,-0.0327587890625,1.0640185546875005,1.073151459965786,1.39501953125,0.76416015625,-0.16748046875,31.871176470588235,330.7970331123089
0.13093115234375,-0.0405712890625,1.1108935546875005,1.119318313080102,1.35791015625,1.3115234375,-0.23193359375,31.91823529411765,330.7970331123089
0.14411474609375,-0.0518017578125,1.1597216796875005,1.1697892359272792,1.302734375,1.80810546875,-0.22705078125,31.91823529411765,330.73100150917
0.13386083984375,-0.0703564453125,1.1978076171875005,1.2073159659480537,1.1748046875,2.244140625,-0.1962890625,31.871176470588235,330.73100150917
0.12702490234375,-0.0830517578125,1.2368701171875005,1.246146302439086,1.01806640625,2.6728515625,-0.05224609375,31.965294117647066,330.73100150917
0.12263037109375,-0.0874462890625,1.2647021484375005,1.2736391112272825,0.8544921875,3.16650390625,0.1181640625,31.965294117647066,330.73100150917
0.14167333984375,-0.0933056640625,1.2773974609375005,1.2886122595172682,0.70703125,3.38916015625,0.2880859375,31.259411764705884,330.73100150917
0.15388037109375,-0.0879345703125,1.2720263671875005,1.2843141111442418,0.64404296875,3.47900390625,0.416015625,31.259411764705884,330.73100150917
0.16657568359375,-0.0962353515625,1.2559130859375005,1.2705614430967664,0.6572265625,3.3544921875,0.51904296875,31.259411764705884,330.73100150917
0.19050146484375,-0.1089306640625,1.2144091796875005,1.2340771261918675,0.65625,2.63134765625,0.58935546875,31.259411764705884,330.76424514089564
0.20124365234375,-0.1060009765625,1.1782763671875005,1.2000293380219622,0.68505859375,1.95654296875,0.6640625,31.871176470588235,330.76424514089564
0.16315771484375,-0.0791455078125,1.1333544921875005,1.147770384825083,0.85791015625,1.6455078125,0.76513671875,31.965294117647066,330.76424514089564
0.11579443359375,-0.0371533203125,1.0801318359375005,1.08695607228041,0.9755859375,1.65234375,1.11376953125,31.965294117647066,330.76424514089564
0.11970068359375,-0.0063916015625,1.0439990234375005,1.0508582526496135,0.9873046875,1.45458984375,1.15283203125,31.259411764705884,330.76424514089564
0.13825537109375,0.0180224609375,1.0083544921875005,1.0179480039025697,0.95654296875,1.0029296875,0.94580078125,31.91823529411765,330.76424514089564
0.14704443359375,0.0297412109375,0.9917529296875,1.0030356317811822,0.884765625,0.55908203125,0.65283203125,31.259411764705884,330.76424514089564
0.13288427734375,0.0419482421875,0.9653857421875,0.9753909561845968,0.76708984375,0.0185546875,0.439453125,31.91823529411765,330.81843555391674
0.12018896484375,0.0434130859375,0.9800341796875,0.9883304491194128,0.67578125,-0.3525390625,0.23095703125,31.871176470588235,330.81843555391674
0.13093115234375,0.0395068359375,0.9834521484375,0.9929158499118592,0.60546875,-0.5078125,-0.021484375,32.71823529411765,330.81843555391674
0.13386083984375,0.0302294921875,0.9741748046875,0.9837932184811587,0.576171875,-0.64501953125,-0.3037109375,31.965294117647066,330.81843555391674
0.13923193359375,0.0199755859375,0.9800341796875,0.9900765367998334,0.66259765625,-0.41015625,-0.58740234375,31.259411764705884,330.81843555391674
0.14020849609375,0.0033740234375,0.9814990234375,0.9914686779822116,0.748046875,-0.11279296875,-0.79052734375,31.91823529411765,330.81843555391674
0.14850927734375,-0.0185986328125,0.9658740234375,0.9774014240582022,0.8203125,0.384765625,-0.888671875,31.91823529411765,330.81843555391674
0.14460302734375,-0.0381298828125,0.9448779296875,0.9566390256992492,0.845703125,0.83251953125,-0.84033203125,31.259411764705884,330.6444793933787
0.13923193359375,-0.0708447265625,0.9209521484375,0.934107791598816,0.7822265625,1.01220703125,-0.7529296875,31.965294117647066,330.6444793933787
0.14460302734375,-0.0771923828125,0.8975146484375001,0.9123602597883896,0.69287109375,0.96923828125,-0.6513671875,31.965294117647066,330.6444793933787
0.13581396484375,-0.0796337890625,0.8843310546875001,0.898236264961361,0.5927734375,0.7236328125,-0.62255859375,31.871176470588235,330.6444793933787
0.13483740234375,-0.0771923828125,0.8965380859375001,0.9099012740795334,0.61962890625,0.2783203125,-0.7138671875,31.259411764705884,330.6444793933787
0.13141943359375,-0.0776806640625,0.9004443359375001,0.913293685085591,0.4091796875,-0.18994140625,-0.92626953125,31.91823529411765,330.6444793933787
0.11677099609375,-0.0791455078125,0.9038623046875,0.9148041007618104,0.39501953125,-0.56494140625,-1.20263671875,31.965294117647066,330.6444793933787
0.10407568359375,-0.0762158203125,0.9468310546875,0.9555781733076878,0.41845703125,-0.67431640625,-1.337890625,31.91823529411765,330.634006311508
0.09577490234375,-0.0820751953125,0.9766162109375,0.9847275730223356,0.53857421875,-0.5810546875,-1.388671875,31.871176470588235,330.634006311508
0.10309912109375,-0.0752392578125,0.9878466796875,0.9960579487439964,0.67919921875,-0.3271484375,-1.287109375,32.71823529411765,330.634006311508
0.11628271484375,-0.0703564453125,1.0029833984375005,1.0121498884600448,0.798828125,0.095703125,-1.19775390625,31.91823529411765,330.634006311508
0.12263037109375,-0.0630322265625,0.9912646484375,1.0008081098502035,0.89306640625,0.73583984375,-1.1728515625,31.965294117647066,330.634006311508
0.11481787109375,-0.0454541015625,0.9673388671875,0.9751890600508966,0.982421875,1.60791015625,-1.31982421875,31.91823529411765,330.634006311508
0.12165380859375,-0.0332470703125,0.8037646484375001,0.813598566190715,1.0693359375,2.44091796875,-1.5810546875,31.91823529411765,330.634006311508
0.09235693359375,-0.0410595703125,0.8936083984375001,0.8993062110622395,1.0322265625,2.70166015625,-1.70458984375,31.871176470588235,330.7742628324264
0.06501318359375,-0.1001416015625,0.9194873046875,0.9272065346437012,1.03564453125,2.046875,-1.6279296875,31.965294117647066,330.7742628324264
0.07722021484375,-0.1592236328125,0.9824755859375,0.9982852316796832,1.021484375,0.84130859375,-1.345703125,31.965294117647066,330.7742628324264
0.0479233398437499,-0.2046337890625,1.0317919921875005,1.0529797477967493,0.90234375,-0.23388671875,-0.78955078125,32.71823529411765,330.7742628324264
-0.00139306640625,-0.2319775390625,1.1001513671875005,1.1243436085058838,0.75732421875,-0.46337890625,-0.17333984375,31.871176470588235,330.7742628324264
-0.00920556640625,-0.2485791015625,1.2036669921875005,1.2291015174785944,0.69140625,-0.392578125,0.2939453125,31.91823529411765,330.7742628324264
0.0049545898437499,-0.2622509765625,1.2842333984375005,1.3107461784536456,0.65625,-0.142578125,0.43701171875,31.965294117647066,330.7742628324264
0.0142319335937499,-0.2788525390625,1.3184130859375005,1.347655130827862,0.68310546875,0.25244140625,0.3115234375,31.965294117647066,330.7742628324264
0.0220444335937499,-0.2739697265625,1.3101123046875005,1.338633489428228,0.60400390625,0.91162109375,0.0185546875,31.91823529411765,330.7742628324264
0.0347397460937499,-0.2466259765625,1.2935107421875005,1.317270383189618,0.50732421875,1.1875,-0.06787109375,31.91823529411765,330.7432995877036
0.0523178710937499,-0.2104931640625,1.2637255859375005,1.2822039183787823,0.47119140625,1.0458984375,0.130859375,31.91823529411765,330.7432995877036
0.0557358398437499,-0.1689892578125,1.2080615234375005,1.221096432518432,0.6220703125,0.66796875,1.13134765625,31.965294117647066,330.7432995877036
0.0542709960937499,-0.0981884765625,1.1411669921875005,1.1466684010667334,0.904296875,0.17236328125,2.59130859375,31.91823529411765,330.7432995877036
0.06891943359375,-0.0488720703125,1.0630419921875005,1.0663942257615064,1.33544921875,-0.1396484375,3.8544921875,32.71823529411765,330.7432995877036
0.11530615234375,0.0063037109375,0.9766162109375,0.9834197827000548,1.44189453125,-0.49658203125,4.72265625,31.91823529411765,330.7432995877036
0.16804052734375,0.0678271484375,0.9468310546875,0.9640161757023435,1.45068359375,-0.998046875,5.1015625,31.91823529411765,330.7432995877036
0.21296240234375,0.1161669921875,0.9419482421875,0.9726840421462836,1.599609375,-1.68310546875,5.12255859375,32.012352941176474,330.7432995877036
0.21686865234375,0.1415576171875,0.9546435546875,0.9891485671321488,1.80078125,-2.28759765625,4.59912109375,31.91823529411765,330.7432995877036
0.19245458984375,0.1308154296875,0.9619677734375,0.9897138187014228,1.83251953125,-2.91552734375,3.76318359375,31.259411764705884,330.8202633176664
0.16218115234375,0.1151904296875,0.9907763671875,1.0105490443538094,1.7119140625,-3.57861328125,3.09033203125,31.965294117647066,330.8202633176664
0.11335302734375,0.0824755859375,1.0225146484375005,1.0320791332804824,1.5947265625,-3.8466796875,2.17138671875,31.965294117647066,330.8202633176664
0.07429052734375,0.0526904296875,1.0635302734375005,1.0674230681185928,1.560546875,-3.869140625,1.671875,32.71823529411765,330.8202633176664
0.0537827148437499,0.0077685546875,1.0791552734375005,1.0805225749820606,1.54541015625,-3.341796875,1.39501953125,31.871176470588235,330.8202633176664
0.0557358398437499,-0.0298291015625,1.0747607421875005,1.0766182759411715,1.40576171875,-2.81982421875,1.25,31.259411764705884,330.8202633176664
0.07429052734375,-0.0454541015625,1.0571826171875005,1.0607639906620507,1.1533203125,-2.2109375,1.55712890625,31.871176470588235,330.8202633176664
0.09138037109375,-0.0527783203125,1.0430224609375005,1.0483471645100966,0.9912109375,-1.15087890625,1.86865234375,31.91823529411765,330.8202633176664
0.10847021484375,-0.0395947265625,1.0205615234375005,1.0270731974892928,0.705078125,-0.04296875,2.19384765625,32.67117647058824,330.6472231422515
0.12751318359375,-0.0142041015625,1.0073779296875005,1.0155154660136323,0.69677734375,0.7470703125,2.48876953125,31.965294117647066,330.6472231422515
0.13288427734375,0.0243701171875,1.0010302734375005,1.0101058073861666,0.72021484375,1.125,2.64306640625,32.71823529411765,330.6472231422515
0.14020849609375,0.0512255859375,0.9780810546875,0.9894064041485298,0.7421875,1.2939453125,2.478515625,32.624117647058824,330.6472231422515
0.16852880859375,0.0780810546875,0.9751513671875,0.9926826277087716,0.78857421875,0.9677734375,1.88916015625,32.71823529411765,330.6472231422515
0.18854833984375,0.0824755859375,0.9731982421875,0.994719818506904,0.7958984375,0.623046875,1.00732421875,31.91823529411765,330.6472231422515
0.17927099609375,0.0844287109375,0.9668505859375,0.9869479990347518,0.7939453125,0.193359375,-0.12060546875,32.059411764705885,330.6472231422515
0.15876318359375,0.0600146484375,0.9780810546875,0.9926983711231282,0.74267578125,-0.1640625,-0.859375,31.91823529411765,330.85213691343114
0.13190771484375,0.0336474609375,0.9976123046875,1.0068575407309348,0.68896484375,-0.310546875,-1.3466796875,32.71823529411765,330.85213691343114
0.12556005859375,0.0033740234375,1.0127490234375005,1.0205083521568223,0.638671875,-0.34716796875,-1.65087890625,32.67117647058824,330.85213691343114
0.12751318359375,-0.0181103515625,1.0317919921875005,1.039799169054381,0.59423828125,-0.3623046875,-1.7412109375,31.871176470588235,330.85213691343114
0.13044287109375,-0.0425244140625,1.0376513671875005,1.046682391290036,0.5712890625,-0.0546875,-1.71826171875,31.965294117647066,330.85213691343114
0.13923193359375,-0.0581494140625,1.0449755859375005,1.0558128910434312,0.5517578125,0.185546875,-1.6875,31.91823529411765,330.85213691343114
0.14509130859375,-0.0601025390625,1.1729052734375005,1.18337254636429,0.560546875,0.40771484375,-1.68359375,31.259411764705884,330.85213691343114
0.15681005859375,-0.0625439453125,1.0576708984375005,1.0710596944022388,0.580078125,0.859375,-1.75244140625,31.824117647058824,330.8079624640377
0.15583349609375,-0.0610791015625,1.0571826171875005,1.070350326405283,0.6005859375,1.19091796875,-1.8447265625,31.965294117647066,330.8079624640377
0.16169287109375,-0.0527783203125,1.0483935546875005,1.0621013045693153,0.5908203125,1.40869140625,-1.896484375,31.91823529411765,330.8079624640377
0.16608740234375,-0.0430126953125,1.0386279296875005,1.0527027564808042,0.55224609375,1.41162109375,-1.90576171875,31.965294117647066,330.8079624640377
0.16266943359375,-0.0464306640625,1.0322802734375005,1.046049575363996,0.578125,1.19873046875,-1.7998046875,31.965294117647066,330.8079624640377
0.15046240234375,-0.0698681640625,1.0215380859375005,1.0349205553516505,0.62744140625,0.9873046875,-1.603515625,31.259411764705884,330.8079624640377
0.13532568359375,-0.0864697265625,1.0230029296875005,1.0355312879875325,0.6787109375,0.5078125,-1.314453125,32.67117647058824,330.8079624640377
0.14948583984375,-0.0967236328125,1.0176318359375005,1.033090524093492,0.70947265625,0.2880859375,-1.2470703125,31.259411764705884,330.5688872135283
0.16169287109375,-0.1020947265625,1.0147021484375005,1.0325639775810942,0.76953125,0.10205078125,-0.95458984375,31.259411764705884,330.5688872135283
0.16169287109375,-0.0986767578125,1.0137255859375005,1.031271666768391,0.85888671875,-0.06103515625,-0.71630859375,31.91823529411765,330.5688872135283
0.13923193359375,-0.0835400390625,1.0039599609375005,1.0170054437535945,0.90673828125,-0.23486328125,-0.39892578125,32.71823529411765,330.5688872135283
0.13434912109375,-0.0723095703125,1.0337451171875005,1.0449436959025304,0.9677734375,-0.56884765625,-0.166015625,31.306470588235296,330.5688872135283
0.13630224609375,-0.0649853515625,1.0361865234375005,1.047131276183362,0.95458984375,-0.89208984375,-0.06201171875,31.91823529411765,330.5688872135283
