AccX,AccY,AccZ,Magnitude,GyroX,GyroY,GyroZ,Temperature,Altitude
0.59675146484375,-0.9150830078125,-0.1513134765624999,1.1028984496179888,3.58740234375,-3.130859375,5.7421875,29.51823529411765,323.22251509117547
0.4986069335937499,-0.8818798828125,-0.0976025390624999,1.0177658166634391,4.09814453125,-3.6376953125,6.51953125,29.47117647058824,323.22251509117547
0.3843491210937499,-0.9062939453125,-0.0746533203124999,0.987251781679484,3.8310546875,-2.8115234375,6.04052734375,29.424117647058825,323.22251509117547
0.3374741210937499,-0.9160595703125,-0.0707470703124999,0.9788049176045872,3.25146484375,-1.93212890625,4.76318359375,29.51823529411765,323.22251509117547
0.4536850585937499,-0.8887158203125,-0.0536572265624999,0.99926224767441,2.65380859375,-1.19580078125,3.50244140625,29.47117647058824,323.22251509117547
0.2808334960937499,-0.8730908203125,-0.0209423828124999,0.9173841160822752,2.599609375,-0.09130859375,2.6298828125,29.424117647058825,323.22251509117547
0.2974350585937499,-0.8774853515625,-0.0297314453124999,0.9270016802184352,2.6787109375,0.9833984375,2.2998046875,29.51823529411765,323.4484022592732
0.3037827148437499,-0.8999462890625,-0.0497509765624999,0.9511374352343231,2.66650390625,1.5224609375,2.232421875,29.424117647058825,323.4484022592732
0.3155014648437499,-0.8965283203125,-0.0653759765624999,0.9526689990507748,2.67431640625,2.11328125,2.33740234375,29.47117647058824,323.4484022592732
0.3335678710937499,-0.8823681640625,-0.0922314453124999,0.9478120811012466,2.75927734375,2.23779296875,2.39208984375,29.47117647058824,323.4484022592732
0.3521225585937499,-0.8823681640625,-0.1229931640624999,0.9579619990520192,2.79736328125,1.72119140625,2.306640625,29.377058823529413,323.4484022592732
0.3364975585937499,-0.8682080078125,-0.1561962890624999,0.9441467219061878,2.8935546875,1.23388671875,2.1162109375,29.424117647058825,323.4484022592732
0.3179428710937499,-0.8696728515625,-0.1508251953124999,0.9381720404943013,3.0400390625,0.2607421875,1.42333984375,29.51823529411765,323.4484022592732
0.2891342773437499,-0.8911572265625,-0.1527783203124999,0.9492634238962168,3.32861328125,-0.66796875,0.90966796875,29.56529411764706,323.39400706400687
0.23786474609375,-0.9116650390625,-0.1308056640624999,0.9512217946587984,3.66796875,-1.41845703125,0.60009765625,29.51823529411765,323.39400706400687
0.2559311523437499,-0.9199658203125,-0.0922314453124999,0.9593458733885728,4.21728515625,-2.35693359375,-0.0947265625,29.51823529411765,323.39400706400687
0.2862045898437499,-0.9058056640625,-0.0077587890624999,0.9499774561025394,4.9716796875,-2.9013671875,-0.513671875,29.47117647058824,323.39400706400687
0.2637436523437499,-0.9311962890625,-0.0492626953124999,0.9690789730795132,5.244140625,-3.3095703125,-0.82080078125,29.377058823529413,323.39400706400687
0.22663427734375,-0.9658642578125,-0.0248486328124999,0.9924083407244548,5.48193359375,-3.16015625,-0.8115234375,29.47117647058824,323.39400706400687
0.19001318359375,-0.9370556640625,0.0093310546875,0.9561722627605478,5.6083984375,-2.84130859375,-0.556640625,29.51823529411765,323.39400706400687
0.15729833984375,-0.9604931640625,0.0029833984375,0.973292754824893,5.6240234375,-2.46728515625,-0.11767578125,29.47117647058824,323.39400706400687
0.17389990234375,-0.9526806640625,-0.0018994140624999,0.9684240969159702,5.49267578125,-2.73974609375,0.5966796875,29.47117647058824,323.5005373226928
0.19245458984375,-0.9492626953125,0.0078662109375,0.9686074081579138,5.34033203125,-3.0244140625,0.7568359375,29.47117647058824,323.5005373226928
0.24225927734375,-0.9648876953125,0.0620654296875,0.9967697525441256,5.39306640625,-3.7041015625,0.75,29.51823529411765,323.5005373226928
0.2676499023437499,-0.9766064453125,0.0327685546875,1.013148753849524,5.357421875,-4.15087890625,0.41748046875,29.51823529411765,323.5005373226928
0.2554428710937499,-0.9849072265625,-0.0653759765624999,1.0195917436107231,5.41162109375,-4.67236328125,0.0400390625,29.51823529411765,323.5005373226928
0.2666733398437499,-1.0044384765625,0.0801318359375,1.0423206965772729,5.67138671875,-4.8603515625,-0.44091796875,29.424117647058825,323.5005373226928
0.2720444335937499,-1.0308056640625,0.1123583984375,1.0720041513968666,5.90869140625,-4.51904296875,-0.86865234375,29.424117647058825,323.5005373226928
0.2666733398437499,-1.0425244140625,0.1348193359375,1.0845036087733446,6.45458984375,-4.1328125,-1.18212890625,29.424117647058825,323.5005373226928
0.2500717773437499,-1.0522900390625,0.1274951171875,1.089084581215194,6.82568359375,-3.751953125,-1.23388671875,29.47117647058824,323.5005373226928
0.2813217773437499,-1.0630322265625,0.1323779296875,1.107566419401844,7.16162109375,-3.59375,-1.10400390625,29.424117647058825,323.0683645539105
0.2925522460937499,-1.0581494140625,0.1274951171875,1.1052248658449395,7.32763671875,-3.8544921875,-0.7744140625,29.47117647058824,323.0683645539105
0.2808334960937499,-1.0527783203125,0.1196826171875,1.0961448686670463,7.333984375,-4.2548828125,-0.49755859375,29.56529411764706,323.0683645539105
0.3111069335937499,-1.0391064453125,0.1206591796875,1.0913699494043922,7.322265625,-5.17041015625,-0.24462890625,29.47117647058824,323.0683645539105
0.3277084960937499,-1.0337353515625,0.1245654296875,1.091566847130905,7.1787109375,-6.32177734375,0.0478515625,29.33,323.0683645539105
0.3306381835937499,-1.0264111328125,0.1480029296875,1.0884605133892993,7.0390625,-7.1298828125,-0.0166015625,29.47117647058824,323.0683645539105
0.3369858398437499,-1.0278759765625,0.1812060546875,1.0967789721292618,6.85693359375,-8.01171875,-0.232421875,29.51823529411765,323.0683645539105
0.3306381835937499,-1.0503369140625,0.2212451171875,1.1231556630190762,6.69970703125,-8.4384765625,-0.5947265625,29.377058823529413,323.0683645539105
0.3047592773437499,-1.0557080078125,0.2593310546875,1.1290040791829998,6.5380859375,-8.3125,-1.02734375,29.47117647058824,323.0683645539105
0.2749741210937499,-1.0615673828125,0.3081591796875,1.139077765364742,6.47412109375,-7.7255859375,-1.32373046875,29.424117647058825,323.0495592301891
0.2656967773437499,-1.0850048828125,0.3325732421875,1.1655193411681022,6.4912109375,-6.4599609375,-1.60400390625,29.51823529411765,323.0495592301891
0.2715561523437499,-1.1060009765625,0.3525927734375,1.1921839488574293,6.3935546875,-5.236328125,-1.90625,29.377058823529413,323.0495592301891
0.21540380859375,-1.1177197265625,0.3628466796875,1.194719172384827,6.18408203125,-4.2158203125,-2.60498046875,29.47117647058824,323.0495592301891
0.3911850585937499,-1.1133251953125,0.3467333984375,1.229936091907474,5.66845703125,-3.50732421875,-3.19873046875,29.61235294117647,323.0495592301891
0.4268295898437499,-1.0972119140625,0.3189013671875,1.2197358587501377,5.11328125,-2.91015625,-3.5908203125,29.424117647058825,323.0495592301891
0.58210302734375,-1.0537548828125,0.3491748046875,1.2534617392335907,4.646484375,-2.345703125,-3.60693359375,29.51823529411765,323.0495592301891
0.4849350585937499,-0.9990673828125,0.3784716796875,1.1732597575893495,4.6455078125,-2.40869140625,-3.40673828125,29.51823529411765,323.3315386484604
0.4663803710937499,-0.9829541015625,0.3555224609375,1.1445984608373112,4.59814453125,-2.06884765625,-3.037109375,29.51823529411765,323.3315386484604
0.4737045898437499,-0.9565869140625,0.3731005859375,1.1307778781978175,4.40966796875,-1.85302734375,-2.72412109375,29.47117647058824,323.3315386484604
0.50788427734375,-0.9131298828125,0.3613818359375,1.1055991377545984,4.20068359375,-1.69970703125,-2.79443359375,29.47117647058824,323.3315386484604
0.52741552734375,-0.8804150390625,0.3784716796875,1.0938640645967792,3.91943359375,-1.73046875,-3.01708984375,29.424117647058825,323.3315386484604
0.54645849609375,-0.8423291015625,0.4058154296875,1.082968774371903,3.78955078125,-1.83984375,-3.5078125,29.424117647058825,323.3315386484604
0.55720068359375,-0.8398876953125,0.3164599609375,1.056423612672137,3.64697265625,-1.865234375,-4.16455078125,29.47117647058824,323.3315386484604
0.55134130859375,-0.8149853515625,0.4683154296875,1.0897236821812712,3.619140625,-1.73876953125,-4.4130859375,29.47117647058824,323.3315386484604
0.54206396484375,-0.7959423828125,0.4966357421875,1.0835149648978069,3.77734375,-1.10107421875,-4.47998046875,29.47117647058824,323.6742290173597
0.56013037109375,-0.7939892578125,0.5186083984375001,1.101417107672282,3.81591796875,-0.19384765625,-4.4833984375,29.28294117647059,323.6742290173597
0.57624365234375,-0.8003369140625,0.5435107421875001,1.126054994105864,3.99462890625,0.62255859375,-4.3388671875,29.47117647058824,323.6742290173597
0.54352880859375,-0.8091259765625,0.6733935546875001,1.1847224532413605,4.2939453125,1.4111328125,-3.89453125,29.47117647058824,323.6742290173597
0.4966538085937499,-0.8066845703125,0.5220263671875001,1.0816267977495373,4.55126953125,2.48583984375,-3.3623046875,29.424117647058825,323.6742290173597
0.4424545898437499,-0.7983837890625,0.4805224609375,1.031544751417517,4.6494140625,3.36865234375,-2.56494140625,29.47117647058824,323.6742290173597
0.4400131835937499,-0.7754345703125,0.4531787109375,1.0001406494183769,4.93017578125,3.76708984375,-2.15576171875,29.33,323.6742290173597
0.4761459960937499,-0.7373486328125,0.4336474609375,0.9790036446735594,5.01806640625,3.32861328125,-1.88623046875,29.47117647058824,323.6742290173597
0.4907944335937499,-0.7056103515625,0.4170458984375,0.9553493736232344,5.17578125,2.6884765625,-1.77392578125,29.51823529411765,323.6742290173597
0.51227880859375,-0.6660595703125,0.4077685546875,0.9339915005668076,5.1767578125,1.9130859375,-1.85986328125,29.424117647058825,323.4174777734953
0.53669287109375,-0.6406689453125,0.4116748046875,0.9316501919632576,5.1171875,1.31982421875,-2.0576171875,29.56529411764706,323.4174777734953
0.55085302734375,-0.6318798828125,0.4248583984375,0.9397956707496532,5.0791015625,0.91748046875,-2.2626953125,29.424117647058825,323.4174777734953
0.55817724609375,-0.6265087890625,0.4360888671875,0.9456471862773346,5.115234375,0.63720703125,-2.671875,29.424117647058825,323.4174777734953
0.56403662109375,-0.5986767578125,0.4673388671875,0.9460215573991098,4.93896484375,0.41162109375,-2.9091796875,29.424117647058825,323.4174777734953
0.58942724609375,-0.5825634765625,0.4878466796875,0.9616647365607032,4.9345703125,0.25244140625,-3.24755859375,29.424117647058825,323.4174777734953
0.61432958984375,-0.5776806640625,0.5137255859375001,0.9874359585492664,4.98974609375,0.1640625,-3.5048828125,29.424117647058825,323.4174777734953
0.61628271484375,-0.5879345703125,0.5171435546875001,0.9964481420217262,5.05322265625,0.13916015625,-3.9931640625,29.47117647058824,323.4174777734953
0.61188818359375,-0.6084423828125,0.5259326171875001,1.0105515327017742,4.96435546875,0.38330078125,-4.30908203125,29.424117647058825,323.4174777734953
0.61188818359375,-0.6279736328125,0.5166552734375001,1.017688903496626,4.8056640625,0.63720703125,-4.5341796875,29.47117647058824,323.27970434818
0.62458349609375,-0.6260205078125,0.5288623046875001,1.030389031926236,4.69189453125,0.98388671875,-4.64404296875,29.56529411764706,323.27970434818
0.63923193359375,-0.5840283203125,0.5366748046875001,1.0186885637128802,4.56201171875,1.16796875,-4.76025390625,29.51823529411765,323.27970434818
0.66266943359375,-0.5698681640625,0.5288623046875001,1.0215555980712945,4.27197265625,1.4306640625,-5.0986328125,29.377058823529413,323.27970434818
0.67389990234375,-0.5347119140625,0.5298388671875001,1.010340108380258,4.0078125,1.78662109375,-5.4169921875,29.47117647058824,323.27970434818
0.69245458984375,-0.5547314453125,0.5376513671875001,1.0374436505433726,3.76904296875,2.35009765625,-5.9287109375,29.47117647058824,323.27970434818
0.68366552734375,-0.5615673828125,0.5425341796875001,1.037834194294193,3.56787109375,2.5205078125,-6.27734375,29.424117647058825,323.27970434818
0.66413427734375,-0.5527783203125,0.5483935546875001,1.0234127713553345,3.47509765625,2.7978515625,-6.294921875,29.424117647058825,323.49347873486107
0.64020849609375,-0.5601025390625,0.5581591796875001,1.0174101643901066,3.36474609375,2.9404296875,-6.26220703125,29.424117647058825,323.49347873486107
0.64704443359375,-0.5840283203125,0.5898974609375001,1.052489711299928,3.39453125,2.95361328125,-6.24267578125,29.47117647058824,323.49347873486107
0.66022802734375,-0.5835400390625,0.6416552734375001,1.0900190435076975,3.48095703125,3.12109375,-6.24951171875,29.377058823529413,323.49347873486107
0.70661474609375,-0.5581494140625,0.6475146484375001,1.109103416168477,3.5654296875,2.9599609375,-6.23779296875,29.47117647058824,323.49347873486107
0.72516943359375,-0.5420361328125,0.6724169921875001,1.1277493019618745,3.55126953125,2.84765625,-6.2021484375,29.377058823529413,323.49347873486107
0.73737646484375,-0.5210400390625,0.7090380859375001,1.1480164548130969,3.52294921875,2.7490234375,-6.05712890625,29.51823529411765,323.49347873486107
0.73493505859375,-0.4785595703125,0.7070849609375001,1.1265513502152795,3.54248046875,2.66259765625,-6.28369140625,29.47117647058824,323.49347873486107
0.72516943359375,-0.4746533203125,0.7056201171875001,1.1176163168467352,3.40234375,2.77734375,-6.43994140625,29.377058823529413,323.57620692652176
0.69050146484375,-0.4756298828125,0.6997607421875001,1.0920994252733576,3.13720703125,2.79833984375,-6.34521484375,29.47117647058824,323.57620692652176
0.67292333984375,-0.4814892578125,0.7105029296875001,1.0906292402965454,2.8515625,2.63720703125,-6.20556640625,29.424117647058825,323.57620692652176
0.63386083984375,-0.4712353515625,0.7119677734375001,1.0633627938117869,2.59521484375,2.49658203125,-5.7646484375,29.424117647058825,323.57620692652176
0.61481787109375,-0.4629345703125,0.7354052734375001,1.064485954442967,2.42138671875,2.18212890625,-5.404296875,29.47117647058824,323.57620692652176
0.63972021484375,-0.4375439453125,0.7456591796875001,1.0754972197135595,2.33447265625,2.0966796875,-5.16552734375,29.51823529411765,323.57620692652176
0.66608740234375,-0.4028759765625,0.7651904296875001,1.0915575448585264,2.35693359375,2.1181640625,-4.92529296875,29.51823529411765,323.57620692652176
0.69294287109375,-0.3638134765625,0.7783740234375001,1.1038098516911434,2.39208984375,1.912109375,-4.71875,29.424117647058825,323.57620692652176
0.70905615234375,-0.3144970703125,0.7954638671875001,1.1110498631531176,2.45166015625,1.859375,-4.5322265625,29.424117647058825,323.4284881439942
0.71931005859375,-0.2866650390625,0.8052294921875001,1.117129509100618,2.53662109375,1.8173828125,-4.4453125,29.47117647058824,323.4284881439942
0.72028662109375,-0.2515087890625,0.7935107421875001,1.1007855310955417,2.58154296875,1.8720703125,-4.416015625,29.56529411764706,323.4284881439942
0.72468115234375,-0.2212353515625,0.8169482421875001,1.114231701109107,2.72314453125,1.958984375,-4.46728515625,29.51823529411765,323.4284881439942
0.73054052734375,-0.1919384765625,0.8203662109375001,1.1151370144178556,2.94140625,1.91845703125,-4.4677734375,29.424117647058825,323.4284881439942
0.70173193359375,-0.1743603515625,0.8389208984375001,1.1075276577392568,3.208984375,2.01513671875,-4.40283203125,29.51823529411765,323.4284881439942
0.68854833984375,-0.1719189453125,0.8267138671875001,1.0895461248882756,3.552734375,2.10595703125,-4.36572265625,29.47117647058824,323.4284881439942
0.68220068359375,-0.1782666015625,0.8320849609375001,1.090661329720085,3.91162109375,2.1953125,-4.11572265625,29.51823529411765,323.4284881439942
0.68073583984375,-0.1714306640625,0.8252490234375001,1.083432373022531,4.34326171875,2.0537109375,-3.998046875,29.47117647058824,323.1067567445505
0.69098974609375,-0.1435986328125,0.8115771484375001,1.0755207410451313,4.578125,1.87451171875,-3.5029296875,29.56529411764706,323.1067567445505
0.68952490234375,-0.1255322265625,0.8022998046875001,1.06531117869827,4.8291015625,1.46240234375,-3.25537109375,29.424117647058825,323.1067567445505
0.67682958984375,-0.1103955078125,0.7607958984375001,1.0242538068821423,5.068359375,1.16357421875,-3.19970703125,29.61235294117647,323.1067567445505
0.67145849609375,-0.1001416015625,0.7344287109375001,1.0001351827574616,5.1591796875,0.55419921875,-3.25537109375,29.51823529411765,323.1067567445505
0.68317724609375,-0.1040478515625,0.7339404296875001,1.0080801849678849,5.1533203125,-0.234375,-3.3173828125,29.47117647058824,323.1067567445505
0.68415380859375,-0.2329541015625,0.7363818359375001,1.0317908002821157,5.14892578125,-0.69775390625,-3.4599609375,29.424117647058825,323.1067567445505
0.69782568359375,-0.1060009765625,0.7437060546875001,1.0253270636699956,5.2353515625,-0.90380859375,-3.41943359375,29.424117647058825,323.1067567445505
0.72516943359375,-0.0845166015625,0.7388232421875001,1.0386883779819642,5.2470703125,-0.93115234375,-3.19189453125,29.47117647058824,323.3986738471844
0.71979833984375,-0.0781689453125,0.7139208984375001,1.0168102493970517,5.2392578125,-0.8349609375,-2.88720703125,29.56529411764706,323.3986738471844
0.67878271484375,-0.0835400390625,0.7046435546875001,0.9819610232895456,5.10791015625,-0.5791015625,-2.5068359375,29.424117647058825,323.3986738471844
0.64020849609375,-0.0776806640625,0.6958544921875001,0.9487437369159998,4.89794921875,-0.36083984375,-2.021484375,29.377058823529413,323.3986738471844
0.63141943359375,-0.0815869140625,0.7080615234375001,0.9522069347776918,4.7060546875,-0.55078125,-1.65869140625,29.61235294117647,323.3986738471844
0.62311865234375,-0.0810986328125,0.7363818359375001,0.9680454800480351,4.54931640625,-1.06201171875,-1.26806640625,29.47117647058824,323.3986738471844
0.59968115234375,-0.0830517578125,0.7402880859375001,0.9563166468973974,4.47021484375,-1.80615234375,-0.87744140625,29.51823529411765,323.3986738471844
0.60212255859375,-0.0869580078125,0.7686083984375001,0.9802408585846956,4.56005859375,-2.13720703125,-0.56689453125,29.47117647058824,323.3986738471844
0.60114599609375,-0.1020947265625,0.7852099609375001,0.994160210713992,4.67138671875,-2.32275390625,-0.39453125,29.47117647058824,323.3986738471844
0.60358740234375,0.0067919921875,0.7715380859375001,0.9796095658363349,4.69580078125,-2.029296875,-0.21240234375,29.424117647058825,323.16073560758934
0.62018896484375,-0.1152783203125,0.7817919921875001,1.0045507265920093,4.705078125,-1.72216796875,-0.0322265625,29.47117647058824,323.16073560758934
0.63679052734375,-0.1006298828125,0.7930224609375001,1.022014272200226,4.7822265625,-1.45166015625,0.22265625,29.56529411764706,323.16073560758934
0.67487646484375,-0.0884228515625,0.9248583984375,1.1483204694852474,4.90771484375,-1.4560546875,0.3876953125,29.47117647058824,323.16073560758934
0.74274755859375,-0.0527783203125,0.7847216796875001,1.081779830401527,4.9541015625,-1.58544921875,0.3798828125,29.47117647058824,323.16073560758934
0.78522802734375,-0.0239697265625,0.7778857421875001,1.1055604147292155,4.88232421875,-1.7099609375,0.14111328125,29.47117647058824,323.16073560758934
0.80524755859375,-0.0171337890625,0.7690966796875001,1.1136547490381254,4.7802734375,-1.81201171875,-0.24267578125,29.47117647058824,323.16073560758934
0.70905615234375,-0.0264111328125,0.7603076171875001,1.039964349324676,4.59228515625,-1.9970703125,-0.70654296875,29.424117647058825,323.16073560758934
0.85163427734375,-0.0200634765625,0.7749560546875001,1.15162510051466,4.4912109375,-2.29638671875,-1.205078125,29.47117647058824,323.16073560758934
0.85065771484375,-0.0215283203125,0.7896044921875001,1.1608433445049111,4.484375,-2.78857421875,-1.57763671875,29.51823529411765,323.4416430934453
0.87018896484375,-0.0195751953125,0.7852099609375001,1.1722485681641204,4.36767578125,-3.599609375,-1.6259765625,29.47117647058824,323.4416430934453
0.81208349609375,-0.0005322265624999,0.6772998046875001,1.057456813927967,4.25390625,-3.8955078125,-1.3115234375,29.47117647058824,323.4416430934453
0.74665380859375,0.0233935546875,0.8223193359375001,1.110967262589299,4.46923828125,-4.2568359375,-0.68798828125,29.424117647058825,323.4416430934453
0.69636083984375,0.0551318359375,0.8340380859375001,1.0879234657805763,4.42822265625,-4.2236328125,0.0654296875,29.424117647058825,323.4416430934453
0.68513037109375,0.0736865234375,0.8408740234375001,1.0871533711594397,4.3701171875,-3.841796875,0.47705078125,29.47117647058824,323.4416430934453
0.71638037109375,0.0893115234375,0.8672412109375001,1.128399176823294,4.18212890625,-3.5205078125,0.287109375,29.33,323.4416430934453
0.78766943359375,0.0922412109375,0.8457568359375001,1.1594120075055834,4.1484375,-3.46826171875,-0.23486328125,29.56529411764706,323.4416430934453
0.89118505859375,0.0995654296875,0.9233935546875,1.287159562870128,3.95849609375,-3.52294921875,-1.0380859375,29.47117647058824,323.4405705897749
0.95710302734375,0.1239794921875,0.7476123046875001,1.220795346302482,3.77734375,-3.2705078125,-1.7294921875,29.47117647058824,323.4405705897749
1.05720068359375,0.1205615234375,0.7056201171875001,1.2767568743125546,3.46826171875,-2.87060546875,-2.58349609375,29.424117647058825,323.4405705897749
1.10847021484375,0.1254443359375,0.6631396484375001,1.297766038985595,3.24365234375,-2.21826171875,-2.87841796875,29.424117647058825,323.4405705897749
1.10993505859375,0.1347216796875,0.6279833984375001,1.2823684782411195,2.6416015625,-1.52294921875,-3.1015625,29.51823529411765,323.4405705897749
1.20514990234375,0.1337451171875,0.6152880859375001,1.35972551354576,2.22509765625,-1.02001953125,-2.6728515625,29.424117647058825,323.4405705897749
1.01569677734375,0.1249560546875,0.6260302734375001,1.1996532258822863,1.58837890625,-0.54833984375,-2.34521484375,29.56529411764706,323.4405705897749
1.07233740234375,0.1088427734375,0.6387255859375001,1.2528865183751126,1.015625,-0.21435546875,-1.9951171875,29.47117647058824,323.4405705897749
0.89069677734375,0.0917529296875,0.6455615234375001,1.1038609648953652,0.44580078125,-0.05615234375,-1.6259765625,29.424117647058825,323.22679860656734
0.86677099609375,0.0810107421875,0.6484912109375001,1.0855392902526864,-0.0712890625,0.04345703125,-1.5576171875,29.424117647058825,323.22679860656734
0.85163427734375,0.0912646484375,0.6504443359375001,1.0754943107959276,-0.572265625,0.12109375,-1.6904296875,29.51823529411765,323.22679860656734
0.87604833984375,0.0771044921875,0.6440966796875001,1.090076295147704,-0.876953125,0.2197265625,-1.99267578125,29.47117647058824,323.22679860656734
0.88532568359375,0.1010302734375,0.6260302734375001,1.0890007279344802,-1.46728515625,0.23779296875,-2.26953125,29.51823529411765,323.22679860656734
0.93073583984375,0.1122607421875,0.6016162109375001,1.1139181940649563,-1.9375,-0.32568359375,-2.5185546875,29.56529411764706,323.22679860656734
0.98884130859375,0.1273974609375,0.6094287109375001,1.168520688883883,-2.26025390625,-0.87841796875,-2.7705078125,29.47117647058824,323.22679860656734
1.02302099609375,0.1425341796875,0.6079638671875001,1.198544122939751,-2.634765625,-1.79833984375,-2.88134765625,29.424117647058825,323.22679860656734
1.02057958984375,0.1879443359375,0.6094287109375001,1.2034571560016452,-2.90380859375,-2.212890625,-2.439453125,29.424117647058825,323.22679860656734
1.08210302734375,0.2314013671875,0.6294482421875001,1.273066629880654,-2.8583984375,-2.04931640625,-1.8466796875,29.424117647058825,323.49347873486107
0.91169287109375,0.2699755859375,0.6353076171875001,1.1435412002468126,-2.86572265625,-1.73486328125,-0.95361328125,29.424117647058825,323.49347873486107
0.87116552734375,0.3173388671875,0.6431201171875001,1.128377958749294,-3.009765625,-1.26220703125,-0.361328125,29.51823529411765,323.49347873486107
0.92243505859375,0.3339404296875,0.6631396484375001,1.184127037624147,-3.10205078125,-1.2451171875,-0.529296875,29.424117647058825,323.49347873486107
0.94050146484375,0.3393115234375,0.6401904296875001,1.187231696668423,-3.21923828125,-1.099609375,-1.49560546875,29.424117647058825,323.49347873486107
0.97858740234375,0.3412646484375,0.6440966796875001,1.220227600525214,-3.2705078125,-1.529296875,-2.28466796875,29.56529411764706,323.49347873486107
0.97956396484375,0.3725146484375,0.6387255859375001,1.22730725519412,-3.2314453125,-2.724609375,-2.58642578125,29.377058823529413,323.49347873486107
0.99177099609375,0.3720263671875,0.6582568359375001,1.2471228442434876,-3.06591796875,-3.91845703125,-2.60400390625,29.424117647058825,323.4945506613684
1.01032568359375,0.3822802734375,0.6807177734375001,1.2768213976364648,-2.82373046875,-5.166015625,-2.4775390625,29.56529411764706,323.4945506613684
1.04255224609375,0.3666552734375,0.6948779296875001,1.3054526466101468,-2.580078125,-6.27734375,-2.2890625,29.51823529411765,323.4945506613684
1.03718115234375,0.3559130859375,0.6919482421875001,1.296615300459251,-2.5029296875,-7.162109375,-2.15966796875,29.47117647058824,323.4945506613684
1.02253271484375,0.3314990234375,0.6660693359375001,1.2645604436886233,-2.640625,-7.228515625,-2.13671875,29.424117647058825,323.4945506613684
1.02204443359375,0.3305224609375,0.6655810546875001,1.2636526665912098,-2.9365234375,-6.97412109375,-2.13330078125,29.377058823529413,323.4945506613684
1.01813818359375,0.3339404296875,0.6484912109375001,1.2524625432062382,-3.3046875,-6.599609375,-2.2001953125,29.51823529411765,323.4945506613684
1.00788427734375,0.3202685546875,0.6372607421875001,1.2347080291193204,-3.7275390625,-6.3671875,-2.28955078125,29.47117647058824,323.4945506613684
1.02643896484375,0.3139208984375,0.6284716796875001,1.2438247188388498,-4.123046875,-5.9052734375,-2.37939453125,29.424117647058825,323.4945506613684
1.01716162109375,0.3197802734375,0.6060107421875001,1.2264282312277683,-4.27880859375,-5.509765625,-2.32568359375,29.47117647058824,323.0307572057615
1.03815771484375,0.2865771484375,0.5649951171875001,1.216189699570705,-4.36962890625,-5.1650390625,-2.33935546875,29.51823529411765,323.0307572057615
1.04450537109375,0.2382373046875,0.5410693359375001,1.200210194041154,-4.3505859375,-4.99951171875,-2.29736328125,29.33,323.0307572057615
1.06891943359375,0.1772021484375,0.4937060546875,1.190686787262018,-4.27978515625,-4.72119140625,-2.3671875,29.424117647058825,323.0307572057615
1.06745458984375,0.1230029296875,0.4663623046875,1.171359390333997,-4.18505859375,-4.4453125,-2.08056640625,29.424117647058825,323.0307572057615
1.08503271484375,0.0805224609375,0.4414599609375,1.1741664090356057,-4.09130859375,-4.5693359375,-1.82958984375,29.424117647058825,323.0307572057615
1.06501318359375,0.0277880859375,0.4150927734375,1.1433841303379193,-4.19873046875,-4.7451171875,-1.2578125,29.51823529411765,323.0307572057615
1.04743505859375,0.0302294921875,0.4233935546875,1.1301752635410685,-4.15966796875,-5.02978515625,-0.609375,29.424117647058825,323.0307572057615
1.04889990234375,0.0106982421875,0.4219287109375,1.1306322543762897,-4.00634765625,-5.7353515625,0.1953125,29.377058823529413,323.0307572057615
1.01569677734375,0.0023974609375,0.4141162109375,1.0968764413035126,-3.94677734375,-6.2978515625,0.875,29.51823529411765,323.6454814611592
1.03083349609375,0.0087451171875,0.4209521484375,1.1135056735453277,-3.8642578125,-6.56103515625,1.3291015625,29.424117647058825,323.6454814611592
1.07380224609375,0.0146044921875,0.3027880859375,1.1157711144736326,-3.83642578125,-6.53759765625,1.2763671875,29.47117647058824,323.6454814611592
1.06306005859375,0.0497607421875,0.5444873046875001,1.195424294803421,-3.890625,-6.22998046875,1.00244140625,29.424117647058825,323.6454814611592
1.10114599609375,0.0565966796875,0.4214404296875,1.1803972740734925,-3.9951171875,-5.431640625,0.45703125,29.47117647058824,323.6454814611592
1.11237646484375,0.0673388671875,0.4517138671875,1.2024813264171137,-3.95458984375,-4.83544921875,-0.29833984375,29.47117647058824,323.6454814611592
1.08600927734375,0.0971240234375,0.4434130859375,1.1770575139669257,-3.74072265625,-4.3603515625,-0.50439453125,29.47117647058824,323.6454814611592
1.07526708984375,0.0966357421875,0.4541552734375,1.1712364379408056,-3.6103515625,-4.2158203125,-0.58642578125,29.51823529411765,323.6454814611592
1.04548193359375,0.0917529296875,0.4429248046875,1.1391371542464173,-3.12744140625,-4.0234375,-0.39697265625,29.56529411764706,323.6124501044139
1.00690771484375,0.1269091796875,0.4443896484375,1.1079039875996572,-2.83544921875,-3.71484375,0.07177734375,29.51823529411765,323.6124501044139
0.97761083984375,0.1234912109375,0.4229052734375,1.072297488414507,-2.7158203125,-3.29638671875,0.46142578125,29.51823529411765,323.6124501044139
0.97565771484375,0.1215380859375,0.4307177734375,1.0734045291605756,-2.65869140625,-2.99658203125,0.4619140625,29.51823529411765,323.6124501044139
0.98688818359375,0.1264208984375,0.4199755859375,1.0799583432995286,-2.72900390625,-2.80078125,0.24169921875,29.47117647058824,323.6124501044139
1.07868505859375,0.1088427734375,0.3828662109375,1.1497803009447531,-2.9208984375,-2.646484375,-0.55126953125,29.424117647058825,323.6124501044139
1.08845068359375,0.0404833984375,0.3530810546875,1.1450021953446152,-3.2021484375,-2.37744140625,-1.4248046875,29.424117647058825,323.6124501044139
1.06989599609375,0.0390185546875,0.3403857421875,1.1234154812676715,-3.37109375,-2.27392578125,-1.798828125,29.47117647058824,323.6124501044139
1.04987646484375,0.0854052734375,0.3062060546875,1.0969488593781518,-3.400390625,-2.0634765625,-1.31884765625,29.47117647058824,323.66643085197137
1.05329443359375,0.0673388671875,0.1777880859375,1.0703141082761614,-3.34912109375,-2.05029296875,-0.5693359375,29.47117647058824,323.66643085197137
1.03522802734375,0.0561083984375,0.2852099609375,1.0752627319828505,-3.29296875,-2.087890625,0.63525390625,29.424117647058825,323.66643085197137
1.00641943359375,0.0458544921875,0.2808154296875,1.0458680683143131,-3.22509765625,-2.15478515625,1.83544921875,29.51823529411765,323.66643085197137
1.06403662109375,0.0380419921875,0.2632373046875,1.09677481862839,-3.17822265625,-2.5458984375,2.33642578125,29.47117647058824,323.66643085197137
1.11481787109375,0.0072802734375,0.2690966796875,1.1468587145373064,-3.279296875,-3.2255859375,2.0791015625,29.51823529411765,323.66643085197137
1.13386083984375,0.0463427734375,0.2554248046875,1.1631981291382396,-3.34326171875,-3.94970703125,1.732421875,29.424117647058825,323.66643085197137
1.10065771484375,0.0526904296875,0.2690966796875,1.1343000968194246,-3.34033203125,-4.2646484375,1.12353515625,29.377058823529413,323.66643085197137
1.09968115234375,0.0424365234375,0.2773974609375,1.13492239676381,-3.37158203125,-4.73974609375,0.455078125,29.51823529411765,323.66643085197137
1.06257177734375,0.0448779296875,0.2930224609375,1.10314775673722,-3.1015625,-4.9033203125,0.33740234375,29.51823529411765,323.3855184997156
1.04645849609375,0.0380419921875,0.3062060546875,1.0910017072139122,-2.97509765625,-5.0087890625,0.53173828125,29.51823529411765,323.3855184997156
1.07184912109375,0.0482958984375,0.3062060546875,1.115775595773009,-2.97119140625,-5.25146484375,0.94921875,29.47117647058824,323.3855184997156
1.10212255859375,0.0561083984375,0.2910693359375,1.1412903420512908,-3.193359375,-5.33056640625,1.30078125,29.56529411764706,323.3855184997156
1.15583349609375,0.0351123046875,0.2876513671875,1.1916070047115397,-3.38623046875,-4.8935546875,1.294921875,29.51823529411765,323.3855184997156
1.14655615234375,0.0399951171875,0.3042529296875,1.18691215559517,-3.39306640625,-4.0146484375,1.2578125,29.51823529411765,323.3855184997156
1.14460302734375,0.0565966796875,0.3071826171875,1.186457093475482,-3.38330078125,-3.03515625,1.30224609375,29.47117647058824,323.3855184997156
1.16462255859375,0.0634326171875,0.4219287109375,1.240319812799138,-3.39990234375,-2.35400390625,1.267578125,29.424117647058825,323.3855184997156
1.19098974609375,0.0751513671875,0.2827685546875,1.226402201078693,-3.40478515625,-1.46923828125,1.18212890625,29.47117647058824,323.3855184997156
1.18024755859375,0.1107958984375,0.2734912109375,1.2165761271441833,-3.21435546875,-0.36669921875,1.232421875,29.47117647058824,323.5133567911651
1.18122412109375,0.1483935546875,0.2515185546875,1.216787842920278,-3.0263671875,0.71337890625,1.25341796875,29.47117647058824,323.5133567911651
1.19831396484375,0.1537646484375,0.2236865234375,1.22867228593153,-2.97900390625,1.69580078125,1.4169921875,29.47117647058824,323.5133567911651
1.24860693359375,0.2616748046875,0.2036669921875,1.2918874648100471,-2.96875,2.48095703125,1.173828125,29.56529411764706,323.5133567911651
1.27790380859375,0.1376513671875,0.1939013671875,1.2998399067208937,-2.88671875,2.9931640625,0.7841796875,29.424117647058825,323.5133567911651
1.29841162109375,0.1298388671875,0.1890185546875,1.3185063076223733,-2.86767578125,3.34326171875,0.25732421875,29.51823529411765,323.5133567911651
1.45661474609375,0.1278857421875,0.1753466796875,1.4726940414322447,-2.8525390625,3.38916015625,-0.23046875,29.47117647058824,323.5133567911651
1.33747412109375,0.1122607421875,0.1802294921875,1.354223825180369,-2.80712890625,3.24365234375,-0.69873046875,29.47117647058824,323.5133567911651
1.32282568359375,0.1103076171875,0.1973193359375,1.3420024142749043,-2.73291015625,2.734375,-0.982421875,29.424117647058825,323.5133567911651
1.30573583984375,0.0956591796875,0.1831591796875,1.3219848891779158,-2.6552734375,2.064453125,-1.140625,29.51823529411765,323.5584695344079
1.25788427734375,0.0678271484375,0.1914599609375,1.2741782818334175,-2.64404296875,1.724609375,-1.154296875,29.424117647058825,323.5584695344079
1.21638037109375,0.0409716796875,0.2061083984375,1.2343988648832496,-2.638671875,1.62158203125,-1.0771484375,29.51823529411765,323.5584695344079
1.17292333984375,0.0146044921875,0.2163623046875,1.192801366209797,-2.5986328125,1.40478515625,-0.92822265625,29.47117647058824,323.5584695344079
1.14167333984375,-0.0010205078125,0.2266162109375,1.1639475776021218,-2.5107421875,1.48828125,-0.7998046875,29.51823529411765,323.5584695344079
1.11628271484375,-0.0039501953125,0.2407763671875,1.141961454033344,-2.42822265625,1.78125,-0.7236328125,29.51823529411765,323.5584695344079
1.09626318359375,-0.0122509765625,0.2451708984375,1.1234107991160178,-2.3505859375,2.15576171875,-0.6337890625,29.47117647058824,323.5584695344079
1.09528662109375,0.0019091796875,0.2549365234375,1.124566164481415,-2.21875,2.97119140625,-0.9462890625,29.424117647058825,323.5584695344079
1.10749365234375,0.0072802734375,0.2695849609375,1.139855799444253,-2.05712890625,3.5859375,-1.31884765625,29.47117647058824,323.5584695344079
1.11384130859375,0.0077685546875,0.2900927734375,1.1510241649819657,-1.98681640625,3.86865234375,-1.5068359375,29.47117647058824,323.6752993354057
1.13141943359375,-0.0107861328125,0.2925341796875,1.1686755416539227,-1.65234375,3.81494140625,-1.916015625,29.51823529411765,323.6752993354057
1.12409521484375,-0.0127392578125,0.3032763671875,1.164357718065491,-1.48681640625,3.53173828125,-2.0703125,29.51823529411765,323.6752993354057
1.12018896484375,-0.0244580078125,0.3135302734375,1.1634959146751065,-1.37353515625,3.20556640625,-2.15380859375,29.424117647058825,323.6752993354057
1.10700537109375,-0.0361767578125,0.3125537109375,1.1508516288631812,-1.29833984375,2.99609375,-2.10888671875,29.61235294117647,323.6752993354057
1.09138037109375,-0.0542431640625,0.3389208984375,1.1440807710358238,-1.201171875,2.53369140625,-1.9345703125,29.47117647058824,323.6752993354057
1.07624365234375,-0.0566845703125,0.3560107421875,1.1350141797680864,-1.1484375,2.29248046875,-1.72509765625,29.47117647058824,323.6752993354057
1.05231787109375,-0.0605908203125,0.3726123046875,1.1179821460711947,-1.1005859375,2.25830078125,-1.3505859375,29.47117647058824,323.83724347767424
1.01667333984375,-0.0635205078125,0.3872607421875,1.0897845738041148,-1.0927734375,2.74169921875,-0.71484375,29.51823529411765,323.83724347767424
0.98054052734375,-0.0601025390625,0.4087451171875,1.064022843641029,-1.11572265625,3.49853515625,-0.15576171875,29.424117647058825,323.83724347767424
0.95124365234375,-0.0488720703125,0.4268115234375,1.04375334342935,-1.009765625,4.40234375,0.18896484375,29.424117647058825,323.83724347767424
0.95173193359375,-0.0356884765625,0.4316943359375,1.0456707610246971,-0.9130859375,5.5771484375,0.349609375,29.424117647058825,323.83724347767424
0.95173193359375,-0.0283642578125,0.4385302734375,1.048287653873936,-0.7509765625,6.41650390625,0.4443359375,29.51823529411765,323.83724347767424
0.92194677734375,-0.0088330078125,0.4277880859375,1.01639880398966,-0.509765625,7.39599609375,0.54345703125,29.47117647058824,323.83724347767424
0.92243505859375,0.0004443359375,0.4194873046875,1.0133391503101337,-0.16455078125,8.17919921875,0.53125,29.47117647058824,323.6699521693692
0.94538427734375,-0.0059033203125,0.3984912109375,1.0259539591199556,0.11279296875,8.65673828125,0.4365234375,29.47117647058824,323.6699521693692
0.92878271484375,-0.0195751953125,0.3804248046875,1.0038643093992192,0.3564453125,8.92333984375,0.365234375,29.51823529411765,323.6699521693692
0.91169287109375,-0.0332470703125,0.3721240234375,0.9852743514914222,0.580078125,8.8564453125,0.4423828125,29.424117647058825,323.6699521693692
0.86579443359375,-0.0576611328125,0.3608935546875,0.9397706982525698,0.830078125,8.638671875,0.72021484375,29.47117647058824,323.6699521693692
0.79352880859375,-0.0752392578125,0.3638232421875,0.876194195107578,1.08056640625,8.38623046875,1.2353515625,29.47117647058824,323.6699521693692
0.82819677734375,-0.0923291015625,0.3701708984375,0.9118448656695596,1.12744140625,8.2177734375,1.98583984375,29.424117647058825,323.6699521693692
0.62800146484375,-0.0977001953125,0.3843310546875,0.7427257418503835,1.3388671875,7.8642578125,2.599609375,29.51823529411765,323.4969976132691
0.55182958984375,-0.0957470703125,0.3862841796875,0.6803667137488378,1.2998046875,7.47119140625,2.935546875,29.424117647058825,323.4969976132691
0.54255224609375,-0.0703564453125,0.4146044921875,0.6864472697013505,1.20068359375,6.95849609375,2.736328125,29.51823529411765,323.4969976132691
0.56843115234375,-0.0439892578125,0.4326708984375,0.7157186151780961,0.9443359375,6.14892578125,1.77587890625,29.56529411764706,323.4969976132691
0.64167333984375,-0.0098095703125,0.4165576171875,0.7650889825195997,0.5771484375,5.53955078125,0.60205078125,29.51823529411765,323.4969976132691
0.67829443359375,0.0067919921875,0.4019091796875,0.7884544746015589,0.23486328125,4.576171875,-0.53955078125,29.51823529411765,323.4969976132691
0.71052099609375,0.0263232421875,0.3940966796875,0.8129238536972749,-0.35986328125,3.9765625,-1.38134765625,29.47117647058824,323.4969976132691
0.74665380859375,0.0541552734375,0.3940966796875,0.8460123500690487,-0.7001953125,3.3115234375,-1.7900390625,29.51823529411765,323.7107886449179
0.80768896484375,0.0941943359375,0.3706591796875,0.8936566814720771,-0.98681640625,2.74755859375,-1.9326171875,29.47117647058824,323.7107886449179
0.89753271484375,0.0941943359375,0.3535693359375,0.9692516816868484,-1.208984375,1.9365234375,-2.1259765625,29.51823529411765,323.7107886449179
0.98688818359375,0.0492724609375,0.3491748046875,1.0479976653372671,-1.232421875,1.4140625,-2.73828125,29.56529411764706,323.7107886449179
1.04499365234375,0.0375537109375,0.3594287109375,1.1057174199993869,-1.10791015625,1.12548828125,-3.02978515625,29.51823529411765,323.7107886449179
1.04206396484375,0.0390185546875,0.3887255859375,1.1128914302833994,-0.3115234375,0.92431640625,-2.42431640625,29.56529411764706,323.7107886449179
0.95173193359375,0.0761279296875,0.3042529296875,1.0020773325068428,0.2724609375,0.9052734375,-0.68896484375,29.424117647058825,323.7107886449179
0.81013037109375,0.1181201171875,0.4868701171875,0.9525261630333604,0.86767578125,0.990234375,1.65673828125,29.56529411764706,323.9565501387155
0.77741552734375,0.1127490234375,0.5703662109375001,0.9707753906133344,1.0185546875,0.923828125,2.97314453125,29.47117647058824,323.9565501387155
0.73493505859375,0.1156787109375,0.6436083984375001,0.9837392312262656,1.20654296875,1.462890625,2.81103515625,29.424117647058825,323.9565501387155
0.69880224609375,0.1283740234375,0.7056201171875001,1.001351196543402,1.3193359375,2.00390625,1.7177734375,29.56529411764706,323.9565501387155
0.68903662109375,0.1147021484375,0.7148974609375001,0.999503090400102,1.14404296875,2.93701171875,-0.1650390625,29.51823529411765,323.9565501387155
0.70661474609375,0.1073779296875,0.7437060546875001,1.0314713350161289,0.76123046875,3.080078125,-2.025390625,29.424117647058825,323.9565501387155
0.76081396484375,0.0795458984375,0.7676318359375001,1.0837084822978331,0.2978515625,2.44921875,-3.25537109375,29.51823529411765,323.9565501387155
0.80915380859375,0.0341357421875,0.7642138671875001,1.1135160392460166,-0.17236328125,1.76953125,-4.0732421875,29.47117647058824,323.9565501387155
0.83356787109375,-0.0010205078125,0.7593310546875001,1.1275726529890626,-0.521484375,1.57763671875,-4.0126953125,29.51823529411765,323.98070199862144
0.79694677734375,-0.0166455078125,0.7524951171875001,1.096198038786767,-0.92626953125,2.015625,-3.2890625,29.51823529411765,323.98070199862144
0.76276708984375,-0.0019970703125,0.7471240234375001,1.0677134110031468,-0.83984375,3.32421875,-2.19091796875,29.51823529411765,323.98070199862144
0.74714208984375,0.0141162109375,0.7427294921875001,1.0535974887937138,-0.44970703125,5.10546875,-0.853515625,29.56529411764706,323.98070199862144
0.74860693359375,0.0356005859375,0.7314990234375001,1.0472681433299431,0.0205078125,6.3173828125,0.4697265625,29.47117647058824,323.98070199862144
0.74274755859375,0.0517138671875,0.7109912109375001,1.0294934491714045,0.7578125,7.12646484375,1.29638671875,29.47117647058824,323.98070199862144
0.75348974609375,0.0609912109375,0.6787646484375001,1.01596662014484,1.42578125,7.25341796875,1.5654296875,29.47117647058824,323.98070199862144
0.77936865234375,0.0717333984375,0.6484912109375001,1.0164162667778842,1.85986328125,6.57373046875,1.36279296875,29.51823529411765,323.98070199862144
0.79987646484375,0.0639208984375,0.6113818359375001,1.0087992811170616,2.05517578125,4.896484375,0.4814453125,29.47117647058824,323.98070199862144
0.80573583984375,0.0707568359375,0.6064990234375001,1.0109687625595762,2.0263671875,2.75048828125,-0.54443359375,29.47117647058824,324.0037888177477
0.78132177734375,0.0727099609375,0.6045458984375001,0.9905686253302864,1.7861328125,0.462890625,-1.544921875,29.51823529411765,324.0037888177477
0.74470068359375,0.0771044921875,0.6421435546875001,0.9863430213101269,1.42822265625,-1.54296875,-2.0947265625,29.424117647058825,324.0037888177477
0.69343115234375,0.0800341796875,0.6904833984375001,0.981844975786316,1.05859375,-2.94775390625,-2.1728515625,29.424117647058825,324.0037888177477
0.64753271484375,0.0873583984375,0.7515185546875001,0.9958464965094124,0.77294921875,-3.56494140625,-1.896484375,29.51823529411765,324.0037888177477
0.63532568359375,0.1049365234375,0.8047412109375001,1.030659407741553,0.59619140625,-3.4267578125,-1.72802734375,29.377058823529413,324.0037888177477
0.62116552734375,0.1288623046875,0.8442919921875001,1.0560686881077153,0.515625,-2.32568359375,-1.45947265625,29.51823529411765,324.0037888177477
0.63727880859375,0.1610888671875,0.8613818359375001,1.0835370645702342,0.5791015625,-0.439453125,-1.6640625,29.424117647058825,324.0797920025562
0.65290380859375,0.1776904296875,0.8423388671875001,1.080459179818226,0.66552734375,1.3857421875,-2.068359375,29.47117647058824,324.0797920025562
0.64802099609375,0.1820849609375,0.8140185546875001,1.0562728585708685,0.73974609375,3.22509765625,-2.44873046875,29.424117647058825,324.0797920025562
0.62653662109375,0.1625537109375,0.7622607421875001,1.0000066427736187,0.71826171875,4.583984375,-2.630859375,29.51823529411765,324.0797920025562
0.63776708984375,0.1532763671875,0.7168505859375001,0.971655941259508,0.7646484375,5.06884765625,-2.58740234375,29.424117647058825,324.0797920025562
0.62556005859375,0.2563037109375,0.6558154296875001,0.9418656257472984,0.73193359375,4.92919921875,-2.2978515625,29.56529411764706,324.0797920025562
0.62263037109375,0.1181201171875,0.5928271484375001,0.867793160273384,0.58251953125,4.23681640625,-1.90625,29.47117647058824,324.0797920025562
0.66559912109375,0.1190966796875,0.5757373046875001,0.8880763779778104,0.423828125,2.57421875,-1.65869140625,29.47117647058824,324.0797920025562
0.69733740234375,0.1342333984375,0.5786669921875001,0.9160532439825416,0.341796875,0.5634765625,-1.6484375,29.424117647058825,323.8351040925989
0.58454443359375,0.1562060546875,0.5845263671875001,0.8412868715865524,0.21875,-1.53125,-1.7470703125,29.424117647058825,323.8351040925989
0.69294287109375,0.1762255859375,0.6372607421875001,0.9577716498581632,0.09130859375,-3.63623046875,-1.474609375,29.47117647058824,323.8351040925989
0.66511083984375,0.1957568359375,0.6646044921875001,0.960412567144831,0.12255859375,-5.20263671875,-1.2216796875,29.424117647058825,323.8351040925989
0.62409521484375,0.2157763671875,0.6953662109375001,0.9589517428635692,-0.01171875,-5.71826171875,-0.9423828125,29.61235294117647,323.8351040925989
0.60847021484375,0.2353076171875,0.7271044921875001,0.9768759489401408,0.04833984375,-5.5869140625,-0.75732421875,29.51823529411765,323.8351040925989
0.60505224609375,0.2377490234375,0.7524951171875001,0.994415265389468,0.1240234375,-5.1015625,-0.7001953125,29.51823529411765,323.8351040925989
0.60749365234375,0.2436083984375,0.7690966796875001,1.0099026151731512,0.2734375,-4.06591796875,-0.66259765625,29.424117647058825,323.8351040925989
0.58112646484375,0.2392138671875,0.7852099609375001,1.0057265657981116,0.46435546875,-2.56884765625,-0.57958984375,29.56529411764706,323.8031427423605
0.52253271484375,0.2538623046875,0.7671435546875001,0.9622867251094148,0.658203125,-1.00830078125,-0.30029296875,29.51823529411765,323.8031427423605
0.4956772460937499,0.2675341796875,0.7402880859375001,0.930213373252156,0.90576171875,0.27490234375,0.095703125,29.51823529411765,323.8031427423605
0.4839584960937499,0.2748583984375,0.7163623046875001,0.9071592565311442,1.29248046875,1.6875,0.5283203125,29.377058823529413,323.8031427423605
0.4986069335937499,0.2670458984375,0.6694873046875001,0.8764334756487724,1.60498046875,2.42431640625,0.7509765625,29.51823529411765,323.8031427423605
0.52448583984375,0.2699755859375,0.6270068359375001,0.8608773347645152,1.86572265625,2.50048828125,1.08544921875,29.51823529411765,323.8031427423605
0.55378271484375,0.2768115234375,0.5967333984375001,0.8598782841648415,2.0712890625,2.00439453125,1.02001953125,29.424117647058825,323.8031427423605
0.60749365234375,0.2904833984375,0.5527880859375001,0.8712082474128635,2.12939453125,1.05419921875,0.70751953125,29.61235294117647,323.8031427423605
0.66169287109375,0.2978076171875,0.5064013671875001,0.8848554555409351,1.9560546875,-0.056640625,0.3271484375,29.47117647058824,323.8031427423605
0.68220068359375,0.2929248046875,0.5039599609375001,0.8973173107240917,1.63037109375,-1.51806640625,0.07373046875,29.51823529411765,324.1039475403626
0.68220068359375,0.2704638671875,0.5230029296875001,0.9011551146231738,1.74365234375,-2.64697265625,0.04296875,29.61235294117647,324.1039475403626
0.66169287109375,0.2445849609375,0.5298388671875001,0.8822632736069329,1.92431640625,-3.51025390625,0.21533203125,29.424117647058825,324.1039475403626
0.63874365234375,0.2328662109375,0.5479052734375001,0.8731668307181871,2.1611328125,-4.236328125,0.5654296875,29.47117647058824,324.1039475403626
0.60749365234375,0.2221240234375,0.5381396484375001,0.8414166035005776,2.25439453125,-4.8779296875,1.4609375,29.61235294117647,324.1039475403626
0.58893896484375,0.2279833984375,0.5464404296875001,0.8351183613544846,2.13037109375,-5.7216796875,2.3515625,29.56529411764706,324.1039475403626
0.61237646484375,0.2348193359375,0.5435107421875001,0.8517916306808047,1.8740234375,-6.484375,2.76611328125,29.56529411764706,324.1039475403626
0.68708349609375,0.2582568359375,0.5811083984375001,0.9361983201477426,1.35546875,-7.38818359375,3.0048828125,29.424117647058825,324.1039475403626
0.80036474609375,0.3095263671875,0.6328662109375001,1.0662597899763415,0.97607421875,-8.619140625,2.6591796875,29.51823529411765,324.1039475403626
0.88239599609375,0.3534716796875,0.6714404296875001,1.1637857074574849,0.5869140625,-9.3662109375,2.0029296875,29.51823529411765,324.0709169596022
0.90729833984375,0.4037646484375,0.6997607421875001,1.2148585370807103,0.65771484375,-9.28369140625,1.6416015625,29.56529411764706,324.0709169596022
0.87604833984375,0.4242724609375,0.6890185546875001,1.1925663015348893,0.87646484375,-8.3154296875,1.595703125,29.47117647058824,324.0709169596022
0.87604833984375,0.3607958984375,0.7163623046875001,1.1877749473909187,1.7822265625,-7.52587890625,1.640625,29.51823529411765,324.0709169596022
0.84382177734375,0.3446826171875,0.6787646484375001,1.136469421708861,3.08154296875,-7.14111328125,1.89599609375,29.33,324.0709169596022
0.83649755859375,0.3686083984375,0.5942919921875001,1.0903133902278512,3.64990234375,-7.1611328125,2.23876953125,29.51823529411765,324.0709169596022
0.83405615234375,0.3188037109375,0.5376513671875001,1.0422832935476658,4.0361328125,-7.62158203125,1.15185546875,29.51823529411765,324.0709169596022
1.00934912109375,0.2504443359375,0.4790576171875,1.144990923213484,4.18505859375,-7.66455078125,-0.4609375,29.56529411764706,324.0709169596022
1.07819677734375,0.1698779296875,0.4556201171875,1.1827749121685454,4.6123046875,-7.6826171875,-2.19384765625,29.51823529411765,323.8020734556275
1.11579443359375,0.1190966796875,0.4536669921875,1.2103697686871715,5.18505859375,-7.91357421875,-3.650390625,29.47117647058824,323.8020734556275
1.20417333984375,0.0907763671875,0.4473193359375,1.2877765215804244,5.76708984375,-8.990234375,-4.76318359375,29.424117647058825,323.8020734556275
1.29694677734375,0.1303271484375,0.4605029296875,1.382432297486195,6.34814453125,-10.33154296875,-5.23583984375,29.51823529411765,323.8020734556275
1.33063818359375,-0.1099072265625,0.4937060546875,1.423524935687265,6.74365234375,-12.10595703125,-4.66015625,29.51823529411765,323.8020734556275
1.31696630859375,-0.1196728515625,0.5044482421875001,1.4153409053716377,7.07568359375,-13.4833984375,-3.17431640625,29.51823529411765,323.8020734556275
1.27155615234375,-0.3584423828125,0.5000537109375001,1.4125826362312082,7.34716796875,-13.95703125,-0.66259765625,29.51823529411765,323.8020734556275
1.25397802734375,-0.4204541015625,0.5381396484375001,1.4278784352325264,7.6748046875,-13.697265625,2.2158203125,29.51823529411765,323.8020734556275
1.28864599609375,-0.4414501953125,0.5366748046875001,1.4640719327192444,7.87841796875,-12.77685546875,4.5830078125,29.51823529411765,323.8450452425224
1.36335302734375,-0.4590283203125,0.5044482421875001,1.5244364549112377,7.96533203125,-11.439453125,5.73388671875,29.56529411764706,323.8450452425224
1.39850927734375,-0.4521923828125,0.4316943359375,1.531883203632282,7.46875,-9.13916015625,5.833984375,29.424117647058825,323.8450452425224
1.34382177734375,-0.4238720703125,0.3120654296875,1.4432287877049723,6.18994140625,-4.7978515625,5.5517578125,29.424117647058825,323.8450452425224
1.24811865234375,-0.3769970703125,0.2500537109375,1.3275744121163986,4.64990234375,-0.517578125,5.65283203125,29.47117647058824,323.8450452425224
1.19636083984375,-0.3154736328125,0.2266162109375,1.2578385346185053,3.5380859375,2.87109375,6.21533203125,29.51823529411765,323.8450452425224
1.17097021484375,-0.2725048828125,0.2393115234375,1.2258467116478509,2.61572265625,5.37451171875,6.9169921875,29.47117647058824,323.8450452425224
1.13141943359375,-0.2231884765625,0.1997607421875,1.170396251234253,1.78515625,6.5693359375,7.783203125,29.51823529411765,323.8450452425224
1.14997412109375,-0.2007275390625,0.1743701171875,1.1803122306794134,1.42431640625,7.958984375,7.92236328125,29.424117647058825,323.8450452425224
1.23444677734375,-0.1118603515625,0.1802294921875,1.2525391228222056,1.4453125,8.21240234375,6.99951171875,29.56529411764706,323.8770070305154
1.22907568359375,-0.2617626953125,0.0732958984375,1.2587768004640334,1.29345703125,3.89697265625,1.9697265625,29.51823529411765,323.8770070305154
1.05329443359375,-0.2754345703125,0.0811083984375,1.091728875985199,0.984375,1.939453125,1.4033203125,29.424117647058825,323.8770070305154
0.99030615234375,-0.2568798828125,0.1353076171875,1.0319891960832757,1.154296875,-0.4921875,1.59423828125,29.51823529411765,323.8770070305154
1.04059912109375,-0.2476025390625,0.1748583984375,1.0838491627876128,1.71923828125,-3.78759765625,1.6064453125,29.61235294117647,323.8770070305154
1.12214208984375,-0.2534619140625,0.1777880859375,1.164068045768994,1.76953125,-6.998046875,1.40478515625,29.51823529411765,323.8638606563158
1.12751318359375,-0.2236767578125,0.1992724609375,1.1666305262812695,1.7978515625,-8.6533203125,1.3935546875,29.51823529411765,323.8638606563158
1.06403662109375,-0.2002392578125,0.2378466796875,1.1085308901588056,1.9990234375,-8.73388671875,1.84765625,29.51823529411765,323.8638606563158
1.01032568359375,-0.1958447265625,0.2471240234375,1.0583871819005823,2.2705078125,-7.234375,2.26318359375,29.51823529411765,323.8638606563158
1.02155615234375,-0.1860791015625,0.2676318359375,1.0723008924909794,2.5712890625,-5.1787109375,2.9267578125,29.424117647058825,323.8638606563158
1.04401708984375,-0.1650830078125,0.2847216796875,1.0946645688238503,2.697265625,-3.28662109375,3.31689453125,29.51823529411765,323.8638606563158
1.05378271484375,-0.1372509765625,0.2930224609375,1.102342053667868,2.77734375,-1.32763671875,3.3896484375,29.56529411764706,323.8638606563158
1.04450537109375,-0.0977001953125,0.1782763671875,1.0641049109488054,2.9599609375,0.7255859375,3.3701171875,29.424117647058825,323.8638606563158
1.05524755859375,-0.0903759765625,0.3018115234375,1.1012744538657746,3.0107421875,2.486328125,2.86376953125,29.51823529411765,323.68203080935666
1.05720068359375,-0.1367626953125,0.2734912109375,1.1005338534912463,2.90478515625,3.001953125,2.162109375,29.51823529411765,323.68203080935666
1.07917333984375,-0.1904736328125,0.2305224609375,1.1198374467854637,2.68603515625,3.04443359375,1.72314453125,29.424117647058825,323.68203080935666
1.08356787109375,-0.2436962890625,0.1890185546875,1.1266034025270946,2.50390625,2.57470703125,1.42626953125,29.61235294117647,323.68203080935666
1.06013037109375,-0.2832470703125,0.1533740234375,1.1079841594632087,2.35205078125,1.77783203125,1.70703125,29.51823529411765,323.68203080935666
1.08063818359375,-0.3315869140625,0.1143115234375,1.1361319860865169,2.28662109375,0.68115234375,2.05810546875,29.424117647058825,323.68203080935666
1.11921240234375,-0.3599072265625,0.1030810546875,1.180167495369817,2.275390625,-0.837890625,2.287109375,29.47117647058824,323.68203080935666
1.14557958984375,-0.3726025390625,0.0889208984375,1.2079288782711208,2.21630859375,-2.22509765625,2.3994140625,29.51823529411765,323.68203080935666
1.14850927734375,-0.3730908203125,0.0806201171875,1.2102767962914285,2.19287109375,-3.439453125,2.6171875,29.51823529411765,323.4781853060079
1.15729833984375,-0.3726025390625,0.0879443359375,1.2189775657264614,2.19091796875,-4.04296875,2.52001953125,29.51823529411765,323.4781853060079
1.14411474609375,-0.3623486328125,0.0972216796875,1.2040544584575537,2.24462890625,-4.513671875,2.3291015625,29.424117647058825,323.4781853060079
1.11042333984375,-0.3408642578125,0.1128466796875,1.1670316229821316,2.212890625,-4.490234375,2.24609375,29.47117647058824,323.4781853060079
1.06403662109375,-0.3218212890625,0.1328662109375,1.1195518313733144,2.1416015625,-3.921875,1.8955078125,29.51823529411765,323.4781853060079
1.05378271484375,-0.3179150390625,0.1216357421875,1.1073947967834592,1.9853515625,-3.0224609375,1.67236328125,29.377058823529413,323.4781853060079
1.04889990234375,-0.2939892578125,0.1372607421875,1.097934970839228,1.916015625,-2.03759765625,1.53662109375,29.51823529411765,323.4781853060079
1.05427099609375,-0.2983837890625,0.1221240234375,1.1024674579688805,1.9140625,-1.11181640625,1.65576171875,29.51823529411765,323.4781853060079
1.07038427734375,-0.2993603515625,0.1172412109375,1.1176245446546067,1.9755859375,-0.07861328125,1.9521484375,29.56529411764706,323.4781853060079
1.11579443359375,-0.3096142578125,0.0947802734375,1.1618267972948764,2.12060546875,0.74609375,2.13427734375,29.51823529411765,323.9519413391426
1.15729833984375,-0.2988720703125,0.0791552734375,1.1978854365635074,2.2802734375,1.05419921875,2.57080078125,29.424117647058825,323.9519413391426
1.19050146484375,-0.3047314453125,0.0552294921875,1.230124094701282,2.37841796875,0.9814453125,2.7158203125,29.47117647058824,323.9519413391426
1.08405615234375,-0.2988720703125,0.0601123046875,1.1261064536810268,2.36181640625,0.32080078125,2.771484375,29.56529411764706,323.9519413391426
1.19343115234375,-0.2612744140625,0.0772021484375,1.2241333287479756,2.294921875,-0.49853515625,2.66748046875,29.56529411764706,323.9519413391426
1.18122412109375,-0.2432080078125,0.0820849609375,1.208792165812609,2.22705078125,-1.1953125,2.29052734375,29.47117647058824,323.9519413391426
1.15632177734375,-0.2139111328125,0.0957568359375,1.1798336311231754,2.13720703125,-1.97314453125,1.77392578125,29.424117647058825,323.9519413391426
1.14216162109375,-0.1885205078125,0.1338427734375,1.1653270092840151,2.142578125,-2.26904296875,1.33984375,29.47117647058824,323.99384609512015
1.11872412109375,-0.1841259765625,0.1440966796875,1.1428953965516877,2.22509765625,-2.1650390625,0.92626953125,29.56529411764706,323.99384609512015
1.11481787109375,-0.1802197265625,0.1499560546875,1.139203605107403,2.36669921875,-1.75146484375,0.79541015625,29.51823529411765,323.99384609512015
1.10700537109375,-0.1748486328125,0.1504443359375,1.1307813379440284,2.451171875,-1.052734375,0.86865234375,29.424117647058825,323.99384609512015
1.10749365234375,-0.1645947265625,0.1406787109375,1.1284609491271371,2.44091796875,-0.35009765625,0.74462890625,29.51823529411765,323.99384609512015
1.11579443359375,-0.1680126953125,0.1333544921875,1.136225727754637,2.38916015625,0.68603515625,0.3095703125,29.377058823529413,323.99384609512015
1.12458349609375,-0.1587353515625,0.1235888671875,1.1424356260266053,2.314453125,1.27197265625,-0.056640625,29.51823529411765,323.99384609512015
1.15046240234375,-0.1748486328125,0.1172412109375,1.1695645707463287,2.19970703125,1.923828125,-0.599609375,29.56529411764706,323.99384609512015
1.15778662109375,-0.2251416015625,0.1104052734375,1.1846298684148644,2.12939453125,2.16357421875,-1.02392578125,29.51823529411765,323.99384609512015
1.13923193359375,-0.2754345703125,0.1021044921875,1.176494338434254,2.01904296875,2.056640625,-1.474609375,29.51823529411765,323.8670656422349
1.13141943359375,-0.2993603515625,0.0942919921875,1.1741454486527267,1.96630859375,1.69384765625,-1.65185546875,29.47117647058824,323.8670656422349
1.11677099609375,-0.3066845703125,0.1064990234375,1.1630025474508343,1.91943359375,1.04736328125,-1.81689453125,29.377058823529413,323.8670656422349
1.11921240234375,-0.2881298828125,0.1021044921875,1.1602071186880731,1.79541015625,0.2998046875,-2.06494140625,29.51823529411765,323.8670656422349
1.13093115234375,-0.2749462890625,0.1304248046875,1.171158128900011,1.7431640625,-0.27001953125,-2.56494140625,29.51823529411765,323.8670656422349
1.11970068359375,-0.2710400390625,0.1445849609375,1.1610758521925304,1.35888671875,-0.7568359375,-3.2041015625,29.47117647058824,323.8670656422349
1.11139990234375,-0.2705517578125,0.1572802734375,1.154619019849277,1.09912109375,-1.1220703125,-3.71630859375,29.47117647058824,323.8670656422349
1.08307958984375,-0.2563916015625,0.1577685546875,1.124139212080102,0.787109375,-1.0419921875,-3.958984375,29.424117647058825,323.8670656422349
1.06306005859375,-0.2436962890625,0.1689990234375,1.103650868437573,0.53271484375,-0.552734375,-3.9755859375,29.51823529411765,323.8670656422349
1.06891943359375,-0.2300244140625,0.1836474609375,1.1087048193671614,0.45751953125,0.06787109375,-3.830078125,29.51823529411765,323.8748706926081
1.08356787109375,-0.2261181640625,0.1733935546875,1.1204079972013783,0.53369140625,0.82861328125,-3.728515625,29.33,323.8748706926081
1.09919287109375,-0.2192822265625,0.1587451171875,1.132037841673326,0.73779296875,1.55615234375,-3.3095703125,29.56529411764706,323.8748706926081
1.09431005859375,-0.2114697265625,0.1426318359375,1.1236448683702414,0.98779296875,2.27099609375,-3.11572265625,29.51823529411765,323.8748706926081
1.10358740234375,-0.2124462890625,0.1123583984375,1.1294525178367143,1.15625,2.54248046875,-2.865234375,29.47117647058824,323.8748706926081
1.10749365234375,-0.2168408203125,0.0981982421875,1.1327863991522018,1.16650390625,2.2255859375,-2.57568359375,29.51823529411765,323.8748706926081
1.08112646484375,-0.2085400390625,0.1011279296875,1.105689938020878,1.12451171875,1.365234375,-2.4736328125,29.47117647058824,323.8748706926081
1.05768896484375,-0.1997509765625,0.1147998046875,1.0824903667683163,1.01806640625,0.3466796875,-2.46630859375,29.51823529411765,323.8748706926081
1.02155615234375,-0.1860791015625,0.1416552734375,1.0479831205331156,0.94091796875,-0.5478515625,-2.45751953125,29.56529411764706,323.74595413771794
0.99274755859375,-0.1680126953125,0.1636279296875,1.020073566098955,0.92626953125,-0.82421875,-2.30712890625,29.47117647058824,323.74595413771794
0.95124365234375,-0.1357861328125,0.1748583984375,0.9766666880223664,0.88720703125,-0.7041015625,-1.94677734375,29.51823529411765,323.74595413771794
0.94782568359375,-0.0991650390625,0.2095263671875,0.975760488029218,0.80029296875,-0.3779296875,-1.572265625,29.51823529411765,323.74595413771794
0.96540380859375,-0.0942822265625,0.2153857421875,0.9936219954442236,0.8310546875,0.03271484375,-1.28564453125,29.56529411764706,323.74595413771794
0.95466162109375,-0.1269970703125,0.2329638671875,0.9908477330408844,1.03564453125,0.861328125,-1.1015625,29.47117647058824,323.74595413771794
0.97663427734375,-0.1523876953125,0.2212451171875,1.012909632319051,1.1416015625,1.330078125,-0.8212890625,29.51823529411765,323.74595413771794
1.02399755859375,-0.1870556640625,0.2183154296875,1.0635894171640958,1.54736328125,1.39013671875,-0.5576171875,29.377058823529413,323.74595413771794
1.05134130859375,-0.2095166015625,0.1914599609375,1.0889778097500915,1.80859375,1.46875,0.05029296875,29.51823529411765,323.9629514875717
1.05964208984375,-0.2183056640625,0.2988818359375,1.1224210766835991,1.87060546875,1.3896484375,0.59326171875,29.51823529411765,323.9629514875717
0.96149755859375,-0.2275830078125,0.1436083984375,0.9984462693247492,1.7841796875,1.244140625,1.0595703125,29.51823529411765,323.9629514875717
1.12311865234375,-0.2085400390625,0.1274951171875,1.1494083086707196,1.58984375,0.951171875,1.1875,29.47117647058824,323.9629514875717
1.16218115234375,-0.1777783203125,0.1050341796875,1.1803822859306243,1.3486328125,0.6337890625,1.107421875,29.51823529411765,323.9629514875717
1.14606787109375,-0.1352978515625,0.0913623046875,1.157637311297714,0.81201171875,0.412109375,0.99169921875,29.56529411764706,323.9629514875717
1.12214208984375,-0.0801220703125,0.0923388671875,1.1287820349135305,0.548828125,0.44189453125,0.88916015625,29.61235294117647,323.9629514875717
1.11677099609375,-0.0469189453125,0.0938037109375,1.1216853307996453,0.35400390625,0.57958984375,0.77880859375,29.51823529411765,323.9629514875717
1.11286474609375,-0.0268994140625,0.1201708984375,1.1196573433003905,0.2666015625,0.6357421875,0.69970703125,29.47117647058824,323.9629514875717
1.08991552734375,-4.394531249999993e-05,0.1328662109375,1.0979841932765166,0.23193359375,0.560546875,0.83984375,29.424117647058825,323.834035063693
1.09040380859375,0.0116748046875,0.1353076171875,1.098828884826571,0.2158203125,0.435546875,0.94189453125,29.47117647058824,323.834035063693
1.11970068359375,0.0209521484375,0.1484912109375,1.12969830180015,0.2216796875,0.35595703125,0.92626953125,29.51823529411765,323.834035063693
1.15583349609375,0.0175341796875,0.1543505859375,1.1662258021193257,0.2373046875,0.00048828125,0.8046875,29.51823529411765,323.834035063693
1.15778662109375,-0.1099072265625,0.1592333984375,1.173841869083012,0.22412109375,-0.3564453125,0.677734375,29.51823529411765,323.834035063693
1.14020849609375,-0.0015087890625,0.1436083984375,1.149217587365678,0.22021484375,-0.80322265625,0.654296875,29.424117647058825,323.834035063693
1.10798193359375,-0.0156689453125,0.1499560546875,1.1181933193123592,0.16455078125,-1.28662109375,0.65625,29.56529411764706,323.834035063693
1.07380224609375,-0.0386181640625,0.1548388671875,1.0855955513465634,0.14306640625,-1.69091796875,0.65673828125,29.51823529411765,323.834035063693
1.04499365234375,-0.0718212890625,0.1533740234375,1.058628179327726,0.16357421875,-1.94921875,0.63330078125,29.51823529411765,324.0908020730808
1.01179052734375,-0.1020947265625,0.1338427734375,1.0256984412661732,0.1845703125,-1.93994140625,0.603515625,29.424117647058825,324.0908020730808
0.99030615234375,-0.1060009765625,0.1216357421875,1.0033632124906664,0.19384765625,-1.6845703125,0.58203125,29.47117647058824,324.0908020730808
0.98102880859375,-0.1206494140625,0.1143115234375,0.9950080043874516,0.20947265625,-1.32470703125,0.556640625,29.51823529411765,324.0908020730808
0.99079443359375,-0.1255322265625,0.0981982421875,1.0035311875147743,0.2041015625,-1.12255859375,0.537109375,29.51823529411765,324.0908020730808
1.02546240234375,-0.1299267578125,0.0952685546875,1.03804152061877,0.2353515625,-0.83544921875,0.4296875,29.377058823529413,324.0908020730808
1.04841162109375,-0.1255322265625,0.0835498046875,1.0592005650553076,0.1953125,-0.7998046875,0.38623046875,29.51823529411765,324.0908020730808
1.06843115234375,-0.1050244140625,0.0894091796875,1.0772971995972869,0.24658203125,-0.9091796875,0.38671875,29.51823529411765,324.0908020730808
1.08405615234375,-0.0869580078125,0.0913623046875,1.0913690976360224,0.0302734375,-1.318359375,0.37646484375,29.424117647058825,324.0797920025562
1.10505224609375,-0.0727978515625,0.0908740234375,1.111169690877445,-0.0205078125,-1.505859375,0.203125,29.424117647058825,324.0797920025562
1.10944677734375,-0.0727978515625,0.1011279296875,1.1164222037891525,0.01904296875,-1.94970703125,-0.06787109375,29.47117647058824,324.0797920025562
1.09821630859375,-0.0605908203125,0.1006396484375,1.1044811663423908,0.11181640625,-2.326171875,-0.365234375,29.56529411764706,324.0797920025562
1.10309912109375,-0.0640087890625,0.1128466796875,1.1107021063955649,0.1640625,-2.64794921875,-0.52734375,29.51823529411765,324.0797920025562
1.09870458984375,-0.0654736328125,0.1245654296875,1.1076800614846425,0.12548828125,-2.9287109375,-0.970703125,29.51823529411765,324.0797920025562
1.10212255859375,-0.0610791015625,0.1231005859375,1.1106568079596288,0.3095703125,-3.11328125,-1.140625,29.424117647058825,324.0797920025562
1.09626318359375,-0.0625439453125,0.1353076171875,1.1063511486265634,0.3173828125,-3.150390625,-1.5859375,29.424117647058825,324.0797920025562
1.10456396484375,-0.0459423828125,0.1255419921875,1.1126243960889235,0.3115234375,-3.1591796875,-1.81494140625,29.424117647058825,324.0797920025562
1.09870458984375,-0.0400830078125,0.1196826171875,1.1059305367498764,0.224609375,-3.013671875,-2.04345703125,29.47117647058824,324.05883912758884
1.12165380859375,-0.0610791015625,0.1108935546875,1.1287760200552528,0.1455078125,-2.8701171875,-2.2822265625,29.424117647058825,324.05883912758884
1.12897802734375,-0.0752392578125,0.1064990234375,1.1364833364965374,0.0771484375,-2.33349609375,-2.4970703125,29.424117647058825,324.05883912758884
1.12897802734375,-0.0933056640625,0.0957568359375,1.1368670567836376,0.06884765625,-1.84814453125,-2.5595703125,29.51823529411765,324.05883912758884
1.13093115234375,-0.0854931640625,0.0991748046875,1.138485834047918,0.07958984375,-1.44140625,-2.4775390625,29.56529411764706,324.05883912758884
1.13483740234375,-0.0503369140625,0.0879443359375,1.1393524217287352,0.119140625,-1.23974609375,-1.8984375,29.47117647058824,324.05883912758884
1.15973974609375,-0.0273876953125,0.0830615234375,1.163032923523614,0.14990234375,-0.884765625,-1.478515625,29.51823529411765,324.05883912758884
1.19391943359375,-0.0166455078125,0.0835498046875,1.1969549936010444,-0.02685546875,-0.87353515625,-1.4365234375,29.51823529411765,324.05883912758884
1.22712255859375,-0.0225048828125,0.0713427734375,1.229400681178366,-0.1806640625,-0.71875,-1.775390625,29.51823529411765,324.08973510689447
1.22809912109375,-0.0239697265625,0.0786669921875,1.2308495012317917,-0.2578125,-0.70849609375,-2.123046875,29.51823529411765,324.08973510689447
1.20856787109375,-0.0317822265625,0.0835498046875,1.2118692086313063,-0.16552734375,-0.62353515625,-2.45654296875,29.47117647058824,324.08973510689447
1.18366552734375,-0.0586376953125,0.0728076171875,1.187351426096773,-0.03564453125,-0.17822265625,-2.68115234375,29.47117647058824,324.08973510689447
1.17194677734375,-0.0752392578125,0.0796435546875,1.177057046470492,-0.0341796875,0.03125,-2.69189453125,29.51823529411765,324.08973510689447
1.17927099609375,-0.1064892578125,0.0708544921875,1.1861873390491702,-0.04833984375,0.2392578125,-2.5966796875,29.47117647058824,324.08973510689447
1.17634130859375,-0.1597119140625,0.0679248046875,1.1890755017615149,0.0166015625,0.45068359375,-2.37548828125,29.47117647058824,324.08973510689447
1.15681005859375,-0.1977978515625,0.0669482421875,1.1755065158808826,-0.01171875,0.478515625,-1.9619140625,29.377058823529413,324.08973510689447
1.13630224609375,-0.2266064453125,0.0762255859375,1.1611819906829348,-0.1416015625,0.189453125,-1.4794921875,29.424117647058825,323.74595413771794
1.14264990234375,-0.2270947265625,0.0781787109375,1.167618398708468,-0.34716796875,-0.31201171875,-0.736328125,29.424117647058825,323.74595413771794
1.11970068359375,-0.1977978515625,0.0713427734375,1.1392731903476032,-0.55517578125,-0.63232421875,0.15869140625,29.47117647058824,323.74595413771794
1.09675146484375,-0.1523876953125,0.0996630859375,1.111763696123485,-0.5712890625,-0.86962890625,1.18212890625,29.51823529411765,323.74595413771794
1.09870458984375,-0.1016064453125,0.0952685546875,1.1074979652283836,-0.53955078125,-0.43701171875,1.77001953125,29.51823529411765,323.74595413771794
1.12653662109375,-0.0644970703125,0.1172412109375,1.134455874984263,-0.5234375,-0.21923828125,2.2607421875,29.56529411764706,323.74595413771794
1.15827490234375,-0.0244580078125,0.1079638671875,1.1635528093574696,-0.5693359375,-0.06005859375,2.55615234375,29.424117647058825,323.74595413771794
1.14997412109375,0.0028857421875,0.1030810546875,1.1545884593779738,-0.60791015625,0.3427734375,2.54638671875,29.47117647058824,323.74595413771794
1.15534521484375,0.0243701171875,0.0957568359375,1.159562779543585,-0.5087890625,0.77783203125,2.25927734375,29.51823529411765,323.74595413771794
1.13239599609375,0.0439013671875,0.0913623046875,1.1369235210549122,-0.3369140625,1.576171875,1.8251953125,29.56529411764706,323.8109462846819
1.11823583984375,0.1352099609375,0.0776904296875,1.12905665487291,-0.205078125,2.0615234375,1.32763671875,29.659411764705883,323.8109462846819
1.10700537109375,-0.0278759765625,0.0815966796875,1.1103584915853748,-0.12060546875,2.26171875,0.7802734375,29.47117647058824,323.8109462846819
1.07087255859375,-0.0591259765625,0.0811083984375,1.07556612541986,0.33203125,2.53564453125,0.59326171875,29.47117647058824,323.8109462846819
1.02985693359375,-0.0947705078125,0.0772021484375,1.0370857845643853,0.51708984375,2.5556640625,0.71630859375,29.51823529411765,323.8109462846819
1.01667333984375,-0.1074658203125,0.0562060546875,1.0238811957781129,0.86181640625,2.40234375,1.046875,29.47117647058824,323.8109462846819
1.03181005859375,-0.1103955078125,0.0405810546875,1.0384921700041687,0.92578125,2.23095703125,1.25830078125,29.51823529411765,323.8109462846819
1.05524755859375,-0.1186962890625,0.0400927734375,1.062658764344034,0.9296875,1.669921875,1.60107421875,29.51823529411765,323.8109462846819
1.08063818359375,-0.1323681640625,0.0571826171875,1.0902156054682433,0.94970703125,1.3427734375,1.5966796875,29.51823529411765,323.8109462846819
1.07624365234375,-0.1357861328125,0.0606005859375,1.0864670745541978,1.041015625,0.763671875,1.6083984375,29.51823529411765,323.53002762650306
1.05036474609375,-0.1235791015625,0.0552294921875,1.0590506083218458,1.1220703125,0.4287109375,1.74072265625,29.424117647058825,323.53002762650306
1.03181005859375,-0.1260205078125,0.0664599609375,1.0415997752555308,1.12939453125,0.09912109375,1.87060546875,29.56529411764706,323.53002762650306
1.04304052734375,-0.2349072265625,0.0840380859375,1.072463214595658,1.1875,-0.484375,1.98974609375,29.47117647058824,323.53002762650306
1.02643896484375,-0.0723095703125,0.1133349609375,1.0352055041773067,1.25,-0.81396484375,2.12744140625,29.56529411764706,323.53002762650306
1.03571630859375,-0.0386181640625,0.1226123046875,1.0436634571275372,1.67529296875,-0.91455078125,2.095703125,29.56529411764706,323.53002762650306
1.05475927734375,-0.0166455078125,0.1104052734375,1.060652407943269,1.76025390625,-0.77392578125,1.81689453125,29.56529411764706,323.53002762650306
1.07673193359375,-0.0151806640625,0.1094287109375,1.0823847523682866,2.1015625,-0.39990234375,1.3720703125,29.47117647058824,323.53002762650306
1.10261083984375,-0.0171337890625,0.1279833984375,1.1101459278600223,2.43310546875,0.123046875,0.56640625,29.47117647058824,323.53002762650306
1.09186865234375,-0.0249462890625,0.1231005859375,1.0990692542179052,2.71044921875,0.376953125,0.197265625,29.51823529411765,323.852850634048
1.08503271484375,-0.0283642578125,0.1289599609375,1.0930375999605202,2.9013671875,0.7001953125,0.09765625,29.47117647058824,323.852850634048
1.07575537109375,-0.0366650390625,0.1372607421875,1.085096518689637,3.05419921875,0.75390625,0.15234375,29.377058823529413,323.852850634048
1.07526708984375,-0.0493603515625,0.1377490234375,1.0851776593099425,3.1962890625,0.8671875,0.36376953125,29.377058823529413,323.852850634048
1.06013037109375,-0.0195751953125,0.1274951171875,1.067948780088984,3.33447265625,1.2021484375,0.78955078125,29.51823529411765,323.852850634048
1.01618505859375,0.0263232421875,0.1265185546875,1.024369040467672,3.4794921875,1.6533203125,1.20703125,29.56529411764706,323.852850634048
1.02741552734375,0.0522021484375,0.1480029296875,1.0393327654435849,3.61962890625,1.8955078125,1.27294921875,29.51823529411765,323.852850634048
1.05720068359375,0.0536669921875,0.1431201171875,1.0681932406570027,3.7392578125,1.91064453125,0.6552734375,29.51823529411765,323.852850634048
1.06843115234375,0.0058154296875,0.1079638671875,1.0738878633912965,3.3916015625,1.9833984375,-0.3125,29.51823529411765,323.82976337236124
1.05915380859375,-0.0586376953125,0.0972216796875,1.065221678605663,3.02783203125,2.01904296875,-1.51513671875,29.51823529411765,323.82976337236124
1.01423193359375,-0.2353955078125,0.1030810546875,1.0462806335085768,2.87060546875,1.96484375,-2.35107421875,29.51823529411765,323.82976337236124
0.98005224609375,-0.1587353515625,0.0991748046875,0.997764981743636,2.525390625,2.0556640625,-2.5322265625,29.51823529411765,323.82976337236124
0.97175146484375,-0.2021923828125,0.0864794921875,0.9963239290824938,2.39111328125,2.16455078125,-2.482421875,29.61235294117647,323.82976337236124
0.95759130859375,-0.2168408203125,0.0742724609375,0.9846407741414128,2.2138671875,2.35009765625,-1.95654296875,29.51823529411765,323.82976337236124
0.95905615234375,-0.1992626953125,0.0679248046875,0.9818900672597902,2.072265625,2.58984375,-1.09716796875,29.51823529411765,323.82976337236124
0.97468115234375,-0.1704541015625,0.0772021484375,0.9924807913491248,2.001953125,2.83935546875,-0.0283203125,29.51823529411765,323.82976337236124
1.00153662109375,-0.1186962890625,0.0703662109375,1.010997436233542,1.8994140625,3.01953125,0.685546875,29.56529411764706,324.11068852013403
1.04059912109375,-0.0703564453125,0.0689013671875,1.0452482760657404,1.783203125,3.10400390625,1.0205078125,29.47117647058824,324.11068852013403
1.07868505859375,-0.0029736328125,0.0640185546875,1.0805871892030656,1.63671875,3.1484375,0.9130859375,29.424117647058825,324.11068852013403
1.12848974609375,0.0424365234375,0.0566943359375,1.1307096060826545,1.48193359375,3.1259765625,0.2529296875,29.424117647058825,324.11068852013403
1.16755224609375,0.0067919921875,0.0606005859375,1.1691436222861602,1.5322265625,3.1875,-0.9130859375,29.51823529411765,324.11068852013403
1.16755224609375,-0.1025830078125,0.0493701171875,1.1730894805263268,1.80517578125,3.10107421875,-2.4541015625,29.51823529411765,324.11068852013403
1.12848974609375,-0.2212353515625,0.0190966796875,1.150129936570128,1.86474609375,2.56982421875,-3.2236328125,29.424117647058825,324.11068852013403
1.04938818359375,-0.3154736328125,0.0064013671875,1.0958011454492895,1.64306640625,1.28271484375,-2.96484375,29.424117647058825,324.11068852013403
1.08014990234375,-0.2402783203125,0.0088427734375,1.1065874016034505,1.37646484375,-0.390625,-1.26513671875,29.47117647058824,324.11068852013403
0.91169287109375,-0.3696728515625,0.0459521484375,0.9848621773281464,1.3701171875,-1.900390625,0.8447265625,29.424117647058825,324.0765926158958
0.92731787109375,-0.3433056640625,0.0581591796875,0.9905350590509968,1.45849609375,-3.3720703125,2.896484375,29.56529411764706,324.0765926158958
1.01423193359375,-0.2725048828125,0.0811083984375,1.0533299096555966,1.59814453125,-4.63232421875,4.5791015625,29.51823529411765,324.0765926158958
1.12311865234375,-0.2148876953125,0.0947802734375,1.1474125365674048,1.6376953125,-5.7822265625,5.2822265625,29.47117647058824,324.0765926158958
1.20075537109375,-0.1479931640625,0.1069873046875,1.214562357882054,1.64501953125,-6.65478515625,5.26904296875,29.424117647058825,324.0765926158958
1.28034521484375,-0.0591259765625,0.1367724609375,1.2889866005310753,1.6845703125,-7.1259765625,4.74169921875,29.47117647058824,324.0765926158958
1.30964208984375,-4.394531249999993e-05,0.1694873046875,1.320563649307268,1.662109375,-7.34619140625,3.732421875,29.61235294117647,324.0765926158958
1.31403662109375,0.0360888671875,0.1895068359375,1.3281217898887885,1.57666015625,-7.02392578125,2.60205078125,29.47117647058824,324.0765926158958
1.25348974609375,0.0624560546875,0.2339404296875,1.276661829527175,1.4228515625,-6.05322265625,1.30615234375,29.424117647058825,323.7438183916819
1.11384130859375,0.0912646484375,0.1777880859375,1.1316272797549456,1.48046875,-4.02978515625,0.810546875,29.47117647058824,323.7438183916819
1.01276708984375,0.0609912109375,0.3286669921875,1.0665078986279375,1.4736328125,-0.9912109375,0.48779296875,29.47117647058824,323.7438183916819
1.02936865234375,0.0399951171875,0.3330615234375,1.082649255401461,1.48828125,2.30712890625,-0.24267578125,29.47117647058824,323.7438183916819
1.07819677734375,0.0307177734375,0.3330615234375,1.1288852247566683,1.1982421875,5.0595703125,-0.6748046875,29.51823529411765,323.7438183916819
1.10798193359375,0.0102099609375,0.3032763671875,1.1487840368698277,1.00146484375,7.14111328125,-0.8486328125,29.47117647058824,323.7438183916819
1.15095068359375,-0.0327587890625,0.2847216796875,1.186097402918425,0.8466796875,8.67138671875,-1.0244140625,29.33,323.7438183916819
1.20905615234375,-0.0864697265625,0.2598193359375,1.2396773291704055,0.859375,9.49755859375,-1.27001953125,29.377058823529413,323.7438183916819
1.27448583984375,-0.1318798828125,0.2310107421875,1.3019494700098335,0.53662109375,9.23779296875,-1.8408203125,29.47117647058824,323.635854241853
1.31745458984375,-0.1489697265625,0.1895068359375,1.3393249854309115,0.30078125,8.478515625,-2.0576171875,29.51823529411765,323.635854241853
1.31257177734375,-0.1445751953125,0.1685107421875,1.3312184373766616,0.08447265625,7.38525390625,-1.97802734375,29.51823529411765,323.635854241853
1.30134130859375,-0.1138134765625,0.1689990234375,1.3171952698148308,-0.0146484375,6.28955078125,-1.64306640625,29.51823529411765,323.635854241853
1.28571630859375,-0.0908642578125,0.1821826171875,1.3017347062812157,0.1044921875,5.40380859375,-1.25537109375,29.56529411764706,323.635854241853
1.26862646484375,-0.0776806640625,0.1807177734375,1.283785927056123,0.32666015625,4.31689453125,-0.9091796875,29.47117647058824,323.635854241853
1.24860693359375,-0.0727978515625,0.0522998046875,1.251820303150917,0.5126953125,3.109375,-0.6455078125,29.56529411764706,323.635854241853
1.18854833984375,-0.1025830078125,0.1797412109375,1.206431652662708,0.6982421875,1.9296875,-0.58935546875,29.47117647058824,323.635854241853
1.13679052734375,-0.1226025390625,0.2046435546875,1.1615520092179208,0.9560546875,1.05224609375,-0.74267578125,29.47117647058824,323.635854241853
1.09333349609375,-0.1484814453125,0.2173388671875,1.124571499048867,1.15625,0.51025390625,-1.05029296875,29.424117647058825,324.06664870223057
1.06257177734375,-0.1733837890625,0.2544482421875,1.1062841534928691,1.12548828125,0.130859375,-1.3671875,29.47117647058824,324.06664870223057
1.04987646484375,-0.1816845703125,0.2808154296875,1.101865318481811,1.3193359375,-0.037109375,-1.5703125,29.47117647058824,324.06664870223057
1.06208349609375,-0.1924267578125,0.4263232421875,1.1605175210337046,1.3623046875,0.07421875,-1.666015625,29.424117647058825,324.06664870223057
1.08210302734375,-0.1973095703125,0.3223193359375,1.1461970958969503,1.36767578125,0.47705078125,-1.69384765625,29.47117647058824,324.06664870223057
1.09723974609375,-0.1968212890625,0.3330615234375,1.1634447381077493,1.3662109375,1.34716796875,-1.57373046875,29.61235294117647,324.06664870223057
1.10065771484375,-0.1870556640625,0.3579638671875,1.17242285755386,1.09912109375,2.38330078125,-1.32861328125,29.56529411764706,324.06664870223057
1.11481787109375,-0.1811962890625,0.3662646484375,1.187350316282043,0.95703125,3.7919921875,-1.11279296875,29.51823529411765,324.06664870223057
1.12116552734375,-0.1782666015625,0.3823779296875,1.1979165254927957,0.8603515625,5.36083984375,-0.708984375,29.377058823529413,323.61383443089795
1.12800146484375,-0.1670361328125,0.3921435546875,1.205846151811063,0.83935546875,6.439453125,-0.5732421875,29.51823529411765,323.61383443089795
1.12751318359375,-0.1602001953125,0.3774951171875,1.1997719138470784,0.85498046875,7.39794921875,-0.47314453125,29.51823529411765,323.61383443089795
1.10847021484375,-0.1602001953125,0.3760302734375,1.181426716438812,0.88427734375,8.0810546875,-0.4599609375,29.47117647058824,323.61383443089795
1.08698583984375,-0.1475048828125,0.3672412109375,1.1567895286028451,0.9296875,8.18115234375,-0.53662109375,29.47117647058824,323.61383443089795
1.07770849609375,-0.1260205078125,0.3652880859375,1.144889582741434,1.208984375,7.5244140625,-0.67626953125,29.61235294117647,323.61383443089795
1.06843115234375,-0.1035595703125,0.3350146484375,1.1245019015411246,1.34912109375,6.4248046875,-0.78466796875,29.56529411764706,323.61383443089795
1.04841162109375,-0.1138134765625,0.3472216796875,1.1102627299592993,1.259765625,5.04443359375,-0.787109375,29.51823529411765,323.61383443089795
1.03571630859375,-0.1191845703125,0.3691943359375,1.1059917230142235,1.14208984375,3.82568359375,-0.79345703125,29.47117647058824,323.9036327805519
1.02057958984375,-0.1201611328125,0.4141162109375,1.1079321428705156,1.0576171875,3.40771484375,-0.78955078125,29.47117647058824,323.9036327805519
1.01179052734375,-0.1196728515625,0.4707568359375,1.1223429338689357,0.94580078125,3.39697265625,-0.82275390625,29.424117647058825,323.9036327805519
1.00886083984375,-0.1191845703125,0.5020068359375001,1.1331443064759192,0.88134765625,3.73193359375,-0.92529296875,29.47117647058824,323.9036327805519
1.00007177734375,-0.1186962890625,0.5361865234375001,1.1409331079395884,0.8232421875,4.1669921875,-1.04248046875,29.377058823529413,323.9036327805519
0.99079443359375,-0.1216259765625,0.6758349609375001,1.205495492418173,0.830078125,4.6591796875,-1.06298828125,29.51823529411765,323.9036327805519
0.97370458984375,-0.1206494140625,0.5620654296875001,1.130740667282381,0.9072265625,5.35595703125,-0.90283203125,29.424117647058825,323.9036327805519
0.97956396484375,-0.1211376953125,0.5654833984375001,1.1375374175623656,0.96875,5.7001953125,-0.67138671875,29.56529411764706,323.9036327805519
0.98981787109375,0.0126513671875,0.5742724609375001,1.1444161543859337,1.0556640625,6.1181640625,-0.4833984375,29.424117647058825,323.9036327805519
0.99470068359375,-0.0850048828125,0.5752490234375001,1.1522008154005263,1.12158203125,6.22216796875,-0.12158203125,29.51823529411765,323.7857237817124
0.99811865234375,-0.0644970703125,0.5747607421875001,1.15358165163777,1.19873046875,6.2265625,0.3212890625,29.61235294117647,323.7857237817124
1.01520849609375,-0.0644970703125,0.5864794921875001,1.1742088218780922,1.30126953125,5.7919921875,0.53662109375,29.51823529411765,323.7857237817124
1.01032568359375,-0.0576611328125,0.5923388671875001,1.1725818209179988,1.4013671875,5.369140625,0.6826171875,29.51823529411765,323.7857237817124
0.99763037109375,-0.0591259765625,0.6045458984375001,1.1680059853231604,1.53515625,4.8740234375,0.65869140625,29.47117647058824,323.7857237817124
0.98639990234375,-0.0640087890625,0.6128466796875001,1.163040388475396,1.63134765625,4.396484375,0.58642578125,29.56529411764706,323.7857237817124
1.07966162109375,-0.0767041015625,0.6099169921875001,1.2423974696603102,1.724609375,4.20263671875,0.59130859375,29.47117647058824,323.7857237817124
0.93366552734375,-0.0918408203125,0.6265185546875001,1.1281363182671984,1.80810546875,4.16845703125,0.6962890625,29.51823529411765,323.7857237817124
0.91413427734375,0.0116748046875,0.6421435546875001,1.117195651130978,1.8486328125,4.18701171875,0.9052734375,29.424117647058825,323.9476722496291
0.88386083984375,-0.1191845703125,0.6567919921875001,1.1076058265518016,1.88330078125,4.330078125,1.0791015625,29.51823529411765,323.9476722496291
0.87311865234375,-0.1216259765625,0.6665576171875001,1.1051823905021405,1.93212890625,4.57958984375,1.14404296875,29.56529411764706,323.9476722496291
0.86091162109375,-0.1377392578125,0.6880419921875001,1.110649677211654,1.9453125,4.8623046875,1.07568359375,29.56529411764706,323.9476722496291
0.84675146484375,-0.1289501953125,0.6899951171875001,1.0998679274480003,1.92822265625,5.1455078125,0.94921875,29.56529411764706,323.9476722496291
0.84284521484375,-0.1186962890625,0.6992724609375001,1.101571077982625,1.88232421875,5.3603515625,0.91796875,29.424117647058825,323.9476722496291
0.82429052734375,-0.2349072265625,0.7017138671875001,1.1077177573566108,1.8828125,5.728515625,0.90625,29.56529411764706,323.9476722496291
0.80524755859375,-0.0947705078125,0.7124560546875001,1.0793510594950615,1.888671875,5.81884765625,0.92578125,29.51823529411765,323.9476722496291
0.80915380859375,-0.0864697265625,0.7290576171875001,1.0925803900641269,1.84814453125,5.7861328125,1.00634765625,29.47117647058824,323.9476722496291
0.78229833984375,-0.0752392578125,0.7251513671875001,1.0693437911973696,1.76171875,5.64697265625,0.8955078125,29.424117647058825,323.81555451525264
0.77009130859375,-0.0552197265625,0.7573779296875001,1.0815318627534722,1.64013671875,5.63623046875,0.65673828125,29.51823529411765,323.81555451525264
0.75495458984375,-0.0454541015625,0.7661669921875001,1.0765845846902322,1.427734375,5.49853515625,0.15673828125,29.56529411764706,323.81555451525264
0.74372412109375,-0.0278759765625,0.7944873046875001,1.0886288236472486,1.1787109375,5.150390625,-0.3515625,29.47117647058824,323.81555451525264
0.71638037109375,-0.0151806640625,0.8257373046875001,1.0932855916924793,1.01025390625,5.0341796875,-0.734375,29.51823529411765,323.81555451525264
0.83210302734375,-0.0059033203125,0.8330615234375001,1.177464139215014,0.87646484375,4.95361328125,-1.02978515625,29.51823529411765,323.81555451525264
0.70319677734375,0.0087451171875,0.8540576171875001,1.106334758659082,0.818359375,5.02392578125,-1.22705078125,29.47117647058824,323.81555451525264
0.69587255859375,0.0067919921875,0.8687060546875001,1.1130745520460024,0.78955078125,5.109375,-1.29736328125,29.61235294117647,323.81555451525264
0.69782568359375,0.0263232421875,0.8789599609375001,1.1225970829703762,0.81298828125,5.2421875,-1.201171875,29.61235294117647,323.9455403594632
0.69050146484375,0.0160693359375,0.8843310546875001,1.12209264804362,0.833984375,5.37255859375,-1.02197265625,29.51823529411765,323.9455403594632
0.66852880859375,0.0141162109375,0.8960498046875001,1.118049769827586,0.89892578125,5.55859375,-0.7607421875,29.56529411764706,323.9455403594632
0.67097021484375,0.1356982421875,0.9082568359375,1.1373414272624751,1.0322265625,5.73095703125,-0.744140625,29.47117647058824,323.9455403594632
0.65290380859375,-0.1094189453125,0.8955615234375001,1.1136814316182253,1.1455078125,5.65673828125,-0.46533203125,29.56529411764706,323.9455403594632
0.62604833984375,0.0302294921875,0.8994677734375001,1.0963086342228832,1.12939453125,5.642578125,-0.32958984375,29.51823529411765,323.9455403594632
0.60554052734375,0.0404833984375,0.9072802734375,1.091547401798759,1.14697265625,5.326171875,-0.22412109375,29.56529411764706,323.9455403594632
0.58649755859375,0.0439013671875,0.9180224609375,1.0902623331396462,1.24560546875,5.08984375,-0.1513671875,29.51823529411765,323.9455403594632
0.57429052734375,0.0653857421875,0.9121630859375,1.0798733261013516,1.1357421875,4.5908203125,-0.15478515625,29.56529411764706,323.64579662789805
0.57184912109375,0.0756396484375,0.9102099609375,1.0775968386652257,1.16748046875,4.28564453125,-0.22216796875,29.56529411764706,323.64579662789805
0.56940771484375,0.0819873046875,0.9048388671875,1.072231523238643,1.20751953125,4.11669921875,-0.32568359375,29.51823529411765,323.64579662789805
0.55524755859375,0.0883349609375,0.8955615234375001,1.057418251643996,1.19287109375,4.07568359375,-0.40869140625,29.51823529411765,323.64579662789805
0.53571630859375,0.0863818359375,0.8960498046875001,1.047549062027051,1.08935546875,4.10546875,-0.49072265625,29.47117647058824,323.64579662789805
0.52839208984375,0.0951708984375,0.8926318359375001,1.0416560349021162,0.9853515625,4.09912109375,-0.56591796875,29.51823529411765,323.64579662789805
0.51130224609375,0.0932177734375,0.8823779296875001,1.0240655989460623,0.84619140625,4.09326171875,-0.53955078125,29.51823529411765,323.64579662789805
0.4942124023437499,0.0941943359375,0.8931201171875001,1.025076589957112,0.73046875,4.1064453125,-0.45361328125,29.61235294117647,323.64579662789805
0.4722397460937499,0.0990771484375,0.8818896484375001,1.0052641499399118,0.69140625,4.1064453125,-0.3603515625,29.424117647058825,323.64579662789805
0.4624741210937499,0.1151904296875,0.8892138671875001,1.00888673763291,0.68115234375,4.07177734375,-0.29638671875,29.51823529411765,324.0204781267693
0.4610092773437499,0.1371630859375,0.8921435546875001,1.0135400278782052,0.65234375,4.00830078125,-0.40966796875,29.51823529411765,324.0204781267693
0.4863999023437499,0.1547412109375,0.8916552734375001,1.02741366255823,0.6962890625,4.05322265625,-0.6435546875,29.51823529411765,324.0204781267693
0.50153662109375,0.1806201171875,0.8774951171875001,1.0267230832697132,0.7177734375,3.98193359375,-1.21240234375,29.424117647058825,324.0204781267693
0.4995834960937499,0.2016162109375,0.8613818359375001,1.0159780673642058,0.64013671875,4.00244140625,-1.55859375,29.56529411764706,324.0204781267693
0.4966538085937499,0.2030810546875,0.8838427734375001,1.0339656515191191,0.6103515625,3.83544921875,-1.77490234375,29.51823529411765,324.0204781267693
0.4683334960937499,0.2069873046875,0.8867724609375001,1.0239850610933443,0.642578125,3.6845703125,-1.84130859375,29.51823529411765,324.0204781267693
0.4595444335937499,0.2050341796875,0.8931201171875001,1.025126160534468,0.6318359375,3.6220703125,-1.751953125,29.51823529411765,324.0204781267693
0.4414780273437499,0.1903857421875,0.8911669921875001,1.012584903808135,0.8134765625,3.42578125,-1.85986328125,29.56529411764706,323.9885140330363
0.4268295898437499,0.1811083984375,0.9033740234375,1.0154153716447456,0.82568359375,3.3623046875,-1.82470703125,29.51823529411765,323.9885140330363
0.4097397460937499,0.1791552734375,0.9121630859375,1.0158861977979912,0.94140625,3.4677734375,-1.75927734375,29.56529411764706,323.9885140330363
0.4146225585937499,0.1679248046875,0.8994677734375001,1.00456601653489,0.9931640625,3.62158203125,-2.009765625,29.47117647058824,323.9885140330363
0.4214584960937499,0.1669482421875,0.8975146484375001,1.0055006333458925,0.94580078125,3.78515625,-2.1728515625,29.56529411764706,323.9885140330363
0.4185288085937499,0.1503466796875,0.8950732421875001,0.9994631541962928,0.89111328125,3.88427734375,-2.30224609375,29.56529411764706,323.9885140330363
0.4082749023437499,0.1347216796875,0.9072802734375,1.0039899508612846,0.8251953125,3.9111328125,-2.3994140625,29.56529411764706,323.9885140330363
0.4072983398437499,0.1264208984375,0.9038623046875,0.9994204555822434,0.78515625,3.91552734375,-2.44140625,29.51823529411765,323.9885140330363
0.3926499023437499,0.1347216796875,0.9063037109375,0.9968501859594858,0.78125,3.85693359375,-2.40283203125,29.56529411764706,323.9345305942255
0.3946030273437499,0.1347216796875,0.9063037109375,0.9976211187749372,0.763671875,3.76318359375,-2.3505859375,29.47117647058824,323.9345305942255
0.3858139648437499,0.1303271484375,0.8989794921875001,0.9869152488749984,0.7451171875,3.59326171875,-2.21728515625,29.56529411764706,323.9345305942255
0.3716538085937499,0.1303271484375,0.9092333984375,0.9908668386298412,0.73779296875,3.30908203125,-2.00146484375,29.51823529411765,323.9345305942255
0.3526108398437499,0.1386279296875,0.9185107421875,0.9935864787619592,0.80419921875,2.90087890625,-1.7900390625,29.47117647058824,323.9345305942255
0.3301499023437499,0.1410693359375,0.9248583984375,0.9921000820077642,0.86376953125,2.42236328125,-1.58056640625,29.51823529411765,323.9345305942255
0.3135483398437499,0.1435107421875,0.9321826171875,0.9939176657694118,0.912109375,1.96044921875,-1.54150390625,29.424117647058825,323.9345305942255
0.3062241210937499,0.1537646484375,0.9609912109375,1.0202553047879095,0.9580078125,1.599609375,-1.5029296875,29.47117647058824,323.9345305942255
0.2969467773437499,0.1566943359375,0.9556201171875,1.012887117038806,0.9697265625,1.4755859375,-1.875,29.47117647058824,323.9345305942255
0.2862045898437499,0.1654833984375,0.9658740234375,1.0208870905038412,0.9765625,1.5322265625,-2.19482421875,29.56529411764706,323.92352084300745
0.2813217773437499,0.1713427734375,0.9814990234375,1.0352973589389027,1.02197265625,1.71337890625,-2.46435546875,29.47117647058824,323.92352084300745
0.2735092773437499,0.1679248046875,0.9863818359375,1.0372825994346326,1.041015625,1.88525390625,-2.7119140625,29.51823529411765,323.92352084300745
0.2715561523437499,0.1703662109375,0.9751513671875,1.0264928536685451,1.0234375,2.03466796875,-2.87255859375,29.61235294117647,323.92352084300745
0.2837631835937499,0.1576708984375,0.9751513671875,1.0277654623040215,0.958984375,2.02197265625,-2.91552734375,29.51823529411765,323.92352084300745
0.2788803710937499,0.1454638671875,0.9839404296875,1.0329921428608029,0.91064453125,1.89208984375,-2.8671875,29.47117647058824,323.92352084300745
0.2852280273437499,0.1269091796875,0.9678271484375,1.0169318348463794,0.86376953125,1.708984375,-2.75244140625,29.47117647058824,323.92352084300745
0.2788803710937499,0.1200732421875,0.9595263671875,1.006420734185682,0.8115234375,1.60546875,-2.58203125,29.47117647058824,323.92352084300745
0.2759506835937499,0.1151904296875,0.9600146484375,1.00550770264679,0.7646484375,1.134765625,-2.38623046875,29.424117647058825,323.92352084300745
0.2705795898437499,0.1054248046875,0.9487841796875,0.9922293704122508,0.70068359375,0.728515625,-2.21044921875,29.56529411764706,323.92352084300745
0.2627670898437499,0.1005419921875,0.9448779296875,0.98587501119996,0.6708984375,0.390625,-2.111328125,29.51823529411765,323.9995238068333
0.2613022460937499,0.1093310546875,0.9448779296875,0.9864210284372774,0.654296875,0.2333984375,-2.00634765625,29.51823529411765,323.9995238068333
0.2520249023437499,0.1269091796875,0.9712451171875,1.011404750310622,0.6416015625,-0.140625,-1.841796875,29.51823529411765,323.9995238068333
0.24421240234375,0.1356982421875,0.9839404296875,1.0228355095346002,0.7197265625,-0.50390625,-1.63916015625,29.424117647058825,323.9995238068333
0.23737646484375,0.1420458984375,1.0073779296875005,1.044669764349532,0.841796875,-0.99609375,-1.48974609375,29.56529411764706,323.9995238068333
0.23981787109375,0.1571826171875,1.0039599609375005,1.0441046832609635,0.966796875,-1.1318359375,-1.419921875,29.51823529411765,323.9995238068333
0.24958349609375,0.1796435546875,1.0239794921875005,1.0691574854452972,1.09033203125,-1.38330078125,-1.46337890625,29.51823529411765,323.9995238068333
0.2774155273437499,0.1869677734375,1.0513232421875005,1.1032664604161702,1.1328125,-1.6650390625,-1.6376953125,29.47117647058824,323.8915570896742
0.2969467773437499,0.1830615234375,1.0566943359375005,1.1127856170621957,1.140625,-1.599609375,-1.63720703125,29.56529411764706,323.8915570896742
0.2998764648437499,0.1796435546875,1.0591357421875005,1.1153323366992516,1.04296875,-1.248046875,-1.732421875,29.47117647058824,323.8915570896742
0.2764389648437499,0.1815966796875,1.0542529296875005,1.1049185920745863,0.9267578125,-0.12841796875,-1.458984375,29.51823529411765,323.8915570896742
0.24470068359375,0.1723193359375,1.0361865234375005,1.078542947426148,0.740234375,0.8828125,-1.07568359375,29.56529411764706,323.8915570896742
0.23395849609375,0.1747607421875,1.0342333984375005,1.074670469189489,0.7353515625,2.14306640625,-0.6591796875,29.51823529411765,323.8915570896742
0.22956396484375,0.1703662109375,1.0186083984375005,1.0579637655191187,0.52392578125,3.03076171875,-0.37744140625,29.47117647058824,323.8915570896742
0.22175146484375,0.1718310546875,1.0015185546875005,1.0400668434762772,0.39453125,3.77880859375,-0.18359375,29.51823529411765,323.8915570896742
0.22126318359375,0.1698779296875,0.9712451171875,1.0105112493532733,0.31494140625,4.03564453125,-0.12890625,29.51823529411765,323.8915570896742
0.22077490234375,0.1698779296875,0.9341357421875,0.9747869784378508,0.25732421875,3.970703125,-0.1689453125,29.56529411764706,323.90256686037213
0.21052099609375,0.1684130859375,0.9414599609375,0.9793002171753744,0.29541015625,3.72998046875,-0.197265625,29.56529411764706,323.90256686037213
0.21491552734375,0.1698779296875,0.9053271484375,0.9458670311340428,0.38720703125,3.05029296875,-0.17529296875,29.47117647058824,323.90256686037213
0.3316147460937499,0.1664599609375,0.8901904296875001,0.9644253519735742,0.46142578125,2.14794921875,-0.109375,29.56529411764706,323.90256686037213
0.19880224609375,0.1513232421875,0.8735888671875001,0.9086135402645044,0.44970703125,1.2666015625,-0.02880859375,29.56529411764706,323.90256686037213
0.20075537109375,0.1493701171875,0.8853076171875001,0.9199911564693466,0.46533203125,0.5869140625,0.0380859375,29.51823529411765,323.90256686037213
0.19636083984375,0.1488818359375,0.8853076171875001,0.9189629794210824,0.4423828125,-0.23681640625,0.1064453125,29.51823529411765,323.90256686037213
0.18171240234375,0.1459521484375,0.9019091796875,0.9315372215878645,0.34619140625,-0.64892578125,0.2021484375,29.47117647058824,323.90256686037213
0.19147802734375,0.1508349609375,0.9121630859375,0.944169749432534,0.173828125,-1.173828125,0.23828125,29.56529411764706,323.90256686037213
0.20173193359375,0.1708544921875,0.9414599609375,0.977872122815944,0.0048828125,-1.33349609375,0.166015625,29.424117647058825,324.0513778505117
0.22126318359375,0.1928271484375,0.9736865234375,1.0169587757192444,-0.12109375,-1.3310546875,0.12109375,29.47117647058824,324.0513778505117
0.23102880859375,0.2094287109375,0.9897998046875,1.037756401437545,-0.16064453125,-1.15234375,-0.15869140625,29.51823529411765,324.0513778505117
0.22809912109375,0.2177294921875,1.0225146484375005,1.0700334326932186,-0.1826171875,-0.93115234375,-0.2353515625,29.56529411764706,324.0513778505117
0.21979833984375,0.2260302734375,1.0327685546875005,1.0798203009110394,-0.1357421875,-0.69140625,-0.224609375,29.51823529411765,324.0513778505117
0.21100927734375,0.2304248046875,1.0439990234375005,1.0897497266248146,-0.0537109375,-0.43798828125,-0.15576171875,29.47117647058824,324.0513778505117
0.20222021484375,0.2406787109375,1.0322802734375005,1.0790837873484105,0.03857421875,-0.2265625,-0.05908203125,29.47117647058824,324.0513778505117
0.19929052734375,0.2362841796875,1.0493701171875005,1.093949071349143,0.1123046875,-0.08642578125,0.04052734375,29.47117647058824,324.0513778505117
0.19538427734375,0.2421435546875,1.0317919921875005,1.0776841986649377,0.1630859375,0.03466796875,0.01025390625,29.56529411764706,324.1913112437324
0.18073583984375,0.2572802734375,1.0269091796875005,1.0739651047545984,0.14892578125,0.271484375,-0.173828125,29.51823529411765,324.1913112437324
0.18903662109375,0.2748583984375,1.0151904296875005,1.0685942128962056,0.17578125,0.5263671875,-0.384765625,29.61235294117647,324.1913112437324
0.19538427734375,0.2807177734375,0.9995654296875,1.0564603789935538,0.185546875,0.693359375,-0.91748046875,29.51823529411765,324.1913112437324
0.20612646484375,0.2792529296875,0.9849169921875,1.04428530572239,0.14794921875,0.69287109375,-1.19677734375,29.47117647058824,324.1913112437324
0.20368505859375,0.2689990234375,0.9834521484375,1.0397241008897518,0.208984375,0.4697265625,-1.29931640625,29.51823529411765,324.1913112437324
0.19977880859375,0.2733935546875,0.9897998046875,1.0461162753094029,0.29931640625,0.09423828125,-1.3125,29.61235294117647,324.1913112437324
0.19587255859375,0.2602099609375,0.9731982421875,1.0262505062498128,0.37060546875,-0.20166015625,-1.33056640625,29.659411764705883,324.1913112437324
0.19050146484375,0.2563037109375,0.9814990234375,1.0321447250055171,0.38916015625,-0.23876953125,-1.39794921875,29.61235294117647,324.24529583152207
0.18952490234375,0.2523974609375,0.9717333984375,1.0217093346617707,0.25244140625,-0.10400390625,-1.517578125,29.424117647058825,324.24529583152207
0.18366552734375,0.2440966796875,0.9722216796875,1.0190835144497743,0.3564453125,0.0634765625,-1.658203125,29.424117647058825,324.24529583152207
0.18268896484375,0.2314013671875,0.9829638671875,1.0262260057161534,0.3369140625,0.193359375,-1.720703125,29.51823529411765,324.24529583152207
0.16169287109375,0.2113818359375,0.9990771484375,1.0339158639158483,0.34375,0.17724609375,-1.6943359375,29.51823529411765,324.24529583152207
0.15143896484375,0.1610888671875,1.0444873046875005,1.0676315435851724,0.419921875,-0.16943359375,-1.65283203125,29.51823529411765,324.24529583152207
0.18024755859375,0.1112841796875,1.0718310546875005,1.0925635728964451,0.45751953125,-0.845703125,-1.69775390625,29.51823529411765,324.24529583152207
0.23395849609375,0.0414599609375,1.0884326171875005,1.11406510959325,0.40380859375,-1.728515625,-1.76513671875,29.56529411764706,324.24529583152207
0.2979233398437499,-0.0278759765625,1.1113818359375005,1.150958284102763,0.2978515625,-2.7021484375,-2.28369140625,29.61235294117647,324.24529583152207
0.3394272460937499,-0.0727978515625,1.1343310546875005,1.186261912147296,0.18212890625,-3.1533203125,-2.60986328125,29.56529411764706,324.1582823149678
0.3697006835937499,-0.0762158203125,1.1191943359375005,1.1811364901272738,0.1103515625,-3.4951171875,-2.78759765625,29.47117647058824,324.1582823149678
0.3775131835937499,-0.0630322265625,1.1021044921875005,1.1666720092092646,-0.3271484375,-2.525390625,-2.84765625,29.56529411764706,324.1582823149678
0.4546616210937499,-0.0400830078125,1.0669482421875005,1.1604750702698832,-0.60009765625,-0.7109375,-2.60009765625,29.47117647058824,324.1582823149678
0.2691147460937499,0.0048388671875,1.0386279296875005,1.0729371545098552,-0.697265625,1.4833984375,-2.03662109375,29.47117647058824,324.1582823149678
0.21442724609375,0.0331591796875,1.0034716796875005,1.0266615737426577,-0.6103515625,3.05908203125,-1.58935546875,29.56529411764706,324.1582823149678
0.19489599609375,0.0502490234375,0.9551318359375,0.9761076977829533,-0.51513671875,3.7578125,-1.3759765625,29.56529411764706,324.1582823149678
0.18317724609375,0.0644091796875,0.9180224609375,0.9383323956361364,-0.45361328125,3.32470703125,-1.37890625,29.51823529411765,324.1582823149678
0.18854833984375,0.0736865234375,0.8945849609375001,0.9172035938272854,-0.40478515625,2.37255859375,-1.8701171875,29.51823529411765,324.0822787318218
0.20222021484375,0.0663623046875,0.8584521484375001,0.8844416667773227,-0.35205078125,0.79052734375,-2.267578125,29.51823529411765,324.0822787318218
0.22370458984375,0.0380419921875,0.8608935546875001,0.8902969443894738,-0.26953125,-1.2841796875,-2.638671875,29.56529411764706,324.0822787318218
0.23151708984375,0.0028857421875,0.8931201171875001,0.9226440451889912,-0.0537109375,-3.1015625,-2.5576171875,29.51823529411765,324.0822787318218
0.2505600585937499,-0.0361767578125,0.9526904296875,0.9857525833526796,0.296875,-4.4404296875,-2.21484375,29.51823529411765,324.0822787318218
0.2608139648437499,-0.0825634765625,0.9985888671875,1.0353841690843153,0.6484375,-5.27880859375,-1.8056640625,29.47117647058824,324.0822787318218
0.2725327148437499,-0.1069775390625,0.9292529296875,0.9742839841939184,1.17236328125,-5.53955078125,-1.283203125,29.61235294117647,324.0822787318218
0.3267319335937499,-0.1382275390625,1.1035693359375005,1.1591919117241636,1.36767578125,-5.4658203125,-0.88671875,29.61235294117647,324.0822787318218
0.3692124023437499,-0.1567822265625,1.1304248046875005,1.1994826816853636,1.34521484375,-5.21728515625,-0.6552734375,29.47117647058824,324.0613233353216
0.4072983398437499,-0.1689892578125,1.1660693359375005,1.246662345268043,1.19580078125,-4.529296875,-0.68603515625,29.51823529411765,324.0613233353216
0.4361069335937499,-0.1689892578125,1.1860888671875005,1.2749719321030917,0.9453125,-3.841796875,-0.9111328125,29.424117647058825,324.0613233353216
0.4444077148437499,-0.1689892578125,1.1807177734375005,1.272851148712948,0.62548828125,-2.53759765625,-1.20361328125,29.56529411764706,324.0613233353216
0.4409897460937499,-0.1772900390625,1.1636279296875005,1.2569541252008487,0.3525390625,-1.25146484375,-1.35888671875,29.61235294117647,324.0613233353216
0.4204819335937499,-0.1616650390625,1.1704638671875005,1.2541635881037756,0.18603515625,-0.06787109375,-1.31494140625,29.51823529411765,324.0613233353216
0.3838608398437499,-0.1362744140625,1.1455615234375005,1.215825260583968,0.1259765625,0.88720703125,-1.1767578125,29.51823529411765,324.0613233353216
0.3653061523437499,-0.1118603515625,1.1201708984375005,1.183530381907519,0.10693359375,1.51513671875,-1.0791015625,29.61235294117647,324.0613233353216
0.3443100585937499,-0.0947705078125,1.0962451171875005,1.152945888824496,0.04052734375,1.94775390625,-1.00244140625,29.51823529411765,324.0613233353216
0.3203842773437499,-0.0669384765625,1.0689013671875005,1.117889519402026,-0.0244140625,2.11572265625,-1.3359375,29.51823529411765,324.2442323667866
0.3042709960937499,-0.0605908203125,1.0562060546875005,1.1008284682585927,0.005859375,2.2470703125,-1.51806640625,29.47117647058824,324.2442323667866
0.2925522460937499,-0.0483837890625,1.0415576171875005,1.0829450944807155,0.06884765625,2.3916015625,-2.02978515625,29.424117647058825,324.2442323667866
0.2905991210937499,-0.0469189453125,1.0171435546875005,1.0588816021879033,0.142578125,2.78271484375,-2.423828125,29.51823529411765,324.2442323667866
0.2886459960937499,-0.0376416015625,1.0020068359375005,1.0434323650791286,0.1748046875,3.0634765625,-2.7783203125,29.51823529411765,324.2442323667866
0.2969467773437499,-0.0435009765625,0.9937060546875,1.0380373050422256,0.2431640625,3.30322265625,-3.0771484375,29.56529411764706,324.2442323667866
0.2798569335937499,-0.0552197265625,0.9756396484375,1.016485044201528,0.31591796875,3.54052734375,-3.263671875,29.51823529411765,324.2442323667866
0.2881577148437499,-0.0693798828125,0.9526904296875,0.9977311720003548,0.35205078125,3.5791015625,-3.345703125,29.47117647058824,324.2442323667866
0.2827866210937499,-0.0908642578125,0.9409716796875,0.9867382066137664,0.3037109375,3.31787109375,-3.41650390625,29.47117647058824,323.9952658748704
0.2969467773437499,-0.1182080078125,0.9316943359375,0.9849897752280772,0.19677734375,2.9140625,-3.57861328125,29.51823529411765,323.9952658748704
0.2964584960937499,-0.1406689453125,0.9331591796875,0.98917210166712,0.04638671875,2.4501953125,-3.80615234375,29.47117647058824,323.9952658748704
0.2847397460937499,-0.1641064453125,0.9414599609375,0.9971732579883382,-0.12060546875,1.89453125,-3.884765625,29.51823529411765,323.9952658748704
0.2554428710937499,-0.1851025390625,0.9795458984375,1.029089003685168,-0.2158203125,1.4013671875,-4.0576171875,29.424117647058825,323.9952658748704
0.22419287109375,-0.1963330078125,0.9995654296875,1.043043691142571,-0.28076171875,1.3486328125,-4.12158203125,29.61235294117647,323.9952658748704
0.19977880859375,-0.1948681640625,1.0010302734375005,1.039204879735745,-0.29931640625,1.69384765625,-3.8515625,29.56529411764706,323.9952658748704
0.20075537109375,-0.1914501953125,1.0132373046875005,1.050526407054375,-0.2568359375,2.07666015625,-3.685546875,29.51823529411765,323.9952658748704
0.18806005859375,-0.1880322265625,1.0156787109375005,1.0499171146885826,-0.23095703125,2.2431640625,-3.47216796875,29.56529411764706,324.0282945420154
0.16022802734375,-0.1802197265625,1.0093310546875005,1.0377385742783745,-0.21875,2.18896484375,-3.2890625,29.51823529411765,324.0282945420154
0.13093115234375,-0.1709423828125,1.0176318359375005,1.0401628807110956,-0.22900390625,1.890625,-3.1689453125,29.424117647058825,324.0282945420154
0.13727880859375,-0.1645947265625,1.0190966796875005,1.0413908669904837,-0.2646484375,1.384765625,-3.12548828125,29.51823529411765,324.0282945420154
0.13288427734375,-0.1543408203125,1.0195849609375005,1.0397272779675593,-0.3359375,1.01220703125,-3.43994140625,29.47117647058824,324.0282945420154
0.13825537109375,-0.1509228515625,1.0171435546875005,1.0375322961731606,-0.25146484375,0.7861328125,-3.64794921875,29.424117647058825,324.0282945420154
0.14655615234375,-0.1504345703125,1.0088427734375005,1.030472225366593,-0.34228515625,0.68994140625,-3.748046875,29.51823529411765,324.0282945420154
0.14997412109375,-0.1499462890625,1.0083544921875005,1.0304149205616977,-0.2294921875,0.59033203125,-3.3486328125,29.56529411764706,324.0282945420154
0.14850927734375,-0.1606884765625,0.9941943359375,1.0179873130679706,-0.087890625,0.5556640625,-2.90087890625,29.51823529411765,324.0282945420154
0.14997412109375,-0.1665478515625,0.9922412109375,1.0172379488303824,0.0791015625,0.51416015625,-2.41015625,29.56529411764706,323.9743105297998
0.14655615234375,-0.1553173828125,0.9976123046875,1.0202119905477658,0.20849609375,0.45849609375,-2.04638671875,29.56529411764706,323.9743105297998
0.14997412109375,-0.1553173828125,0.9932177734375,1.0164139274300177,0.2890625,0.38330078125,-1.80224609375,29.51823529411765,323.9743105297998
0.14997412109375,-0.1406689453125,0.9824755859375,1.0037620565335232,0.33935546875,0.31396484375,-1.736328125,29.424117647058825,323.9743105297998
0.15583349609375,-0.1313916015625,0.9878466796875,1.0086569754061971,0.34033203125,0.15380859375,-1.7294921875,29.51823529411765,323.9743105297998
0.15046240234375,-0.1221142578125,0.9839404296875,1.0028407628600726,0.33642578125,0.00927734375,-1.70849609375,29.61235294117647,323.9743105297998
0.13483740234375,-0.1040478515625,0.9863818359375,1.000977625500698,0.4248046875,-0.16015625,-1.5546875,29.61235294117647,323.9743105297998
0.12946630859375,-0.0898876953125,0.9741748046875,0.9868423749096984,0.509765625,-0.3447265625,-1.31591796875,29.51823529411765,323.9743105297998
0.12507177734375,-0.0835400390625,0.9868701171875,0.9982657541016614,0.6513671875,-0.4453125,-1.08642578125,29.424117647058825,324.2001940350152
0.13776708984375,-0.0913525390625,0.9971240234375,1.010733088185684,0.7421875,-0.56787109375,-0.9736328125,29.424117647058825,324.2001940350152
0.15632177734375,-0.0918408203125,0.9966357421875,1.012992614461335,0.79638671875,-0.71630859375,-0.912109375,29.56529411764706,324.2001940350152
0.16462255859375,-0.0913525390625,0.9824755859375,1.0003520131205577,0.8681640625,-0.72607421875,-0.86572265625,29.51823529411765,324.2001940350152
0.15973974609375,-0.0913525390625,0.9834521484375,1.0005199653887953,0.9736328125,-0.60791015625,-0.8154296875,29.47117647058824,324.2001940350152
0.16315771484375,-0.0879345703125,0.9800341796875,0.9974065980956962,1.07177734375,-0.58642578125,-0.693359375,29.47117647058824,324.2001940350152
0.15290380859375,-0.0977001953125,0.9932177734375,1.0096565992052544,1.1474609375,-0.67724609375,-0.5185546875,29.56529411764706,324.2001940350152
0.14606787109375,-0.0923291015625,0.9995654296875,1.0143921993921068,1.2109375,-0.806640625,-0.3671875,29.47117647058824,324.2001940350152
0.13581396484375,-0.0835400390625,0.9990771484375,1.0117210681324915,1.27587890625,-0.9345703125,-0.25390625,29.51823529411765,324.24316934450337
0.14802099609375,-0.0762158203125,0.9985888671875,1.012372852372735,1.28662109375,-1.00927734375,-0.5546875,29.61235294117647,324.24316934450337
0.14948583984375,-0.0771923828125,1.0078662109375005,1.0218116164086102,1.26806640625,-1.0068359375,-0.77197265625,29.51823529411765,324.24316934450337
0.15143896484375,-0.0796337890625,1.0244677734375005,1.0386575562934044,1.2900390625,-0.98974609375,-0.89990234375,29.51823529411765,324.24316934450337
0.14460302734375,-0.0874462890625,1.0283740234375005,1.0421660237547623,1.3115234375,-0.95947265625,-0.91552734375,29.51823529411765,324.24316934450337
0.14216162109375,-0.0874462890625,1.0347216796875005,1.0480962429081249,1.35595703125,-0.9091796875,-0.86279296875,29.47117647058824,324.24316934450337
0.15485693359375,-0.0889111328125,1.0420458984375005,1.057234843291914,1.43701171875,-0.9892578125,-0.7646484375,29.51823529411765,324.24316934450337
0.16022802734375,-0.0923291015625,1.0508349609375005,1.0669825672757385,1.51953125,-0.76171875,-0.67626953125,29.56529411764706,324.24316934450337
0.16169287109375,-0.0947705078125,1.0474169921875005,1.064052813180196,1.60986328125,-0.52294921875,-0.58837890625,29.56529411764706,324.0712691535264
0.17634130859375,-0.0923291015625,1.0649951171875005,1.083436901598387,1.6669921875,-0.251953125,-0.533203125,29.424117647058825,324.0712691535264
0.17438818359375,-0.0923291015625,1.0586474609375005,1.076879913510268,1.732421875,-0.0615234375,-0.4765625,29.47117647058824,324.0712691535264
0.16950537109375,-0.0830517578125,1.0630419921875005,1.0796702934041231,1.76318359375,0.0625,-0.4619140625,29.51823529411765,324.0712691535264
0.16169287109375,-0.0757275390625,1.0625537109375005,1.077450524786199,1.77294921875,0.125,-0.5283203125,29.56529411764706,324.0712691535264
0.15436865234375,-0.0684033203125,1.0708544921875005,1.0840839628434458,1.76220703125,0.572265625,-0.65283203125,29.51823529411765,324.0712691535264
0.14948583984375,-0.0537548828125,1.0825732421875005,1.0941665451110874,1.7802734375,0.98828125,-0.8115234375,29.51823529411765,324.0712691535264
0.15192724609375,-0.0508251953125,1.0742724609375005,1.086152111314478,1.80615234375,1.53857421875,-0.9951171875,29.47117647058824,324.0712691535264
0.15827490234375,-0.0478955078125,1.0718310546875005,1.0845122102461826,1.7861328125,2.05859375,-1.11181640625,29.51823529411765,324.0712691535264
0.16657568359375,-0.0425244140625,1.0635302734375005,1.0773358003306714,1.76220703125,2.353515625,-1.1474609375,29.56529411764706,324.17923804879825
0.17487646484375,-0.0625439453125,1.0439990234375005,1.0603902507991831,1.77392578125,2.52734375,-1.1357421875,29.56529411764706,324.17923804879825
0.16657568359375,-0.0674267578125,1.0381396484375005,1.0535785474713155,1.8408203125,2.5810546875,-1.0009765625,29.47117647058824,324.17923804879825
0.16315771484375,-0.0815869140625,1.0278857421875005,1.0439472991734902,1.86767578125,2.47900390625,-0.8125,29.56529411764706,324.17923804879825
0.15388037109375,-0.0996533203125,1.0161669921875005,1.0325721809484545,1.9912109375,2.3740234375,-0.59912109375,29.61235294117647,324.17923804879825
0.15339208984375,0.0082568359375,1.0029833984375005,1.0146787699107385,1.7978515625,1.77587890625,-0.3837890625,29.51823529411765,324.17923804879825
0.16169287109375,-0.1186962890625,1.0039599609375005,1.0238012486637118,1.689453125,1.056640625,-0.19384765625,29.51823529411765,324.17923804879825
0.16755224609375,-0.1147900390625,1.0254443359375005,1.045364335696092,1.572265625,0.31591796875,-0.03759765625,29.56529411764706,324.17923804879825
0.14460302734375,-0.0942822265625,1.0596240234375005,1.0735931467778823,1.48583984375,-0.232421875,0.11962890625,29.51823529411765,323.984256347188
0.11579443359375,-0.0601025390625,1.0708544921875005,1.0787724549186477,1.49755859375,0.12109375,0.23828125,29.61235294117647,323.984256347188
0.10895849609375,-0.0234814453125,0.9307177734375,0.9373680738842312,1.4755859375,0.87548828125,0.3046875,29.56529411764706,323.984256347188
0.13874365234375,-0.0024853515625,1.0532763671875005,1.0623780323941994,1.4892578125,1.82275390625,0.31396484375,29.47117647058824,323.984256347188
0.14997412109375,0.0297412109375,1.0532763671875005,1.0643156873322734,1.5126953125,2.1640625,0.341796875,29.51823529411765,323.984256347188
0.14264990234375,0.0590380859375,1.0264208984375005,1.0379664498330812,1.56640625,1.935546875,0.34375,29.51823529411765,323.984256347188
0.14850927734375,0.0780810546875,1.0103076171875005,1.02414507659089,1.58251953125,1.15771484375,0.18603515625,29.56529411764706,323.984256347188
0.15583349609375,0.0863818359375,0.9937060546875,1.009553179979802,1.53662109375,0.33154296875,-0.19921875,29.51823529411765,323.984256347188
0.16511083984375,0.0941943359375,0.9678271484375,0.986318179701296,1.490234375,-0.5458984375,-0.6865234375,29.47117647058824,323.9942024979662
0.18317724609375,0.0893115234375,0.9541552734375,0.975675528817756,1.4345703125,-1.16748046875,-1.04248046875,29.51823529411765,323.9942024979662
