AccX,AccY,AccZ,Magnitude,GyroX,GyroY,GyroZ,Temperature,Altitude
-0.24651025390625,0.7826708984375,-0.4013134765624999,0.9134514475398064,-1.31396484375,1.18017578125,3.1328125,32.624117647058824,333.831896447231
-0.23430322265625,0.8817919921875,-0.4184033203124999,1.0037511923189075,-1.55126953125,1.02392578125,3.42822265625,32.624117647058824,333.831896447231
-0.23479150390625,0.7460498046875,-0.4203564453124999,0.8879284332065149,-1.83251953125,0.99267578125,3.58984375,32.53,333.831896447231
-0.23625634765625,0.7294482421875,-0.4301220703124999,0.8791568660985454,-2.1552734375,0.8251953125,3.830078125,32.57705882352941,333.831896447231
-0.25676416015625,0.7182177734375,-0.4257275390624999,0.8735036013311434,-2.384765625,0.49365234375,4.14306640625,32.53,333.6470249224534
-0.24651025390625,0.7279833984375,-0.4105908203124999,0.8713850787145873,-2.90625,-0.02587890625,4.86767578125,32.624117647058824,333.6470249224534
-0.22014306640625,0.7450732421875,-0.3822705078124999,0.8658682619508387,-3.30810546875,-0.4892578125,5.57080078125,32.67117647058824,333.6470249224534
-0.19963525390625,0.7753466796875,-0.3393017578124999,0.8695644836119378,-3.611328125,-0.78662109375,6.1513671875,32.57705882352941,333.6470249224534
-0.18254541015625,0.8061083984375,-0.3178173828124999,0.8855176258089795,-3.80126953125,-1.0947265625,6.8955078125,32.624117647058824,333.6470249224534
-0.16106103515625,0.8627490234375,-0.2763134765624999,0.9201226395530206,-3.80078125,-1.20166015625,7.8212890625,32.53,333.6470249224534
-0.12395166015625,0.8959521484375,-0.2645947265624999,0.9423930367261564,-3.77880859375,-1.15087890625,8.380859375,32.48294117647059,333.6470249224534
-0.16545556640625,0.9447802734375,-0.2777783203124999,0.9985720328384348,-3.96826171875,-1.3447265625,8.595703125,32.67117647058824,333.6470249224534
-0.03703759765625,1.0116748046875,-0.2719189453124999,1.0482354730209715,-3.91357421875,-1.76806640625,8.59716796875,32.57705882352941,333.59653891879367
0.0132553710937499,1.0522021484375,-0.2982861328124999,1.0937457122510517,-4.0146484375,-2.02294921875,8.16748046875,32.53,333.59653891879367
0.0337631835937499,1.0927294921875,-0.2421337890624999,1.1197439294180165,-3.88134765625,-2.65478515625,7.73388671875,32.57705882352941,333.59653891879367
0.0454819335937499,1.0761279296875,-0.2352978515624999,1.1024903656208789,-3.7978515625,-3.17724609375,7.29052734375,32.67117647058824,333.59653891879367
0.0210678710937499,1.0380419921875,-0.2411572265624999,1.0658948544112283,-3.83203125,-3.4013671875,7.02294921875,32.53,333.59653891879367
0.0152084960937499,1.0189990234375,-0.2279736328124999,1.0442999020289816,-3.9560546875,-3.47607421875,6.99365234375,32.67117647058824,333.59653891879367
0.0274155273437499,0.9931201171875,-0.2011181640624999,1.0136506766228297,-4.171875,-3.62646484375,7.05615234375,32.57705882352941,333.59653891879367
0.0342514648437499,0.9691943359375,-0.1693798828124999,0.9844797450221364,-4.28076171875,-3.64453125,7.1279296875,32.53,333.59653891879367
0.0425522460937499,0.9433154296875,-0.1337353515624999,0.9536979803856572,-4.25830078125,-3.6845703125,7.4833984375,32.57705882352941,333.59012205805993
0.06452490234375,0.9369677734375,-0.1078564453124999,0.9453597644697732,-4.1943359375,-3.69140625,7.66650390625,32.57705882352941,333.59012205805993
0.07917333984375,0.9223193359375,-0.0785595703124999,0.9290387404591316,-4.16943359375,-3.857421875,7.91650390625,32.624117647058824,333.59012205805993
0.07966162109375,0.8998583984375,-0.0648876953124999,0.9057049873533626,-4.12646484375,-3.79541015625,8.17236328125,32.67117647058824,333.59012205805993
0.07770849609375,1.0131396484375,-0.0512158203124999,1.0174053360639974,-4.39453125,-3.751953125,8.36279296875,32.57705882352941,333.59012205805993
0.07233740234375,0.8744677734375,-0.0258251953124999,0.8778345671432113,-4.5556640625,-3.67431640625,8.70458984375,32.57705882352941,333.59012205805993
0.0347397460937499,0.8647021484375,-0.0233837890624999,0.8657155751527207,-4.7646484375,-3.32177734375,9.0908203125,32.48294117647059,333.59012205805993
0.0039780273437499,0.8734912109375,0.0064013671875,0.8735237248000062,-4.611328125,-2.6796875,9.48388671875,32.57705882352941,333.59012205805993
0.0205795898437499,0.8544482421875,-0.0018994140624999,0.8546981489796421,-4.02880859375,-1.94970703125,9.48388671875,32.57705882352941,333.2995947264913
0.11481787109375,0.7826708984375,0.0068896484375,0.7910779645768531,-4.1875,-2.0185546875,9.19091796875,32.53,333.2995947264913
0.20319677734375,0.7641162109375,0.0527880859375,0.7924323921681347,-4.27587890625,-2.16064453125,9.31396484375,32.67117647058824,333.2995947264913
0.24372412109375,0.7304248046875,0.0635302734375,0.7726305314629607,-3.85791015625,-1.34130859375,9.6357421875,32.57705882352941,333.2995947264913
0.3848374023437499,0.6908740234375,0.0879443359375,0.7957015450072298,-3.81396484375,-1.25390625,9.80078125,32.57705882352941,333.2995947264913
0.4907944335937499,0.7421435546875,0.1157763671875,0.8972515806672859,-3.63623046875,-2.3271484375,10.1298828125,32.53,333.2995947264913
0.54499365234375,0.7797412109375,0.1362841796875,0.9610347625150476,-3.48828125,-3.43701171875,10.69921875,32.43588235294118,333.2995947264913
0.61579443359375,0.8202685546875,0.1480029296875,1.0363146980769165,-3.27001953125,-4.6298828125,10.89892578125,32.53,333.2995947264913
0.66950537109375,0.8607958984375,0.1792529296875,1.1051419064951589,-2.7685546875,-5.88818359375,11.01708984375,32.57705882352941,333.6365935154726
0.73786474609375,0.8822802734375,0.1973193359375,1.1669609182658005,-2.18115234375,-7.244140625,11.12060546875,32.53,333.6365935154726
0.79889990234375,0.8886279296875,0.1748583984375,1.2076738429268363,-1.77587890625,-8.2431640625,11.31591796875,32.57705882352941,333.6365935154726
0.66071630859375,0.9262255859375,0.2813037109375,1.1719947330403089,-3.07373046875,-6.0849609375,13.37109375,32.57705882352941,333.6365935154726
0.85700537109375,1.1630419921875,0.5772021484375001,1.5557272260379935,-1.84716796875,-3.68505859375,13.32763671875,32.57705882352941,333.6365935154726
1.05866552734375,1.1107958984375,0.4653857421875,1.603503699965486,-0.513671875,-2.931640625,12.32421875,32.48294117647059,333.6365935154726
0.98102880859375,1.0365771484375,0.2954638671875,1.4574665021080533,0.31884765625,-2.55517578125,11.537109375,32.57705882352941,333.6365935154726
0.89069677734375,0.8627490234375,0.1440966796875,1.2483751358104918,0.52880859375,-2.431640625,11.56298828125,32.57705882352941,333.6365935154726
0.60993505859375,0.7196826171875,-0.0023876953124999,0.9433819726243003,-0.064453125,-2.63720703125,12.1064453125,32.57705882352941,333.6365935154726
0.69782568359375,0.6981982421875,0.0376513671875,0.987855807052774,-0.50341796875,-3.3193359375,12.48876953125,32.624117647058824,333.6049035591474
0.79938818359375,0.7152880859375,0.1123583984375,1.0785559436825185,-0.8017578125,-3.32861328125,12.66943359375,32.624117647058824,333.6049035591474
0.93513037109375,0.7157763671875,0.1748583984375,1.1905377265211703,-0.63916015625,-3.150390625,12.423828125,32.67117647058824,333.6049035591474
0.97761083984375,0.6640185546875,0.1763232421875,1.1948780192491577,-0.48583984375,-2.99609375,12.1259765625,32.57705882352941,333.6049035591474
1.07770849609375,0.6024951171875,0.1284716796875,1.2413544784907973,-0.22021484375,-2.591796875,12.443359375,32.53,333.6049035591474
0.83942724609375,0.6313037109375,0.0654833984375,1.0523642679219587,-0.08154296875,-1.900390625,12.51123046875,32.53,333.6049035591474
1.00397802734375,0.5971240234375,0.0454638671875,1.169014945146074,-0.0087890625,-1.4072265625,12.13134765625,32.53,333.6049035591474
1.10456396484375,0.5595263671875,0.1064990234375,1.242768421711192,0.09912109375,-1.21533203125,11.7451171875,32.624117647058824,333.6049035591474
1.05134130859375,0.5414599609375,0.1113818359375,1.187814526696347,0.16064453125,-1.1904296875,11.31591796875,32.67117647058824,333.6049035591474
1.05622412109375,0.5233935546875,0.1406787109375,1.1871565637184165,0.3671875,-1.06201171875,11.150390625,32.57705882352941,333.43165371706374
1.10065771484375,0.4848193359375,0.1187060546875,1.2085480218689764,0.49462890625,-0.9443359375,10.994140625,32.57705882352941,333.43165371706374
0.99616552734375,0.4779833984375,0.0967333984375,1.1091308477466406,0.66162109375,-0.83642578125,10.13720703125,32.624117647058824,333.43165371706374
0.99665380859375,0.3773974609375,0.0996630859375,1.0703646053588864,0.970703125,-0.32958984375,10.037109375,32.57705882352941,333.43165371706374
0.96882177734375,0.3481005859375,0.0732958984375,1.0320668306429064,0.98388671875,-0.2802734375,10.0205078125,32.71823529411765,333.43165371706374
0.83552099609375,0.3329638671875,0.1035693359375,0.9053656052184011,1.0400390625,-0.13134765625,9.87451171875,32.53,333.43165371706374
0.88972021484375,0.3393115234375,0.1597216796875,0.9655285524526356,1.236328125,-0.4951171875,10.3935546875,32.67117647058824,333.43165371706374
0.88190771484375,0.3241748046875,0.1553271484375,0.9523534241744652,1.53466796875,-0.43505859375,10.8076171875,32.624117647058824,333.43165371706374
1.02643896484375,0.2509326171875,0.1240771484375,1.063926344105859,1.68701171875,-0.60791015625,11.1640625,32.57705882352941,333.43165371706374
1.00056005859375,0.1864794921875,0.1138232421875,1.024134152502352,1.75927734375,-0.7353515625,11.2578125,32.57705882352941,333.2802401594342
0.95173193359375,0.2196826171875,0.0571826171875,0.978429342070678,1.80810546875,-0.72119140625,11.8291015625,32.57705882352941,333.2802401594342
1.07282568359375,0.1928271484375,0.0288623046875,1.0903991421423664,1.7412109375,-0.775390625,11.8837890625,32.53,333.2802401594342
1.16804052734375,0.1811083984375,0.0239794921875,1.1822410674425212,1.65771484375,-1.09228515625,12.0830078125,32.53,333.2802401594342
1.29841162109375,0.1420458984375,0.0029833984375,1.3061618106959234,1.8740234375,-1.2568359375,11.37744140625,32.53,333.2802401594342
1.31696630859375,0.1005419921875,-0.0150830078124999,1.3208847214230133,2.046875,-0.8779296875,10.52197265625,32.57705882352941,333.2802401594342
1.33259130859375,0.0805224609375,-0.0053173828124999,1.335032485378168,2.1044921875,-0.87255859375,9.67236328125,32.67117647058824,333.2802401594342
1.25251318359375,0.0727099609375,0.1753466796875,1.266815879113107,1.9423828125,-1.10693359375,9.6962890625,32.57705882352941,333.2802401594342
1.22614599609375,0.0409716796875,0.0322802734375,1.2272549443071514,1.74365234375,-1.19775390625,9.6201171875,32.57705882352941,333.2802401594342
1.22761083984375,0.0087451171875,0.0684130859375,1.229546746367942,1.8466796875,-1.23876953125,9.6640625,32.624117647058824,333.33482402095314
1.26520849609375,-0.0356884765625,0.0757373046875,1.2679756879642796,1.92529296875,-1.419921875,9.46923828125,32.57705882352941,333.33482402095314
1.28962255859375,-0.0200634765625,0.1348193359375,1.296805744924155,2.41259765625,-1.29150390625,8.99072265625,32.67117647058824,333.33482402095314
1.36921240234375,-0.0308056640625,0.0850146484375,1.372194986916665,2.60595703125,-2.35302734375,8.01611328125,32.57705882352941,333.33482402095314
1.49128271484375,0.0170458984375,0.1470263671875,1.4986098394490943,3.544921875,-3.640625,6.80029296875,32.67117647058824,333.33482402095314
1.54206396484375,0.0663623046875,0.0190966796875,1.543609377507195,4.7685546875,-4.3837890625,5.373046875,32.53,333.33482402095314
1.47028662109375,-0.0234814453125,0.0693896484375,1.4721104067805242,5.31103515625,-5.01953125,3.87109375,32.57705882352941,333.33482402095314
1.47175146484375,-0.0073681640625,0.0049365234375,1.4717781875591935,5.81591796875,-5.2646484375,2.3310546875,32.57705882352941,333.6707582482153
1.35163427734375,-0.0122509765625,-0.1015087890624999,1.355495975786808,5.72216796875,-5.734375,0.74462890625,32.48294117647059,333.6707582482153
1.39020849609375,-0.0742626953125,-0.0609814453124999,1.3935255100638542,5.76953125,-6.0126953125,-0.90283203125,32.624117647058824,333.6707582482153
1.20954443359375,-0.1245556640625,-0.1156689453124999,1.2214299632796723,5.69384765625,-5.96337890625,-1.76025390625,32.57705882352941,333.6707582482153
1.09821630859375,-0.1274853515625,-0.0853955078124999,1.1088841093995585,5.69677734375,-4.591796875,-1.91845703125,32.624117647058824,333.6707582482153
1.19440771484375,-0.1504345703125,-0.1176220703124999,1.2095764964019324,5.5439453125,-5.29931640625,-2.70703125,32.53,333.6707582482153
1.09382177734375,-0.1733837890625,-0.1532666015624999,1.118033393980532,4.900390625,-5.05859375,-2.86865234375,32.624117647058824,333.6707582482153
0.97858740234375,-0.2012158203125,-0.1474072265624999,1.0098762304425075,4.13037109375,-4.0927734375,-2.275390625,32.67117647058824,334.1134023361081
0.94391943359375,-0.2002392578125,-0.1322705078124999,0.97394822486733,3.55615234375,-3.32861328125,-1.89404296875,32.67117647058824,334.1134023361081
1.06110693359375,-0.1689892578125,-0.1420361328124999,1.083826349929305,2.8916015625,-2.005859375,-2.45361328125,32.57705882352941,334.1134023361081
1.00056005859375,-0.1274853515625,-0.1488720703124999,1.0195763036846592,2.6083984375,-1.37841796875,-2.99853515625,32.53,334.1134023361081
0.99616552734375,-0.1377392578125,-0.0844189453124999,1.0091800728009173,1.7880859375,-1.076171875,-2.16357421875,32.53,334.1134023361081
0.59968115234375,-0.3525830078125,-0.2509228515624999,0.7395231837547039,0.51123046875,-1.326171875,-0.0078125,32.48294117647059,334.1134023361081
1.02350927734375,-0.1758251953125,-0.2055126953124999,1.0586412083657109,-0.15185546875,-2.1103515625,0.3095703125,32.67117647058824,334.1134023361081
1.02448583984375,-0.1357861328125,-0.2001416015624999,1.0526470303860311,-0.564453125,-2.294921875,0.66650390625,32.57705882352941,333.67955471754766
0.98005224609375,-0.1133251953125,-0.2089306640624999,1.0084627049879524,-0.39306640625,-1.8681640625,1.1201171875,32.67117647058824,333.67955471754766
0.97761083984375,-0.0991650390625,-0.2108837890624999,1.0050018067852546,-0.1708984375,-1.2998046875,1.548828125,32.53,333.67955471754766
0.95124365234375,-0.0977001953125,-0.2304150390624999,0.983616238435779,-0.0068359375,-0.97216796875,1.97900390625,32.57705882352941,333.67955471754766
0.93708349609375,-0.0972119140625,-0.2426220703124999,0.9728520462484024,0.09765625,-0.51611328125,2.2568359375,32.624117647058824,333.67955471754766
0.94587255859375,-0.0942822265625,-0.2304150390624999,0.9780874835987028,0.20263671875,-0.1103515625,2.67724609375,32.48294117647059,333.67955471754766
0.96979833984375,-0.0820751953125,-0.2128369140624999,0.996265381129409,0.4521484375,0.3759765625,2.87158203125,32.624117647058824,333.67955471754766
0.95710302734375,-0.0635205078125,-0.2499462890624999,0.9912387236581528,0.81494140625,1.13037109375,3.126953125,32.67117647058824,333.67955471754766
1.00153662109375,-0.0478955078125,-0.2157666015624999,1.0256338573830008,0.96728515625,1.00634765625,3.59423828125,32.67117647058824,333.67955471754766
1.02253271484375,-0.0234814453125,-0.2362744140624999,1.0497381244578436,1.00048828125,0.1435546875,3.7333984375,32.53,333.67955471754766
1.01325537109375,0.0131396484375,-0.2323681640624999,1.0396413136660023,0.986328125,-0.6064453125,3.6806640625,32.57705882352941,333.48552831457994
1.00593115234375,0.0336474609375,-0.2333447265624999,1.0331889451100864,1.029296875,-1.58349609375,3.39013671875,33.37705882352941,333.48552831457994
0.97956396484375,0.0468310546875,-0.2338330078124999,1.0081748779086848,1.0791015625,-2.01025390625,2.98193359375,32.624117647058824,333.48552831457994
0.95319677734375,0.0429248046875,-0.2367626953124999,0.9830987789065808,1.17578125,-1.70556640625,2.35302734375,32.48294117647059,333.48552831457994
0.93806005859375,0.0243701171875,-0.2226025390624999,0.9644182010609887,1.25927734375,-1.03564453125,1.62548828125,32.624117647058824,333.48552831457994
0.93708349609375,0.0014208984375,-0.2025830078124999,0.9587321694081274,1.26708984375,-0.078125,1.2158203125,32.57705882352941,333.48552831457994
0.99030615234375,-0.0303173828125,-0.1708447265624999,1.0053921322870485,1.21630859375,0.23046875,0.7236328125,32.57705882352941,333.48552831457994
1.01862646484375,-0.0654736328125,-0.1718212890624999,1.0350889946515909,1.072265625,0.73974609375,0.13134765625,32.57705882352941,333.48552831457994
1.00202490234375,-0.0654736328125,-0.1508251953124999,1.0154254975387025,1.09716796875,1.61865234375,-0.06787109375,32.67117647058824,333.389052277142
1.00690771484375,-0.0625439453125,-0.1542431640624999,1.0205713326206682,1.22412109375,2.4970703125,-0.19775390625,32.67117647058824,333.389052277142
1.04304052734375,-0.0610791015625,-0.1464306640624999,1.0550384531887902,1.431640625,2.83203125,-0.36328125,32.624117647058824,333.389052277142
1.02497412109375,-0.0317822265625,-0.1693798828124999,1.0393611516401562,1.60302734375,2.94677734375,-0.5732421875,32.57705882352941,333.389052277142
1.04987646484375,-0.0347119140625,-0.1835400390624999,1.0663641284053755,1.607421875,2.36669921875,-0.99072265625,32.67117647058824,333.389052277142
1.06013037109375,-0.0264111328125,-0.1933056640624999,1.0779336859985662,1.451171875,1.7236328125,-1.68115234375,32.57705882352941,333.389052277142
1.06598974609375,-0.0361767578125,-0.2045361328124999,1.086037718593942,1.2255859375,1.212890625,-2.3837890625,32.57705882352941,333.389052277142
1.06598974609375,-0.0913525390625,-0.2650830078124999,1.102246989653909,0.5537109375,1.46533203125,-3.94189453125,32.67117647058824,333.389052277142
1.02546240234375,-0.0464306640625,-0.1649853515624999,1.0396870257034572,0.39794921875,0.98046875,-3.53515625,32.624117647058824,333.5408212943228
1.04255224609375,-0.0644970703125,-0.1488720703124999,1.055100919928112,0.5263671875,1.1083984375,-3.2841796875,32.624117647058824,333.5408212943228
1.13776708984375,0.0106982421875,-0.1220166015624999,1.14434105675462,0.59912109375,1.2744140625,-3.63818359375,32.67117647058824,333.5408212943228
1.19977880859375,-0.1372509765625,-0.1049267578124999,1.2121537215316551,0.57470703125,1.26513671875,-2.810546875,32.67117647058824,333.5408212943228
1.13874365234375,-0.1435986328125,-0.1464306640624999,1.157065085670027,0.34130859375,1.880859375,-2.56103515625,32.53,333.5408212943228
1.08307958984375,-0.1699658203125,-0.1601025390624999,1.1079632670016033,-0.2314453125,3.0224609375,-3.310546875,32.624117647058824,333.5408212943228
1.15339208984375,-0.2324658203125,-0.1029736328124999,1.18108307903479,-0.25341796875,3.35107421875,-3.0009765625,32.57705882352941,333.5408212943228
1.12116552734375,-0.1045361328125,-0.0570751953124999,1.1274739556581082,-0.35546875,3.20263671875,-2.6416015625,32.53,333.5408212943228
1.18122412109375,-0.1562939453125,-0.1005322265624999,1.195752880060367,-0.1494140625,3.0751953125,-2.8564453125,32.57705882352941,333.74646697732754
1.15241552734375,-0.1602001953125,-0.1127392578124999,1.1689464446642754,-0.21533203125,3.02490234375,-2.87890625,32.48294117647059,333.74646697732754
1.14850927734375,-0.1728955078125,-0.1542431640624999,1.17164728925834,-0.41455078125,3.54345703125,-3.02880859375,32.624117647058824,333.74646697732754
1.19636083984375,-0.2085400390625,-0.2265087890624999,1.2353438543686497,-0.91943359375,4.5517578125,-3.01416015625,32.71823529411765,333.74646697732754
1.16755224609375,-0.2554150390625,-0.2567822265624999,1.2224369928205927,-1.458984375,6.22509765625,-2.39794921875,32.67117647058824,333.74646697732754
1.27253271484375,-0.2847119140625,-0.1859814453124999,1.3171899947833128,-1.4111328125,6.8076171875,-1.77880859375,32.624117647058824,333.74646697732754
1.19489599609375,-0.3398876953125,-0.2162548828124999,1.2609782953112103,-1.60888671875,7.41845703125,-0.74853515625,32.57705882352941,333.74646697732754
1.40729833984375,-0.2993603515625,-0.1762158203124999,1.449536909755321,-1.1083984375,7.28955078125,-0.73828125,32.48294117647059,333.74646697732754
1.47223974609375,-0.2720166015625,-0.2362744140624999,1.5156874678654495,-0.697265625,6.1630859375,-0.11669921875,32.624117647058824,333.74646697732754
1.02741552734375,-0.3706494140625,-0.2103955078124999,1.1123083761617505,-1.09716796875,3.18212890625,2.76611328125,32.624117647058824,333.48694812263494
1.24128271484375,-0.2490673828125,-0.1810986328124999,1.2789112768904245,-1.06298828125,0.15185546875,3.88134765625,32.624117647058824,333.48694812263494
1.18854833984375,-0.1226025390625,-0.1356884765624999,1.2025347817846093,-0.63232421875,-1.5791015625,4.47998046875,32.53,333.48694812263494
1.21589208984375,-0.1040478515625,0.0171435546875,1.2204562388822866,0.3388671875,-4.08837890625,4.3466796875,32.53,333.48694812263494
1.23347021484375,0.0897998046875,0.1680224609375,1.2480962796227275,1.06689453125,-6.54541015625,3.33544921875,32.57705882352941,333.48694812263494
1.27057958984375,0.0951708984375,-0.0414501953124999,1.2748129716661802,0.7197265625,-8.37890625,1.705078125,32.57705882352941,333.48694812263494
1.31598974609375,0.1762255859375,-0.0683056640624999,1.3294924342417025,-0.0087890625,-9.3837890625,-0.10205078125,32.71823529411765,333.48694812263494
1.24470068359375,0.1972216796875,0.0737841796875,1.2623867425831374,-0.95263671875,-9.166015625,-1.2734375,32.57705882352941,333.48694812263494
1.23737646484375,0.2470263671875,0.1802294921875,1.2746000202766488,-1.416015625,-7.70947265625,-2.14892578125,32.67117647058824,333.63836257657664
1.15339208984375,0.2143115234375,0.1455615234375,1.1821298148247852,-1.59228515625,-4.462890625,-2.44921875,32.624117647058824,333.63836257657664
1.16071630859375,0.1947802734375,0.2256396484375,1.1983801378956875,-1.09619140625,-0.74462890625,-2.49072265625,32.57705882352941,333.63836257657664
1.12653662109375,0.1024951171875,0.2036669921875,1.1493782020811538,-0.72998046875,3.1943359375,-1.95751953125,32.57705882352941,333.63836257657664
1.12653662109375,0.0253466796875,0.1802294921875,1.1411441112719585,-0.68115234375,6.888671875,-1.44482421875,32.53,333.63836257657664
1.10847021484375,-0.0566845703125,0.1348193359375,1.118076746493679,-0.75390625,11.21337890625,-0.67822265625,32.57705882352941,333.63836257657664
1.12995458984375,0.0116748046875,0.1245654296875,1.1368598077365035,-0.74853515625,15.28369140625,0.13818359375,32.57705882352941,333.63836257657664
1.19831396484375,-0.1709423828125,0.1484912109375,1.2195192890261508,-0.4482421875,15.99951171875,0.9951171875,32.67117647058824,333.77886323585926
1.26423193359375,-0.2075634765625,0.1821826171875,1.2940461679268598,-0.4501953125,15.99951171875,1.67724609375,32.67117647058824,333.77886323585926
1.20905615234375,-0.2310009765625,0.2051318359375,1.2479011582686312,-0.5546875,15.99951171875,2.0498046875,32.624117647058824,333.77886323585926
1.36042333984375,-0.2217236328125,0.2075732421875,1.393915235518798,-0.52294921875,13.1572265625,2.11572265625,32.624117647058824,333.77886323585926
1.34431005859375,-0.1753369140625,0.2012255859375,1.370548905915138,-0.37109375,10.02197265625,1.5654296875,32.57705882352941,333.77886323585926
1.31452490234375,-0.1133251953125,0.1943896484375,1.3336437508548211,0.18310546875,6.7890625,0.90234375,32.57705882352941,333.77886323585926
1.28571630859375,-0.0239697265625,0.2144091796875,1.3036917850127332,0.72021484375,3.66357421875,0.37548828125,32.57705882352941,333.77886323585926
1.24274755859375,0.0224169921875,0.2139208984375,1.2612240747455497,1.20947265625,1.3525390625,-0.04833984375,32.67117647058824,333.77886323585926
1.21442724609375,0.0463427734375,0.2178271484375,1.234678037101633,1.55810546875,-0.20703125,-0.34765625,32.57705882352941,333.6151132964901
1.22761083984375,0.0307177734375,0.2583544921875,1.254878081464608,1.75732421875,-1.0,-0.5146484375,32.53,333.6151132964901
1.23249365234375,-0.0034619140625,0.2603076171875,1.2596875181895095,1.85595703125,-1.02197265625,-0.7509765625,32.57705882352941,333.6151132964901
1.24372412109375,-0.0361767578125,0.2808154296875,1.275545276635377,1.80712890625,-0.54638671875,-0.94482421875,32.57705882352941,333.6151132964901
1.31110693359375,-0.0498486328125,0.2412646484375,1.334052063487985,1.29638671875,-0.39453125,-1.26953125,32.57705882352941,333.6151132964901
1.30964208984375,-0.0127392578125,0.3467333984375,1.3548242475583083,1.17529296875,-1.068359375,-1.3203125,32.57705882352941,333.6151132964901
1.47223974609375,0.0204638671875,0.4600146484375,1.5425699713839671,1.0859375,-2.22705078125,-0.96044921875,32.57705882352941,333.6151132964901
1.22956396484375,0.0043505859375,0.4326708984375,1.303476343320045,1.24267578125,-1.97705078125,0.54052734375,32.57705882352941,333.6151132964901
1.12751318359375,-0.0361767578125,0.3799365234375,1.1903556186389477,0.95263671875,-0.2978515625,1.5068359375,32.57705882352941,333.91972017245143
1.14216162109375,-0.0840283203125,0.3491748046875,1.1972956909396262,0.35400390625,1.29443359375,1.86181640625,32.57705882352941,333.91972017245143
1.14948583984375,-0.0727978515625,0.3149951171875,1.1940850669216887,0.201171875,2.54931640625,1.880859375,32.67117647058824,333.91972017245143
1.19880224609375,-0.0561962890625,0.4912646484375,1.2967751551245252,0.201171875,3.54296875,1.861328125,32.57705882352941,333.91972017245143
1.07282568359375,-0.0527783203125,0.4463427734375,1.163169106309691,0.33935546875,4.955078125,1.97607421875,32.67117647058824,333.91972017245143
1.16266943359375,-0.0498486328125,0.5024951171875001,1.267590801798343,0.2861328125,6.16162109375,1.7490234375,32.53,333.91972017245143
1.02839208984375,-0.0430126953125,0.4556201171875,1.1256243039296872,0.6025390625,7.693359375,1.8310546875,32.624117647058824,333.91972017245143
1.03620458984375,-0.0552197265625,0.4385302734375,1.1265336084361,0.642578125,9.193359375,1.78173828125,32.57705882352941,333.91972017245143
1.02497412109375,-0.0620556640625,0.4351123046875,1.1152334159469088,0.69189453125,10.35546875,1.8134765625,32.57705882352941,333.91972017245143
1.01764990234375,-0.0630322265625,0.4189990234375,1.1023359592099171,0.833984375,10.9912109375,1.94287109375,32.53,333.3137028169357
1.01911474609375,-0.0503369140625,0.3989794921875,1.0955881095600022,0.88671875,11.2041015625,2.04052734375,32.57705882352941,333.3137028169357
1.01032568359375,-0.0552197265625,0.3940966796875,1.085872643578209,1.2734375,11.0986328125,2.21142578125,32.57705882352941,333.3137028169357
1.03083349609375,-0.0508251953125,0.3926318359375,1.1042466462430705,1.54150390625,10.376953125,2.26904296875,32.67117647058824,333.3137028169357
1.03181005859375,-0.0635205078125,0.3853076171875,1.103235610280372,1.845703125,9.37646484375,2.30615234375,32.53,333.3137028169357
1.01520849609375,-0.0825634765625,0.3940966796875,1.0921434022799992,2.08447265625,8.21630859375,2.34619140625,32.53,333.3137028169357
0.99323583984375,-0.1060009765625,0.3926318359375,1.0732722856637895,2.23486328125,6.876953125,2.28955078125,32.67117647058824,333.3137028169357
0.97761083984375,-0.1167431640625,0.4165576171875,1.0690519954484226,2.40234375,5.75390625,2.2841796875,32.71823529411765,333.3137028169357
0.94001318359375,-0.1328564453125,0.4424365234375,1.0473899453702007,2.646484375,4.9501953125,2.39404296875,32.57705882352941,333.6059671070115
0.93513037109375,-0.1440869140625,0.4629443359375,1.0533505152239693,2.86181640625,4.169921875,2.44482421875,32.57705882352941,333.6059671070115
0.91315771484375,-0.1528759765625,0.4741748046875,1.0402258513366347,3.02978515625,3.7509765625,2.39111328125,32.71823529411765,333.6059671070115
0.89118505859375,-0.1587353515625,0.4844287109375,1.0266834451168405,3.16748046875,3.6533203125,2.33935546875,32.624117647058824,333.6059671070115
0.87751318359375,-0.1597119140625,0.4946826171875,1.0199255730796344,3.19970703125,3.67919921875,2.1171875,32.57705882352941,333.6059671070115
0.95759130859375,-0.1299267578125,0.5308154296875001,1.1025548045717657,3.2080078125,2.91650390625,1.41552734375,32.624117647058824,333.6059671070115
0.89753271484375,-0.2349072265625,0.4653857421875,1.0379452145163963,3.38232421875,2.52978515625,0.73681640625,32.57705882352941,333.6059671070115
0.87897802734375,-0.0840283203125,0.6123583984375001,1.074544526441129,3.74267578125,1.95751953125,0.80810546875,32.53,333.6059671070115
0.75300146484375,-0.1240673828125,0.4229052734375,0.8724980182418888,3.5771484375,2.9541015625,0.673828125,32.57705882352941,333.7362593671599
0.91315771484375,-0.1255322265625,0.4126513671875,1.0098992538496654,2.91796875,3.15283203125,0.37353515625,32.57705882352941,333.7362593671599
0.71296240234375,-0.0898876953125,0.5083544921875001,0.8802383056034173,3.27099609375,3.5087890625,0.84765625,32.624117647058824,333.7362593671599
0.78425146484375,-0.1352978515625,0.4961474609375,0.9378263014768377,2.9365234375,4.1357421875,0.86474609375,32.71823529411765,333.7362593671599
0.82184912109375,-0.1230908203125,0.5098193359375001,0.9749374765509464,2.662109375,4.5791015625,0.85205078125,32.67117647058824,333.7362593671599
0.82087255859375,-0.0986767578125,0.5356982421875001,0.9851606298809416,2.58203125,4.63720703125,0.87744140625,32.624117647058824,333.7362593671599
0.84675146484375,-0.0986767578125,0.5317919921875001,1.0047526405549645,2.5224609375,4.52197265625,0.8017578125,32.624117647058824,333.7362593671599
0.83845068359375,-0.1079541015625,0.5283740234375001,0.9969116036572776,2.45751953125,4.3515625,0.71728515625,32.57705882352941,333.7362593671599
0.83600927734375,-0.1186962890625,0.5269091796875001,0.9953057844104906,2.2626953125,4.0322265625,0.6650390625,32.67117647058824,333.7362593671599
0.82087255859375,-0.1294384765625,0.5298388671875001,0.9855532973155756,2.00439453125,3.5888671875,0.6474609375,32.57705882352941,333.6278008348788
0.82770849609375,-0.1313916015625,0.5459521484375001,1.00021440494049,1.79052734375,3.13720703125,0.53173828125,32.57705882352941,333.6278008348788
0.83796240234375,-0.1226025390625,0.5781787109375001,1.025428199391664,1.6484375,2.65087890625,0.48681640625,32.67117647058824,333.6278008348788
0.82087255859375,-0.1035595703125,0.5845263671875001,1.0130288327550083,1.55810546875,2.3466796875,0.2998046875,32.57705882352941,333.6278008348788
0.80622412109375,-0.0981884765625,0.6074755859375001,1.0142311856145831,1.4619140625,1.80908203125,0.306640625,32.624117647058824,333.6278008348788
0.78376318359375,-0.0869580078125,0.6182177734375001,1.0020177835117243,1.30322265625,1.51318359375,0.212890625,32.57705882352941,333.6278008348788
0.80427099609375,-0.0776806640625,0.6558154296875001,1.0406632493477532,1.18212890625,1.0888671875,-0.0224609375,32.57705882352941,333.6278008348788
0.85407568359375,-0.0503369140625,0.7236865234375001,1.1205807701493553,1.44140625,0.27734375,-0.724609375,32.71823529411765,333.6278008348788
0.80182958984375,-0.0415478515625,0.7222216796875001,1.079935678514739,1.96044921875,0.32177734375,-1.0400390625,32.624117647058824,333.61759533646966
0.70954443359375,-0.0459423828125,0.6274951171875001,0.9483217428048986,1.869140625,0.6748046875,-1.57763671875,32.57705882352941,333.61759533646966
0.72175146484375,-0.0122509765625,0.7095263671875001,1.0121773210090832,2.4736328125,1.05029296875,-1.14013671875,32.624117647058824,333.61759533646966
0.78278662109375,-0.0146923828125,0.7188037109375001,1.0628497236832686,2.416015625,1.96533203125,-1.11181640625,32.57705882352941,333.61759533646966
0.81257177734375,0.0395068359375,0.7466357421875001,1.1042185539707492,2.4716796875,2.78369140625,-1.19580078125,32.53,333.61759533646966
0.80720068359375,0.1078662109375,0.7510302734375001,1.107815207819353,2.71044921875,4.0224609375,-1.4091796875,32.53,333.61759533646966
0.79889990234375,0.1366748046875,0.7407763671875001,1.0980303649647989,2.91064453125,5.125,-1.5576171875,32.57705882352941,333.61759533646966
0.79157568359375,0.1361865234375,0.7114794921875001,1.0730060110858133,2.93896484375,5.8271484375,-1.6787109375,32.012352941176474,333.61759533646966
0.81208349609375,0.1322802734375,0.6685107421875001,1.0601340895323712,2.8740234375,5.86669921875,-1.751953125,32.57705882352941,333.82359497359084
0.80427099609375,0.1479052734375,0.6558154296875001,1.0482469570117792,2.546875,5.5869140625,-2.08203125,32.624117647058824,333.82359497359084
0.79450537109375,0.1630419921875,0.6392138671875001,1.0326741228083935,2.46240234375,5.1474609375,-2.361328125,32.624117647058824,333.82359497359084
0.76618505859375,0.1591357421875,0.6113818359375001,0.9930515987440848,2.30712890625,4.63134765625,-2.59619140625,32.57705882352941,333.82359497359084
0.76032568359375,0.1713427734375,0.5767138671875001,0.9695629818366206,2.0751953125,4.0673828125,-2.85400390625,32.624117647058824,333.82359497359084
0.73688818359375,0.1811083984375,0.5796435546875001,0.954877530155283,1.8095703125,3.291015625,-3.09814453125,32.624117647058824,333.82359497359084
0.71247412109375,0.1977099609375,0.5830615234375001,0.9416312133714968,1.61572265625,2.4111328125,-3.35107421875,32.57705882352941,333.82359497359084
0.68561865234375,0.2177294921875,0.5654833984375001,0.915013957335248,1.21923828125,1.9677734375,-3.74267578125,32.57705882352941,333.82359497359084
0.66804052734375,0.2289599609375,0.5527880859375001,0.8968140709426129,0.96142578125,1.85693359375,-4.27783203125,32.53,333.82359497359084
0.69147802734375,0.2367724609375,0.5176318359375001,0.8956259141704369,0.65185546875,1.98876953125,-4.75146484375,32.67117647058824,333.7260533007866
0.72858740234375,0.2338427734375,0.5024951171875001,0.9154361738211108,0.38134765625,2.02587890625,-5.35400390625,32.57705882352941,333.7260533007866
0.77790380859375,0.2265185546875,0.4976123046875,0.9508222740443036,0.1025390625,1.78466796875,-5.80615234375,32.624117647058824,333.7260533007866
0.80817724609375,0.2079638671875,0.4951708984375,0.9703574855787216,-0.01123046875,1.31982421875,-6.197265625,32.624117647058824,333.7260533007866
0.78718115234375,0.1884326171875,0.4961474609375,0.949380493174414,-0.2880859375,0.85498046875,-6.2685546875,32.624117647058824,333.7260533007866
0.77253271484375,0.1635302734375,0.5068896484375001,0.9383421878651148,-0.46728515625,0.1103515625,-6.4443359375,32.57705882352941,333.7260533007866
0.71686865234375,0.1537646484375,0.5317919921875001,0.905730067281087,-0.71923828125,-0.9365234375,-6.56396484375,32.57705882352941,333.7260533007866
0.66315771484375,0.1601123046875,0.5698779296875001,0.8889178587552612,-1.0,-1.82373046875,-6.767578125,32.67117647058824,333.7260533007866
0.60749365234375,0.1762255859375,0.6250537109375001,0.8892671906315356,-1.28857421875,-3.208984375,-7.0439453125,32.624117647058824,333.7260533007866
0.59528662109375,0.1820849609375,0.5532763671875001,0.832848024996771,-1.67822265625,-4.58740234375,-7.74609375,32.624117647058824,333.8993033565381
0.62263037109375,0.1830615234375,0.7319873046875001,0.978256364454262,-2.09912109375,-5.95458984375,-8.50390625,32.624117647058824,333.8993033565381
0.66608740234375,0.2147998046875,0.7983935546875001,1.0617173125749504,-2.56787109375,-7.4453125,-9.548828125,32.57705882352941,333.8993033565381
0.73444677734375,0.2255419921875,0.8550341796875001,1.1495062885536569,-2.94140625,-8.869140625,-10.4287109375,32.57705882352941,333.8993033565381
0.80817724609375,0.2470263671875,0.9121630859375,1.2434685289690908,-3.07080078125,-9.4765625,-11.0283203125,32.57705882352941,333.8993033565381
0.85993505859375,0.2206591796875,0.9605029296875,1.307954378607017,-3.0068359375,-9.63134765625,-11.61669921875,32.57705882352941,333.8993033565381
0.89850927734375,0.2069873046875,0.9697802734375,1.3381466453730309,-2.8896484375,-9.2294921875,-11.50341796875,32.624117647058824,333.8993033565381
0.90778662109375,0.1835498046875,0.9985888671875,1.3619643188822683,-2.6923828125,-7.82373046875,-10.98876953125,32.53,333.8993033565381
0.89460302734375,0.1742724609375,1.0068896484375005,1.3581282087138928,-2.52294921875,-5.994140625,-9.6826171875,32.57705882352941,333.8993033565381
0.89118505859375,0.1689013671875,1.0195849609375005,1.3646581890966236,-2.58056640625,-3.7666015625,-8.45751953125,32.67117647058824,333.69330235326765
0.84235693359375,0.1791552734375,1.0234912109375005,1.3376083411971689,-2.5810546875,-1.06884765625,-7.09228515625,32.67117647058824,333.69330235326765
0.77106787109375,0.2006396484375,1.0352099609375005,1.306316038936364,-2.2607421875,2.40966796875,-5.6650390625,32.53,333.69330235326765
0.68757177734375,0.2196826171875,1.0420458984375005,1.2676257553964458,-1.8701171875,6.2802734375,-4.80078125,32.67117647058824,333.69330235326765
0.62507177734375,0.2089404296875,1.0088427734375005,1.2050454644978086,-1.25341796875,9.51904296875,-4.29931640625,32.67117647058824,333.69330235326765
0.59284521484375,0.1986865234375,0.9360888671875,1.125701625934328,-0.99609375,12.02783203125,-4.14208984375,32.57705882352941,333.69330235326765
0.55378271484375,0.1869677734375,0.8794482421875001,1.055964703127228,-0.94580078125,13.466796875,-4.23681640625,32.67117647058824,333.69330235326765
0.56354833984375,0.1991748046875,0.8096240234375001,1.0063540100233497,-0.986328125,13.7919921875,-4.4296875,32.57705882352941,334.0619937204478
0.57331396484375,0.2274951171875,0.8042529296875001,1.013541171112423,-0.4833984375,13.041015625,-4.56396484375,32.71823529411765,334.0619937204478
0.62067724609375,0.2260302734375,0.7422412109375001,0.9936055271297152,-0.38134765625,11.681640625,-4.9189453125,32.57705882352941,334.0619937204478
0.60261083984375,0.2064990234375,0.6880419921875001,0.9376478304732404,-0.328125,9.73095703125,-4.7763671875,32.57705882352941,334.0619937204478
0.60749365234375,0.1728076171875,0.6602099609375001,0.913667446457991,-0.66064453125,7.10595703125,-4.48486328125,32.57705882352941,334.0619937204478
0.55085302734375,0.2553271484375,0.6577685546875001,0.8951483016789352,-0.80224609375,4.52099609375,-3.84521484375,32.624117647058824,334.0619937204478
0.4947006835937499,0.1283740234375,0.5532763671875001,0.7532087325103531,-0.88232421875,2.40185546875,-2.7568359375,32.53,334.0619937204478
0.4688217773437499,0.0219287109375,0.7368701171875001,0.8736431175709296,-0.92431640625,1.11376953125,-2.3154296875,32.67117647058824,333.8109062362201
0.4624741210937499,0.1586474609375,0.7251513671875001,0.8745832349623749,-1.09423828125,-0.0546875,-2.27734375,32.57705882352941,333.8109062362201
0.4121811523437499,0.1645068359375,0.7979052734375001,0.9130217011643048,-1.0537109375,-1.26904296875,-2.35498046875,32.57705882352941,333.8109062362201
0.4146225585937499,0.1454638671875,0.7993701171875001,0.9121755242300288,-1.0693359375,-2.203125,-2.5615234375,32.624117647058824,333.8109062362201
0.4068100585937499,0.2626513671875,0.8149951171875001,0.947996416395115,-1.2236328125,-2.576171875,-2.71435546875,32.43588235294118,333.8109062362201
0.4185288085937499,0.1596240234375,0.8374560546875001,0.9497256635544984,-1.34375,-2.61181640625,-2.54736328125,32.57705882352941,333.8109062362201
0.4234116210937499,0.1918505859375,0.8677294921875001,0.9843975415520784,-1.2568359375,-2.390625,-2.0556640625,32.53,333.8109062362201
0.4497788085937499,0.2025927734375,0.8833544921875001,1.0117608251839698,-1.24951171875,-2.2431640625,-1.28759765625,32.624117647058824,333.9295785374751
0.52595068359375,0.2318896484375,0.8682177734375001,1.0412487852276084,-1.259765625,-2.0009765625,-1.07666015625,32.57705882352941,333.9295785374751
0.3999741210937499,0.2333544921875,1.0483935546875005,1.1461076136554964,-1.05859375,-1.85302734375,-0.2216796875,32.53,333.9295785374751
0.4966538085937499,0.2831591796875,0.9136279296875,1.0777569858446954,-1.02392578125,-1.27294921875,0.271484375,32.57705882352941,333.9295785374751
0.4951889648437499,0.2768115234375,0.9434130859375,1.1008473922978297,-0.8251953125,-0.8173828125,0.15185546875,32.624117647058824,333.9295785374751
0.4956772460937499,0.2948779296875,0.9878466796875,1.1438924723423476,-0.62451171875,-0.7646484375,-0.00439453125,32.624117647058824,333.9295785374751
0.4492905273437499,0.2812060546875,1.0005419921875005,1.1322645897864447,-0.23388671875,-1.03515625,0.23486328125,32.57705882352941,333.9295785374751
0.4483139648437499,0.2699755859375,1.0073779296875005,1.135201533340091,0.1376953125,-1.45263671875,0.52001953125,32.57705882352941,333.9295785374751
0.4649155273437499,0.2582568359375,0.9976123046875,1.130519062792694,0.58203125,-1.8330078125,0.65869140625,32.624117647058824,333.7232206617133
0.4805405273437499,0.2436083984375,0.9722216796875,1.1115211399984604,0.7509765625,-2.0126953125,0.8408203125,32.53,333.7232206617133
0.4942124023437499,0.2245654296875,0.9653857421875,1.1075401401574674,0.78759765625,-2.2353515625,0.97998046875,32.57705882352941,333.7232206617133
0.51130224609375,0.2191943359375,0.9565966796875,1.106595387373698,0.7041015625,-2.18701171875,1.068359375,32.57705882352941,333.7232206617133
0.51911474609375,0.2060107421875,0.9419482421875,1.0950739867555728,0.583984375,-1.92529296875,1.205078125,32.67117647058824,333.7232206617133
0.52302099609375,0.2133349609375,0.9439013671875,1.1000057085722488,0.431640625,-1.51123046875,1.33154296875,32.624117647058824,333.7232206617133
0.52643896484375,0.2226123046875,1.0498583984375005,1.1953647471269149,0.3740234375,-1.099609375,1.49658203125,32.67117647058824,333.7232206617133
0.53278662109375,0.2333544921875,0.9272998046875,1.0946236021638018,0.10986328125,-0.82177734375,1.7041015625,32.624117647058824,333.7232206617133
0.53327490234375,0.2426318359375,0.9429248046875,1.110116893203188,-0.0341796875,-0.91748046875,1.96826171875,32.57705882352941,333.91936698765454
0.55378271484375,0.2768115234375,0.9512255859375,1.1349581622727969,-0.2177734375,-1.4833984375,2.1513671875,32.57705882352941,333.91936698765454
0.57917333984375,0.3017138671875,0.9937060546875,1.1890856732639568,-0.35205078125,-2.48828125,2.2802734375,32.57705882352941,333.91936698765454
0.59675146484375,0.3485888671875,1.0522998046875005,1.258952496349873,-0.34765625,-3.58984375,2.41796875,32.57705882352941,333.91936698765454
0.61530615234375,0.3979052734375,1.1226123046875005,1.3405926504263788,-0.13818359375,-4.34423828125,2.33740234375,32.624117647058824,333.91936698765454
0.61530615234375,0.4589404296875,1.1660693359375005,1.396046444545288,0.17431640625,-4.53955078125,2.150390625,32.67117647058824,333.91936698765454
0.60993505859375,0.5063037109375,1.1519091796875005,1.3983057539963049,0.40185546875,-4.07958984375,2.037109375,32.624117647058824,333.91936698765454
0.52985693359375,0.3920458984375,1.0913623046875005,1.2749588372382263,0.2958984375,-2.935546875,2.02734375,32.67117647058824,333.91936698765454
0.64704443359375,0.5551318359375,1.0610888671875005,1.36115665460859,0.49853515625,-1.32958984375,1.52197265625,32.624117647058824,333.91936698765454
0.69929052734375,0.5395068359375,0.9878466796875,1.325109780442968,0.52783203125,0.8017578125,1.11474609375,32.53,333.7901342352536
0.70417333984375,0.4965380859375,0.8975146484375001,1.244163456903098,0.744140625,2.5537109375,0.51025390625,32.624117647058824,333.7901342352536
0.71833349609375,0.4398974609375,0.7925341796875001,1.1565566193327794,0.876953125,3.8525390625,0.08544921875,32.012352941176474,333.7901342352536
0.73054052734375,0.3647021484375,0.7080615234375001,1.0807628047537747,1.369140625,4.1943359375,-0.3193359375,32.624117647058824,333.7901342352536
0.73981787109375,0.2963427734375,0.6592333984375001,1.03428148749447,1.873046875,3.6787109375,-0.95751953125,32.624117647058824,333.7901342352536
0.78034521484375,0.2035693359375,0.6348193359375001,1.026340449433667,2.48583984375,1.97900390625,-1.81787109375,32.71823529411765,333.7901342352536
0.87507177734375,0.1000537109375,0.6055224609375001,1.0688399371635215,3.02587890625,-0.65673828125,-3.35693359375,32.67117647058824,333.7901342352536
0.76472021484375,-0.0430126953125,0.5747607421875001,0.9575996082437812,2.59765625,-4.37109375,-3.94287109375,32.57705882352941,333.8010510846118
0.80475927734375,-0.1108837890625,0.6182177734375001,1.020845690857199,2.37841796875,-7.25048828125,-4.2314453125,32.67117647058824,333.8010510846118
0.81208349609375,-0.2065869140625,0.6812060546875001,1.0799071472273083,2.287109375,-9.54296875,-3.90087890625,32.57705882352941,333.8010510846118
0.81940771484375,-0.2710400390625,0.7300341796875001,1.1304165645603654,2.2919921875,-10.91650390625,-3.0537109375,32.67117647058824,333.8010510846118
0.87116552734375,-0.2783642578125,0.6875537109375001,1.1441792435993343,2.189453125,-12.2392578125,-1.54345703125,32.624117647058824,333.8010510846118
0.88190771484375,-0.3608837890625,0.8599169921875001,1.2835324538794604,1.77392578125,-12.75341796875,0.11669921875,32.71823529411765,333.8010510846118
0.90876318359375,-0.0850048828125,1.0352099609375005,1.3801217399858736,1.71337890625,-13.08154296875,1.474609375,32.67117647058824,333.8010510846118
0.85261083984375,0.0917529296875,1.0679248046875005,1.369608423160481,2.34033203125,-11.3310546875,2.7216796875,32.624117647058824,333.95141175621603
0.81061865234375,0.2333544921875,1.1069873046875005,1.3917535023455052,2.87060546875,-8.60986328125,3.2802734375,32.67117647058824,333.95141175621603
0.86335302734375,0.3451708984375,1.0698779296875005,1.4174484764477968,3.259765625,-5.56201171875,3.2060546875,32.624117647058824,333.95141175621603
0.98981787109375,0.4442919921875,1.0230029296875005,1.491197433745012,3.30859375,-2.63671875,2.1640625,32.67117647058824,333.95141175621603
1.04938818359375,0.4042529296875,1.0190966796875005,1.5176277651575845,3.38916015625,-0.9423828125,1.58984375,32.624117647058824,333.95141175621603
1.10602880859375,0.5688037109375,0.9624560546875,1.5726280692586565,3.34814453125,0.50634765625,0.701171875,32.57705882352941,333.95141175621603
1.01813818359375,0.3783740234375,0.7388232421875001,1.3136331473057126,3.1357421875,0.26806640625,0.37353515625,32.53,334.02782846122403
1.00544287109375,0.2816943359375,0.6494677734375001,1.2296647732883854,2.6953125,-0.8408203125,0.318359375,32.57705882352941,334.02782846122403
0.95661474609375,0.2152880859375,0.7964404296875001,1.2632411054234467,2.6240234375,-2.78466796875,0.33740234375,32.53,334.02782846122403
0.97614599609375,0.1894091796875,0.5552294921875001,1.1388663802371817,2.9140625,-4.62548828125,0.115234375,32.67117647058824,334.02782846122403
1.00397802734375,0.1659716796875,0.6455615234375001,1.2051008913739478,3.4697265625,-6.19189453125,-0.5556640625,32.624117647058824,333.7760458953941
0.99518896484375,0.1571826171875,0.6289599609375001,1.1877281184493311,3.46826171875,-6.90576171875,-0.57568359375,32.624117647058824,333.7760458953941
0.97516943359375,0.1703662109375,0.6519091796875001,1.1853124687632308,3.45263671875,-7.41259765625,-0.03955078125,32.43588235294118,333.7760458953941
0.95807958984375,0.1996630859375,0.6563037109375001,1.1783532616968424,3.41162109375,-7.1162109375,0.501953125,32.57705882352941,333.7760458953941
0.95222021484375,0.2480029296875,0.6377490234375001,1.1725837315885572,3.3671875,-6.0361328125,0.95849609375,32.67117647058824,333.7760458953941
1.07282568359375,0.2919482421875,0.6499560546875001,1.2878787196470436,3.2890625,-5.2236328125,1.1220703125,32.624117647058824,333.7760458953941
0.91657568359375,0.3022021484375,0.6108935546875001,1.142203159439826,3.2529296875,-3.7802734375,1.00048828125,32.624117647058824,333.7760458953941
0.91999365234375,0.3095263671875,0.5928271484375001,1.1373824863525996,3.2470703125,-2.81982421875,0.65771484375,32.624117647058824,334.1123514565324
0.91901708984375,0.3007373046875,0.5796435546875001,1.127396109779672,3.1181640625,-2.35107421875,0.48046875,32.57705882352941,334.1123514565324
0.92341162109375,0.2763232421875,0.5439990234375001,1.1067874654354164,3.1337890625,-2.13037109375,0.171875,32.624117647058824,334.1123514565324
0.92341162109375,0.2440966796875,0.4971240234375,1.0767564746423108,3.1240234375,-2.0498046875,0.1328125,32.48294117647059,334.1123514565324
0.94343115234375,0.2074755859375,0.4653857421875,1.0722370759324522,3.12890625,-2.0693359375,0.11572265625,32.57705882352941,334.1123514565324
0.97077490234375,0.1737841796875,0.4380419921875,1.0791133578312189,3.14208984375,-2.18603515625,0.13671875,32.624117647058824,334.1123514565324
0.98639990234375,0.1591357421875,0.4077685546875,1.0791589993959456,3.07275390625,-2.32666015625,0.2890625,32.624117647058824,334.1123514565324
1.00837255859375,0.1469287109375,0.3823779296875,1.0884007277353134,2.84912109375,-2.57568359375,0.5185546875,32.624117647058824,334.1123514565324
1.03571630859375,0.1356982421875,0.3721240234375,1.1088726588924245,2.537109375,-2.85205078125,0.7431640625,32.57705882352941,334.24229948861006
1.04889990234375,0.1327685546875,0.3853076171875,1.125291275231993,2.35546875,-2.93896484375,0.9814453125,32.57705882352941,334.24229948861006
1.03571630859375,0.1391162109375,0.3945849609375,1.1170312813125332,2.2294921875,-2.87353515625,1.2900390625,32.624117647058824,334.24229948861006
0.98884130859375,0.1640185546875,0.4053271484375,1.081202717867307,2.2373046875,-2.25439453125,1.61083984375,32.57705882352941,334.24229948861006
0.96100927734375,0.1723193359375,0.4170458984375,1.061677948382766,1.9599609375,-1.5419921875,1.85791015625,32.624117647058824,334.24229948861006
0.94001318359375,0.1874560546875,0.5503466796875001,1.1052809713426337,1.7734375,-0.685546875,1.880859375,32.624117647058824,334.24229948861006
0.94391943359375,0.1698779296875,0.4263232421875,1.0495684422371503,1.54541015625,0.19775390625,2.1826171875,32.57705882352941,334.24229948861006
0.94245458984375,0.1635302734375,0.3980029296875,1.0360352968349715,1.48583984375,1.1875,2.474609375,32.57705882352941,334.24229948861006
0.97663427734375,0.1620654296875,0.3833544921875,1.0616215812910357,1.3310546875,2.09716796875,2.75732421875,32.67117647058824,334.24229948861006
1.00007177734375,0.1400927734375,0.3623583984375,1.0728807733979986,1.408203125,2.7958984375,3.234375,32.48294117647059,333.8644312075851
1.03718115234375,0.1225146484375,0.3447802734375,1.0998309046442143,1.45263671875,3.31298828125,3.36279296875,32.53,333.8644312075851
1.09382177734375,0.1313037109375,0.3184130859375,1.146766601533913,1.4638671875,3.0791015625,3.17041015625,32.57705882352941,333.8644312075851
1.13679052734375,0.0136279296875,0.3398974609375,1.1865954270423462,1.5517578125,2.31005859375,2.90673828125,32.57705882352941,333.8644312075851
1.12848974609375,0.1361865234375,0.3394091796875,1.186269137869173,1.638671875,1.62744140625,2.78759765625,32.67117647058824,333.8644312075851
1.10456396484375,0.1586474609375,0.3257373046875,1.1624695096897544,1.9462890625,1.37548828125,2.82861328125,32.67117647058824,333.8644312075851
1.09870458984375,0.1874560546875,0.3428271484375,1.166114060411122,2.146484375,1.279296875,2.9384765625,32.57705882352941,333.8644312075851
1.11872412109375,0.2172412109375,0.3696826171875,1.198082902097002,2.43212890625,1.27978515625,3.08349609375,32.624117647058824,333.8644312075851
1.08405615234375,0.2289599609375,0.3877490234375,1.1738610268356184,2.71875,1.486328125,3.40966796875,32.57705882352941,334.0595220701554
1.06208349609375,0.2309130859375,0.3994677734375,1.1579795801079635,2.92919921875,1.8046875,3.7294921875,32.71823529411765,334.0595220701554
1.05329443359375,0.2191943359375,0.4165576171875,1.153687812704801,3.16845703125,2.32080078125,3.92431640625,32.53,334.0595220701554
1.03376318359375,0.1874560546875,0.4356005859375,1.1373451378811894,3.25537109375,2.92626953125,3.9482421875,32.67117647058824,334.0595220701554
1.01618505859375,0.1649951171875,0.4546435546875,1.1254138011521744,3.31201171875,3.44873046875,3.86474609375,32.57705882352941,334.0595220701554
1.01716162109375,0.1425341796875,0.4834521484375,1.1351914973404655,3.3544921875,3.8271484375,3.66162109375,32.624117647058824,334.0595220701554
1.01520849609375,0.1190966796875,0.4766162109375,1.1278277005739574,3.35205078125,4.10986328125,3.40673828125,32.624117647058824,334.0595220701554
0.99470068359375,0.0858935546875,0.4888232421875,1.111645318787169,3.3251953125,4.40185546875,3.29541015625,32.53,334.0595220701554
0.99567724609375,0.0531787109375,0.4854052734375,1.108972241837794,3.31396484375,4.58203125,3.4296875,32.624117647058824,333.9957842563274
0.99958349609375,0.0263232421875,0.4966357421875,1.1164708411599449,3.31982421875,4.6083984375,3.69580078125,32.53,333.9957842563274
0.99714208984375,-0.0132275390625,0.4990771484375,1.115143629861247,3.3330078125,4.416015625,4.12060546875,32.67117647058824,333.9957842563274
1.01227880859375,-0.0322705078125,0.5103076171875001,1.134091546640765,3.3125,4.23486328125,4.5166015625,32.624117647058824,333.9957842563274
1.00348974609375,-0.0537548828125,0.5068896484375001,1.125530263313509,3.33447265625,3.95751953125,5.22412109375,32.53,333.9957842563274
0.98932958984375,-0.0698681640625,0.5127490234375001,1.116497272153397,3.3271484375,3.9384765625,5.79443359375,32.57705882352941,333.9957842563274
0.98688818359375,-0.0781689453125,0.5098193359375001,1.1135413895423885,3.37255859375,4.0888671875,6.14404296875,32.624117647058824,333.9957842563274
0.96979833984375,-0.0918408203125,0.5156787109375001,1.102210546653192,3.45556640625,4.31005859375,6.62548828125,32.71823529411765,333.9957842563274
0.93268896484375,-0.1060009765625,0.5190966796875001,1.0726631694227673,3.5986328125,4.69970703125,7.21875,32.624117647058824,333.9957842563274
0.89167333984375,-0.1064892578125,0.5083544921875001,1.0319135606942935,3.62548828125,5.021484375,7.55859375,32.67117647058824,333.95211716196286
0.86725927734375,-0.1025830078125,0.4946826171875,1.0036796398144865,3.86669921875,5.591796875,7.74267578125,32.624117647058824,333.95211716196286
0.85261083984375,-0.0771923828125,0.4941943359375,0.988499848182104,3.87939453125,5.57373046875,7.65625,32.57705882352941,333.95211716196286
0.86677099609375,-0.0254345703125,0.5000537109375001,1.0009957996209065,3.77685546875,5.197265625,7.330078125,32.57705882352941,333.95211716196286
0.88239599609375,0.0297412109375,0.4902880859375,1.0098958563943945,3.67041015625,4.70556640625,6.94775390625,32.57705882352941,333.95211716196286
0.91120458984375,0.0780810546875,0.5039599609375001,1.0442059652585574,3.58837890625,4.22412109375,6.46533203125,32.624117647058824,333.95211716196286
0.93317724609375,0.1220263671875,0.5239794921875001,1.0771558453395518,3.57373046875,3.603515625,6.09765625,32.67117647058824,333.95211716196286
0.96003271484375,0.1552294921875,0.6714404296875001,1.1817746229438102,3.64306640625,2.970703125,5.5361328125,32.624117647058824,333.95211716196286
1.08161474609375,0.1581591796875,0.5767138671875001,1.235922194028909,3.71923828125,2.50634765625,5.19873046875,32.57705882352941,334.08241224042604
0.94294287109375,0.2626513671875,0.6152880859375001,1.1561602084177691,3.8154296875,2.1904296875,4.908203125,32.57705882352941,334.08241224042604
0.90973974609375,0.1044482421875,0.6460498046875001,1.1206766665972556,3.96142578125,2.0126953125,4.564453125,32.57705882352941,334.08241224042604
0.90192724609375,0.0482958984375,0.4858935546875,1.025620688919152,3.38671875,2.6552734375,3.150390625,32.57705882352941,334.08241224042604
0.83893896484375,0.0536669921875,0.6406787109375001,1.056961656557177,3.84521484375,2.01025390625,2.72021484375,32.57705882352941,334.08241224042604
0.95661474609375,0.0165576171875,0.7495654296875001,1.2154152625804664,4.69384765625,2.33203125,2.7666015625,32.624117647058824,334.08241224042604
0.75153662109375,-0.0659619140625,0.6274951171875001,0.981278955774531,4.69482421875,3.494140625,2.484375,32.57705882352941,334.08241224042604
1.03083349609375,-0.0552197265625,0.8306201171875001,1.32498931842754,4.32958984375,3.82958984375,1.884765625,32.624117647058824,334.08241224042604
0.78473974609375,-0.2353955078125,0.6626513671875001,1.053724038177478,4.302734375,4.58837890625,2.1962890625,32.57705882352941,334.08241224042604
0.71198583984375,-0.1455517578125,0.6377490234375001,0.9668676058467384,3.76953125,5.22412109375,2.125,32.624117647058824,334.0503684381416
0.85505224609375,-0.1489697265625,0.6436083984375001,1.0805267666843597,3.34716796875,5.693359375,2.41552734375,32.67117647058824,334.0503684381416
0.87263037109375,-0.1631298828125,0.6309130859375001,1.0891035052871765,2.74072265625,5.76904296875,2.81201171875,32.57705882352941,334.0503684381416
0.87702490234375,-0.1724072265625,0.6226123046875001,1.0892855516577449,2.04296875,5.880859375,3.2705078125,32.57705882352941,334.0503684381416
0.88141943359375,-0.1768017578125,0.6489794921875001,1.1087531108241646,1.50537109375,5.80810546875,4.048828125,32.67117647058824,334.0503684381416
0.88874365234375,-0.1748486328125,0.7993701171875001,1.2080686686732949,1.2216796875,5.18115234375,4.73193359375,32.67117647058824,334.0503684381416
0.87507177734375,-0.1572705078125,0.7090380859375001,1.1371981513531688,1.09716796875,4.55224609375,5.06298828125,32.624117647058824,334.0503684381416
0.84089208984375,-0.1255322265625,0.7388232421875001,1.1263736635166757,0.9443359375,4.0380859375,5.21630859375,32.57705882352941,334.0503684381416
0.78376318359375,-0.0576611328125,0.7813037109375001,1.1081719284113545,0.84619140625,3.607421875,5.203125,32.57705882352941,334.3535692977946
0.71784521484375,-0.0019970703125,0.8267138671875001,1.094879700681319,0.91650390625,3.501953125,5.060546875,32.624117647058824,334.3535692977946
0.67341162109375,0.0424365234375,0.8735888671875001,1.1038304121646194,1.15673828125,3.33447265625,4.9990234375,32.67117647058824,334.3535692977946
0.63923193359375,0.0390185546875,0.9121630859375,1.1145319232228967,1.3505859375,3.03173828125,4.857421875,32.624117647058824,334.3535692977946
0.60114599609375,0.0238818359375,0.9551318359375,1.128815164111748,1.50927734375,2.9375,4.9384765625,32.48294117647059,334.3535692977946
0.56159521484375,-0.0005322265624999,0.9771044921875,1.1269971860007033,2.0947265625,3.2294921875,5.2041015625,32.57705882352941,334.3535692977946
0.54108740234375,-0.0327587890625,0.9814990234375,1.121244419493232,2.59033203125,3.90625,5.62255859375,32.624117647058824,334.3535692977946
0.51081396484375,-0.0591259765625,0.9712451171875,1.0989740058092463,3.021484375,5.3330078125,5.87939453125,32.57705882352941,334.3535692977946
0.50202490234375,-0.0903759765625,1.0518115234375005,1.1689757484861665,3.5087890625,7.1533203125,6.21435546875,32.624117647058824,334.0285347235707
0.50495458984375,-0.1182080078125,0.8853076171875001,1.0260223428198232,3.90869140625,8.64501953125,6.25048828125,32.71823529411765,334.0285347235707
0.50886083984375,-0.1289501953125,0.8355029296875001,0.9867282567728636,4.009765625,9.80078125,6.23828125,32.624117647058824,334.0285347235707
0.4995834960937499,-0.1250439453125,0.7803271484375001,0.9349492587393016,3.9609375,10.65673828125,5.84228515625,32.71823529411765,334.0285347235707
0.50593115234375,-0.1016064453125,0.7256396484375001,0.8904173740586016,3.88720703125,10.6806640625,5.45849609375,32.624117647058824,334.0285347235707
0.52009130859375,-0.0737744140625,0.6743701171875001,0.8548173421266716,3.69287109375,10.04541015625,5.12890625,32.57705882352941,334.0285347235707
0.50690771484375,-0.0469189453125,0.6108935546875001,0.7952029640010653,3.40234375,9.20751953125,5.04345703125,32.57705882352941,334.0285347235707
0.4854233398437499,-0.0249462890625,0.5635302734375001,0.744193862702182,3.11767578125,7.828125,5.1630859375,32.57705882352941,334.0285347235707
0.4737045898437499,-0.0049267578125,0.5566943359375001,0.7309780400576152,2.73974609375,5.86962890625,5.35400390625,33.47117647058823,334.0285347235707
0.4820053710937499,-0.0019970703125,0.5718310546875001,0.747879616755314,2.25634765625,3.5771484375,5.3759765625,32.57705882352941,334.08241224042604
0.4766342773437499,0.0160693359375,0.6074755859375001,0.7723114950630866,1.966796875,1.193359375,5.17919921875,32.624117647058824,334.08241224042604
0.58161474609375,0.0297412109375,0.6738818359375001,0.8906609800076692,1.80078125,-1.1748046875,4.97021484375,32.53,334.08241224042604
0.4224350585937499,0.0375537109375,0.7373583984375001,0.8506227528585145,1.79052734375,-2.80419921875,4.46435546875,32.43588235294118,334.08241224042604
0.3985092773437499,0.0336474609375,0.7983935546875001,0.8929580415244159,1.87158203125,-3.96337890625,4.1201171875,32.624117647058824,334.08241224042604
0.3985092773437499,0.0185107421875,0.8735888671875001,0.9603696166473144,2.037109375,-4.4853515625,3.5068359375,32.624117647058824,334.08241224042604
0.4141342773437499,0.0014208984375,0.9517138671875,1.0379154607290453,2.294921875,-4.67822265625,3.07763671875,32.624117647058824,334.08241224042604
0.4375717773437499,-0.0034619140625,1.0303271484375005,1.1193994273645558,2.57568359375,-4.529296875,2.828125,32.57705882352941,334.08241224042604
0.72028662109375,0.0443896484375,1.3970263671875005,1.5724076850588593,2.80712890625,-4.80224609375,2.5576171875,32.53,334.3317356586539
0.3613999023437499,-0.0122509765625,1.1362841796875005,1.1924352027883538,3.662109375,-3.2353515625,3.1689453125,32.57705882352941,334.3317356586539
0.3726303710937499,-0.0415478515625,1.1406787109375005,1.200719592168364,3.5673828125,-0.73046875,3.74951171875,32.53,334.3317356586539
0.3682358398437499,-0.0352001953125,1.1450732421875005,1.2033409398293002,3.341796875,2.1376953125,4.4443359375,32.53,334.3317356586539
0.3975327148437499,-0.0190869140625,1.1123583984375005,1.1814134654023172,3.138671875,4.4677734375,4.75927734375,32.53,334.3317356586539
0.3950913085937499,-0.0083447265625,1.0371630859375005,1.109898213089436,2.923828125,6.28271484375,5.1826171875,32.57705882352941,334.3317356586539
0.3838608398437499,-0.1025830078125,0.9712451171875,1.049375764689641,2.74853515625,7.25830078125,5.33154296875,32.624117647058824,334.3317356586539
0.3736069335937499,0.0478076171875,0.9126513671875,0.987319718794112,2.3115234375,7.318359375,5.29248046875,32.57705882352941,334.3317356586539
0.3911850585937499,0.0712451171875,0.8691943359375001,0.955824466319987,2.18994140625,6.21484375,4.9697265625,32.57705882352941,334.1905220256018
0.3955795898437499,0.0971240234375,0.8579638671875001,0.9497464320696172,2.24267578125,4.17431640625,4.57763671875,32.53,334.1905220256018
0.3897202148437499,0.1156787109375,0.8477099609375001,0.9401465778774488,2.3984375,1.6474609375,4.15576171875,32.57705882352941,334.1905220256018
0.3804428710937499,0.1059130859375,0.8550341796875001,0.941826846279472,2.5166015625,-0.6953125,3.72021484375,32.53,334.1905220256018
0.3511459960937499,0.1039599609375,0.8799365234375001,0.9530999262040012,2.51123046875,-2.30810546875,3.4912109375,32.624117647058824,334.1905220256018
0.3316147460937499,0.0937060546875,0.9443896484375,1.0052964600493846,2.515625,-3.38330078125,3.0205078125,32.57705882352941,334.1905220256018
0.3194077148437499,0.0844287109375,0.9961474609375,1.0495042922563502,2.60107421875,-3.8310546875,2.71435546875,32.67117647058824,334.1905220256018
0.3120834960937499,0.0692919921875,1.1704638671875005,1.213335548439478,2.7255859375,-3.5205078125,2.509765625,32.57705882352941,334.1905220256018
0.3169663085937499,0.0439013671875,1.0776904296875005,1.124193770248043,2.8095703125,-2.595703125,2.49951171875,32.53,334.1905220256018
0.3135483398437499,0.0356005859375,1.0996630859375005,1.1440449579065723,2.81640625,-1.23779296875,2.71826171875,32.67117647058824,334.09332903811355
0.3091538085937499,0.0409716796875,1.1099169921875005,1.1528965632054695,2.83251953125,0.296875,3.11279296875,32.624117647058824,334.09332903811355
0.3047592773437499,0.0390185546875,1.1099169921875005,1.1516581065071063,2.88623046875,1.94970703125,3.62451171875,32.57705882352941,334.09332903811355
0.3003647460937499,0.0258349609375,1.0884326171875005,1.1294122312336787,2.859375,3.06494140625,3.89697265625,32.67117647058824,334.09332903811355
0.2808334960937499,0.0302294921875,1.0493701171875005,1.0867193370747852,2.80517578125,4.08935546875,4.35791015625,32.624117647058824,334.09332903811355
0.2676499023437499,0.0351123046875,1.0156787109375005,1.0509389078422915,2.7392578125,4.66845703125,4.53955078125,32.53,334.09332903811355
0.2710678710937499,0.0356005859375,0.9697802734375,1.0075807517052435,2.62548828125,4.86669921875,4.5400390625,32.57705882352941,334.09332903811355
0.2891342773437499,0.0395068359375,0.9375537109375,0.9819197428066933,2.51025390625,4.35693359375,4.39111328125,32.67117647058824,334.09332903811355
0.2964584960937499,0.0512255859375,0.8970263671875001,0.9461331851226928,2.41015625,3.2568359375,4.2421875,32.57705882352941,334.3317356586539
0.3228256835937499,0.0492724609375,0.8994677734375001,0.9569150813145456,2.3193359375,2.2001953125,3.8271484375,32.624117647058824,334.3317356586539
0.3418686523437499,0.0526904296875,0.8823779296875001,0.9477559114221256,2.2587890625,0.9267578125,3.52294921875,32.67117647058824,334.3317356586539
0.3526108398437499,0.0541552734375,0.8892138671875001,0.9581067266306788,2.17626953125,0.10595703125,3.33837890625,32.624117647058824,334.3317356586539
0.3428452148437499,0.0478076171875,0.8999560546875001,0.9642350906138472,2.072265625,-0.69189453125,3.2783203125,32.67117647058824,334.3317356586539
0.3526108398437499,0.0419482421875,0.8086474609375001,0.8831787902110203,1.955078125,-1.24853515625,3.2646484375,32.53,334.3317356586539
0.3784897460937499,0.0375537109375,0.9653857421875,1.0376099461368895,1.83251953125,-1.642578125,3.29150390625,32.624117647058824,334.3317356586539
0.3892319335937499,0.0287646484375,1.0068896484375005,1.079886877066045,1.84228515625,-2.1142578125,3.228515625,32.624117647058824,334.3317356586539
0.4068100585937499,0.0121630859375,1.0796435546875005,1.153807856452206,2.00537109375,-2.1904296875,3.0029296875,32.57705882352941,334.3317356586539
0.4092514648437499,-0.0117626953125,1.1309130859375005,1.2027425037897554,2.2705078125,-2.03955078125,2.65673828125,32.624117647058824,334.4944320082307
0.4131577148437499,-0.0308056640625,1.1543505859375005,1.226447537209599,2.5283203125,-1.4189453125,2.2861328125,32.71823529411765,334.4944320082307
0.3926499023437499,-0.0713330078125,1.1489794921875005,1.2163125491754083,2.6689453125,-0.07421875,2.05908203125,32.624117647058824,334.4944320082307
0.3599350585937499,-0.1060009765625,1.1089404296875005,1.170699931678732,2.60302734375,1.78759765625,2.14501953125,32.624117647058824,334.4944320082307
0.3545639648437499,-0.1245556640625,1.0625537109375005,1.127053728640664,2.34423828125,3.45654296875,2.26708984375,32.624117647058824,334.4944320082307
0.3462631835937499,-0.1226025390625,1.0078662109375005,1.0727179843959758,2.0615234375,4.568359375,2.61767578125,32.67117647058824,334.4944320082307
0.3379624023437499,-0.1084423828125,0.9590380859375,1.0226105740049216,1.755859375,4.9873046875,2.77685546875,32.57705882352941,334.4944320082307
0.3179428710937499,-0.0796337890625,0.9194873046875,0.976158856498916,1.46142578125,4.9052734375,2.87109375,32.624117647058824,334.4944320082307
0.3076889648437499,-0.0464306640625,0.8882373046875001,0.941166199504858,1.1708984375,4.49462890625,2.83154296875,32.624117647058824,334.29933752524005
0.2984116210937499,-0.0200634765625,0.8696826171875001,0.9196737972420838,1.00537109375,3.5869140625,2.7001953125,32.57705882352941,334.29933752524005
0.3145249023437499,0.0111865234375,0.8789599609375001,0.9336068045125928,0.97314453125,2.1240234375,2.3427734375,32.57705882352941,334.29933752524005
0.3194077148437499,0.0263232421875,0.8945849609375001,0.9502612555063564,1.056640625,0.509765625,1.9951171875,32.53,334.29933752524005
0.3003647460937499,0.0356005859375,0.9009326171875,0.9503504422724148,1.17431640625,-0.86865234375,1.4033203125,32.624117647058824,334.29933752524005
0.3057358398437499,0.0429248046875,0.9385302734375,0.9880060813482332,1.1328125,-1.75244140625,1.11181640625,32.53,334.29933752524005
0.2969467773437499,0.0385302734375,0.9717333984375,1.0168223877280145,1.2626953125,-2.39306640625,0.70361328125,32.624117647058824,334.29933752524005
0.2979233398437499,0.0258349609375,1.0142138671875005,1.0573814496319298,1.576171875,-2.44873046875,0.51171875,32.624117647058824,334.29933752524005
0.3062241210937499,0.0053271484375,1.0518115234375005,1.0954948980648107,1.7666015625,-2.0859375,0.44287109375,32.67117647058824,334.3102543571747
0.3306381835937499,-0.0151806640625,1.0801318359375005,1.129706530040996,1.8701171875,-1.5654296875,0.45263671875,32.57705882352941,334.3102543571747
0.3438217773437499,-0.0430126953125,1.0791552734375005,1.133419432832271,1.90283203125,-0.8896484375,0.560546875,32.53,334.3102543571747
0.3462631835937499,-0.0635205078125,1.0835498046875005,1.1393038341301045,1.802734375,-0.1611328125,0.72412109375,32.67117647058824,334.3102543571747
0.3408920898437499,-0.0859814453125,1.0781787109375005,1.134050068813064,1.61083984375,0.517578125,0.96826171875,32.624117647058824,334.3102543571747
0.3155014648437499,-0.0962353515625,1.0752490234375005,1.1247056857739308,1.38623046875,1.4765625,1.2421875,32.57705882352941,334.3102543571747
0.2964584960937499,-0.0991650390625,1.0635302734375005,1.108520630117671,1.232421875,2.01611328125,1.5478515625,32.67117647058824,334.3102543571747
0.2793686523437499,-0.0942822265625,1.0469287109375005,1.087656061419786,1.13427734375,2.53173828125,1.74365234375,32.57705882352941,334.3102543571747
0.2822983398437499,-0.0806103515625,1.0259326171875005,1.0671120449450289,1.0712890625,2.6728515625,1.81396484375,32.53,334.3102543571747
0.2700913085937499,-0.0850048828125,0.9961474609375,1.0356084728371429,1.0185546875,2.53955078125,1.81982421875,32.57705882352941,334.4507647946115
0.2676499023437499,-0.0796337890625,0.9766162109375,1.0157545146594178,1.0302734375,2.19140625,1.7744140625,32.624117647058824,334.4507647946115
0.2647202148437499,-0.0776806640625,0.9595263671875,0.9983996830148502,1.04833984375,1.55615234375,1.720703125,32.57705882352941,334.4507647946115
0.2613022460937499,-0.0508251953125,0.9507373046875,0.9873011125369224,1.10302734375,0.77880859375,1.67822265625,32.624117647058824,334.4507647946115
0.2544663085937499,-0.0474072265625,0.9429248046875,0.9778076163717676,1.10302734375,0.1533203125,1.6357421875,32.57705882352941,334.4507647946115
0.2510483398437499,-0.0361767578125,0.9502490234375,0.983517784937339,1.0673828125,-0.19384765625,1.56103515625,32.624117647058824,334.4507647946115
0.2500717773437499,-0.0483837890625,0.9634326171875,0.9965336385334228,1.0908203125,-0.35693359375,1.47119140625,32.57705882352941,334.4507647946115
0.24763037109375,-0.0571728515625,0.9795458984375,1.011978113789792,1.0400390625,-0.47998046875,1.3984375,32.624117647058824,334.4507647946115
0.2617905273437499,-0.0669384765625,1.0083544921875005,1.0439319047553526,0.9775390625,-0.5771484375,1.39111328125,32.67117647058824,334.47295024216305
0.2700913085937499,-0.0684033203125,1.0195849609375005,1.05696822174443,0.9658203125,-0.66064453125,1.37109375,32.53,334.47295024216305
0.2774155273437499,-0.0674267578125,1.0332568359375005,1.0719726822508542,0.880859375,-0.599609375,1.2548828125,32.57705882352941,334.47295024216305
0.2725327148437499,-0.0713330078125,1.0474169921875005,1.084640416998552,0.83740234375,-0.4189453125,1.376953125,32.53,334.47295024216305
0.2822983398437499,-0.0757275390625,1.0566943359375005,1.0963712566705652,0.859375,-0.19091796875,1.4228515625,32.48294117647059,334.47295024216305
0.2759506835937499,-0.0727978515625,1.0723193359375005,1.1096472706195493,0.92822265625,0.017578125,1.4619140625,32.57705882352941,334.47295024216305
0.2676499023437499,-0.0762158203125,1.0772021484375005,1.1125690046414616,0.99169921875,0.2763671875,1.49755859375,32.624117647058824,334.47295024216305
0.2700913085937499,-0.0669384765625,1.0586474609375005,1.0946070167744262,1.04541015625,0.47802734375,1.5205078125,32.48294117647059,334.47295024216305
0.2705795898437499,-0.0688916015625,1.0498583984375005,1.0863526241398838,1.064453125,0.60400390625,1.525390625,32.624117647058824,334.25602275659827
0.2637436523437499,-0.0659619140625,1.0396044921875005,1.0745646506538542,1.041015625,0.64794921875,1.5419921875,32.624117647058824,334.25602275659827
0.2622788085937499,-0.0674267578125,1.0230029296875005,1.0582398287985908,0.99267578125,0.6259765625,1.56494140625,32.57705882352941,334.25602275659827
0.2608139648437499,-0.0576611328125,1.0205615234375005,1.0549381752575877,0.9580078125,0.5341796875,1.54296875,32.624117647058824,334.25602275659827
0.2544663085937499,-0.0635205078125,1.0215380859375005,1.0546696251162917,0.93701171875,0.359375,1.49560546875,32.57705882352941,334.25602275659827
0.2681381835937499,-0.0664501953125,1.0103076171875005,1.0473944793176588,0.9296875,0.158203125,1.43017578125,32.48294117647059,334.25602275659827
0.2686264648437499,-0.0605908203125,1.0142138671875005,1.050933486723121,0.88720703125,0.00927734375,1.35498046875,32.67117647058824,334.25602275659827
0.2515366210937499,-0.0576611328125,1.0200732421875005,1.052209531136931,0.9951171875,0.009765625,1.310546875,32.624117647058824,334.25602275659827
0.2559311523437499,-0.0669384765625,1.0313037109375005,1.0646919078202706,0.884765625,0.0830078125,1.2666015625,32.57705882352941,334.25602275659827
0.24860693359375,-0.0630322265625,1.0444873046875005,1.075514852835456,0.89990234375,0.18505859375,1.2119140625,32.624117647058824,334.277503903218
0.22712255859375,-0.0679150390625,1.0425341796875005,1.0691466807551344,0.888671875,0.34814453125,1.17724609375,32.53,334.277503903218
0.22907568359375,-0.0708447265625,1.1768115234375005,1.2009912596646777,0.88671875,0.5927734375,1.16015625,32.624117647058824,334.277503903218
0.21833349609375,-0.0810986328125,0.9297412109375,0.9584702515342378,0.89013671875,0.90673828125,1.11669921875,32.53,334.277503903218
0.21149755859375,-0.0913525390625,1.0376513671875005,1.0629190296115556,0.86572265625,1.21435546875,1.05078125,32.67117647058824,334.277503903218
0.21735693359375,-0.0859814453125,1.0332568359375005,1.0593661003311738,0.83154296875,1.45361328125,1.11328125,32.71823529411765,334.277503903218
0.21345068359375,-0.0972119140625,1.0454638671875005,1.0714504412976724,0.80126953125,1.591796875,0.92333984375,32.67117647058824,334.277503903218
0.21491552734375,-0.0952587890625,1.0186083984375005,1.0453831786261465,0.759765625,1.64501953125,0.89453125,32.624117647058824,334.277503903218
0.21296240234375,-0.0908642578125,1.0064013671875005,1.0326921177372796,0.7001953125,1.62890625,0.87744140625,32.53,334.21235554680607
0.22028662109375,-0.0908642578125,1.0044482421875005,1.032326876533919,0.74365234375,1.6162109375,0.859375,32.624117647058824,334.21235554680607
0.21589208984375,-0.0869580078125,1.0024951171875005,1.029158661025889,0.576171875,1.26708984375,0.806640625,32.624117647058824,334.21235554680607
0.22419287109375,-0.0830517578125,1.0073779296875005,1.0353600007468315,0.53857421875,1.005859375,0.689453125,32.67117647058824,334.21235554680607
0.21979833984375,-0.0806103515625,1.0225146484375005,1.0489735674679144,0.48974609375,0.83447265625,0.55859375,32.67117647058824,334.21235554680607
0.21393896484375,-0.0815869140625,1.0220263671875005,1.0473605875968106,0.41796875,0.744140625,0.462890625,32.624117647058824,334.21235554680607
0.21393896484375,-0.0781689453125,1.0317919921875005,1.0566337964649506,0.41259765625,0.78564453125,0.3974609375,32.67117647058824,334.21235554680607
0.22419287109375,-0.0830517578125,1.0381396484375005,1.0653140229917852,0.41748046875,0.89501953125,0.3828125,32.57705882352941,334.21235554680607
0.23102880859375,-0.0972119140625,1.0288623046875005,1.0589533080560338,0.41650390625,1.0224609375,0.4267578125,32.57705882352941,334.21235554680607
0.22663427734375,-0.0986767578125,1.0259326171875005,1.0552904496908444,0.40771484375,1.11181640625,0.44921875,32.57705882352941,334.3750507874261
0.21100927734375,-0.0923291015625,1.0303271484375005,1.0557573636626083,0.3583984375,1.18505859375,0.45361328125,32.624117647058824,334.3750507874261
0.19196630859375,-0.0889111328125,1.0361865234375005,1.0575626527665425,0.29150390625,1.3115234375,0.40478515625,32.53,334.3750507874261
0.16706396484375,-0.0869580078125,1.0415576171875005,1.0584490225765886,0.37353515625,1.44970703125,0.31103515625,32.624117647058824,334.3750507874261
0.15046240234375,-0.0898876953125,1.0371630859375005,1.0518678620050352,0.19921875,1.54150390625,0.18359375,32.57705882352941,334.3750507874261
0.15973974609375,-0.1001416015625,1.0332568359375005,1.0503165312691087,0.17626953125,1.48583984375,0.056640625,32.67117647058824,334.3750507874261
0.18073583984375,-0.1016064453125,1.0234912109375005,1.044281366490554,0.1962890625,1.27197265625,-0.02978515625,32.57705882352941,334.3750507874261
0.18952490234375,-0.1103955078125,1.0249560546875005,1.0481611377999824,0.2314453125,1.02490234375,-0.12109375,32.57705882352941,334.3750507874261
0.18415380859375,-0.1157666015625,1.0273974609375005,1.050171449810809,0.27978515625,0.875,0.14599609375,32.57705882352941,334.4511165408739
0.18268896484375,-0.1177197265625,1.0166552734375005,1.039625479153868,0.36474609375,0.85546875,0.32958984375,32.624117647058824,334.4511165408739
0.17292333984375,-0.1152783203125,1.0132373046875005,1.0343313822016516,0.416015625,0.912109375,0.52392578125,32.67117647058824,334.4511165408739
0.17341162109375,-0.1099072265625,1.0200732421875005,1.040529004020523,0.4248046875,1.0234375,0.630859375,32.624117647058824,334.4511165408739
0.15485693359375,-0.1011181640625,1.0298388671875005,1.0463143148000336,0.44091796875,1.14697265625,0.65234375,32.67117647058824,334.4511165408739
0.14313818359375,-0.0850048828125,1.0317919921875005,1.0451359169250358,0.4658203125,1.130859375,0.5791015625,32.67117647058824,334.4511165408739
0.12848974609375,-0.0859814453125,1.0288623046875005,1.040413411003596,0.47314453125,1.2666015625,0.4794921875,32.67117647058824,334.4511165408739
0.14264990234375,-0.0845166015625,1.0259326171875005,1.0392448150400124,0.37890625,1.15771484375,0.34765625,32.624117647058824,334.4511165408739
0.13923193359375,-0.0830517578125,1.0410693359375005,1.0536168601713567,0.568359375,0.91943359375,0.33447265625,32.57705882352941,334.1690409339782
0.14020849609375,-0.1055126953125,1.0332568359375005,1.048051067582374,0.59326171875,0.77001953125,0.35205078125,32.53,334.1690409339782
0.14313818359375,-0.1040478515625,1.0493701171875005,1.064186138729216,0.64013671875,0.66259765625,0.380859375,32.67117647058824,334.1690409339782
0.12653662109375,-0.1113720703125,1.0381396484375005,1.0517362712113014,0.6787109375,0.6591796875,0.43359375,32.624117647058824,334.1690409339782
0.13288427734375,-0.1084423828125,1.0488818359375005,1.0628128185691237,0.68212890625,0.72900390625,0.47412109375,32.57705882352941,334.1690409339782
0.12897802734375,-0.1030712890625,1.0415576171875005,1.0545621328721195,0.7138671875,0.86376953125,0.5380859375,32.53,334.1690409339782
0.12507177734375,-0.1123486328125,1.0464404296875005,1.0598597726432128,0.7119140625,0.9609375,0.59521484375,32.67117647058824,334.1690409339782
0.12995458984375,-0.1089306640625,1.0386279296875005,1.0523792383554027,0.71630859375,1.076171875,0.63818359375,32.57705882352941,334.1690409339782
0.13386083984375,-0.1055126953125,1.0405810546875005,1.0544479999935192,0.7685546875,1.19580078125,0.6728515625,32.57705882352941,334.1690409339782
0.13386083984375,-0.1006298828125,1.0303271484375005,1.0438482315767377,0.8193359375,1.30029296875,0.6875,32.624117647058824,334.11516267534074
0.12946630859375,-0.1001416015625,1.0337451171875005,1.046622583710763,0.82177734375,1.2939453125,0.63623046875,32.48294117647059,334.11516267534074
0.12751318359375,-0.1030712890625,1.0176318359375005,1.0307559634233248,0.80712890625,1.22705078125,0.556640625,32.67117647058824,334.11516267534074
0.13727880859375,-0.1055126953125,1.0112841796875005,1.0259990702955089,0.78369140625,1.06787109375,0.4248046875,32.624117647058824,334.11516267534074
0.12507177734375,-0.1050244140625,1.0156787109375005,1.0287255809440914,0.7841796875,0.81396484375,0.33154296875,32.53,334.11516267534074
0.12458349609375,-0.2324658203125,1.0093310546875005,1.043221253171678,0.7568359375,0.57177734375,0.30908203125,32.67117647058824,334.11516267534074
0.12897802734375,-0.1089306640625,1.0151904296875005,1.0291320758968083,0.76416015625,0.31884765625,0.34130859375,32.67117647058824,334.11516267534074
0.11530615234375,-0.1108837890625,1.0156787109375005,1.028199381101175,0.78173828125,0.1796875,0.458984375,32.624117647058824,334.11516267534074
0.12263037109375,-0.1186962890625,1.0171435546875005,1.03136221949135,0.82373046875,0.1015625,0.58544921875,32.57705882352941,334.40744930570384
0.11823583984375,-0.1216259765625,1.0210498046875005,1.0350436201681168,0.75341796875,0.14404296875,0.67578125,32.57705882352941,334.40744930570384
0.11530615234375,-0.1196728515625,1.0225146484375005,1.0359311301619838,0.92529296875,0.21337890625,0.70361328125,32.57705882352941,334.40744930570384
0.12409521484375,-0.1299267578125,1.0234912109375005,1.0391413973127503,0.9287109375,0.26953125,0.66015625,32.67117647058824,334.40744930570384
0.11286474609375,-0.1299267578125,1.0317919921875005,1.046046905472563,0.904296875,0.32763671875,0.5927734375,32.71823529411765,334.40744930570384
0.11335302734375,-0.1299267578125,1.0215380859375005,1.035987418950883,0.85595703125,0.33544921875,0.52294921875,32.67117647058824,334.40744930570384
0.11091162109375,-0.1260205078125,1.0332568359375005,1.046805734171598,0.82421875,0.36376953125,0.4794921875,32.67117647058824,334.40744930570384
0.10309912109375,-0.1304150390625,1.0347216796875005,1.047991634317421,0.79345703125,0.4638671875,0.46728515625,32.57705882352941,334.40744930570384
0.10456396484375,-0.1245556640625,1.0332568359375005,1.045976780433232,0.6259765625,0.67041015625,0.482421875,32.624117647058824,334.40744930570384
0.10212255859375,-0.1123486328125,1.0405810546875005,1.0515988606132671,0.7412109375,0.75341796875,0.46728515625,32.67117647058824,334.28842070725614
0.09626318359375,-0.2344189453125,1.0273974609375005,1.058189201030634,0.7265625,0.978515625,0.46142578125,32.57705882352941,334.28842070725614
0.09919287109375,-0.1118603515625,1.0313037109375005,1.0420841175840685,0.70458984375,1.119140625,0.4287109375,32.57705882352941,334.28842070725614
0.10212255859375,-0.1113720703125,1.0313037109375005,1.0423147793315055,0.72802734375,0.9208984375,0.3935546875,32.67117647058824,334.28842070725614
0.09919287109375,0.0126513671875,1.0264208984375005,1.0312803418648002,0.87451171875,0.82373046875,0.251953125,32.624117647058824,334.28842070725614
0.09479833984375,-0.1157666015625,1.0225146484375005,1.0334044888347091,0.73876953125,0.744140625,0.34814453125,32.71823529411765,334.28842070725614
0.09528662109375,-0.1118603515625,1.0298388671875005,1.040269374143632,0.7763671875,0.359375,0.3076171875,32.67117647058824,334.28842070725614
0.08307958984375,-0.1147900390625,1.0425341796875005,1.0521199965466226,0.81298828125,0.2138671875,0.22021484375,32.57705882352941,334.28842070725614
0.07917333984375,-0.1162548828125,1.0313037109375005,1.04085107470436,0.8447265625,0.287109375,0.12744140625,32.67117647058824,334.1362906569384
0.07722021484375,0.0116748046875,1.0347216796875005,1.037664790315412,0.82861328125,0.45751953125,0.1201171875,32.624117647058824,334.1362906569384
0.07770849609375,-0.1226025390625,1.0356982421875005,1.045820654710932,0.81201171875,0.5888671875,0.1875,32.67117647058824,334.1362906569384
0.08649755859375,-0.1167431640625,1.0327685546875005,1.042938963482193,0.8359375,0.64501953125,0.310546875,32.624117647058824,334.1362906569384
0.09382177734375,-0.1226025390625,1.0425341796875005,1.0539029482382147,0.8525390625,0.6064453125,0.38525390625,32.67117647058824,334.1362906569384
0.08698583984375,0.0102099609375,1.0254443359375005,1.0291777619740765,0.8544921875,0.61572265625,0.365234375,32.624117647058824,334.1362906569384
0.20270849609375,-0.2353955078125,1.0332568359375005,1.0789446086331165,0.84912109375,0.275390625,0.21044921875,32.67117647058824,334.1362906569384
0.06794287109375,-0.1221142578125,1.0376513671875005,1.04701885633433,0.810546875,0.10205078125,0.015625,32.67117647058824,334.1362906569384
0.0513413085937499,-0.1196728515625,1.0366748046875005,1.044821598189416,0.78076171875,0.0869140625,-0.177734375,32.57705882352941,334.1362906569384
0.07038427734375,-0.1177197265625,1.0132373046875005,1.022478222814326,0.76904296875,0.16259765625,-0.25146484375,32.57705882352941,334.5479621103502
0.07966162109375,-0.1103955078125,1.0215380859375005,1.030569358675735,0.81005859375,0.15234375,-0.13623046875,32.624117647058824,334.5479621103502
0.09382177734375,-0.1216259765625,1.0107958984375005,1.0224009743622096,0.8349609375,0.021484375,0.1015625,32.624117647058824,334.5479621103502
0.09382177734375,-0.1177197265625,1.0161669921875005,1.0272564509105218,0.75048828125,-0.0693359375,0.31689453125,32.624117647058824,334.5479621103502
0.09431005859375,-0.1206494140625,1.0098193359375005,1.0213646554971614,0.93115234375,-0.14013671875,0.41796875,32.67117647058824,334.5479621103502
-0.03850244140625,-0.1201611328125,1.0137255859375005,1.0215481875160628,0.95361328125,-0.216796875,0.40771484375,32.624117647058824,334.5479621103502
0.08747412109375,-0.1206494140625,1.0205615234375005,1.0313844220734674,0.96923828125,-0.3525390625,0.3251953125,32.53,334.5479621103502
0.08405615234375,-0.1265087890625,1.0132373046875005,1.0245583175531232,0.9580078125,-0.431640625,0.20361328125,32.624117647058824,334.36448613828856
0.07380224609375,-0.1216259765625,1.0225146484375005,1.0323642070376755,0.91943359375,-0.4697265625,0.12890625,32.624117647058824,334.36448613828856
0.07380224609375,-0.1206494140625,1.0371630859375005,1.046761825571369,0.8916015625,-0.50390625,0.05029296875,32.624117647058824,334.36448613828856
0.07184912109375,-0.1201611328125,1.0513232421875005,1.0606043341436828,0.9912109375,-0.45068359375,0.05126953125,32.67117647058824,334.36448613828856
0.06989599609375,-0.1269970703125,1.0479052734375005,1.0578842886800135,0.75048828125,-0.35498046875,0.0546875,32.67117647058824,334.36448613828856
0.07624365234375,-0.1313916015625,1.0449755859375005,1.0559596690637836,0.89990234375,-0.23095703125,0.0966796875,32.67117647058824,334.36448613828856
0.08014990234375,-0.1338330078125,0.9321826171875,0.9451453394120878,0.92138671875,-0.10546875,0.15185546875,32.57705882352941,334.36448613828856
0.07575537109375,-0.1309033203125,1.0425341796875005,1.05344770697699,0.9375,0.0478515625,0.2470703125,32.57705882352941,334.36448613828856
0.07233740234375,-0.1289501953125,1.0410693359375005,1.0515161505551502,0.94873046875,0.1796875,0.3193359375,32.57705882352941,334.36448613828856
0.08405615234375,-0.1362744140625,1.0356982421875005,1.0480014320339412,0.99462890625,0.23095703125,0.36376953125,32.57705882352941,334.4292828953924
0.09089208984375,-0.1299267578125,1.0308154296875005,1.0429394922399182,1.0234375,0.17041015625,0.40234375,32.57705882352941,334.4292828953924
0.10065771484375,-0.1294384765625,1.0308154296875005,1.0437752367508113,1.0732421875,0.0634765625,0.470703125,32.57705882352941,334.4292828953924
0.08845068359375,-0.1304150390625,1.0230029296875005,1.0350684035323867,1.10595703125,-0.04443359375,0.5693359375,32.53,334.4292828953924
0.08845068359375,-0.1294384765625,1.0376513671875005,1.0494275594194729,1.1513671875,-0.17041015625,0.66259765625,32.624117647058824,334.4292828953924
0.08942724609375,-0.1294384765625,1.0264208984375005,1.038408114523369,1.1787109375,-0.30419921875,0.73291015625,32.57705882352941,334.4292828953924
0.20612646484375,-0.1396923828125,1.0239794921875005,1.0538197577125732,1.185546875,-0.4287109375,0.80908203125,32.57705882352941,334.4292828953924
0.08161474609375,-0.1465283203125,1.0249560546875005,1.0385886719361597,1.18359375,-0.51708984375,0.84619140625,32.53,334.4292828953924
0.07917333984375,-0.1406689453125,1.0293505859375005,1.0419303233360762,1.1513671875,-0.55517578125,0.87353515625,32.48294117647059,334.4292828953924
0.20514990234375,-0.1494580078125,1.0361865234375005,1.066820833075744,1.14404296875,-0.556640625,0.89208984375,32.57705882352941,334.29933752524005
0.07722021484375,-0.1523876953125,1.0361865234375005,1.0501749771426967,1.1435546875,-0.53369140625,0.9521484375,32.57705882352941,334.29933752524005
0.08014990234375,-0.1553173828125,1.0264208984375005,1.0411951579788885,1.1376953125,-0.62353515625,1.03369140625,32.57705882352941,334.29933752524005
0.07917333984375,-0.1597119140625,1.0195849609375005,1.0350506295855508,1.1103515625,-0.4580078125,1.0048828125,32.71823529411765,334.29933752524005
0.07868505859375,-0.1567822265625,1.0220263671875005,1.0369715040628051,1.11181640625,-0.4267578125,1.22509765625,32.67117647058824,334.29933752524005
0.08014990234375,-0.1572705078125,1.0205615234375005,1.0357141703164952,1.11376953125,-0.3955078125,1.27001953125,32.53,334.29933752524005
0.08552099609375,-0.1558056640625,1.0298388671875005,1.045063317745321,1.11083984375,-0.41552734375,1.25634765625,32.624117647058824,334.29933752524005
0.08503271484375,-0.1528759765625,1.0205615234375005,1.03544553208979,1.10546875,-0.4443359375,1.20166015625,32.67117647058824,334.29933752524005
0.08796240234375,-0.1475048828125,1.0210498046875005,1.0353925720865471,1.09326171875,-0.48486328125,1.15966796875,32.57705882352941,334.2341891238033
0.09186865234375,-0.1401806640625,1.0269091796875005,1.0404964830247698,1.10205078125,-0.50244140625,1.13232421875,32.57705882352941,334.2341891238033
0.09235693359375,-0.1445751953125,1.0322802734375005,1.0464388912930789,1.09033203125,-0.52197265625,1.140625,32.624117647058824,334.2341891238033
0.09186865234375,-0.1435986328125,1.0405810546875005,1.054452155388582,1.08251953125,-0.49658203125,1.16845703125,32.53,334.2341891238033
0.09431005859375,-0.1352978515625,1.0376513671875005,1.0506760945293625,1.0810546875,-0.40576171875,1.20166015625,32.67117647058824,334.2341891238033
0.09772802734375,-0.1328564453125,1.0479052734375005,1.060804913491494,1.083984375,-0.26220703125,1.22021484375,32.624117647058824,334.2341891238033
0.09235693359375,-0.1421337890625,1.0439990234375005,1.0576699759918298,1.11865234375,-0.10302734375,1.228515625,32.57705882352941,334.2341891238033
0.09870458984375,-0.1401806640625,1.0313037109375005,1.0454571052064667,1.15185546875,0.0048828125,1.2197265625,32.48294117647059,334.2341891238033
0.10505224609375,-0.1333447265625,1.0327685546875005,1.0466268093559796,1.130859375,0.00048828125,1.1953125,32.624117647058824,334.288068547766
0.10554052734375,-0.1338330078125,1.0273974609375005,1.0414392059227269,1.08544921875,-0.041015625,1.1279296875,32.624117647058824,334.288068547766
0.09870458984375,-0.1250439453125,1.0352099609375005,1.0473959363773373,1.0703125,-0.08251953125,1.05810546875,32.53,334.288068547766
0.08454443359375,-0.1191845703125,1.0439990234375005,1.0541758316290113,1.068359375,-0.09521484375,0.96875,32.67117647058824,334.288068547766
0.08552099609375,-0.1240673828125,1.0405810546875005,1.0514349659514663,1.07421875,-0.1171875,0.93115234375,32.57705882352941,334.288068547766
0.07477880859375,-0.1206494140625,1.0391162109375005,1.0487662519176677,1.09228515625,0.15087890625,0.943359375,32.53,334.288068547766
-0.04192041015625,-0.1235791015625,1.0371630859375005,1.045340318729772,1.115234375,0.240234375,0.8759765625,32.53,334.288068547766
0.08600927734375,-0.1294384765625,1.0356982421875005,1.047293064941372,1.1865234375,0.28515625,1.0703125,32.624117647058824,334.288068547766
0.09870458984375,-0.1309033203125,1.0283740234375005,1.0413603638539792,1.23193359375,0.30322265625,1.00244140625,32.67117647058824,334.288068547766
0.09089208984375,-0.1260205078125,1.0205615234375005,1.032321831361982,1.2607421875,0.234375,1.111328125,32.57705882352941,334.0722022085152
0.20661474609375,-0.1230908203125,1.0376513671875005,1.0651579052772775,1.24755859375,0.11474609375,1.05517578125,32.624117647058824,334.0722022085152
0.06696630859375,-0.1211376953125,1.0347216796875005,1.043938591166942,1.2158203125,0.01513671875,0.94189453125,32.71823529411765,334.0722022085152
0.0542709960937499,-0.1123486328125,1.0303271484375005,1.0378543197959895,1.20068359375,0.0341796875,0.80908203125,33.37705882352941,334.0722022085152
0.0528061523437499,-0.1143017578125,1.0303271484375005,1.0379920107456173,1.1943359375,0.1435546875,0.677734375,32.53,334.0722022085152
0.0611069335937499,-0.1118603515625,1.0239794921875005,1.031882161879683,1.1787109375,0.1650390625,0.62353515625,32.53,334.0722022085152
0.07038427734375,-0.1084423828125,1.0181201171875005,1.0262954106441011,1.20458984375,0.126953125,0.6845703125,32.624117647058824,334.0722022085152
0.07624365234375,0.0111865234375,1.0151904296875005,1.0181109180037426,1.2158203125,0.0625,0.82421875,32.57705882352941,334.0722022085152
0.07331396484375,0.0102099609375,1.0156787109375005,1.0183724390394304,1.24560546875,-0.03955078125,0.97705078125,32.57705882352941,334.007054739074
0.07770849609375,0.0092333984375,1.0195849609375005,1.0225836682549658,1.27197265625,-0.1171875,1.046875,32.53,334.007054739074
0.07966162109375,-0.1060009765625,1.0254443359375005,1.0339817537141498,1.3017578125,-0.2177734375,1.07568359375,32.67117647058824,334.007054739074
0.07087255859375,-0.1001416015625,1.0308154296875005,1.0380904151406818,1.3037109375,-0.2451171875,1.0234375,32.67117647058824,334.007054739074
0.06647802734375,-0.0952587890625,1.0249560546875005,1.031517561195027,1.30126953125,-0.20361328125,0.97265625,32.53,334.007054739074
0.0611069335937499,-0.0986767578125,1.0435107421875005,1.0499456314144675,1.30224609375,-0.10791015625,0.9189453125,32.57705882352941,334.007054739074
0.06989599609375,-0.1045361328125,1.0298388671875005,1.0374879978599096,1.26953125,-0.08642578125,0.8623046875,32.624117647058824,334.007054739074
0.07184912109375,-0.0991650390625,1.0361865234375005,1.0433975812353145,1.126953125,-0.1630859375,0.8125,32.57705882352941,334.007054739074
0.07917333984375,-0.1025830078125,1.0371630859375005,1.0452267495932508,1.232421875,-0.369140625,0.76025390625,32.67117647058824,334.36413399417074
0.09284521484375,-0.1108837890625,1.0322802734375005,1.04236174695949,1.220703125,-0.52392578125,0.6279296875,32.624117647058824,334.36413399417074
0.08356787109375,-0.1108837890625,1.0371630859375005,1.0464158210708576,1.19775390625,-0.7177734375,0.76953125,32.67117647058824,334.36413399417074
0.09089208984375,0.0131396484375,1.0386279296875005,1.0426801996221893,1.1962890625,-0.865234375,0.84765625,32.57705882352941,334.36413399417074
0.08845068359375,0.0106982421875,1.0435107421875005,1.0473073306698524,1.125,-0.90283203125,0.93359375,32.53,334.36413399417074
0.08796240234375,-0.1167431640625,1.0391162109375005,1.049346868492261,1.27490234375,-0.8935546875,1.0361328125,32.57705882352941,334.36413399417074
0.09284521484375,-0.1221142578125,1.0327685546875005,1.044099139656665,1.3115234375,-0.79931640625,1.21435546875,32.624117647058824,334.36413399417074
0.09479833984375,-0.1172314453125,1.0327685546875005,1.0437149153664984,1.33447265625,-0.6826171875,1.25439453125,32.624117647058824,334.36413399417074
0.09919287109375,-0.1269970703125,1.0234912109375005,1.0360992908066726,1.36572265625,-0.64404296875,1.51416015625,32.57705882352941,334.36413399417074
0.09968115234375,-0.1260205078125,1.0127490234375005,1.0254160545824844,1.376953125,-0.71826171875,1.5654296875,32.624117647058824,334.1045991873914
0.10895849609375,-0.1235791015625,1.0186083984375005,1.0318463149042183,1.37939453125,-0.83740234375,1.55517578125,32.57705882352941,334.1045991873914
0.10456396484375,-0.1177197265625,1.0156787109375005,1.0278106832571148,1.3994140625,-1.00927734375,1.5166015625,32.48294117647059,334.1045991873914
0.10749365234375,-0.2349072265625,1.0142138671875005,1.0465973718583996,1.435546875,-1.1669921875,1.44140625,32.67117647058824,334.1045991873914
0.11384130859375,-0.1064892578125,1.0142138671875005,1.0261235666172075,1.44287109375,-1.28076171875,1.3974609375,32.57705882352941,334.1045991873914
0.10309912109375,-0.0928173828125,1.0088427734375005,1.0183360137201931,1.47119140625,-1.37939453125,1.25927734375,32.67117647058824,334.1045991873914
0.10309912109375,-0.0767041015625,1.0098193359375005,1.0179626904754753,1.5087890625,-1.3544921875,1.46142578125,32.624117647058824,334.1045991873914
0.10163427734375,-0.0571728515625,1.0195849609375005,1.026231822668201,1.580078125,-1.27490234375,1.61279296875,32.624117647058824,334.1045991873914
0.11188818359375,-0.0444775390625,1.0200732421875005,1.0271546312682835,1.63427734375,-1.28759765625,1.7578125,32.67117647058824,334.49408046089843
0.11530615234375,-0.0508251953125,1.0254443359375005,1.0331576817471644,1.68359375,-1.37939453125,1.8134765625,32.624117647058824,334.49408046089843
0.12018896484375,-0.0386181640625,1.0215380859375005,1.029308899644136,1.72265625,-1.5146484375,1.869140625,32.67117647058824,334.49408046089843
0.12751318359375,-0.0439892578125,1.0298388671875005,1.038635046184723,1.744140625,-1.63720703125,1.58935546875,32.57705882352941,334.49408046089843
0.14069677734375,-0.0503369140625,1.0396044921875005,1.0502889546447125,1.78564453125,-2.0419921875,1.4208984375,32.57705882352941,334.49408046089843
0.14313818359375,-0.0640087890625,1.0400927734375005,1.0518453508176366,1.84375,-2.28369140625,1.31640625,32.57705882352941,334.49408046089843
0.14802099609375,-0.0713330078125,1.0425341796875005,1.055403301636324,1.91015625,-2.42822265625,1.27734375,32.53,334.49408046089843
0.16364599609375,-0.0742626953125,1.0479052734375005,1.063202907280974,1.97216796875,-2.4501953125,1.29345703125,32.57705882352941,334.49408046089843
0.16901708984375,-0.0708447265625,1.0464404296875005,1.0623668503984516,1.99755859375,-2.3251953125,1.35888671875,32.53,334.15883011717875
0.17536474609375,-0.0757275390625,1.0566943359375005,1.073820457035245,2.02587890625,-2.16748046875,1.47119140625,32.624117647058824,334.15883011717875
0.17682958984375,-0.0649853515625,1.0513232421875005,1.0680694543547475,2.04443359375,-1.90087890625,1.64501953125,32.57705882352941,334.15883011717875
0.17292333984375,-0.0688916015625,1.0483935546875005,1.0647899228199222,2.0634765625,-1.55908203125,1.79833984375,32.57705882352941,334.15883011717875
0.17585302734375,-0.0767041015625,1.0352099609375005,1.0528378173520805,2.04345703125,-1.2626953125,1.90087890625,32.57705882352941,334.15883011717875
0.18708349609375,-0.0786572265625,1.0376513671875005,1.0573114742720109,1.96484375,-1.044921875,1.91455078125,32.57705882352941,334.15883011717875
0.19880224609375,-0.0703564453125,1.0195849609375005,1.0411656232410167,1.93798828125,-1.0107421875,1.85205078125,32.624117647058824,334.15883011717875
0.21833349609375,-0.0644970703125,1.0249560546875005,1.049935379742954,1.8798828125,-1.169921875,1.720703125,32.624117647058824,334.15883011717875
0.22858740234375,-0.0537548828125,1.0259326171875005,1.0524635494617585,1.83642578125,-1.3447265625,1.57763671875,32.48294117647059,334.15883011717875
0.22028662109375,-0.0532666015625,1.0093310546875005,1.0344625194909196,1.77734375,-1.466796875,1.5546875,32.57705882352941,334.537747652962
0.22614599609375,-0.0488720703125,1.0054248046875005,1.031702248076819,1.71142578125,-1.576171875,1.59130859375,32.624117647058824,334.537747652962
0.24128271484375,-0.0371533203125,0.9976123046875,1.0270482112133388,1.6484375,-1.802734375,1.71484375,32.624117647058824,334.537747652962
0.2573959960937499,-0.0312939453125,1.0000537109375005,1.0331212100127365,1.591796875,-2.06396484375,1.85986328125,32.57705882352941,334.537747652962
0.2730209960937499,-0.0254345703125,1.0103076171875005,1.0468566582976342,1.611328125,-2.3203125,1.97216796875,32.53,334.537747652962
0.2656967773437499,-0.0034619140625,1.0122607421875005,1.046555575453984,1.60107421875,-2.57666015625,2.08349609375,32.57705882352941,334.537747652962
0.2603256835937499,0.0087451171875,1.0361865234375005,1.068423347726298,1.607421875,-2.7119140625,2.14892578125,32.624117647058824,334.537747652962
0.2598374023437499,0.0116748046875,1.0264208984375005,1.058863370539601,1.61572265625,-2.75,2.16259765625,32.53,334.537747652962
0.2559311523437499,0.0268115234375,1.0430224609375005,1.0742976619862663,1.6142578125,-2.42041015625,2.13427734375,32.67117647058824,334.537747652962
0.2764389648437499,0.0219287109375,1.0366748046875005,1.073123487917924,1.62939453125,-2.1259765625,2.11279296875,32.67117647058824,334.22327232832936
0.2866928710937499,0.0209521484375,1.0376513671875005,1.0767321647866814,1.64990234375,-1.92724609375,2.12939453125,32.67117647058824,334.22327232832936
0.3072006835937499,0.0219287109375,1.0347216796875005,1.0795842175482049,1.64794921875,-1.8291015625,2.16015625,32.57705882352941,334.22327232832936
0.21247412109375,0.0248583984375,1.0313037109375005,1.0532571083552669,1.712890625,-1.78173828125,2.28662109375,32.53,334.22327232832936
0.3423569335937499,0.0165576171875,1.0347216796875005,1.090014393979256,1.775390625,-1.69140625,2.44287109375,32.624117647058824,334.22327232832936
0.3496811523437499,0.0072802734375,1.0337451171875005,1.091310623972284,1.828125,-1.587890625,2.6181640625,32.624117647058824,334.22327232832936
0.3438217773437499,0.0004443359375,1.0386279296875005,1.094057397185899,1.85205078125,-1.47119140625,2.75732421875,32.57705882352941,334.22327232832936
0.3384506835937499,0.0004443359375,1.0317919921875005,1.0858838693901631,1.8212890625,-1.22509765625,2.849609375,32.57705882352941,334.22327232832936
0.3399155273437499,0.0126513671875,1.0317919921875005,1.0864149013905062,1.7265625,-0.919921875,2.82080078125,32.57705882352941,334.2996901895769
0.3418686523437499,-0.1113720703125,1.0215380859375005,1.0829672084240944,1.65966796875,-0.671875,2.767578125,32.57705882352941,334.2996901895769
0.3501694335937499,0.0209521484375,1.0244677734375005,1.0828627999702936,1.61376953125,-0.39892578125,2.7294921875,32.624117647058824,334.2996901895769
0.3565170898437499,0.0224169921875,1.0049365234375005,1.0665385004902732,1.5751953125,-0.26806640625,2.720703125,32.53,334.2996901895769
0.3643295898437499,0.0331591796875,1.0034716796875005,1.068078177460862,1.5625,-0.19384765625,2.75732421875,32.57705882352941,334.2996901895769
0.3618881835937499,0.0385302734375,0.9981005859375,1.0623805434234632,1.568359375,-0.2109375,2.81640625,32.48294117647059,334.2996901895769
0.3560288085937499,0.0473193359375,0.9897998046875,1.0529479025391828,1.58203125,-0.248046875,2.9189453125,32.53,334.2996901895769
0.3560288085937499,0.0634326171875,0.9785693359375,1.043253638723154,1.57373046875,-0.3134765625,3.03466796875,32.624117647058824,334.2996901895769
0.3613999023437499,0.0668505859375,0.9790576171875,1.0457689553754808,1.5009765625,-0.48828125,3.06982421875,32.53,334.44055183990827
0.3570053710937499,0.0678271484375,0.9722216796875,1.0379153874518543,1.65673828125,-0.5927734375,3.0556640625,32.57705882352941,334.44055183990827
0.3570053710937499,0.0702685546875,0.9746630859375,1.0403646648444318,1.67236328125,-0.634765625,3.05029296875,32.67117647058824,334.44055183990827
0.3521225585937499,0.0727099609375,0.9878466796875,1.0512459737186917,1.68701171875,-0.6533203125,3.02392578125,32.624117647058824,334.44055183990827
0.3433334960937499,0.0868701171875,0.9849169921875,1.046654569712376,1.71826171875,-0.61279296875,2.96533203125,32.57705882352941,334.44055183990827
0.3452866210937499,0.0893115234375,0.9946826171875,1.0566895986334115,1.72705078125,-0.5966796875,2.85595703125,32.57705882352941,334.44055183990827
0.3457749023437499,0.0951708984375,1.0039599609375005,1.0660925786093147,1.7138671875,-0.5048828125,2.72998046875,32.624117647058824,334.44055183990827
0.3638413085937499,0.0981005859375,1.0244677734375005,1.091576127263913,1.70703125,-0.73974609375,2.591796875,32.57705882352941,334.44055183990827
0.3682358398437499,0.0893115234375,1.0405810546875005,1.1074218317058362,1.71875,-0.8359375,2.501953125,32.624117647058824,334.44055183990827
0.3745834960937499,0.0771044921875,1.0459521484375005,1.1136758034016594,1.74755859375,-0.78271484375,2.51025390625,32.57705882352941,334.11516267534074
0.3657944335937499,0.0595263671875,1.0288623046875005,1.0935751451297655,1.7451171875,-0.57177734375,2.54150390625,32.53,334.11516267534074
0.4448959960937499,0.0644091796875,0.9653857421875,1.064918128771962,1.67333984375,-0.6064453125,2.35693359375,32.624117647058824,334.11516267534074
0.4282944335937499,0.0697802734375,1.0283740234375005,1.1161803351114172,1.7421875,-0.60546875,2.34033203125,32.624117647058824,334.11516267534074
0.2715561523437499,0.0541552734375,1.0210498046875005,1.0579311136218723,2.0693359375,-0.4462890625,3.03466796875,32.57705882352941,334.11516267534074
0.21296240234375,0.0443896484375,1.0078662109375005,1.031076003430368,1.93896484375,0.08056640625,3.36083984375,32.57705882352941,334.11516267534074
0.3482163085937499,0.0609912109375,1.0156787109375005,1.0754430571787343,1.95458984375,0.39697265625,3.46826171875,32.57705882352941,334.11516267534074
0.3423569335937499,0.0741748046875,1.0190966796875005,1.0776215542481655,2.00244140625,0.6630859375,3.49462890625,32.67117647058824,334.11516267534074
0.3389389648437499,0.0800341796875,1.0147021484375005,1.0728026574590888,1.94970703125,0.84375,3.46044921875,32.53,334.22327232832936
0.3228256835937499,0.0736865234375,1.0107958984375005,1.0636514814647469,1.861328125,0.99560546875,3.412109375,32.57705882352941,334.22327232832936
0.3360092773437499,0.0756396484375,0.9946826171875,1.0526239118563632,1.822265625,0.60009765625,3.26513671875,32.624117647058824,334.22327232832936
0.3438217773437499,0.0790576171875,0.9883349609375,1.0494138918570262,1.7919921875,0.14599609375,3.10302734375,32.624117647058824,334.22327232832936
0.3540756835937499,0.0746630859375,0.9785693359375,1.0433322152369549,1.755859375,-0.1298828125,3.01318359375,32.624117647058824,334.22327232832936
0.3418686523437499,0.0673388671875,0.9790576171875,1.0392124500131303,1.72900390625,-0.47802734375,3.0146484375,32.53,334.22327232832936
0.3555405273437499,0.0634326171875,0.9863818359375,1.0504198635662605,1.7509765625,-0.525390625,3.0546875,32.53,334.22327232832936
0.3594467773437499,0.0517138671875,0.9981005859375,1.0621116181697074,1.8056640625,-0.54345703125,3.0908203125,32.57705882352941,334.22327232832936
0.3604233398437499,0.0385302734375,0.9946826171875,1.058670427852911,1.7763671875,-0.56982421875,3.1025390625,32.57705882352941,334.22362500802865
0.3618881835937499,0.0434130859375,0.9937060546875,1.0584420043526226,1.72509765625,-0.6533203125,3.09912109375,32.67117647058824,334.22362500802865
0.3657944335937499,0.0478076171875,1.0005419921875005,1.0663842712830356,1.6279296875,-0.7890625,3.10107421875,32.53,334.22362500802865
0.3584702148437499,0.0458544921875,1.0068896484375005,1.0697804884715794,1.55126953125,-0.77197265625,3.1318359375,32.57705882352941,334.22362500802865
0.3394272460937499,0.0424365234375,1.0117724609375005,1.0680333452770912,1.50341796875,-0.53662109375,3.2265625,32.624117647058824,334.22362500802865
0.3355209960937499,0.0507373046875,1.0083544921875005,1.0639207652928886,1.50732421875,-0.11962890625,3.4111328125,32.57705882352941,334.22362500802865
0.3311264648437499,0.0380419921875,1.0147021484375005,1.0680413751036015,1.51220703125,0.56494140625,3.50537109375,32.624117647058824,334.22362500802865
0.3404038085937499,0.0365771484375,1.0308154296875005,1.086182807254274,1.5517578125,0.98779296875,3.78955078125,32.53,334.22362500802865
0.3506577148437499,0.0297412109375,1.0308154296875005,1.08923175802457,1.60595703125,1.26220703125,3.87939453125,32.624117647058824,334.22362500802865
0.3443100585937499,0.0331591796875,1.0230029296875005,1.079899968420959,1.57373046875,1.42236328125,3.8896484375,32.624117647058824,334.3310321811963
0.4546616210937499,0.0321826171875,1.0273974609375005,1.1239655036011809,1.51806640625,1.427734375,3.849609375,32.53,334.3310321811963
0.3198959960937499,0.0248583984375,1.0249560546875005,1.0740047962324264,1.4580078125,1.35498046875,3.740234375,32.57705882352941,334.3310321811963
0.3213608398437499,0.0229052734375,1.0225146484375005,1.072069795864799,1.38330078125,1.30078125,3.6064453125,32.48294117647059,334.3310321811963
0.3242905273437499,0.1376513671875,1.0078662109375005,1.0676640596006728,1.33544921875,1.3173828125,3.49365234375,32.624117647058824,334.3310321811963
0.3418686523437499,0.0194873046875,0.9873583984375,1.045050495174458,1.2431640625,1.28369140625,3.45751953125,32.624117647058824,334.3310321811963
0.3574936523437499,0.0356005859375,0.9775927734375,1.0415165595718536,1.14794921875,1.15625,3.4931640625,32.57705882352941,334.3310321811963
0.3589584960937499,0.0307177734375,0.9785693359375,1.0427812468394335,1.03369140625,1.021484375,3.50927734375,32.57705882352941,334.3310321811963
0.3423569335937499,0.0307177734375,0.9834521484375,1.0417917161558772,0.83740234375,1.16650390625,3.87255859375,32.67117647058824,334.3310321811963
0.3364975585937499,0.0360888671875,1.0088427734375005,1.0640943354757129,0.72265625,1.61181640625,3.95068359375,32.53,334.3317356586539
0.3306381835937499,0.0443896484375,1.0381396484375005,1.0904246782774665,0.646484375,1.8623046875,3.8759765625,32.53,334.3317356586539
0.3281967773437499,0.0585498046875,1.0444873046875005,1.09640090019168,0.61474609375,1.93505859375,3.68310546875,32.57705882352941,334.3317356586539
0.3111069335937499,0.0688037109375,1.1733935546875005,1.215884003082138,0.591796875,1.794921875,3.396484375,32.57705882352941,334.3317356586539
0.2881577148437499,0.0800341796875,1.0581591796875005,1.0996095616622958,0.6337890625,1.51953125,3.0927734375,32.57705882352941,334.3317356586539
0.2710678710937499,0.0702685546875,1.0615771484375005,1.0978895675803932,0.68017578125,1.20458984375,2.841796875,32.624117647058824,334.3317356586539
0.2681381835937499,0.0712451171875,1.1768115234375005,1.209073742134576,0.73974609375,0.978515625,2.7451171875,32.624117647058824,334.3317356586539
0.2647202148437499,0.0697802734375,1.0659716796875005,1.100564264640518,0.78125,0.5302734375,2.48486328125,32.71823529411765,334.3317356586539
0.2666733398437499,0.0580615234375,1.0659716796875005,1.1003551392996236,0.83544921875,0.26171875,2.431640625,32.57705882352941,334.3317356586539
0.2774155273437499,0.0580615234375,1.0684130859375005,1.1053673767204215,0.8408203125,0.1572265625,2.42919921875,32.57705882352941,334.34265247125137
0.2886459960937499,0.0639208984375,1.0679248046875005,1.1080910525696188,0.841796875,0.138671875,2.466796875,32.57705882352941,334.34265247125137
0.2915756835937499,0.0639208984375,1.0571826171875005,1.0985159746692956,0.81640625,0.23388671875,2.46533203125,32.57705882352941,334.34265247125137
0.3037827148437499,0.0722216796875,1.0566943359375005,1.101863343821328,0.78662109375,0.34228515625,2.38671875,32.624117647058824,334.34265247125137
0.3179428710937499,0.0775927734375,1.1748583984375005,1.219590326358892,0.73974609375,0.4697265625,2.2060546875,32.53,334.34265247125137
0.3179428710937499,0.0858935546875,1.0483935546875005,1.0989060094141283,0.69775390625,0.64111328125,1.92236328125,32.624117647058824,334.34265247125137
0.3032944335937499,0.0937060546875,1.0332568359375005,1.0809199910935243,0.73486328125,0.8466796875,1.57470703125,32.624117647058824,334.34265247125137
0.3169663085937499,0.1015185546875,1.0215380859375005,1.0743899286340313,0.75634765625,0.89794921875,1.19580078125,32.624117647058824,334.34265247125137
0.3194077148437499,0.0941943359375,1.0176318359375005,1.0707326532510066,0.7880859375,0.814453125,0.83544921875,32.57705882352941,334.3965325317807
0.3291733398437499,0.0810107421875,1.0044482421875005,1.060110418422165,0.8447265625,0.72998046875,0.6064453125,32.57705882352941,334.3965325317807
0.3164780273437499,0.0731982421875,0.9995654296875,1.0510220609849672,0.88623046875,0.76416015625,0.2568359375,32.624117647058824,334.3965325317807
0.3052475585937499,0.0526904296875,0.9981005859375,1.0450632196460077,0.92724609375,0.91015625,0.1005859375,32.57705882352941,334.3965325317807
0.3052475585937499,0.0272998046875,0.9727099609375,1.0198460763617485,0.966796875,0.98291015625,-0.03515625,32.624117647058824,334.3965325317807
0.2998764648437499,0.0067919921875,0.9697802734375,1.0151087646521293,0.9326171875,0.966796875,-0.146484375,32.67117647058824,334.3965325317807
0.3008530273437499,-0.0176220703125,0.9653857421875,1.0113321475375476,0.84130859375,0.83251953125,-0.27685546875,32.57705882352941,334.3965325317807
0.2920639648437499,-0.0376416015625,0.9609912109375,1.005098182879446,0.75341796875,0.66357421875,-0.4033203125,32.624117647058824,334.3965325317807
0.2959702148437499,-0.0513134765625,0.9639208984375,1.009640995302857,0.63427734375,0.46044921875,-0.533203125,32.624117647058824,334.44019971115785
0.2949936523437499,-0.0674267578125,0.9561083984375,1.0028513808909734,0.5244140625,0.22021484375,-0.64794921875,32.624117647058824,334.44019971115785
0.2945053710937499,-0.0698681640625,0.9702685546875,1.0163838065258135,0.390625,0.01416015625,-0.724609375,32.53,334.44019971115785
0.2876694335937499,-0.0854931640625,0.9697802734375,1.0151534676461873,0.2861328125,-0.0830078125,-0.69384765625,32.53,334.44019971115785
0.2866928710937499,-0.0845166015625,0.9863818359375,1.0306721033107886,0.20849609375,-0.11865234375,-0.59814453125,32.624117647058824,334.44019971115785
0.2827866210937499,-0.0952587890625,0.9922412109375,1.0361395324211844,0.1416015625,-0.052734375,-0.45751953125,32.67117647058824,334.44019971115785
0.2783920898437499,-0.0898876953125,1.0020068359375005,1.043838901709284,0.12646484375,0.04150390625,-0.3203125,32.57705882352941,334.44019971115785
0.2749741210937499,-0.0864697265625,1.0142138671875005,1.05438017302987,0.10205078125,0.19384765625,-0.21875,32.53,334.44019971115785
0.2588608398437499,-0.0718212890625,1.0288623046875005,1.0633554786495838,0.13818359375,0.42822265625,-0.1298828125,32.624117647058824,334.44019971115785
0.24860693359375,-0.0654736328125,1.0332568359375005,1.064759077461248,0.1923828125,0.650390625,-0.0546875,32.67117647058824,334.20179133656427
0.24323583984375,-0.0596142578125,1.0488818359375005,1.0783647987942906,0.265625,0.8466796875,-0.01318359375,32.57705882352941,334.20179133656427
0.23102880859375,-0.0483837890625,0.9321826171875,0.9616026899041148,0.3203125,0.99462890625,0.02197265625,32.53,334.20179133656427
0.22321630859375,-0.0405712890625,1.0566943359375005,1.080774939347137,0.37646484375,1.0,0.0869140625,32.67117647058824,334.20179133656427
0.22126318359375,-0.0317822265625,1.0415576171875005,1.06527450746773,0.41650390625,0.8916015625,0.06591796875,32.67117647058824,334.20179133656427
0.21931005859375,-0.0215283203125,1.0527880859375005,1.0756036092668233,0.46826171875,0.64990234375,0.02490234375,32.71823529411765,334.20179133656427
0.22565771484375,-0.0264111328125,1.0562060546875005,1.0803657631392607,0.53515625,0.3193359375,-0.05126953125,32.624117647058824,334.20179133656427
0.22321630859375,-0.0264111328125,1.0381396484375005,1.062194425713389,0.61962890625,0.177734375,-0.11328125,32.57705882352941,334.20179133656427
0.21735693359375,-0.0366650390625,1.0156787109375005,1.0393226667028843,0.634765625,0.1611328125,-0.07421875,32.57705882352941,334.0503684381416
0.23591162109375,-0.0420361328125,1.0010302734375005,1.0293118758506907,0.61669921875,0.01708984375,0.06103515625,32.624117647058824,334.0503684381416
0.2525131835937499,-0.0586376953125,0.9951708984375,1.028380476427433,0.60986328125,-0.232421875,0.26318359375,32.67117647058824,334.0503684381416
0.2603256835937499,-0.0742626953125,0.9893115234375,1.0256810907196534,0.6103515625,-0.572265625,0.3896484375,32.57705882352941,334.0503684381416
0.2661850585937499,-0.0806103515625,0.9971240234375,1.0351854096314226,0.5869140625,-0.85693359375,0.40869140625,32.624117647058824,334.0503684381416
0.2505600585937499,-0.0850048828125,1.0156787109375005,1.0495758271397702,0.56201171875,-1.0869140625,0.34375,32.57705882352941,334.0503684381416
0.24323583984375,-0.0845166015625,1.0269091796875005,1.058701654410072,0.51123046875,-1.1953125,0.23779296875,32.53,334.0503684381416
0.22712255859375,-0.0820751953125,1.0425341796875005,1.0701394816211791,0.47998046875,-1.134765625,0.1015625,32.57705882352941,334.0503684381416
0.22370458984375,-0.0859814453125,0.9321826171875,0.9624972645372682,0.4755859375,-0.99462890625,-0.0234375,32.67117647058824,334.0503684381416
0.22565771484375,-0.0820751953125,1.1733935546875005,1.197710389090892,0.50439453125,-0.5263671875,0.01220703125,32.67117647058824,334.47224694855845
0.23639990234375,-0.0786572265625,1.0586474609375005,1.08756899535986,0.5498046875,-0.263671875,0.00341796875,32.57705882352941,334.47224694855845
0.24567724609375,-0.0820751953125,1.0552294921875005,1.0865555338389674,0.6220703125,-0.0791015625,0.34423828125,32.624117647058824,334.47224694855845
0.24958349609375,-0.0786572265625,1.0522998046875005,1.0843494638529751,0.70556640625,0.08349609375,0.5576171875,32.67117647058824,334.47224694855845
0.24323583984375,-0.0820751953125,1.0483935546875005,1.0793651175484469,0.7958984375,0.197265625,0.740234375,32.57705882352941,334.47224694855845
0.23347021484375,-0.0654736328125,1.0400927734375005,1.0679831998537077,0.8857421875,0.27734375,0.7578125,32.67117647058824,334.47224694855845
0.23298193359375,-0.0698681640625,1.0479052734375005,1.075763730485774,0.95654296875,0.2548828125,0.9697265625,32.57705882352941,334.47224694855845
0.22565771484375,-0.0742626953125,1.0381396484375005,1.064974310413879,0.87841796875,0.1611328125,1.01708984375,32.67117647058824,334.47224694855845
