AccX,AccY,AccZ,Magnitude,GyroX,GyroY,GyroZ,Temperature,Altitude
0.14699169921875,-0.92663037109375,0.2561127929687499,0.9725452004893193,0.06298828125,0.97998046875,-0.70556640625,46.93,297.71670293284086
0.06154248046875,-0.94762646484375,0.2194916992187499,0.9746589145954824,-0.12060546875,1.837890625,-0.4375,46.788823529411765,297.68281550226607
0.05568310546875,-0.97545849609375,0.2014252929687499,0.9975931207078722,-0.24609375,2.19677734375,0.37255859375,46.97705882352941,297.68281550226607
0.12794873046875,-0.99352490234375,0.2107026367187499,1.0236494567604462,-0.19580078125,1.42529296875,1.04736328125,46.97705882352941,297.68281550226607
0.20460888671875,-0.99352490234375,0.2209565429687499,1.0381610289267005,-0.23876953125,0.2255859375,1.0654296875,47.16529411764706,297.68281550226607
0.21925732421875,-0.98620068359375,0.2487885742187499,1.0404620690857234,-0.337890625,-0.455078125,0.654296875,46.31823529411765,297.68281550226607
0.18703076171875,-0.98131787109375,0.2912690429687499,1.040578168783584,-0.3876953125,-0.16552734375,0.3515625,46.31823529411765,297.4738044018826
0.15578076171875,-0.98766552734375,0.3093354492187499,1.0466323422139443,-0.41796875,0.5830078125,0.37353515625,47.63588235294118,297.4738044018826
0.12599560546875,-1.00036083984375,0.3234956054687499,1.0588890920431293,-0.53466796875,1.35888671875,0.7158203125,47.118235294117646,297.4738044018826
0.10402294921875,-1.00914990234375,0.3195893554687499,1.0636454557292565,-0.6572265625,1.97900390625,1.2158203125,47.63588235294118,297.4738044018826
0.10304638671875,-0.99987255859375,0.3098237304687499,1.0518338439155563,-0.78369140625,2.36962890625,1.54296875,47.07117647058824,297.8646735230945
0.11378857421875,-0.98766552734375,0.2707612304687499,1.0304089855251144,-0.82470703125,2.43017578125,1.556640625,46.88294117647059,297.8646735230945
0.12550732421875,-0.98082958984375,0.2448823242187499,1.018698250445335,-0.82177734375,2.021484375,1.33935546875,46.31823529411765,297.8646735230945
0.12746044921875,-0.98278271484375,0.2385346679687499,1.0193168391298453,-0.8935546875,1.048828125,1.04638671875,46.88294117647059,297.8646735230945
0.10206982421875,-0.98424755859375,0.2419526367187499,1.0186768791078746,-0.94677734375,0.083984375,0.87890625,47.118235294117646,297.8646735230945
0.09230419921875,-0.98424755859375,0.2399995117187499,1.0172822063795328,-1.095703125,-0.58447265625,0.9609375,46.36529411764706,297.63250663024616
0.11183544921875,-0.96373974609375,0.2326752929687499,0.9977170229383174,-1.18359375,-1.10791015625,0.982421875,46.93,297.63250663024616
0.10451123046875,-0.93590771484375,0.2126557617187499,0.9654368549989812,-1.126953125,-1.3759765625,1.013671875,46.31823529411765,297.63250663024616
0.08351513671875,-0.92125927734375,0.1941010742187499,0.9451818138146504,-1.42431640625,-1.90478515625,1.17041015625,47.63588235294118,297.63250663024616
0.03810498046875,-0.89245068359375,0.2058198242187499,0.916668976362194,-1.5947265625,-2.28759765625,1.22998046875,46.97705882352941,297.6415582755401
-0.0058403320312499,-0.88024365234375,0.2224213867187499,0.9079285600968788,-1.5849609375,-2.0693359375,0.9716796875,46.97705882352941,297.6415582755401
-0.04246142578125,-0.86998974609375,0.2312104492187499,0.9011899926295124,-1.4267578125,-1.01953125,0.53369140625,46.36529411764706,297.6415582755401
-0.06980517578125,-0.86608349609375,0.2214448242187499,0.8966667134142412,-0.93603515625,0.70556640625,0.3662109375,47.118235294117646,297.6415582755401
-0.03709033203125,-0.89977490234375,0.1721284179687499,0.9168417311021122,-0.27001953125,2.2626953125,0.384765625,46.788823529411765,297.6415582755401
0.03371044921875,-0.96715771484375,0.1110932617187498,0.9741006891320964,0.35693359375,3.302734375,0.416015625,46.788823529411765,297.45401694674547
0.11281201171875,-1.05016552734375,0.0456635742187498,1.057194091366216,0.64990234375,3.01904296875,0.60302734375,46.31823529411765,297.45401694674547
0.16359326171875,-1.10534130859375,0.0158784179687498,1.1174946478264285,0.74853515625,1.52001953125,1.1904296875,46.41235294117647,297.45401694674547
0.19240185546875,-1.12536083984375,0.0046479492187498,1.1416992148869982,0.3896484375,-0.47998046875,1.77197265625,47.73,297.45401694674547
0.17042919921875,-1.10094677734375,0.0056245117187498,1.1140743034564649,0.0458984375,-2.23583984375,2.19140625,46.88294117647059,297.52179175510287
0.14308544921875,-1.04039990234375,0.0642182617187498,1.0521546405891071,-0.33544921875,-3.43408203125,2.31689453125,46.788823529411765,297.52179175510287
0.10011669921875,-0.96178662109375,0.1281831054687499,0.9754423440188574,-0.3681640625,-4.0595703125,2.19921875,46.93,297.52179175510287
0.03810498046875,-0.87389599609375,0.1745698242187499,0.8919757984681964,-0.00830078125,-3.81689453125,1.95166015625,47.73,297.52179175510287
-0.0014458007812499,-0.80114208984375,0.1726166992187499,0.819528683639741,0.64013671875,-2.6669921875,1.69287109375,47.118235294117646,297.52179175510287
-0.0058403320312499,-0.76549755859375,0.1389252929687499,0.7780236877612917,1.45947265625,-1.125,1.296875,46.31823529411765,297.77711068841376
0.01466748046875,-0.81041943359375,0.0920502929687498,0.8157622507602006,1.99658203125,0.13427734375,0.87890625,46.88294117647059,297.77711068841376
0.04249951171875,-0.89342724609375,0.0588471679687498,0.8963712633373164,2.318359375,0.20166015625,0.587890625,46.36529411764706,297.77711068841376
0.05763623046875,-0.97936474609375,0.0280854492187498,0.9814611726460406,2.59033203125,-0.36083984375,0.58740234375,46.64764705882353,297.77711068841376
0.08107373046875,-1.03551708984375,0.0066010742187498,1.0387069689336978,2.8359375,-1.24755859375,0.9208984375,47.07117647058824,297.5076913867683
0.11232373046875,-1.05114208984375,-0.0183012695312501,1.0572848480584398,3.0595703125,-2.15087890625,1.275390625,47.68294117647059,297.5076913867683
0.11183544921875,-1.04870068359375,-0.0471098632812501,1.0556986457746056,3.11279296875,-3.25732421875,1.31298828125,46.31823529411765,297.5076913867683
0.05958935546875,-1.04381787109375,-0.0432036132812501,1.046409667147827,3.0107421875,-4.41748046875,1.0498046875,46.97705882352941,297.5076913867683
1.904296875000072e-05,-1.04772412109375,-0.0251372070312501,1.048025626338229,2.88037109375,-4.95751953125,0.86767578125,46.41235294117647,297.5076913867683
-0.03367236328125,-1.00377880859375,-0.0060942382812501,1.0043619190167763,2.822265625,-5.01123046875,0.77099609375,46.88294117647059,297.4879042438984
-0.03660205078125,-0.95446240234375,0.0080659179687498,0.9551980143624014,2.9248046875,-4.255859375,0.3623046875,47.63588235294118,297.4879042438984
-0.01462939453125,-0.92858349609375,0.0046479492187498,0.9287103594953502,3.150390625,-3.0859375,0.0205078125,46.97705882352941,297.4879042438984
0.01076123046875,-0.92907177734375,-0.0217192382812501,0.929387915162121,3.4580078125,-2.14453125,-0.24853515625,46.88294117647059,297.4879042438984
0.04787060546875,-0.95934521484375,-0.0436918945312501,0.9615320159824504,3.5703125,-1.75341796875,-0.5341796875,47.63588235294118,297.4218124453655
0.10109326171875,-1.00231396484375,-0.0436918945312501,1.0083462269148746,3.3681640625,-1.9814453125,-0.65966796875,47.73,297.4218124453655
0.13722607421875,-1.03258740234375,0.0031831054687498,1.041670711446246,3.140625,-2.71630859375,-0.58349609375,46.97705882352941,297.4218124453655
0.14552685546875,-1.04967724609375,0.0866791992187498,1.063256163963692,3.025390625,-3.6650390625,-0.18017578125,46.31823529411765,297.4218124453655
0.12453076171875,-1.06090771484375,0.2043549804687499,1.08756335358986,3.1591796875,-4.17626953125,0.58349609375,46.88294117647059,297.4218124453655
0.12892529296875,-1.10192333984375,0.3313081054687499,1.1578522525818116,3.521484375,-3.90771484375,0.9658203125,46.36529411764706,297.7002829938397
0.07570263671875,-1.16198193359375,0.4401948242187499,1.2448712328885334,4.03662109375,-3.044921875,0.85595703125,46.93,297.7002829938397
0.00636669921875,-1.22985302734375,0.5178315429687499,1.334439399380476,4.74609375,-2.01611328125,1.05810546875,47.68294117647059,297.7002829938397
-0.01316455078125,-1.26403271484375,0.5412690429687499,1.3751087907757842,5.24853515625,-1.1708984375,1.36572265625,47.25941176470588,297.7002829938397
-0.05125048828125,-1.24840771484375,0.5188081054687499,1.3528896057441395,5.4609375,-0.71875,1.814453125,46.88294117647059,297.5093739399586
-0.03416064453125,-1.20690380859375,0.4909760742187499,1.3033960481327789,5.3759765625,-0.69384765625,2.357421875,47.68294117647059,297.5093739399586
0.04542919921875,-1.17370068359375,0.4802338867187499,1.2689608712498153,5.3359375,-0.97216796875,2.3818359375,46.88294117647059,297.5093739399586
0.08595654296875,-1.17467724609375,0.4323823242187499,1.2546751109615362,5.31494140625,-1.3466796875,2.18798828125,47.07117647058824,297.5093739399586
0.02882763671875,-1.17711865234375,0.3903901367187499,1.2405014361868505,5.13037109375,-1.8681640625,2.42333984375,47.68294117647059,297.5093739399586
0.03273388671875,-1.16881787109375,0.3894135742187499,1.2324161857561202,4.91162109375,-2.5048828125,2.9638671875,46.36529411764706,297.5308436902328
0.07863232421875,-1.12780224609375,0.4318940429687499,1.2102286614760214,4.8837890625,-3.71240234375,3.15234375,47.54176470588236,297.5308436902328
0.03126904296875,-1.08922802734375,0.4851166992187499,1.1927839957260633,5.08740234375,-4.50830078125,3.4169921875,46.93,297.5308436902328
-0.05027392578125,-1.06432568359375,0.5393159179687499,1.1942270670794717,5.2197265625,-5.27880859375,3.79931640625,46.31823529411765,297.5308436902328
-0.05662158203125,-1.04772412109375,0.5866791992187499,1.2021332373199511,5.365234375,-5.328125,3.9365234375,46.36529411764706,298.0075954145689
-0.05955126953125,-1.01696240234375,0.6154877929687499,1.190203387987573,5.3037109375,-4.8974609375,3.94970703125,47.118235294117646,298.0075954145689
-0.07908251953125,-0.95153271484375,0.6350190429687499,1.1466986252918745,5.23095703125,-4.47802734375,4.12548828125,46.88294117647059,298.0075954145689
-0.08445361328125,-0.87438427734375,0.6389252929687499,1.0862346925307689,5.2080078125,-4.1630859375,4.5361328125,47.68294117647059,298.0075954145689
-0.04539111328125,-0.80358349609375,0.6145112304687499,1.012635591282166,5.224609375,-3.91943359375,4.38671875,46.36529411764706,298.0075954145689
-0.0058403320312499,-0.74938427734375,0.5915620117187499,0.9547546901256804,5.19189453125,-4.1552734375,3.8505859375,46.55352941176471,297.51842631543053
0.01710888671875,-0.73620068359375,0.5691010742187499,0.9306772766139696,5.0888671875,-4.5537109375,3.40869140625,46.97705882352941,297.51842631543053
0.04103466796875,-0.72985302734375,0.5622651367187499,0.9222317330625188,4.89404296875,-5.07763671875,3.28466796875,46.88294117647059,297.51842631543053
0.04591748046875,-0.70055615234375,0.5642182617187499,0.9006828434339167,4.67041015625,-5.3427734375,3.2685546875,47.07117647058824,297.51842631543053
0.00294873046875,-0.62926708984375,0.5471284179687499,0.8338676580374049,4.34375,-5.81689453125,3.1552734375,47.73,297.8539386567234
-0.05662158203125,-0.55748974609375,0.5481049804687499,0.7838494052852526,4.22021484375,-6.36328125,2.654296875,46.31823529411765,297.8539386567234
-0.09861376953125,-0.53209912109375,0.5549409179687499,0.775121650223952,4.07666015625,-6.36376953125,1.76513671875,46.31823529411765,297.8539386567234
-0.08347705078125,-0.52575146484375,0.5930268554687499,0.7969089484374221,3.93701171875,-5.4443359375,1.27490234375,46.31823529411765,297.8539386567234
-0.04490283203125,-0.53209912109375,0.6506440429687499,0.8417145654222031,4.08740234375,-4.39599609375,1.44775390625,46.74176470588235,297.8539386567234
-0.04539111328125,-0.58092724609375,0.6438081054687499,0.8683465293799709,4.4072265625,-3.447265625,1.56201171875,46.93,297.98781008337505
-0.04490283203125,-0.63903271484375,0.6081635742187499,0.8833130860411416,4.4833984375,-2.75439453125,1.4970703125,47.118235294117646,297.98781008337505
-0.04490283203125,-0.67614208984375,0.5730073242187499,0.8874242410431619,4.32568359375,-2.6162109375,1.15966796875,47.68294117647059,297.98781008337505
-0.07908251953125,-0.68200146484375,0.5632416992187499,0.8880434981932226,3.9736328125,-2.9248046875,1.53271484375,46.88294117647059,297.98781008337505
-0.09421923828125,-0.63366162109375,0.5764252929687499,0.8617832867279147,3.6455078125,-3.4150390625,2.06689453125,46.36529411764706,297.63250663024616
-0.07029345703125,-0.60729443359375,0.6081635742187499,0.862328610323166,3.38330078125,-3.51904296875,2.25390625,46.788823529411765,297.63250663024616
-0.04002001953125,-0.60143505859375,0.6555268554687499,0.890528601399021,3.22802734375,-3.4541015625,2.4423828125,46.41235294117647,297.63250663024616
0.00343701171875,-0.61364208984375,0.6872651367187499,0.9213586682863528,3.13818359375,-3.146484375,2.404296875,47.73,297.63250663024616
0.01417919921875,-0.61071240234375,0.6926362304687499,0.9235343176216672,3.1904296875,-2.8818359375,2.349609375,46.88294117647059,297.63250663024616
0.00831982421875,-0.59459912109375,0.6511323242187499,0.8818109989805084,3.28955078125,-2.90576171875,2.29638671875,47.63588235294118,297.6878643523385
-0.03709033203125,-0.56432568359375,0.6125581054687499,0.8337065445762111,3.37939453125,-3.06298828125,2.29052734375,47.118235294117646,297.6878643523385
-0.08494189453125,-0.54137646484375,0.5349213867187499,0.7657966388685605,3.578125,-3.1923828125,2.2099609375,46.97705882352941,297.6878643523385
-0.09910205078125,-0.55944287109375,0.4675385742187499,0.7357919956544575,3.8408203125,-3.0615234375,1.90771484375,46.506470588235295,297.6878643523385
-0.07322314453125,-0.59215771484375,0.4587495117187499,0.7526376968011951,4.0341796875,-3.03369140625,1.80419921875,46.93,297.5325265767098
-0.03660205078125,-0.67858349609375,0.5256440429687499,0.8591373180119362,4.19921875,-3.42138671875,2.21484375,46.31823529411765,297.5325265767098
-0.04392626953125,-0.73571240234375,0.6794526367187499,1.0024261277826938,3.9287109375,-3.5029296875,3.18505859375,46.506470588235295,297.5325265767098
-0.0063286132812499,-0.66881787109375,0.8342377929687499,1.0692567938796604,3.5966796875,-2.4697265625,3.83935546875,46.31823529411765,297.5325265767098
0.10792919921875,-0.42956005859375,0.93433544921875,1.0339986884178674,2.681640625,-0.99072265625,3.96435546875,46.88294117647059,297.5325265767098
0.12843701171875,-0.14342724609375,0.95533154296875,0.9745387616161464,2.61181640625,0.095703125,3.52001953125,47.68294117647059,298.010964625571
0.10890576171875,0.0250297851562499,0.97632763671875,0.9827016888666308,3.01904296875,0.83203125,2.92431640625,46.97705882352941,298.010964625571
0.14113232421875,0.16418994140625,0.7111909179687499,0.7434172392402583,3.2119140625,0.78125,2.14892578125,47.54176470588236,298.010964625571
0.23439404296875,0.23889697265625,0.6599213867187499,0.7399382187536707,2.8251953125,-0.53564453125,1.3466796875,47.73,298.010964625571
0.33156201171875,0.29309619140625,0.7605073242187499,0.8798921156722547,2.37890625,-2.78857421875,0.22607421875,46.97705882352941,298.2894485452003
0.33644482421875,0.30432666015625,0.8635346679687499,0.9754496186935244,2.5185546875,-5.04248046875,-1.17333984375,47.73,298.2894485452003
0.27980419921875,0.21887744140625,0.96851513671875,1.0316100495392293,2.86962890625,-6.716796875,-2.41552734375,46.36529411764706,298.2894485452003
0.23146435546875,0.05823291015625,1.10083935546875,1.1264164887938577,3.3525390625,-7.662109375,-3.326171875,46.88294117647059,298.2894485452003
0.16554638671875,-0.10924755859375,1.20826123046875,1.224432863111811,3.93212890625,-7.7080078125,-4.06494140625,47.54176470588236,298.2894485452003
0.12306591796875,-0.23815380859375,1.26734326171875,1.2953846531965398,4.361328125,-6.77490234375,-4.53125,47.54176470588236,297.78952974310823
0.09230419921875,-0.32409130859375,1.26587841796875,1.3099631332898227,4.5224609375,-5.30126953125,-4.84716796875,46.36529411764706,297.78952974310823
0.05226513671875,-0.39586865234375,1.22144482421875,1.285056844281785,4.54736328125,-3.80126953125,-5.0478515625,47.54176470588236,297.78952974310823
0.01613232421875,-0.50524365234375,1.14136669921875,1.248298578948104,4.41455078125,-2.92626953125,-5.1044921875,47.118235294117646,297.78952974310823
-0.0077934570312499,-0.60729443359375,1.02808544921875,1.1940799629596717,4.0244140625,-2.48828125,-4.91796875,46.36529411764706,297.6110369978445
0.04152294921875,-0.67028271484375,0.92408154296875,1.1423352271490346,3.45263671875,-2.2158203125,-4.634765625,47.73,297.6110369978445
0.17872998046875,-0.66735302734375,0.8278901367187499,1.0782887124974545,2.7939453125,-1.8076171875,-4.40869140625,46.788823529411765,297.6110369978445
0.32716748046875,-0.59997021484375,0.7370698242187499,1.0051242434394787,2.11083984375,-1.521484375,-4.134765625,46.97705882352941,297.6110369978445
0.46583935546875,-0.55602490234375,0.7058198242187499,1.0121025745398062,1.6904296875,-1.94873046875,-3.89111328125,46.88294117647059,297.6110369978445
0.56349560546875,-0.46081005859375,0.7424409179687499,1.0397556078993029,1.685546875,-3.17822265625,-3.6162109375,47.07117647058824,297.74322226411306
0.61964794921875,-0.36657177734375,0.8410737304687499,1.1071329951729276,1.59375,-4.66259765625,-3.369140625,46.31823529411765,297.74322226411306
0.63820263671875,-0.28991162109375,1.00904248046875,1.2286244670160604,1.35205078125,-5.755859375,-3.4482421875,47.118235294117646,297.74322226411306
0.62453076171875,-0.22545849609375,1.19654248046875,1.3684239523481627,1.23388671875,-6.5458984375,-4.087890625,47.118235294117646,297.74322226411306
0.55080029296875,-0.22936474609375,1.32886669921875,1.4566660062545729,1.1904296875,-6.2021484375,-5.0400390625,47.63588235294118,297.64492511190963
0.45509716796875,-0.26354443359375,1.38208935546875,1.478763026069915,1.23291015625,-4.55126953125,-5.6884765625,46.93,297.64492511190963
0.35597607421875,-0.34313427734375,1.34546826171875,1.4334381538792964,1.25439453125,-1.98779296875,-5.88330078125,47.73,297.64492511190963
0.28322216796875,-0.42809521484375,1.24097607421875,1.3429452431817226,1.392578125,0.94140625,-6.03759765625,47.73,297.64492511190963
0.28224560546875,-0.49889599609375,1.10669873046875,1.2463313671515852,1.6025390625,2.68701171875,-5.9853515625,46.93,297.64492511190963
0.33839794921875,-0.55895458984375,0.93921826171875,1.1441478701150656,1.7177734375,2.9892578125,-5.8740234375,46.97705882352941,297.96634042784854
0.38380810546875,-0.62633740234375,0.8181245117187499,1.0995157661776709,1.32470703125,2.37939453125,-5.6142578125,46.88294117647059,297.96634042784854
0.42287060546875,-0.65905224609375,0.7981049804687499,1.1180970315226435,0.85791015625,1.5185546875,-4.94677734375,47.63588235294118,297.96634042784854
0.41359326171875,-0.67272412109375,0.8230073242187499,1.1405955396012293,0.3623046875,1.13330078125,-4.5595703125,47.07117647058824,297.96634042784854
0.41505810546875,-0.66588818359375,0.8733002929687499,1.1740245762608192,-0.052734375,1.08935546875,-4.26904296875,46.88294117647059,297.91098160493067
0.40187451171875,-0.59899365234375,0.95728466796875,1.1986202293659691,-0.37451171875,1.076171875,-3.8828125,46.31823529411765,297.91098160493067
0.42140576171875,-0.49694287109375,0.97925732421875,1.1762142407642944,-0.36865234375,1.27197265625,-3.3994140625,46.93,297.91098160493067
0.43507763671875,-0.48961865234375,0.99781201171875,1.193586103063328,-0.4873046875,1.77734375,-3.29345703125,46.31823529411765,297.91098160493067
0.47560498046875,-0.24987255859375,0.98853466796875,1.1250942994971371,-0.376953125,2.17529296875,-3.51806640625,47.54176470588236,297.91098160493067
0.51466748046875,-0.19323193359375,0.99390576171875,1.1358124223612625,-0.50634765625,1.64794921875,-3.85986328125,46.64764705882353,297.7093340538689
0.54201123046875,-0.18541943359375,1.00611279296875,1.1577648692562124,-0.6240234375,0.0732421875,-4.25341796875,47.118235294117646,297.7093340538689
0.58742138671875,-0.21813427734375,1.02808544921875,1.203995905068692,-0.5263671875,-1.5556640625,-5.2177734375,46.97705882352941,297.7093340538689
0.64406201171875,-0.23961865234375,1.03980419921875,1.2463650132297457,-0.365234375,-2.6357421875,-6.20947265625,46.31823529411765,297.7093340538689
0.67531201171875,-0.25084912109375,1.01294873046875,1.2429950624533408,-0.2255859375,-3.12158203125,-7.11669921875,46.97705882352941,297.73585602112774
0.74611279296875,-0.25133740234375,0.98169873046875,1.2584066064084725,-0.22705078125,-3.26611328125,-8.04150390625,47.49470588235295,297.73585602112774
0.78956982421875,-0.26842724609375,0.96460888671875,1.2751250911573688,-0.4716796875,-3.92578125,-8.681640625,46.93,297.73585602112774
0.80275341796875,-0.30407177734375,0.95679638671875,1.285430675484117,-0.6650390625,-4.53857421875,-8.71337890625,46.93,297.73585602112774
0.81642529296875,-0.33971630859375,0.91724560546875,1.2740867043005382,-0.6259765625,-4.6025390625,-8.5693359375,46.88294117647059,297.73585602112774
0.74611279296875,-0.39586865234375,0.8483979492187499,1.1971530269680088,-0.75927734375,-4.0830078125,-8.21337890625,47.68294117647059,297.7002829938397
0.69679638671875,-0.46373974609375,0.8225190429687499,1.1735064263554886,-1.2685546875,-3.646484375,-7.77197265625,46.93,297.7002829938397
0.62306591796875,-0.50622021484375,0.8527924804687499,1.1712066678407944,-1.8818359375,-3.46630859375,-7.1337890625,47.54176470588236,297.7002829938397
0.56984326171875,-0.50573193359375,0.8781831054687499,1.1626227669856952,-2.59521484375,-2.79296875,-6.60791015625,46.31823529411765,297.7002829938397
0.56056591796875,-0.47643505859375,0.90503857421875,1.1663272843714516,-3.02490234375,-1.44091796875,-6.22607421875,47.07117647058824,297.6110369978445
0.50783154296875,-0.44762646484375,0.91187451171875,1.135683694161734,-3.3115234375,-0.29052734375,-5.8115234375,46.93,297.6110369978445
0.47609326171875,-0.41539990234375,0.91382763671875,1.1109918192102817,-3.662109375,0.634765625,-5.0283203125,46.97705882352941,297.6110369978445
0.50441357421875,-0.38366162109375,0.92212841796875,1.1189057657291646,-4.04150390625,1.3447265625,-4.53369140625,46.36529411764706,297.6110369978445
0.55958935546875,-0.36364208984375,0.92115185546875,1.137495739373727,-4.181640625,2.197265625,-4.63818359375,47.73,297.6110369978445
0.62550732421875,-0.37389599609375,0.8908784179687499,1.1509656746179446,-4.07470703125,2.826171875,-5.45751953125,47.07117647058824,297.6217718072667
0.61867138671875,-0.40856396484375,0.8254487304687499,1.1095244047544952,-4.12353515625,3.10009765625,-5.8701171875,47.54176470588236,297.6217718072667
0.47560498046875,-0.41784130859375,0.7580659179687499,0.9876514529933224,-4.35693359375,3.26708984375,-5.1484375,47.118235294117646,297.6217718072667
0.40431591796875,-0.37877880859375,0.7136323242187499,0.9034466456479148,-4.646484375,3.4970703125,-4.24560546875,46.31823529411765,297.6217718072667
0.42580029296875,-0.30651318359375,0.7116791992187499,0.8841626003228651,-4.8271484375,3.7177734375,-3.869140625,46.97705882352941,297.9341360462054
0.50685498046875,-0.24157177734375,0.6882416992187499,0.8882204294985043,-4.9951171875,3.943359375,-4.392578125,46.31823529411765,297.9341360462054
0.55763623046875,-0.19762646484375,0.6774995117187499,0.8994553760566332,-5.17529296875,4.19580078125,-4.7548828125,47.49470588235295,297.9341360462054
0.58156201171875,-0.17663037109375,0.6755463867187499,0.9087219498151424,-5.1494140625,4.05810546875,-4.4609375,46.31823529411765,297.9341360462054
0.64406201171875,-0.19079052734375,0.6682221679687499,0.947490245874946,-5.07470703125,3.287109375,-4.42578125,47.118235294117646,297.9341360462054
0.66896435546875,-0.23180615234375,0.6584565429687499,0.9668569801839833,-5.15478515625,2.2734375,-5.26611328125,46.74176470588235,298.10189929777107
0.60792919921875,-0.28014599609375,0.6872651367187499,0.9593711787098632,-5.55615234375,1.45849609375,-6.3017578125,47.07117647058824,298.10189929777107
0.78419873046875,-0.32750927734375,0.7316987304687499,1.121433461148991,-5.95556640625,0.9482421875,-7.63720703125,46.93,298.10189929777107
1.02540966796875,-0.33678662109375,0.7346284179687499,1.3055914858020463,-6.25732421875,0.17822265625,-9.3466796875,46.97705882352941,298.10189929777107
1.22658154296875,-0.34264599609375,0.6799409179687499,1.4436856347968778,-6.35546875,-0.89111328125,-10.01025390625,46.31823529411765,297.8770925973868
1.05910107421875,-0.36413037109375,0.6164643554687499,1.278403032743463,-6.419921875,-1.63623046875,-8.630859375,46.31823529411765,297.8770925973868
0.67384716796875,-0.44372021484375,0.6286713867187499,1.022832023022043,-6.69580078125,-2.4833984375,-6.2294921875,46.97705882352941,297.8770925973868
0.43068310546875,-0.49694287109375,0.7199799804687499,0.9750955474941352,-7.2265625,-2.85791015625,-4.86474609375,46.93,297.8770925973868
0.29249951171875,-0.49987255859375,0.7966401367187499,0.9849182943889496,-7.68701171875,-2.42236328125,-4.5791015625,46.788823529411765,297.8770925973868
0.24855419921875,-0.53991162109375,0.8625581054687499,1.0475162212830855,-7.93115234375,-1.5537109375,-5.4228515625,46.506470588235295,297.89119706041595
0.24269482421875,-0.58629833984375,0.93872998046875,1.1330756802777855,-8.44091796875,-0.865234375,-6.193359375,47.07117647058824,297.89119706041595
0.28908154296875,-0.52526318359375,1.07056591796875,1.2270211633221766,-8.84228515625,-0.0478515625,-6.29833984375,46.36529411764706,297.89119706041595
0.27199169921875,-0.43883740234375,1.13062451171875,1.242927808297399,-8.578125,1.32763671875,-5.076171875,46.88294117647059,297.89119706041595
0.37697216796875,-0.40075146484375,1.11206982421875,1.240729239574611,-7.93017578125,3.1474609375,-4.02880859375,46.97705882352941,298.12336879613594
0.53078076171875,-0.38170849609375,1.00660107421875,1.2002813485259325,-7.35986328125,4.46484375,-4.29052734375,47.73,298.12336879613594
0.59083935546875,-0.38170849609375,0.8195893554687499,1.080055198385046,-7.1865234375,4.60693359375,-5.10888671875,46.36529411764706,298.12336879613594
0.63185498046875,-0.38707958984375,0.6638276367187499,0.994855997865204,-7.07080078125,3.57763671875,-5.13720703125,46.88294117647059,298.12336879613594
0.66310498046875,-0.39586865234375,0.5153901367187499,0.9284649686756576,-7.0078125,1.59521484375,-4.27783203125,47.07117647058824,298.12336879613594
0.63722607421875,-0.37731396484375,0.4006440429687499,0.8419848851949161,-6.9208984375,-0.58203125,-3.734375,46.97705882352941,297.90193178653743
0.52443310546875,-0.34801708984375,0.3176362304687499,0.7050097530114791,-7.0498046875,-2.0478515625,-3.76123046875,46.31823529411765,297.90193178653743
0.49220654296875,-0.31676708984375,0.3147065429687499,0.6645666846424578,-7.09423828125,-2.583984375,-4.11279296875,46.41235294117647,297.90193178653743
0.65480419921875,-0.29088818359375,0.2976166992187499,0.7758609246010805,-6.958984375,-2.5791015625,-4.54638671875,46.788823529411765,297.90193178653743
0.73878857421875,-0.27526318359375,0.2702729492187499,0.8334421663905306,-6.783203125,-2.5576171875,-4.287109375,46.97705882352941,297.93582130078244
0.76027294921875,-0.27672802734375,0.2473237304687499,0.8460274144992691,-6.5966796875,-3.02490234375,-4.609375,46.788823529411765,297.93582130078244
0.70314404296875,-0.30944287109375,0.3513276367187499,0.844747029563031,-6.4755859375,-4.14990234375,-6.07861328125,46.74176470588235,297.93582130078244
0.56154248046875,-0.38805615234375,0.2253510742187499,0.7188189211438278,-6.68994140625,-5.13525390625,-7.189453125,46.93,297.93582130078244
0.43019482421875,-0.45055615234375,0.2663666992187499,0.6775098904459607,-7.05908203125,-5.681640625,-6.6513671875,46.36529411764706,297.93582130078244
0.40626904296875,-0.46618115234375,0.3176362304687499,0.6951778024230114,-7.25830078125,-5.259765625,-5.509765625,47.68294117647059,297.8928825562031
0.42824169921875,-0.42125927734375,0.3547456054687499,0.697635131209238,-7.240234375,-4.46875,-5.2080078125,46.788823529411765,297.8928825562031
0.51515576171875,-0.36901318359375,0.3781831054687499,0.7379557234414594,-7.142578125,-3.8203125,-6.02880859375,46.74176470588235,297.8928825562031
0.63478466796875,-0.32702099609375,0.4021088867187499,0.8195034248571126,-7.07568359375,-3.599609375,-7.35791015625,47.118235294117646,297.8928825562031
0.78078076171875,-0.33971630859375,0.3908784179687499,0.9369160612501144,-6.94091796875,-3.64892578125,-8.23779296875,47.07117647058824,297.7556410654618
0.83742138671875,-0.35192333984375,0.3708588867187499,0.9811528575706256,-6.7412109375,-3.8359375,-8.53759765625,47.07117647058824,297.7556410654618
0.76808544921875,-0.36950146484375,0.3381440429687499,0.9169667298318396,-6.6328125,-4.20166015625,-8.44287109375,47.07117647058824,297.7556410654618
0.68068310546875,-0.37047802734375,0.2976166992187499,0.8301561048796555,-6.63037109375,-4.67822265625,-8.77197265625,46.88294117647059,297.7556410654618
0.50246044921875,-0.33043896484375,0.2751557617187499,0.6613373615055652,-6.73486328125,-5.265625,-9.349609375,46.88294117647059,297.7556410654618
0.46046826171875,-0.31432568359375,0.2556245117187499,0.6133315142795247,-6.82958984375,-5.705078125,-9.75634765625,46.88294117647059,297.9431860861667
0.52833935546875,-0.29284130859375,0.2268159179687499,0.6452472140195886,-7.15087890625,-5.70361328125,-10.607421875,47.118235294117646,297.9431860861667
0.65236279296875,-0.28014599609375,0.2321870117187499,0.7469737620480591,-7.40625,-4.77099609375,-11.20556640625,46.36529411764706,297.9431860861667
0.77882763671875,-0.29528271484375,0.2141206054687499,0.8600069785116355,-7.38232421875,-2.99560546875,-11.20849609375,46.88294117647059,297.9431860861667
0.89650341796875,-0.33581005859375,0.1623627929687499,0.971003836461526,-7.3955078125,-0.984375,-10.83935546875,47.54176470588236,297.91098160493067
0.96583935546875,-0.38219677734375,0.1071870117187498,1.0442265523656415,-7.27978515625,0.56640625,-11.0791015625,46.31823529411765,297.91098160493067
1.02785107421875,-0.41686474609375,0.0495698242187498,1.1102752878369957,-7.072265625,0.9091796875,-11.48974609375,46.36529411764706,297.91098160493067
1.05275341796875,-0.45836865234375,0.0129487304687498,1.1482853522174112,-6.76220703125,0.416015625,-10.94091796875,46.93,297.91098160493067
1.07765576171875,-0.53307568359375,0.0026948242187498,1.2022973373014405,-6.2939453125,-0.201171875,-9.62109375,46.788823529411765,297.91098160493067
1.15333935546875,-0.60143505859375,0.0007416992187498,1.3007368483657524,-5.7333984375,-0.46875,-8.0,46.788823529411765,297.7928995506055
1.31496044921875,-0.64049755859375,0.0222260742187498,1.462823333129913,-5.2001953125,-0.8603515625,-7.1953125,46.97705882352941,297.7928995506055
1.43654248046875,-0.70495068359375,0.0520112304687498,1.601035581299016,-4.91015625,-1.27978515625,-6.390625,46.97705882352941,297.7928995506055
1.35646435546875,-0.70153271484375,0.1106049804687498,1.5311359049273798,-4.28125,-1.8466796875,-4.92919921875,47.49470588235295,297.7928995506055
1.25929638671875,-0.68932568359375,0.1355073242187499,1.4419984474963266,-3.41162109375,-2.6767578125,-3.33447265625,46.41235294117647,298.01264991193545
1.20851513671875,-0.67711865234375,0.1262299804687499,1.3910185164113726,-2.9609375,-3.5029296875,-1.78955078125,47.73,298.01264991193545
1.11818310546875,-0.61413037109375,0.1682221679687499,1.2867743655558233,-2.5673828125,-4.25927734375,0.083984375,46.93,298.01264991193545
1.12111279296875,-0.55846630859375,0.1955659179687499,1.2676847165851142,-1.92431640625,-4.89208984375,1.12353515625,46.788823529411765,298.01264991193545
1.17872998046875,-0.50426708984375,0.2107026367187499,1.2992633550884047,-1.583984375,-4.71875,0.84765625,46.31823529411765,298.01264991193545
1.23683544921875,-0.46178662109375,0.2414643554687499,1.3421303389862211,-1.4140625,-4.09716796875,0.1552734375,47.68294117647059,298.35891728305296
1.20753857421875,-0.40172802734375,0.2712495117187499,1.301196032036454,-1.17626953125,-3.13232421875,-0.16162109375,47.73,298.35891728305296
1.17531201171875,-0.34557568359375,0.2668549804687499,1.2537912340508048,-0.7275390625,-2.26416015625,-0.052734375,47.07117647058824,298.35891728305296
1.21876904296875,-0.29918896484375,0.2341401367187499,1.2766102069174885,-0.4541015625,-1.8173828125,0.06103515625,47.73,298.35891728305296
1.21339794921875,-0.25329052734375,0.2180268554687499,1.2585810995386568,-0.263671875,-1.9140625,0.12548828125,47.68294117647059,297.8787772456648
1.13527294921875,-0.22204052734375,0.2238862304687499,1.1782494257178469,-0.0537109375,-2.41064453125,-0.1611328125,46.41235294117647,297.8787772456648
1.06496044921875,-0.20788037109375,0.2600190429687499,1.115779955812373,0.22119140625,-3.01708984375,-0.78662109375,47.49470588235295,297.8787772456648
1.04982373046875,-0.20202099609375,0.3332612304687499,1.119823823488132,0.48388671875,-3.62646484375,-1.43359375,47.118235294117646,297.8787772456648
1.10597607421875,-0.18541943359375,0.4206635742187499,1.197715026946326,0.7861328125,-4.30029296875,-1.88623046875,46.36529411764706,297.8787772456648
1.17433544921875,-0.15856396484375,0.4865815429687499,1.2810026839146835,0.9697265625,-4.25732421875,-2.8349609375,47.07117647058824,298.0713814984604
1.16652294921875,-0.12829052734375,0.5202729492187499,1.2837126594954666,0.77490234375,-3.62158203125,-3.80908203125,46.97705882352941,298.0713814984604
1.12697216796875,-0.12438427734375,0.5344331054687499,1.2534578014626114,0.40234375,-2.005859375,-4.63427734375,47.118235294117646,298.0713814984604
1.03322216796875,0.00647509765625,0.5158784179687499,1.1548681818275377,0.25732421875,-0.00390625,-5.2177734375,46.93,298.0713814984604
0.97999951171875,-0.16295849609375,0.4802338867187499,1.1034396677531229,0.16845703125,1.5712890625,-5.708984375,46.31823529411765,298.08211613990863
0.98097607421875,-0.21129833984375,0.4782807617187499,1.1116265261501377,0.15478515625,2.19140625,-5.97802734375,46.31823529411765,298.08211613990863
0.97511669921875,-0.27575146484375,0.4709565429687499,1.1174486622766255,0.17333984375,2.36767578125,-6.08544921875,47.68294117647059,298.08211613990863
1.03126904296875,-0.31383740234375,0.4899995117187499,1.1841069527623629,0.0419921875,2.22998046875,-6.201171875,46.36529411764706,298.08211613990863
1.11671826171875,-0.36754833984375,0.4997651367187499,1.2774649310480324,-0.23828125,1.99658203125,-6.23876953125,46.788823529411765,298.08211613990863
1.19728466796875,-0.41051708984375,0.5051362304687499,1.3627829865899412,-0.5341796875,1.2177734375,-6.09228515625,46.506470588235295,298.187777616494
1.20509716796875,-0.44762646484375,0.5109956054687499,1.383381778499048,-0.8779296875,0.400390625,-5.9990234375,47.07117647058824,298.187777616494
1.20509716796875,-0.47936474609375,0.5310151367187499,1.4014374118983195,-1.47607421875,-0.25146484375,-5.58984375,46.31823529411765,298.187777616494
1.15040966796875,-0.51061474609375,0.5241791992187499,1.3634271729644984,-1.974609375,-0.77197265625,-5.0380859375,46.31823529411765,298.187777616494
1.06935498046875,-0.50622021484375,0.5246674804687499,1.2942391375751234,-2.24365234375,-0.609375,-4.451171875,47.07117647058824,298.25724425084246
1.06984326171875,-0.50280224609375,0.5515229492187499,1.304435612376817,-2.4345703125,-0.298828125,-3.97314453125,47.73,298.25724425084246
1.10255810546875,-0.45739208984375,0.5715424804687499,1.3234435034284024,-2.4326171875,-0.43994140625,-3.388671875,46.36529411764706,298.25724425084246
1.07228466796875,-0.40514599609375,0.6213471679687499,1.3038443121992884,-2.36767578125,-0.77197265625,-2.76220703125,46.31823529411765,298.25724425084246
1.03126904296875,-0.36559521484375,0.6550385742187499,1.2752455582423576,-2.0927734375,-0.876953125,-2.2294921875,46.93,298.25724425084246
0.96535107421875,-0.29430615234375,0.7024018554687499,1.22958821333348,-1.81591796875,-0.28564453125,-1.94775390625,47.49470588235295,298.4125908800675
0.88673779296875,-0.21032177734375,0.7453706054687499,1.1773344907038843,-1.67626953125,0.880859375,-2.025390625,46.36529411764706,298.4125908800675
0.82277294921875,-0.16100537109375,0.7761323242187499,1.1424795141202115,-1.794921875,2.83984375,-2.29833984375,47.07117647058824,298.4125908800675
0.76369091796875,-0.12584912109375,0.7966401367187499,1.1107192835722668,-2.28759765625,4.8388671875,-2.49462890625,47.118235294117646,298.4125908800675
0.68898388671875,-0.09215771484375,0.8078706054687499,1.0657611157026428,-2.9013671875,6.72802734375,-2.4306640625,47.73,298.1465242731903
0.70314404296875,-0.04772412109375,0.7478120117187499,1.0275757596242985,-3.3525390625,8.3642578125,-2.05078125,47.63588235294118,298.1465242731903
0.58839794921875,0.0274711914062499,0.6032807617187499,0.8431574529481813,-3.56396484375,9.44189453125,-1.85205078125,46.788823529411765,298.1465242731903
0.43458935546875,0.10559619140625,0.3586518554687499,0.573279702202534,-3.78857421875,9.27197265625,-2.25537109375,46.36529411764706,298.1465242731903
0.55812451171875,0.11096728515625,0.2673432617187499,0.6287202307407179,-3.7861328125,8.81689453125,-3.52294921875,46.36529411764706,298.1465242731903
1.35597607421875,0.0177055664062499,0.2854096679687499,1.38580059153743,-4.36328125,7.927734375,-4.58349609375,46.36529411764706,298.29450941386034
1.73830029296875,0.06555712890625,0.3825776367187499,1.7811095681633338,-5.3173828125,8.2080078125,-4.9951171875,47.63588235294118,298.29450941386034
1.68947216796875,0.16858447265625,0.5046479492187499,1.771272560452655,-5.08837890625,11.05419921875,-4.3671875,46.93,298.29450941386034
1.38136669921875,0.24377978515625,0.6535737304687499,1.547501587243183,-3.39013671875,15.40380859375,-3.0537109375,47.54176470588236,298.29450941386034
1.07765576171875,0.21692431640625,0.6731049804687499,1.2889796020673774,-1.30859375,15.99951171875,-0.97607421875,46.88294117647059,298.0680092591897
0.96779248046875,0.18616259765625,0.5446870117187499,1.1260385156614672,-0.8583984375,15.99951171875,1.4853515625,47.07117647058824,298.0680092591897
1.02931591796875,0.27454150390625,0.4040620117187499,1.1393552587604796,-1.54345703125,15.99951171875,2.4375,46.788823529411765,298.0680092591897
1.08107373046875,0.51086962890625,0.3977143554687499,1.2601130492913533,-1.65234375,11.72412109375,1.6787109375,46.97705882352941,298.0680092591897
1.14113232421875,0.62463916015625,0.4514252929687499,1.3770046684414377,-0.78662109375,5.22119140625,0.662109375,46.88294117647059,298.0680092591897
1.12990185546875,0.53577197265625,0.4909760742187499,1.343423728810441,0.08935546875,-1.166015625,-0.16162109375,46.31823529411765,298.62667677761493
0.97609326171875,0.38879931640625,0.6013276367187499,1.2105857634601822,0.32080078125,-4.37646484375,-0.67041015625,46.55352941176471,298.62667677761493
0.60841748046875,0.24085009765625,0.95581982421875,1.1583488837351763,-0.40185546875,4.33837890625,-0.07470703125,46.41235294117647,298.03411943467466
0.62160107421875,0.24133837890625,0.94263623046875,1.154640711041896,-0.4033203125,6.10791015625,-0.166015625,46.88294117647059,298.03411943467466
0.66115185546875,0.24036181640625,0.94458935546875,1.1777710427925927,-0.5,7.6044921875,-0.2783203125,46.36529411764706,298.03411943467466
0.69240185546875,0.23694384765625,0.93677685546875,1.1887445450308638,-0.29736328125,9.0458984375,-0.42919921875,46.97705882352941,298.03411943467466
0.78029248046875,0.24280322265625,0.8435151367187499,1.174447762091608,0.09130859375,12.68017578125,-0.86181640625,46.36529411764706,298.03411943467466
0.86574169921875,0.24280322265625,0.7097260742187499,1.1455012855184352,0.478515625,14.03369140625,-1.2001953125,46.31823529411765,298.03411943467466
0.90187451171875,0.23889697265625,0.5490815429687499,1.0825617484749763,0.67138671875,12.984375,-1.2158203125,46.97705882352941,298.03411943467466
0.90968701171875,0.25012744140625,0.4045502929687499,1.0265257599180488,0.66796875,9.76220703125,-1.0458984375,47.63588235294118,298.37701327967864
0.87453076171875,0.28333056640625,0.3405854492187499,0.9803462201038984,0.4208984375,6.037109375,-0.7822265625,46.93,298.37701327967864
0.79542919921875,0.34827197265625,0.3425385742187499,0.9334525444474784,0.06640625,3.1875,-0.59033203125,46.31823529411765,298.37701327967864
0.70656201171875,0.44251025390625,0.3835541992187499,0.917692227794568,-0.33056640625,2.08154296875,-0.53076171875,47.07117647058824,298.37701327967864
0.66066357421875,0.51819384765625,0.4816987304687499,0.968005624458602,-0.7138671875,2.66552734375,-0.51220703125,46.93,298.4481696945058
0.63966748046875,0.55627978515625,0.5813081054687499,1.0278817044905455,-0.94091796875,4.46728515625,-0.4931640625,47.54176470588236,298.4481696945058
0.64845654296875,0.58508837890625,0.6618745117187499,1.0958568193487046,-0.640625,6.96533203125,-0.8818359375,47.118235294117646,298.4481696945058
0.67189404296875,0.56067431640625,0.6584565429687499,1.095154013384814,-0.220703125,9.05908203125,-1.357421875,47.16529411764706,298.4481696945058
0.71193310546875,0.49915087890625,0.6262299804687499,1.0715243044435114,-0.01123046875,10.11376953125,-1.76416015625,47.07117647058824,298.4481696945058
0.72658154296875,0.43811572265625,0.5730073242187499,1.0238181081763444,0.05615234375,10.24365234375,-2.18896484375,47.68294117647059,298.55720443016406
0.72365185546875,0.39514697265625,0.5524995117187499,0.99250634676672,0.0234375,9.0380859375,-2.54833984375,46.88294117647059,298.55720443016406
0.68019482421875,0.37903369140625,0.5461518554687499,0.951111658716779,0.02734375,7.4189453125,-2.91943359375,46.93,298.55720443016406
0.65968701171875,0.34827197265625,0.5788666992187499,0.9442282435050864,0.1103515625,5.642578125,-3.34912109375,46.64764705882353,298.55720443016406
0.63283154296875,0.30530322265625,0.6164643554687499,0.9347267628050466,0.22119140625,4.29443359375,-3.63671875,47.3064705882353,298.79276302073
0.60695263671875,0.25745166015625,0.6662690429687499,0.9373298769139636,0.1728515625,3.57177734375,-3.77734375,46.31823529411765,298.79276302073
0.55861279296875,0.21790087890625,0.7209565429687499,0.9377139128465114,0.31640625,3.8349609375,-3.58349609375,46.93,298.79276302073
0.53371044921875,0.18567431640625,0.7658784179687499,0.9517833506048125,0.46240234375,4.603515625,-3.30615234375,46.93,298.79276302073
0.52003857421875,0.17639697265625,0.7810151367187499,0.9547463822511022,0.62890625,5.46533203125,-3.12939453125,46.31823529411765,298.79276302073
0.51466748046875,0.18079150390625,0.7722260742187499,0.9454635334268778,0.8076171875,6.001953125,-3.076171875,46.88294117647059,298.62667677761493
0.51710888671875,0.18518603515625,0.7404877929687499,0.9219640122456664,0.80322265625,6.3828125,-3.0859375,47.54176470588236,298.62667677761493
0.50294873046875,0.19006884765625,0.6941010742187499,0.8779862718523135,0.60693359375,6.365234375,-3.06201171875,47.54176470588236,298.62667677761493
0.50392529296875,0.20618212890625,0.6657807617187499,0.8600673193702647,0.25830078125,6.13525390625,-2.9296875,46.31823529411765,298.62667677761493
0.50831982421875,0.23303759765625,0.6467377929687499,0.8549651095040468,-0.1650390625,5.81005859375,-2.7822265625,46.36529411764706,298.20188416716303
0.52052685546875,0.26965869140625,0.6320893554687499,0.8620910453148297,-0.66015625,5.47607421875,-2.68408203125,46.788823529411765,298.20188416716303
0.53956982421875,0.31018603515625,0.6477143554687499,0.898267698347049,-1.05908203125,5.07568359375,-2.72216796875,46.88294117647059,298.20188416716303
0.56398388671875,0.33752978515625,0.6721284179687499,0.9400855230175532,-1.3232421875,4.5244140625,-2.91455078125,47.73,298.20188416716303
0.56789013671875,0.34534228515625,0.6936127929687499,0.9606556135625768,-1.427734375,3.921875,-3.1875,46.93,298.20188416716303
0.54738232421875,0.33362353515625,0.7087495117187499,0.9556453015836162,-1.46826171875,3.40478515625,-3.53515625,46.36529411764706,298.5588922087631
0.52540966796875,0.32483447265625,0.7351166992187499,0.960192332447602,-1.51953125,2.98828125,-3.86279296875,46.31823529411765,298.5588922087631
0.50099560546875,0.31995166015625,0.7741791992187499,0.9760733036195204,-1.5107421875,2.76513671875,-3.95654296875,47.73,298.5588922087631
0.47609326171875,0.30530322265625,0.8132416992187499,0.9905740320473224,-1.43310546875,2.7939453125,-3.90234375,46.31823529411765,298.5588922087631
0.45851513671875,0.27942431640625,0.8449799804687499,1.001151959790462,-1.27734375,2.99560546875,-3.7568359375,46.93,298.67130401927346
0.43410107421875,0.24036181640625,0.8532807617187499,0.9870691990652504,-1.11279296875,3.12109375,-3.5341796875,46.36529411764706,298.67130401927346
0.40333935546875,0.20764697265625,0.8733002929687499,0.9841002502908718,-0.95458984375,3.06494140625,-3.12890625,46.36529411764706,298.67130401927346
0.38771435546875,0.17151416015625,0.8869721679687499,0.9830865451840118,-0.83740234375,2.85693359375,-2.548828125,46.64764705882353,298.67130401927346
0.37990185546875,0.16028369140625,0.91480419921875,1.0034356005383065,-0.7900390625,2.73583984375,-1.98046875,47.118235294117646,298.67130401927346
0.38429638671875,0.15833056640625,0.93824169921875,1.0261821316201614,-0.8447265625,2.859375,-1.47021484375,47.54176470588236,298.75887010484354
0.39503857421875,0.15540087890625,0.95581982421875,1.0458472377241237,-0.95703125,3.1416015625,-1.05517578125,46.93,298.75887010484354
0.39162060546875,0.16174853515625,0.97486279296875,1.0629613127333162,-1.05029296875,3.39306640625,-0.72509765625,46.88294117647059,298.75887010484354
0.38917919921875,0.16663134765625,0.99390576171875,1.0803125095563848,-1.09130859375,3.53466796875,-0.48876953125,46.31823529411765,298.75887010484354
0.37697216796875,0.17004931640625,1.00855419921875,1.0900487870710498,-1.1201171875,3.50390625,-0.3603515625,46.93,298.78033951393087
0.36330029296875,0.16907275390625,1.01539013671875,1.0915996650468272,-1.17529296875,3.42724609375,-0.33203125,46.97705882352941,298.78033951393087
0.35206982421875,0.16126025390625,1.03443310546875,1.1045405743136156,-1.1728515625,3.48828125,-0.45947265625,47.118235294117646,298.78033951393087
0.34279248046875,0.13879931640625,1.03003857421875,1.094418292646535,-1.005859375,3.607421875,-0.986328125,46.97705882352941,298.78033951393087
0.31740185546875,0.12122119140625,1.01148388671875,1.067023040141414,-1.142578125,3.63330078125,-1.84375,46.41235294117647,298.78033951393087
0.27052685546875,0.10413134765625,0.98902294921875,1.0306282119056662,-1.26416015625,3.30029296875,-2.80126953125,47.68294117647059,298.4481696945058
0.20070263671875,0.10657275390625,0.97290966796875,0.999095852402603,-1.55322265625,2.677734375,-3.43505859375,47.118235294117646,298.4481696945058
0.13185498046875,0.13391650390625,0.99683544921875,1.0143965096115195,-1.9443359375,2.2412109375,-3.60791015625,47.118235294117646,298.4481696945058
0.12746044921875,0.18518603515625,1.04956982421875,1.0733763783699153,-2.15966796875,2.46533203125,-3.66943359375,46.31823529411765,298.4481696945058
0.19044873046875,0.21985400390625,1.07886669921875,1.117389751453775,-2.13623046875,3.82958984375,-3.9091796875,47.118235294117646,298.6696154818966
0.25539013671875,0.25501025390625,1.05591748046875,1.1158925024795288,-1.998046875,5.51220703125,-4.2509765625,47.73,298.6696154818966
0.27833935546875,0.27600634765625,0.98316357421875,1.058424732524656,-1.9599609375,6.68359375,-4.80419921875,46.93,298.6696154818966
0.24855419921875,0.28918994140625,0.8977143554687499,0.975346644108902,-1.96923828125,6.5693359375,-4.70361328125,47.07117647058824,298.6696154818966
0.19923779296875,0.28284228515625,0.8249604492187499,0.8945698403113473,-1.91162109375,5.9931640625,-4.06494140625,46.36529411764706,298.6696154818966
0.17970654296875,0.26721728515625,0.7746674804687499,0.8389333849405785,-1.63623046875,4.91943359375,-3.29638671875,47.54176470588236,298.7696048026062
0.18410107421875,0.24133837890625,0.7478120117187499,0.8070689087881147,-1.279296875,3.7822265625,-2.65625,46.41235294117647,298.7696048026062
0.18751904296875,0.20227587890625,0.7365815429687499,0.7865311768171914,-0.91552734375,2.7568359375,-2.2841796875,47.73,298.7696048026062
0.17042919921875,0.16467822265625,0.7517182617187499,0.7881912039378673,-0.57666015625,2.10107421875,-2.17333984375,47.63588235294118,298.7696048026062
0.14210888671875,0.12170947265625,0.7878510742187499,0.8097638214728682,-0.31103515625,1.81103515625,-2.083984375,47.3064705882353,298.4464822207411
0.10695263671875,0.08264697265625,0.8200776367187499,0.8311418163205037,-0.06201171875,1.74462890625,-1.89892578125,47.118235294117646,298.4464822207411
0.08546826171875,0.03772509765625,0.8581635742187499,0.8632338772721436,0.0009765625,1.82958984375,-1.7099609375,46.88294117647059,298.4464822207411
0.06789013671875,-0.00231396484375,0.8840424804687499,0.8866484829797707,0.25244140625,2.09765625,-1.650390625,46.93,298.4464822207411
0.05031201171875,-0.04186474609375,0.90113232421875,0.9035061821817092,0.240234375,2.564453125,-1.666015625,47.63588235294118,298.4464822207411
0.02931591796875,-0.06823193359375,0.90650341796875,0.909540250124929,0.14306640625,3.0361328125,-1.62646484375,47.68294117647059,298.5374228593548
0.01808544921875,-0.08385693359375,0.91724560546875,0.9212483755952704,0.01025390625,3.27001953125,-1.47998046875,46.93,298.5374228593548
0.00685498046875,-0.09801708984375,0.92945263671875,0.9346317695018188,-0.0556640625,3.240234375,-1.337890625,46.93,298.5374228593548
0.00246044921875,-0.09069287109375,0.92701123046875,0.931440321272797,-0.16162109375,2.87939453125,-1.22607421875,46.36529411764706,298.5374228593548
0.00441357421875,-0.07457958984375,0.93335888671875,0.9363441708450536,-0.2685546875,2.25927734375,-1.228515625,46.97705882352941,298.62667677761493
0.00539013671875,-0.04479443359375,0.95581982421875,0.9568840740781476,-0.251953125,1.6796875,-1.3388671875,46.36529411764706,298.62667677761493
-0.0053520507812499,-0.02477490234375,0.96949169921875,0.969822971004382,-0.4287109375,1.2890625,-1.599609375,46.88294117647059,298.62667677761493
-0.00974658203125,-0.00084912109375,0.98267529296875,0.9827239939469994,-0.47119140625,1.142578125,-1.78271484375,46.31823529411765,298.62667677761493
-0.01902392578125,0.0157524414062499,0.99732373046875,0.9976295266873828,-0.47705078125,1.1865234375,-1.89208984375,46.97705882352941,298.62667677761493
-0.02585986328125,0.03430712890625,0.99683544921875,0.9977608052243092,-0.43310546875,1.2119140625,-1.92236328125,46.788823529411765,298.83570181453024
-0.02146533203125,0.03479541015625,1.00122998046875,1.002064346654748,-0.31298828125,1.3330078125,-1.90673828125,46.88294117647059,298.83570181453024
-0.01121142578125,0.0279594726562499,0.99195263671875,0.9924099262263272,-0.22705078125,1.47021484375,-1.96484375,47.68294117647059,298.83570181453024
-0.0009575195312499,0.0206352539062499,0.99097607421875,0.9911913590328728,-0.09912109375,1.38916015625,-2.1328125,46.36529411764706,298.83570181453024
-0.02781298828125,0.00647509765625,0.98706982421875,0.9874828236936706,-0.0009765625,1.0517578125,-2.4453125,47.07117647058824,298.54478230341573
-0.06736376953125,-0.00866162109375,0.96900341796875,0.9713807313101032,0.048828125,0.619140625,-2.89208984375,47.07117647058824,298.54478230341573
-0.11619189453125,-0.01403271484375,0.96851513671875,0.9755608866154822,0.01611328125,0.38232421875,-3.35400390625,46.97705882352941,298.54478230341573
-0.15867236328125,-0.02135693359375,0.96900341796875,0.9821408562507236,-0.01171875,0.3310546875,-3.57275390625,47.07117647058824,298.54478230341573
-0.18650439453125,-0.01696240234375,0.97583935546875,0.9936468487115554,-0.060546875,0.537109375,-3.650390625,47.118235294117646,298.54478230341573
-0.18943408203125,-0.00573193359375,0.98316357421875,1.001263571777348,-0.05419921875,0.8837890625,-3.59130859375,47.118235294117646,298.6927733321276
-0.17185595703125,0.01184619140625,0.98609326171875,1.0010268343181832,0.0673828125,1.46435546875,-3.50927734375,47.118235294117646,298.6927733321276
-0.15671923828125,0.0274711914062499,0.97925732421875,0.9920990338876456,0.1962890625,2.09716796875,-3.39306640625,46.74176470588235,298.6927733321276
-0.13914111328125,0.04895556640625,0.97046826171875,0.9816137447543788,0.34912109375,2.53125,-3.2802734375,46.31823529411765,298.6927733321276
-0.10984423828125,0.05920947265625,0.95777294921875,0.9658677655823292,0.564453125,2.81396484375,-3.2119140625,46.788823529411765,298.6571926417545
-0.06736376953125,0.06555712890625,0.94605419921875,0.9507124499317972,0.8330078125,3.060546875,-3.1865234375,46.93,298.6571926417545
-0.04441455078125,0.05286181640625,0.92456982421875,0.9271442087457368,1.14404296875,3.0185546875,-3.19677734375,47.54176470588236,298.6571926417545
-0.02830126953125,0.0245415039062499,0.8742768554687499,0.8750790063070798,1.32373046875,2.4267578125,-3.2763671875,46.31823529411765,298.6571926417545
-0.03904345703125,0.01282275390625,0.8630463867187499,0.8640242358770854,1.2734375,1.345703125,-3.43603515625,47.07117647058824,298.6571926417545
-0.10349658203125,0.00403369140625,0.8733002929687499,0.8794209542976654,1.21484375,0.30419921875,-3.43994140625,46.93,298.43574749388176
-0.10691455078125,-0.00377880859375,0.91822216796875,0.9244333130693504,1.2880859375,0.02392578125,-3.38671875,46.41235294117647,298.43574749388176
-0.03562548828125,-0.03698193359375,0.95435498046875,0.955735458991199,1.32177734375,0.91552734375,-3.46044921875,46.93,298.43574749388176
-0.02146533203125,-0.06725537109375,0.98902294921875,0.9915394291209624,1.3369140625,1.71484375,-3.56591796875,47.73,298.43574749388176
-0.05222705078125,-0.09264599609375,0.98560498046875,0.9913264462074616,1.296875,1.556640625,-3.61865234375,46.88294117647059,298.48206152228767
-0.13572314453125,-0.10485302734375,0.95826123046875,0.9734883230548184,1.18994140625,0.91650390625,-3.42431640625,47.63588235294118,298.48206152228767
-0.18992236328125,-0.10631787109375,0.93921826171875,0.96410836368856,1.134765625,0.1318359375,-3.12548828125,47.63588235294118,298.48206152228767
-0.19968798828125,-0.11217724609375,0.92066357421875,0.9487256948656096,1.07421875,-0.55517578125,-2.92626953125,47.73,298.48206152228767
-0.18064501953125,-0.09948193359375,0.92359326171875,0.9463370389482154,1.01171875,-1.09326171875,-2.97314453125,47.54176470588236,298.48206152228767
-0.17429736328125,-0.08922802734375,0.93677685546875,0.9570225120927784,0.95458984375,-1.1845703125,-3.23193359375,47.07117647058824,298.6001435328225
-0.16306689453125,-0.08288037109375,0.96216748046875,0.979400953887776,0.9111328125,-0.845703125,-3.41943359375,47.49470588235295,298.6001435328225
-0.14939501953125,-0.07702099609375,0.98511669921875,0.9993527989552344,0.912109375,-0.28173828125,-3.4521484375,46.788823529411765,298.6001435328225
-0.12449267578125,-0.07311474609375,0.99439404296875,1.0048202352218356,0.8896484375,0.4638671875,-3.43603515625,46.41235294117647,298.6001435328225
-0.07859423828125,-0.06286083984375,1.00611279296875,1.011133765459472,0.92724609375,1.31005859375,-3.4423828125,46.31823529411765,298.7340239449035
-0.04343798828125,-0.05065380859375,1.00074169921875,1.0029639154556886,0.92919921875,2.08154296875,-3.51123046875,46.93,298.7340239449035
-0.0004692382812499,-0.04088818359375,0.98658154296875,0.9874285820598672,0.8662109375,2.56494140625,-3.662109375,47.07117647058824,298.7340239449035
0.00343701171875,-0.03795849609375,0.96558544921875,0.9663373739115284,0.79638671875,2.68798828125,-3.71435546875,46.31823529411765,298.7340239449035
-0.0058403320312499,-0.03649365234375,0.94019482421875,0.9409209337810206,0.72021484375,2.3603515625,-3.5625,47.68294117647059,298.7340239449035
-0.02634814453125,-0.03844677734375,0.92554638671875,0.9267192095648462,0.599609375,1.5693359375,-3.23583984375,46.506470588235295,298.8142323905232
-0.04587939453125,-0.03405224609375,0.92701123046875,0.928770313759957,0.46337890625,0.43798828125,-2.8173828125,46.788823529411765,298.8142323905232
-0.05759814453125,-0.01452099609375,0.95728466796875,0.9591258213128436,0.3125,-0.5087890625,-2.6220703125,46.97705882352941,298.8142323905232
-0.07712939453125,0.01233447265625,0.99390576171875,0.996970283355624,0.21044921875,-1.328125,-2.32373046875,47.07117647058824,298.8142323905232
-0.09226611328125,0.04065478515625,1.02710888671875,1.0320457898721158,0.0830078125,-1.44189453125,-2.33349609375,47.07117647058824,298.6142537504716
-0.10642626953125,0.07874072265625,1.05591748046875,1.0641843720945352,-0.0478515625,-1.1142578125,-2.32275390625,47.63588235294118,298.6142537504716
-0.11326220703125,0.11047900390625,1.07300732421875,1.0846099094479955,-0.10791015625,-0.65185546875,-2.0009765625,46.97705882352941,298.6142537504716
-0.10203173828125,0.14856494140625,1.05835888671875,1.0735946863357178,-0.0478515625,0.29052734375,-1.58837890625,46.97705882352941,298.6142537504716
-0.04099658203125,0.17639697265625,1.04566357421875,1.061229910127144,0.06494140625,1.3662109375,-1.3095703125,46.31823529411765,298.6142537504716
1.904296875000072e-05,0.20374072265625,1.01050732421875,1.0308420513011989,0.12939453125,1.92724609375,-1.17724609375,47.73,298.42332564013105
0.01662060546875,0.21643603515625,0.96167919921875,0.9858740710913952,0.43505859375,1.82373046875,-1.10595703125,46.788823529411765,298.42332564013105
0.01662060546875,0.23059619140625,0.91529248046875,0.9440398152725618,0.60107421875,1.3408203125,-1.177734375,46.31823529411765,298.42332564013105
0.01027294921875,0.24133837890625,0.8918549804687499,0.9239886648686022,0.73779296875,0.787109375,-1.25146484375,46.41235294117647,298.42332564013105
-0.01560595703125,0.25012744140625,0.9001557617187499,0.9343916085853732,0.89697265625,0.23095703125,-1.59423828125,46.788823529411765,298.9051776721831
-0.04587939453125,0.25208056640625,0.91919873046875,0.9542409742290524,1.01953125,-0.23291015625,-1.8388671875,47.54176470588236,298.9051776721831
-0.07712939453125,0.24817431640625,0.96314404296875,0.9975900372049912,1.11279296875,-0.48291015625,-2.1142578125,46.31823529411765,298.9051776721831
-0.10789111328125,0.23840869140625,1.00855419921875,1.041950463901659,1.19287109375,-0.359375,-2.40087890625,46.788823529411765,298.9051776721831
-0.17283251953125,0.23010791015625,1.04761669921875,1.0864260115654385,1.18896484375,-0.244140625,-2.69091796875,47.63588235294118,298.9051776721831
-0.23044970703125,0.22376025390625,1.05103466796875,1.0990221071348651,1.0634765625,-0.13037109375,-2.91259765625,47.07117647058824,298.85886016680405
-0.24851611328125,0.22766650390625,1.04126904296875,1.0944558078818762,0.9599609375,0.22412109375,-2.9248046875,47.68294117647059,298.85886016680405
-0.22996142578125,0.23499072265625,1.03785107421875,1.088686249265079,0.91015625,0.908203125,-2.81494140625,47.63588235294118,298.85886016680405
-0.19627001953125,0.24670947265625,1.02613232421875,1.073468691332773,0.923828125,1.400390625,-2.6796875,47.73,298.85886016680405
-0.15232470703125,0.25061572265625,1.01001904296875,1.0517364327502308,1.02197265625,1.45654296875,-2.64013671875,46.97705882352941,298.75718159594857
-0.11668017578125,0.25549853515625,0.98951123046875,1.028604024934334,1.0107421875,1.17431640625,-2.60986328125,46.93,298.75718159594857
-0.10349658203125,0.27502978515625,1.00220654296875,1.0443997701955978,0.95654296875,0.89501953125,-2.5419921875,47.68294117647059,298.75718159594857
-0.14841845703125,0.28821337890625,1.03394482421875,1.0835759732002352,1.025390625,0.900390625,-2.17236328125,46.97705882352941,298.75718159594857
-0.09910205078125,0.28137744140625,1.03882763671875,1.080813277033568,1.30078125,1.76025390625,-1.68603515625,46.88294117647059,298.75718159594857
-0.0077934570312499,0.25891650390625,1.03247998046875,1.0644779960319912,1.48095703125,3.06640625,-1.54638671875,47.16529411764706,298.5481575272779
-0.01560595703125,0.26038134765625,0.97876904296875,1.0129318000616372,1.609375,3.0341796875,-1.689453125,46.36529411764706,298.5481575272779
-0.09470751953125,0.24670947265625,0.90210888671875,0.9400188943053376,1.5830078125,2.26123046875,-1.7119140625,46.93,298.5481575272779
-0.22117236328125,0.24329150390625,0.8606049804687499,0.9212756930257064,1.54931640625,0.80078125,-1.30810546875,46.97705882352941,298.5481575272779
-0.28660205078125,0.23352587890625,0.8293549804687499,0.9080224420460516,1.50244140625,-0.787109375,-0.74267578125,47.63588235294118,298.85886016680405
-0.28513720703125,0.24085009765625,0.8464448242187499,0.925084232284454,1.48095703125,-1.9697265625,-0.55712890625,46.31823529411765,298.85886016680405
-0.23875048828125,0.24866259765625,0.8977143554687499,0.9616267192327604,1.431640625,-2.16259765625,-0.9892578125,46.36529411764706,298.85886016680405
-0.19871142578125,0.26038134765625,0.95581982421875,1.0103841909456344,1.35302734375,-1.33984375,-1.697265625,46.88294117647059,298.85886016680405
-0.18845751953125,0.26086962890625,1.01148388671875,1.06144658511167,1.27880859375,-0.37451171875,-2.1064453125,46.788823529411765,298.85886016680405
-0.18552783203125,0.24915087890625,1.03003857421875,1.075860679315202,1.1123046875,0.91162109375,-2.11279296875,46.41235294117647,298.71424269919066
-0.16892626953125,0.24524462890625,1.01783154296875,1.0605008545056696,0.98974609375,1.9072265625,-2.005859375,46.788823529411765,298.71424269919066
-0.14988330078125,0.22668994140625,0.98951123046875,1.0261509677487182,0.9052734375,2.4169921875,-1.9873046875,46.41235294117647,298.71424269919066
-0.15769580078125,0.20422900390625,0.94507763671875,0.9796678983443706,0.84619140625,2.36181640625,-1.96435546875,46.88294117647059,298.71424269919066
-0.17820361328125,0.18909228515625,0.8879487304687499,0.9251839644271675,0.7841796875,1.875,-1.8974609375,47.118235294117646,298.8803295786264
-0.20798876953125,0.16907275390625,0.8576752929687499,0.8985832362856531,0.70458984375,1.2099609375,-1.78076171875,47.63588235294118,298.8803295786264
-0.24753955078125,0.16321337890625,0.8479096679687499,0.8982567791505133,0.66943359375,0.54541015625,-1.552734375,47.07117647058824,298.8803295786264
-0.26902392578125,0.15784228515625,0.8552338867187499,0.9103367841728476,0.67333984375,0.06494140625,-1.197265625,46.788823529411765,298.8803295786264
-0.27537158203125,0.17737353515625,0.8752534179687499,0.934537010947238,0.70361328125,-0.07763671875,-0.9189453125,46.31823529411765,298.8803295786264
-0.27634814453125,0.18274462890625,0.8928315429687499,0.9523193059577792,0.7685546875,0.0576171875,-0.765625,47.63588235294118,298.6340353585974
-0.26511767578125,0.20276416015625,0.90552685546875,0.9650800861227236,0.80224609375,0.34130859375,-0.87255859375,47.118235294117646,298.6340353585974
-0.22947314453125,0.22131884765625,0.8986909179687499,0.9535645350098044,0.76220703125,0.6240234375,-0.8046875,46.88294117647059,298.6340353585974
-0.18406298828125,0.24377978515625,0.8933198242187499,0.944101729501683,0.6708984375,0.64013671875,-0.8427734375,46.788823529411765,298.6340353585974
-0.16453173828125,0.24963916015625,0.8845307617187499,0.9336943137944664,0.61328125,0.4912109375,-0.84716796875,47.54176470588236,298.6249884529615
-0.16209033203125,0.24182666015625,0.8684174804687499,0.9159161149821632,0.501953125,0.25732421875,-0.90380859375,47.68294117647059,298.6249884529615
-0.19773486328125,0.22522509765625,0.8610932617187499,0.9117603995286028,0.369140625,-0.3564453125,-0.9677734375,47.73,298.6249884529615
-0.23533251953125,0.21545947265625,0.8483979492187499,0.9064123009672894,0.37255859375,-1.0234375,-0.91943359375,46.36529411764706,298.6249884529615
-0.26218798828125,0.19934619140625,0.8523041992187499,0.9137307553284284,0.130859375,-1.3935546875,-0.8310546875,47.68294117647059,298.6249884529615
-0.26218798828125,0.19202197265625,0.8606049804687499,0.9199216877481388,0.00146484375,-1.45361328125,-0.7158203125,46.93,298.6001435328225
-0.26658251953125,0.19348681640625,0.8811127929687499,0.9406716439735208,-0.0732421875,-1.513671875,-0.48974609375,47.63588235294118,298.6001435328225
-0.27732470703125,0.19739306640625,0.8835541992187499,0.9468585104186988,-0.169921875,-1.64306640625,-0.19775390625,47.07117647058824,298.6001435328225
-0.28513720703125,0.20129931640625,0.8913666992187499,0.9572665428684608,-0.30615234375,-1.83349609375,0.1142578125,46.31823529411765,298.6001435328225
-0.30369189453125,0.20276416015625,0.8952729492187499,0.966879374612308,-0.38623046875,-2.05078125,0.34814453125,47.07117647058824,298.7481354206283
-0.30418017578125,0.20325244140625,0.8967377929687499,0.9684915093145514,-0.4580078125,-2.07666015625,0.509765625,46.31823529411765,298.7481354206283
-0.30613330078125,0.19104541015625,0.8991791992187499,0.9688855344655868,-0.53515625,-1.82666015625,0.5947265625,46.88294117647059,298.7481354206283
-0.31101611328125,0.18518603515625,0.90943310546875,0.9788224883297284,-0.54296875,-1.42333984375,0.625,47.54176470588236,298.7481354206283
-0.31248095703125,0.17542041015625,0.91187451171875,0.9797610902300936,-0.59423828125,-1.119140625,0.77978515625,47.54176470588236,298.7481354206283
-0.30662158203125,0.17200244140625,0.91285107421875,0.9782120006007812,-0.6083984375,-0.54638671875,1.04736328125,46.88294117647059,298.7266660928495
-0.28269580078125,0.16126025390625,0.90650341796875,0.963156390239034,-0.6220703125,-0.01904296875,1.25732421875,47.118235294117646,298.7266660928495
-0.25095751953125,0.14856494140625,0.90601513671875,0.951795485589113,-0.6220703125,0.37451171875,1.31982421875,47.07117647058824,298.7266660928495
-0.23533251953125,0.14465869140625,0.8996674804687499,0.9411211968504818,-0.73388671875,0.3828125,1.35986328125,46.93,298.7266660928495
-0.27097705078125,0.15002978515625,0.91675732421875,0.9676680680857752,-0.9423828125,0.15234375,1.4140625,46.506470588235295,298.83570181453024
-0.32175830078125,0.17346728515625,0.94898388671875,1.0169511887956777,-1.00146484375,0.0947265625,1.4638671875,46.41235294117647,298.83570181453024
-0.27927783203125,0.15930712890625,0.96851513671875,1.0204883335137969,-0.99169921875,1.04736328125,1.4990234375,46.31823529411765,298.83570181453024
-0.20505908203125,0.15491259765625,0.99927685546875,1.0317952189807913,-1.08984375,2.04833984375,1.4375,46.31823529411765,298.83570181453024
-0.19968798828125,0.14710009765625,0.97535107421875,1.0063913003270448,-1.197265625,2.1201171875,1.451171875,47.73,298.83570181453024
-0.20164111328125,0.14368212890625,0.94361279296875,0.9755556343882286,-1.30029296875,1.85009765625,1.46923828125,46.97705882352941,298.6233005822515
-0.21531298828125,0.13684619140625,0.93824169921875,0.9723086182781088,-1.3759765625,1.498046875,1.3486328125,47.07117647058824,298.6233005822515
-0.21921923828125,0.12463916015625,0.96021435546875,0.99277570635332,-1.3828125,1.1513671875,1.21630859375,47.68294117647059,298.6233005822515
-0.24070361328125,0.11047900390625,0.97290966796875,1.008313969841651,-1.337890625,0.669921875,1.41943359375,46.64764705882353,298.6233005822515
-0.24460986328125,0.10706103515625,0.97583935546875,1.0117106790702888,-1.25732421875,0.2080078125,1.8076171875,46.31823529411765,298.9464269849329
-0.21580126953125,0.13098681640625,0.96119091796875,0.993788566441148,-1.26416015625,-0.1875,1.7333984375,47.118235294117646,298.9464269849329
-0.18308642578125,0.16711962890625,0.95386669921875,0.9855512617563782,-1.3681640625,-0.8671875,1.36572265625,47.63588235294118,298.9464269849329
-0.18259814453125,0.18469775390625,0.94312451171875,0.9782326856576606,-1.52197265625,-1.42578125,0.67919921875,47.118235294117646,298.9464269849329
-0.17966845703125,0.18372119140625,0.93580029296875,0.970441352655646,-1.64404296875,-1.5791015625,0.30029296875,47.68294117647059,298.9464269849329
-0.16257861328125,0.16614306640625,0.93140576171875,0.9599750085154356,-1.64599609375,-1.51611328125,0.17529296875,46.36529411764706,298.5588922087631
-0.15720751953125,0.15198291015625,0.91724560546875,0.9429488373864536,-1.5712890625,-1.193359375,0.09521484375,47.07117647058824,298.5588922087631
-0.16843798828125,0.14710009765625,0.90552685546875,0.9327318374548148,-1.47021484375,-0.73095703125,-0.0146484375,47.07117647058824,298.5588922087631
-0.19187548828125,0.15295947265625,0.8928315429687499,0.9259378852808676,-1.328125,-0.3486328125,-0.14990234375,47.68294117647059,298.5588922087631
-0.22996142578125,0.16174853515625,0.8859956054687499,0.9295337857670772,-1.23681640625,-0.17138671875,-0.2744140625,47.68294117647059,298.791074238798
-0.26707080078125,0.18274462890625,0.8845307617187499,0.9418689295495276,-1.1767578125,-0.10546875,-0.2919921875,47.25941176470588,298.791074238798
-0.28367236328125,0.20569384765625,0.8869721679687499,0.9536768820750486,-1.09130859375,-0.17578125,-0.1552734375,46.97705882352941,298.791074238798
-0.28269580078125,0.21936572265625,0.8952729492187499,0.96413271371668,-0.99658203125,-0.28759765625,0.0908203125,47.118235294117646,298.791074238798
-0.27097705078125,0.22815478515625,0.90406201171875,0.9709847007408262,-0.90380859375,-0.396484375,0.31689453125,47.07117647058824,298.791074238798
-0.25437548828125,0.23987353515625,0.92066357421875,0.9848185715145328,-0.81884765625,-0.50146484375,0.53759765625,46.31823529411765,298.98936605525296
-0.24314501953125,0.23352587890625,0.94800732421875,1.0061668467079317,-0.70654296875,-0.83056640625,0.72998046875,47.07117647058824,298.98936605525296
-0.21335986328125,0.20569384765625,0.97144482421875,1.0156463147791284,-0.5087890625,-0.6826171875,0.8349609375,46.31823529411765,298.98936605525296
-0.18308642578125,0.17786181640625,0.97828076171875,1.0110334879664973,-0.37158203125,-0.42529296875,0.86181640625,47.54176470588236,298.98936605525296
-0.15525439453125,0.15295947265625,0.98169873046875,1.0056007779931846,-0.29150390625,-0.25048828125,0.83740234375,47.07117647058824,298.6984443012847
-0.15476611328125,0.13049853515625,0.98999951171875,1.0104857498755115,-0.2685546875,-0.1787109375,0.81982421875,47.40058823529412,298.6984443012847
-0.15623095703125,0.11292041015625,0.99048779296875,1.0090714538549097,-0.24267578125,-0.21044921875,0.7890625,47.07117647058824,298.6984443012847
-0.16355517578125,0.09338916015625,0.99048779296875,1.008235041436088,-0.28076171875,-0.3427734375,0.6474609375,47.54176470588236,298.6984443012847
-0.16550830078125,0.07336962890625,0.98951123046875,1.0059366656490445,-0.3427734375,-0.60546875,0.49658203125,46.88294117647059,298.6984443012847
-0.17283251953125,0.06506884765625,0.99195263671875,1.0089970605686185,-0.43505859375,-0.80322265625,0.35693359375,47.68294117647059,298.5820497243054
-0.16794970703125,0.05579150390625,0.99585888671875,1.0114616741412952,-0.55615234375,-0.81689453125,0.37353515625,46.31823529411765,298.5820497243054
-0.16697314453125,0.05920947265625,0.99683544921875,1.0124557795113978,-0.63525390625,-0.54541015625,0.18505859375,46.31823529411765,298.5820497243054
-0.15818408203125,0.05969775390625,0.98121044921875,0.9956706138505752,-0.7119140625,-0.2255859375,0.18310546875,47.63588235294118,298.5820497243054
-0.13718798828125,0.07336962890625,0.96607373046875,0.9785203622185408,-0.771484375,-0.07177734375,0.189453125,46.788823529411765,298.89106430487084
-0.12839892578125,0.07825244140625,0.95435498046875,0.9661279198291112,-0.81103515625,-0.1171875,0.08447265625,46.97705882352941,298.89106430487084
-0.13718798828125,0.09094775390625,0.93726513671875,0.9516080992602286,-0.8193359375,-0.37451171875,0.052734375,47.07117647058824,298.89106430487084
-0.15378955078125,0.09778369140625,0.92994091796875,0.947630195354228,-0.84033203125,-0.7099609375,0.2021484375,46.97705882352941,298.89106430487084
-0.16697314453125,0.09778369140625,0.93531201171875,0.9551179197172784,-0.7744140625,-1.05126953125,0.47509765625,46.93,298.89106430487084
-0.15330126953125,0.10657275390625,0.95533154296875,0.9734050483257768,-0.62890625,-1.2236328125,0.6376953125,47.118235294117646,298.724977403053
-0.13279345703125,0.10657275390625,0.97583935546875,0.9905828091518336,-0.57666015625,-1.14306640625,0.6376953125,47.54176470588236,298.724977403053
-0.13865283203125,0.11926806640625,1.00855419921875,1.025002952315917,-0.46044921875,-0.8408203125,0.63525390625,46.93,298.724977403053
-0.14890673828125,0.12073291015625,1.02417919921875,1.0419657789067347,-0.32275390625,-0.5966796875,0.611328125,46.788823529411765,298.724977403053
-0.13816455078125,0.12561572265625,1.01148388671875,1.0285759116189266,-0.2314453125,-0.27783203125,0.3486328125,46.36529411764706,298.7340239449035
-0.12253955078125,0.12854541015625,0.98365185546875,0.9995553195021392,-0.22509765625,-0.0458984375,0.130859375,46.36529411764706,298.7340239449035
-0.11765673828125,0.12854541015625,0.96021435546875,0.9758988876843172,-0.23486328125,-0.142578125,0.15087890625,46.31823529411765,298.7340239449035
-0.09470751953125,0.12366259765625,0.93580029296875,0.9486749393945492,-0.27294921875,-0.529296875,0.2724609375,46.93,298.7340239449035
-0.07371142578125,0.11487353515625,0.92798779296875,0.9379715599467876,-0.3330078125,-0.7265625,0.1572265625,46.97705882352941,298.7340239449035
-0.06834033203125,0.11829150390625,0.93921826171875,0.9491017985572116,-0.384765625,-0.72607421875,-0.1474609375,47.54176470588236,298.84643654686954
-0.08933642578125,0.11292041015625,0.94654248046875,0.9574312943147192,-0.37158203125,-0.693359375,-0.3955078125,47.07117647058824,298.84643654686954
-0.11130908203125,0.10217822265625,0.95044873046875,0.9623839619286516,-0.37451171875,-0.86962890625,-0.490234375,46.97705882352941,298.84643654686954
-0.12937548828125,0.08460009765625,0.95337841796875,0.9658289710606404,-0.3955078125,-1.00146484375,-0.517578125,46.36529411764706,298.84643654686954
-0.14744189453125,0.07727587890625,0.96753857421875,0.981754330942802,-0.42919921875,-1.40625,-0.54052734375,46.31823529411765,298.5696269037956
-0.15037158203125,0.06653369140625,0.98365185546875,0.9973010165149926,-0.44482421875,-1.53271484375,-0.5615234375,46.93,298.5696269037956
-0.14304736328125,0.06360400390625,1.00122998046875,1.0133950321785072,-0.45751953125,-1.44384765625,-0.6025390625,46.55352941176471,298.5696269037956
-0.13572314453125,0.06067431640625,1.01783154296875,1.0286317098432085,-0.490234375,-1.29052734375,-0.60595703125,47.68294117647059,298.5696269037956
-0.13425830078125,0.05530322265625,1.02613232421875,1.036354806314618,-0.505859375,-1.10107421875,-0.56689453125,47.07117647058824,298.5696269037956
-0.14500048828125,0.05383837890625,1.02662060546875,1.0382069062658352,-0.625,-0.82177734375,-0.462890625,47.49470588235295,298.4125908800675
-0.14207080078125,0.05383837890625,1.02613232421875,1.0373187698506436,-0.46435546875,-0.5322265625,-0.306640625,47.63588235294118,298.4125908800675
-0.13474658203125,0.05774462890625,1.02027294921875,1.0307511699940732,-0.37841796875,-0.32470703125,-0.1611328125,47.40058823529412,298.4125908800675
-0.12253955078125,0.06165087890625,1.01001904296875,1.019291538047429,-0.30908203125,-0.29931640625,-0.06982421875,47.68294117647059,298.4125908800675
-0.12107470703125,0.06458056640625,1.00953076171875,1.0188140620822304,-0.2470703125,-0.376953125,-0.05859375,46.88294117647059,298.7464468514295
-0.12400439453125,0.06409228515625,0.99439404296875,1.0041436269634678,-0.21337890625,-0.4931640625,-0.1201171875,47.68294117647059,298.7464468514295
-0.11228564453125,0.06946337890625,0.99292919921875,1.001669417341899,-0.2470703125,-0.607421875,-0.1796875,47.73,298.7464468514295
-0.10007861328125,0.07922900390625,0.99292919921875,1.0011000741971117,-0.2900390625,-0.78515625,-0.24853515625,46.36529411764706,298.7464468514295
-0.08787158203125,0.08752978515625,1.00122998046875,1.0088827246056042,-0.28076171875,-0.9111328125,-0.28076171875,47.07117647058824,298.7464468514295
-0.07761767578125,0.07922900390625,1.01148388671875,1.0175467516263463,-0.28125,-0.8603515625,-0.30615234375,46.93,298.5538302347618
-0.08103564453125,0.07092822265625,1.00757763671875,1.0133164769555023,-0.27099609375,-0.73974609375,-0.4609375,47.73,298.5538302347618
-0.09470751953125,0.06360400390625,0.99830029296875,1.0047977201955427,-0.26123046875,-0.65869140625,-0.5009765625,46.88294117647059,298.5538302347618
-0.11277392578125,0.06116259765625,0.98560498046875,0.9939195134481364,-0.25927734375,-0.7216796875,-0.68017578125,47.118235294117646,298.5538302347618
-0.11521533203125,0.05286181640625,0.97144482421875,0.9796805555231956,-0.2529296875,-0.96044921875,-0.568359375,46.788823529411765,298.7091791725012
-0.08738330078125,0.04407275390625,0.96070263671875,0.965674792614297,-0.21533203125,-1.40673828125,-0.3544921875,46.88294117647059,298.7091791725012
-0.04539111328125,0.04260791015625,0.95435498046875,0.9563834042465932,-0.1796875,-2.0244140625,-0.1865234375,47.07117647058824,298.7091791725012
-0.01023486328125,0.03772509765625,0.95240185546875,0.9532036664427372,-0.2314453125,-2.7236328125,-0.263671875,47.54176470588236,298.7091791725012
-0.01169970703125,0.03235400390625,0.96802685546875,0.9686380426258814,-0.2646484375,-3.07470703125,-0.34326171875,47.118235294117646,298.7091791725012
-0.02927783203125,0.0304008789062499,0.98511669921875,0.9860204439900664,-0.25,-2.9765625,-0.41748046875,46.93,298.7464468514295
-0.06003955078125,0.0299125976562499,0.98511669921875,0.9873978034390212,-0.28076171875,-2.82666015625,-0.41259765625,46.93,298.7464468514295
-0.06003955078125,0.04163134765625,0.98999951171875,0.9926917698707152,-0.392578125,-2.9873046875,-0.48046875,47.118235294117646,298.7464468514295
-0.04783251953125,0.05627978515625,0.99634716796875,0.9990810994415265,-0.47216796875,-3.0986328125,-0.39306640625,46.88294117647059,298.7464468514295
-0.01951220703125,0.05432666015625,0.98658154296875,0.9882688162405824,-0.40673828125,-3.0771484375,0.01806640625,47.68294117647059,298.4323737875308
0.01271435546875,0.05530322265625,0.98023388671875,0.9818750296972112,-0.4091796875,-2.98779296875,0.28564453125,47.63588235294118,298.4323737875308
-0.0004692382812499,0.06262744140625,0.97583935546875,0.977847055670427,-0.42578125,-3.07177734375,0.21240234375,46.31823529411765,298.4323737875308
-0.02195361328125,0.06116259765625,0.99048779296875,0.9926171933370226,-0.37646484375,-3.375,0.1201171875,46.36529411764706,298.4323737875308
-0.0029106445312499,0.04504931640625,0.97876904296875,0.9798095489605212,-0.4130859375,-3.208984375,-0.01953125,47.25941176470588,298.4323737875308
0.01417919921875,0.04944384765625,0.98755810546875,0.9888967364889856,-0.47900390625,-3.009765625,0.4619140625,46.36529411764706,298.6786621687143
0.03761669921875,0.03821337890625,1.01587841796875,1.017292602195768,-0.40625,-2.783203125,0.8046875,46.97705882352941,298.6786621687143
0.00099560546875,0.03430712890625,1.01880810546875,1.0193860535110648,-0.47900390625,-2.25390625,0.16650390625,46.97705882352941,298.6786621687143
-0.03611376953125,0.03186572265625,1.02320263671875,1.0243355233605655,-0.53369140625,-1.39111328125,-0.1396484375,46.93,298.6786621687143
0.00978466796875,-0.00377880859375,1.03003857421875,1.0300919781748823,-0.39794921875,-0.8232421875,0.22802734375,46.31823529411765,298.6447701484956
0.10646435546875,-0.04186474609375,1.01880810546875,1.0252108425683442,-0.52099609375,-0.615234375,0.294921875,46.88294117647059,298.6447701484956
0.17580029296875,-0.05309521484375,0.97925732421875,0.996328134644038,-0.6591796875,-0.24365234375,0.07470703125,47.54176470588236,298.6447701484956
0.24904248046875,-0.08629833984375,0.8801362304687499,0.9187542352128536,-0.91455078125,0.240234375,-0.177734375,46.88294117647059,298.6447701484956
0.20851513671875,-0.12682568359375,0.7898041992187499,0.826652278387613,-1.06982421875,-0.060546875,0.1962890625,46.97705882352941,298.6447701484956
0.02833935546875,-0.12438427734375,0.7697846679687499,0.7802839243240051,-1.09423828125,-1.02880859375,0.8115234375,46.31823529411765,298.46963906828347
-0.03709033203125,-0.12926708984375,0.7922456054687499,0.8035787283343223,-1.02294921875,-2.9775390625,0.88232421875,46.788823529411765,298.46963906828347
-0.05515673828125,-0.10338818359375,0.8244721679687499,0.8327579108238671,-1.28759765625,-3.89453125,1.34912109375,46.93,298.46963906828347
-0.02293017578125,-0.07116162109375,0.8762299804687499,0.8794138661348906,-1.435546875,-3.17041015625,1.90673828125,46.31823529411765,298.46963906828347
0.03126904296875,-0.04430615234375,0.94507763671875,0.9466322029223316,-1.55810546875,-2.73583984375,1.5869140625,46.93,298.6001435328225
0.01466748046875,-0.02770458984375,0.97046826171875,0.9709744210251492,-1.6943359375,-2.478515625,1.33251953125,47.54176470588236,298.6001435328225
0.02785107421875,-0.03014599609375,0.97876904296875,0.9796291660059868,-1.74560546875,-2.2451171875,1.376953125,46.788823529411765,298.6001435328225
0.07228466796875,-0.04381787109375,0.98511669921875,0.9887365625535378,-1.8046875,-2.19140625,1.60595703125,46.97705882352941,298.6001435328225
0.08351513671875,-0.04674755859375,1.01392529296875,1.0184324287930904,-1.8564453125,-2.279296875,1.5615234375,47.35352941176471,298.6001435328225
0.08693310546875,-0.06237255859375,1.05689404296875,1.062295965799928,-1.86328125,-2.4404296875,1.619140625,47.73,298.6769745995133
0.11330029296875,-0.07164990234375,1.09888623046875,1.1070327964457478,-1.8173828125,-2.4541015625,1.74658203125,46.31823529411765,298.6769745995133
0.12208935546875,-0.07262646484375,1.13697216796875,1.145812430046923,-1.87353515625,-2.14599609375,1.68798828125,47.68294117647059,298.6769745995133
0.11427685546875,-0.06725537109375,1.15308544921875,1.160684512620372,-1.63134765625,-1.6904296875,1.6689453125,46.788823529411765,298.6769745995133
0.08986279296875,-0.04772412109375,1.16724560546875,1.1716719749061273,-1.494140625,-1.43603515625,1.5927734375,46.788823529411765,298.6679273984632
0.07130810546875,-0.03258740234375,1.14820263671875,1.1508762225647664,-1.44091796875,-1.39501953125,1.64453125,47.07117647058824,298.6679273984632
0.08156201171875,-0.04479443359375,1.13599560546875,1.139800385453921,-1.33251953125,-1.32568359375,1.6533203125,46.788823529411765,298.6679273984632
0.09669873046875,-0.05993115234375,1.13306591796875,1.1387628207655376,-1.25146484375,-1.2060546875,1.3662109375,46.36529411764706,298.6679273984632
0.06642529296875,-0.07360302734375,1.13843701171875,1.1427460587686429,-1.12109375,-1.07666015625,1.2314453125,46.88294117647059,298.6679273984632
0.05519482421875,-0.10534130859375,1.13257763671875,1.1388043568199988,-0.94775390625,-0.7392578125,1.3037109375,46.31823529411765,298.9017990446577
0.19679638671875,-0.10631787109375,1.04224560546875,1.0659775840318522,-1.0341796875,-0.103515625,0.9013671875,47.54176470588236,298.9017990446577
0.16261669921875,-0.09850537109375,1.00415966796875,1.0220000674042196,-0.96240234375,0.4765625,0.923828125,47.118235294117646,298.9017990446577
0.16701123046875,-0.14977490234375,0.98853466796875,1.013669602114443,-0.91162109375,-0.41748046875,0.66796875,46.31823529411765,298.9017990446577
0.13624951171875,-0.15075146484375,0.98414013671875,1.004898871676615,-1.01904296875,-1.65283203125,1.23828125,46.93,298.6571926417545
0.16798779296875,-0.12975537109375,0.95484326171875,0.9781523446600174,-0.8837890625,-1.50390625,1.65380859375,46.97705882352941,298.6571926417545
-0.05125048828125,-0.10338818359375,0.99732373046875,1.0039772668800748,-0.796875,-1.302734375,1.4619140625,47.73,298.6571926417545
-0.11521533203125,-0.07946240234375,0.98462841796875,0.9945260014665048,-0.744140625,-0.96923828125,1.35302734375,46.41235294117647,298.6571926417545
-0.08835986328125,-0.09166943359375,0.97290966796875,0.9812053671487652,-0.7119140625,-0.55810546875,1.68212890625,47.63588235294118,298.6571926417545
0.02638623046875,-0.11022412109375,0.95679638671875,0.963485814979803,-0.70166015625,-0.578125,1.84716796875,46.93,298.46963906828347
0.08058544921875,-0.11608349609375,0.94361279296875,0.9541354703318708,-0.68994140625,-0.68408203125,1.71533203125,46.31823529411765,298.46963906828347
0.06789013671875,-0.12975537109375,0.95386669921875,0.9650425932930838,-0.64453125,-0.697265625,1.5146484375,46.74176470588235,298.46963906828347
0.02394482421875,-0.14782177734375,0.99097607421875,1.00222662713477,-0.63720703125,-0.66650390625,1.576171875,47.118235294117646,298.46963906828347
0.06496044921875,-0.16979443359375,1.00464794921875,1.0209640108797002,-0.5263671875,-0.39111328125,1.6298828125,47.73,298.34480884096365
0.10499951171875,-0.18004833984375,0.99830029296875,1.0198263465331527,-0.4111328125,0.14111328125,1.66552734375,46.31823529411765,298.34480884096365
0.11085888671875,-0.16686474609375,0.98462841796875,1.004801800219872,-0.306640625,0.3935546875,1.72705078125,47.40058823529412,298.34480884096365
0.09083935546875,-0.14928662109375,0.97828076171875,0.993766336966887,-0.2978515625,0.14990234375,1.9931640625,47.07117647058824,298.34480884096365
0.13917919921875,-0.13659130859375,0.98218701171875,1.0013587574228997,-0.28173828125,-0.3017578125,2.0078125,46.88294117647059,298.34480884096365
0.15529248046875,-0.14098583984375,1.00757763671875,1.0291770768639992,-0.26123046875,-0.4638671875,1.64453125,46.788823529411765,298.1448383487097
0.07570263671875,-0.15709912109375,1.04908154296875,1.0634768953072244,-0.03125,-0.2900390625,1.37939453125,46.88294117647059,298.1448383487097
0.04640576171875,-0.19811474609375,1.06080029296875,1.0801389766613714,0.0830078125,0.16845703125,1.185546875,46.41235294117647,298.1448383487097
0.05665966796875,-0.20788037109375,1.07789013671875,1.0992141345051791,0.0791015625,0.60498046875,1.083984375,47.118235294117646,298.1448383487097
0.09279248046875,-0.21422802734375,1.06372998046875,1.0890480078854126,0.13525390625,0.94580078125,1.31396484375,46.36529411764706,298.55720443016406
0.11427685546875,-0.20348583984375,1.05201123046875,1.0775868019538453,0.15478515625,1.11767578125,1.28125,47.16529411764706,298.55720443016406
0.08497998046875,-0.17907177734375,1.02710888671875,1.046059732375809,0.2138671875,1.11572265625,1.07568359375,46.506470588235295,298.55720443016406
0.06642529296875,-0.16002880859375,0.98853466796875,1.0036046676366177,0.2646484375,0.9833984375,0.9736328125,46.31823529411765,298.55720443016406
0.07765576171875,-0.13512646484375,0.95093701171875,0.9636237746578664,0.2744140625,1.09521484375,0.994140625,47.73,298.55720443016406
0.10939404296875,-0.11168896484375,0.90796826171875,0.9213293904969522,0.2841796875,1.0908203125,0.962890625,46.88294117647059,298.6018310702114
0.11964794921875,-0.10241162109375,0.8923432617187499,0.9061347960552888,0.36865234375,0.9462890625,0.79833984375,46.31823529411765,298.6018310702114
0.03371044921875,-0.10485302734375,0.90113232421875,0.9078381009197428,0.55517578125,0.78173828125,0.42822265625,46.36529411764706,298.6018310702114
0.00539013671875,-0.11022412109375,0.93531201171875,0.941799856503552,0.6171875,0.1884765625,0.02099609375,46.506470588235295,298.6018310702114
0.00148388671875,-0.09362255859375,0.95728466796875,0.9618530661829144,0.70068359375,-0.0986328125,0.1328125,46.41235294117647,298.4984693400288
0.04298779296875,-0.09508740234375,0.95972607421875,0.9653826712574344,0.80078125,0.4931640625,0.04638671875,46.36529411764706,298.4984693400288
0.06300732421875,-0.06969677734375,0.97046826171875,0.975005749050088,0.81982421875,0.95556640625,-0.3486328125,46.36529411764706,298.4984693400288
0.06886669921875,-0.05651318359375,0.95826123046875,0.9623933437013524,0.859375,1.220703125,-0.7080078125,46.88294117647059,298.4984693400288
0.05421826171875,-0.05700146484375,0.93775341796875,0.9410474269717808,0.96484375,1.33154296875,-1.02392578125,47.40058823529412,298.4984693400288
0.03615185546875,-0.06872021484375,0.8986909179687499,0.9020392400674812,1.0166015625,1.23193359375,-1.2314453125,46.31823529411765,298.37869975348
0.04103466796875,-0.08922802734375,0.8767182617187499,0.8822020150000276,1.0927734375,0.9482421875,-1.451171875,46.31823529411765,298.37869975348
0.04689404296875,-0.12096630859375,0.8649995117187499,0.8746748277814042,1.20947265625,0.77587890625,-1.68603515625,46.97705882352941,298.37869975348
0.04933544921875,-0.15856396484375,0.8649995117187499,0.8807954772648765,1.33740234375,0.81494140625,-1.8994140625,47.54176470588236,298.37869975348
0.04738232421875,-0.18639599609375,0.8537690429687499,0.8751629166846177,1.4814453125,1.05078125,-2.19775390625,46.55352941176471,298.6984443012847
0.02394482421875,-0.21373974609375,0.8352143554687499,0.8624622039534062,1.57470703125,1.3095703125,-2.45703125,46.88294117647059,298.6984443012847
-0.00828173828125,-0.21520458984375,0.8122651367187499,0.8403310389409077,1.6142578125,1.27392578125,-2.453125,46.97705882352941,298.6984443012847
-0.05320361328125,-0.21227490234375,0.7888276367187499,0.818620974005991,1.7119140625,0.91064453125,-2.37451171875,46.93,298.6984443012847
-0.07517626953125,-0.21471630859375,0.7863862304687499,0.8186317048267868,1.79638671875,0.27978515625,-2.09912109375,46.36529411764706,298.6984443012847
-0.11326220703125,-0.21618115234375,0.8098237304687499,0.8457996764013237,1.89892578125,-0.455078125,-1.83056640625,46.93,298.944738139357
-0.14695361328125,-0.22692333984375,0.8430268554687499,0.8853156757133501,2.0048828125,-0.978515625,-1.57763671875,46.97705882352941,298.944738139357
-0.14207080078125,-0.25133740234375,0.8903901367187499,0.9360284172062106,2.15478515625,-1.26708984375,-1.58837890625,46.31823529411765,298.944738139357
-0.10203173828125,-0.29870068359375,0.94556591796875,0.9968588060603928,2.30517578125,-1.4130859375,-1.77783203125,46.31823529411765,298.944738139357
-0.06345751953125,-0.34606396484375,0.99195263671875,1.052500431373648,2.4091796875,-1.22509765625,-2.1171875,46.97705882352941,298.8323251870398
-0.02781298828125,-0.37536083984375,1.01539013671875,1.0829064835668225,2.4169921875,-0.7001953125,-2.38623046875,47.73,298.8323251870398
0.01173779296875,-0.38268505859375,1.01734326171875,1.0870018132548005,2.26513671875,-0.201171875,-2.56640625,46.97705882352941,298.8323251870398
0.03371044921875,-0.36803662109375,1.02466748046875,1.089279943073777,1.97705078125,0.203125,-2.67578125,46.36529411764706,298.8323251870398
0.04005810546875,-0.34508740234375,1.03394482421875,1.090748305796917,1.60595703125,0.6298828125,-2.57421875,46.506470588235295,298.8323251870398
0.05080029296875,-0.33678662109375,1.04517529296875,1.099271254488977,1.27880859375,1.0595703125,-2.3818359375,47.07117647058824,298.47868648264733
0.08107373046875,-0.33825146484375,1.05835888671875,1.1140514065058285,1.015625,1.3427734375,-2.43994140625,47.07117647058824,298.47868648264733
0.11037060546875,-0.34264599609375,1.03833935546875,1.098970684916516,0.873046875,1.38720703125,-2.73681640625,47.63588235294118,298.47868648264733
0.13917919921875,-0.35534130859375,1.00513623046875,1.0751451701464412,0.35595703125,1.24169921875,-2.8759765625,46.31823529411765,298.47868648264733
0.12355419921875,-0.35973583984375,0.98121044921875,1.0523542465675404,-0.01611328125,0.9013671875,-3.072265625,47.68294117647059,298.68939695252254
0.08888623046875,-0.36217724609375,1.09839794921875,1.1599789542931167,-0.4462890625,0.32666015625,-2.7978515625,46.36529411764706,298.68939695252254
0.01515576171875,-0.34850537109375,1.00660107421875,1.0653315978665092,-0.75634765625,0.26123046875,-2.09228515625,46.93,298.68939695252254
-0.04148486328125,-0.30846630859375,1.07349560546875,1.117705360271497,-1.1875,0.9375,-1.3232421875,46.788823529411765,298.68939695252254
-0.08250048828125,-0.24206005859375,1.14917919921875,1.1772902082537262,-1.3154296875,2.322265625,-1.03125,46.31823529411765,298.68939695252254
-0.09568408203125,-0.17077099609375,1.22681591796875,1.2423346864844922,-1.21337890625,4.48046875,-1.0810546875,46.93,298.7125544030289
-0.18015673828125,-0.13317333984375,1.40699169921875,1.4247165439004854,-0.64599609375,6.45849609375,-0.59619140625,47.73,298.7125544030289
-0.23728564453125,-0.08141552734375,1.73365185546875,1.751708229461605,0.1953125,6.4375,-0.3564453125,46.97705882352941,298.7125544030289
0.01271435546875,0.00647509765625,1.90796826171875,1.908021611368884,0.73779296875,5.48828125,-0.99755859375,46.64764705882353,298.7125544030289
0.32619091796875,0.17053759765625,1.73804638671875,1.7765947285652302,1.083984375,6.42822265625,-0.47265625,46.788823529411765,298.6216131654652
0.82863232421875,0.44983447265625,1.40015576171875,1.6880221380670064,0.79833984375,8.60693359375,0.9970703125,46.36529411764706,298.6216131654652
0.99660107421875,0.64563525390625,1.01197216796875,1.5601750706135278,-0.3349609375,6.88427734375,0.5546875,46.31823529411765,298.6216131654652
0.78517529296875,0.73840869140625,0.8337495117187499,1.3626760013018893,-1.17041015625,0.169921875,-1.46142578125,47.07117647058824,298.6216131654652
0.43019482421875,0.63684619140625,0.6804291992187499,1.0264621539261525,-1.46826171875,-6.6513671875,-3.03515625,46.36529411764706,298.6216131654652
0.21730419921875,0.52405322265625,0.8884370117187499,1.0541220133202065,-1.31982421875,-10.9482421875,-3.91845703125,46.93,298.86621769237456
0.04152294921875,0.44055712890625,1.19605419921875,1.2752883542990372,-0.751953125,-12.09912109375,-4.12744140625,46.31823529411765,298.86621769237456
-0.15281298828125,0.39465869140625,1.45386669921875,1.514211237307121,0.28271484375,-10.2451171875,-3.8642578125,46.93,298.86621769237456
-0.28855517578125,0.33655322265625,1.56226513671875,1.6239472031310964,1.22314453125,-5.39208984375,-3.94189453125,47.07117647058824,298.86621769237456
-0.24900439453125,0.28626025390625,1.52369091796875,1.570217225406344,1.68017578125,1.14697265625,-5.07275390625,46.788823529411765,298.9695856719051
-0.05222705078125,0.25842822265625,1.38160107421875,1.4065327366901137,1.943359375,7.3291015625,-6.849609375,46.93,298.9695856719051
0.11134716796875,0.23206103515625,1.18238232421875,1.2100737483630428,2.353515625,10.5126953125,-8.0224609375,46.506470588235295,298.9695856719051
0.18507763671875,0.22473681640625,0.92847607421875,0.9730509691986724,2.79833984375,10.86572265625,-8.208984375,47.07117647058824,298.9695856719051
0.18898388671875,0.22180712890625,0.6511323242187499,0.7133628918828553,2.92529296875,8.2080078125,-7.76513671875,47.07117647058824,298.9695856719051
0.16847607421875,0.21204150390625,0.4294526367187499,0.507715820265306,2.42138671875,3.89111328125,-7.18115234375,46.788823529411765,298.767916354015
0.13283154296875,0.20911181640625,0.3244721679687499,0.4082329706852702,1.4423828125,-0.849609375,-6.576171875,46.31823529411765,298.767916354015
0.09816357421875,0.22571337890625,0.3503510742187499,0.4281687657068278,0.38818359375,-4.56884765625,-6.24755859375,47.54176470588236,298.767916354015
0.05031201171875,0.28528369140625,0.4826752929687499,0.56293296363602,-0.390625,-6.892578125,-5.90283203125,46.93,298.767916354015
-0.0029106445312499,0.37317431640625,0.6652924804687499,0.7628116588287841,-0.6259765625,-7.20703125,-5.63427734375,47.73,298.3679649873216
-0.03171923828125,0.45227587890625,0.8674409179687499,0.9787815521780286,-0.1474609375,-5.93798828125,-5.09814453125,46.97705882352941,298.3679649873216
-0.01511767578125,0.49866259765625,1.01831982421875,1.1339612845327711,0.763671875,-3.8916015625,-4.5849609375,46.36529411764706,298.3679649873216
0.00783154296875,0.50354541015625,1.12085888671875,1.2287977689966292,2.23583984375,-1.74072265625,-4.1630859375,47.68294117647059,298.3679649873216
-0.0033989257812499,0.46204150390625,1.18091748046875,1.2680930564059865,3.44189453125,0.3505859375,-3.69921875,47.54176470588236,298.3679649873216
-0.02781298828125,0.37366259765625,1.21314404296875,1.2696912097809112,4.42138671875,1.8623046875,-3.13916015625,46.93,298.78033951393087
-0.06834033203125,0.28040087890625,1.19898388671875,1.233230479060885,4.9462890625,2.986328125,-2.5009765625,46.97705882352941,298.78033951393087
-0.11033251953125,0.20569384765625,1.16480419921875,1.1879612983373575,4.92578125,3.923828125,-1.978515625,46.31823529411765,298.78033951393087
-0.12009814453125,0.14270556640625,1.11792919921875,1.1333817262815973,4.7470703125,4.22021484375,-1.8349609375,47.118235294117646,298.78033951393087
-0.13816455078125,0.09045947265625,1.04517529296875,1.0581416504032644,3.88671875,3.86083984375,-1.8984375,46.93,298.5786739543888
-0.11765673828125,0.08313525390625,0.99488232421875,1.0052588808600205,3.0791015625,3.19140625,-2.23486328125,47.25941176470588,298.5786739543888
-0.06736376953125,0.06213916015625,0.92847607421875,0.9329881955668275,2.29345703125,2.30859375,-2.72412109375,46.31823529411765,298.5786739543888
0.00343701171875,0.06262744140625,0.8664643554687499,0.8687315401000036,1.47607421875,1.416015625,-3.06884765625,47.07117647058824,298.5786739543888
0.05519482421875,0.07336962890625,0.8332612304687499,0.8383041508120276,0.9951171875,0.52197265625,-3.2041015625,47.54176470588236,298.5786739543888
0.08937451171875,0.09876025390625,0.7966401367187499,0.8076985195776085,0.34765625,-0.3466796875,-3.19140625,46.31823529411765,298.605207506785
0.10206982421875,0.11975634765625,0.7605073242187499,0.776615234212138,-0.06005859375,-1.1982421875,-3.119140625,46.36529411764706,298.605207506785
0.11769482421875,0.14172900390625,0.7360932617187499,0.7587967264978733,-0.357421875,-1.7587890625,-3.08349609375,47.07117647058824,298.605207506785
0.10988232421875,0.15198291015625,0.7336518554687499,0.7572436696255814,-0.6689453125,-2.60498046875,-3.2236328125,47.68294117647059,298.605207506785
0.02833935546875,0.17053759765625,0.7858979492187499,0.8046873789671277,-0.96240234375,-3.24365234375,-3.35693359375,47.54176470588236,298.25555802155696
-0.08494189453125,0.19299853515625,0.8737885742187499,0.898871532786667,-0.86376953125,-3.525390625,-3.2373046875,46.788823529411765,298.25555802155696
-0.13328173828125,0.19788134765625,0.94361279296875,0.9733068131703436,-0.58642578125,-3.06884765625,-3.0986328125,47.40058823529412,298.25555802155696
-0.11521533203125,0.21350634765625,1.02124951171875,1.0496714240229503,-0.341796875,-2.17578125,-3.3154296875,47.07117647058824,298.25555802155696
-0.11179736328125,0.23059619140625,1.08570263671875,1.1155373007236262,-0.00830078125,-1.28271484375,-3.3828125,46.97705882352941,298.25555802155696
-0.12400439453125,0.23206103515625,1.11792919921875,1.1484751230944137,0.3115234375,-0.18505859375,-3.1650390625,47.40058823529412,298.441422523019
-0.11082080078125,0.23694384765625,1.13062451171875,1.160489303409216,0.55126953125,0.9375,-2.85595703125,46.31823529411765,298.441422523019
-0.08298876953125,0.23303759765625,1.10035107421875,1.12781476507628,0.7890625,1.849609375,-2.71875,47.118235294117646,298.441422523019
-0.02585986328125,0.21985400390625,1.03492138671875,1.058332080327529,0.79443359375,1.97607421875,-2.923828125,47.07117647058824,298.441422523019
-0.0043754882812499,0.20911181640625,0.95972607421875,0.9822530397986834,0.5205078125,1.27294921875,-3.3271484375,46.93,298.78033951393087
-0.01755908203125,0.19690478515625,0.91138623046875,0.9325795820557334,0.11328125,0.453125,-3.5810546875,46.88294117647059,298.78033951393087
-0.04929736328125,0.16956103515625,0.91236279296875,0.9292938397856088,-0.30126953125,-0.30078125,-3.484375,47.63588235294118,298.78033951393087
-0.07029345703125,0.13342822265625,0.92652294921875,0.9387166964167732,-0.697265625,-0.66015625,-3.16064453125,46.31823529411765,298.78033951393087
-0.08591845703125,0.08411181640625,0.95826123046875,0.9657750073061904,-0.8837890625,-0.58349609375,-2.70458984375,47.63588235294118,298.78033951393087
-0.08884814453125,0.03284228515625,0.96607373046875,0.970706475296594,-1.19384765625,-0.43701171875,-2.08544921875,46.788823529411765,298.79276302073
-0.09080126953125,-0.02379833984375,0.96509716796875,0.9696513678374856,-1.3525390625,-0.26806640625,-1.37548828125,46.88294117647059,298.79276302073
-0.08250048828125,-0.06774365234375,0.96363232421875,0.9695270956908556,-1.48046875,0.0556640625,-0.76171875,46.36529411764706,298.79276302073
-0.07615283203125,-0.09997021484375,0.94996044921875,0.9582370023966796,-1.595703125,0.57861328125,-0.2431640625,46.97705882352941,298.79276302073
-0.07908251953125,-0.11803662109375,0.92408154296875,0.9349403119291336,-1.7099609375,1.10888671875,0.44970703125,46.788823529411765,298.8571712927512
-0.08982470703125,-0.10729443359375,0.8913666992187499,0.9022833069217134,-1.82470703125,1.42138671875,0.90869140625,46.31823529411765,298.8571712927512
-0.11619189453125,-0.08043896484375,0.8552338867187499,0.8668310010676561,-1.953125,1.40380859375,1.39208984375,46.88294117647059,298.8571712927512
-0.12107470703125,-0.05504833984375,0.8200776367187499,0.8307928349766058,-2.06494140625,1.294921875,1.7578125,46.31823529411765,298.8571712927512
-0.12156298828125,-0.02233349609375,0.8308198242187499,0.8399630500697702,-2.2451171875,0.74267578125,2.22900390625,46.506470588235295,298.8571712927512
-0.12546923828125,0.0284477539062499,0.8859956054687499,0.895287672967256,-2.4375,-0.591796875,2.4091796875,46.97705882352941,298.6233005822515
-0.07175830078125,0.08411181640625,0.99146435546875,0.9976099536167604,-2.5166015625,-1.54150390625,2.6298828125,46.788823529411765,298.6233005822515
0.04005810546875,0.13049853515625,1.09546826171875,1.1039407737395937,-2.333984375,-1.5634765625,3.2822265625,46.97705882352941,298.6233005822515
0.21144482421875,0.13733447265625,1.14917919921875,1.1765128571272463,-1.95166015625,-0.8056640625,3.67333984375,47.40058823529412,298.6233005822515
0.36281201171875,0.14856494140625,1.14527294921875,1.2105181642068257,-1.64208984375,-0.6767578125,3.27587890625,47.118235294117646,298.7769631912846
0.38576123046875,0.16663134765625,1.07935498046875,1.158268063453879,-1.4365234375,-1.00830078125,2.83544921875,47.118235294117646,298.7769631912846
0.35011669921875,0.17346728515625,0.98316357421875,1.0579618215048687,-1.10009765625,-0.68798828125,2.71630859375,47.118235294117646,298.7769631912846
0.31007763671875,0.17053759765625,0.92896435546875,0.9940855027304843,-0.9111328125,-0.25244140625,1.9521484375,47.07117647058824,298.7769631912846
0.20753857421875,0.19739306640625,0.90162060546875,0.9460211407045028,-0.7861328125,-0.6376953125,-0.1201171875,46.31823529411765,298.7769631912846
0.07667919921875,0.20178759765625,0.8796479492187499,0.9057474530604332,-0.94189453125,-1.37548828125,-2.4111328125,47.49470588235295,298.92326856490286
-0.07859423828125,0.19006884765625,0.90845654296875,0.9314486092120792,-1.2236328125,-2.22705078125,-3.59326171875,47.54176470588236,298.92326856490286
-0.22214892578125,0.15344775390625,0.95972607421875,0.9969806898531032,-1.30615234375,-2.51806640625,-2.41943359375,46.41235294117647,298.92326856490286
-0.30564501953125,0.09680712890625,1.03052685546875,1.0792479316698456,-0.97021484375,-2.1552734375,0.18603515625,46.36529411764706,298.92326856490286
-0.26804736328125,0.06213916015625,1.06470654296875,1.0996866311942788,-0.29248046875,-1.29443359375,2.2119140625,46.97705882352941,298.92495753108136
-0.17332080078125,0.04602587890625,1.04468701171875,1.05996671361246,0.35546875,-0.38427734375,2.34130859375,46.36529411764706,298.92495753108136
-0.12302783203125,0.03821337890625,0.99634716796875,1.0046411244325462,0.87353515625,0.00537109375,1.185546875,46.31823529411765,298.92495753108136
-0.15818408203125,0.0167290039062499,0.95337841796875,0.9665570191294256,1.119140625,-0.267578125,0.10009765625,46.69470588235294,298.92495753108136
-0.21335986328125,-0.01256787109375,0.95826123046875,0.9818069914513268,1.08642578125,-1.02783203125,-0.4013671875,47.73,298.92495753108136
-0.25925830078125,-0.03698193359375,0.99488232421875,1.0287727489485787,0.87890625,-1.51513671875,-0.2861328125,46.31823529411765,298.3216529615332
-0.24949267578125,-0.03747021484375,1.05201123046875,1.081840210613979,0.70068359375,-1.31396484375,0.0869140625,47.68294117647059,298.3216529615332
-0.17673876953125,-0.03795849609375,1.12867138671875,1.1430557900989549,0.75341796875,-0.70947265625,0.12548828125,46.93,298.3216529615332
-0.05369189453125,-0.06090771484375,1.15747998046875,1.160324297104814,1.09716796875,0.22705078125,-0.25439453125,47.25941176470588,298.3216529615332
-0.02146533203125,-0.07702099609375,1.11109326171875,1.113966440497781,1.150390625,1.25927734375,-0.98681640625,47.68294117647059,298.55720443016406
-0.08933642578125,-0.06334912109375,1.07544873046875,1.0810106752394104,1.07177734375,1.2333984375,-0.84765625,46.31823529411765,298.55720443016406
-0.11814501953125,-0.03795849609375,1.01978466796875,1.027307092397338,0.88232421875,0.22216796875,-0.5126953125,46.36529411764706,298.55720443016406
-0.06687548828125,0.00940478515625,0.97974560546875,0.9820703805491836,0.6103515625,-0.18212890625,-0.7919921875,46.788823529411765,298.55720443016406
-0.01414111328125,0.05725634765625,1.00660107421875,1.0083273194008522,0.39599609375,-0.41162109375,-1.5693359375,46.36529411764706,298.55720443016406
-0.03660205078125,0.08948291015625,1.02076123046875,1.0253294060737268,0.28564453125,-0.49072265625,-2.30419921875,46.36529411764706,298.5233127398968
-0.08543017578125,0.10510791015625,1.01197216796875,1.0209964037423451,0.228515625,-0.41845703125,-2.56982421875,47.118235294117646,298.5233127398968
-0.12742236328125,0.11145556640625,0.98999951171875,1.0043693718699709,0.26318359375,-0.14501953125,-2.45654296875,46.31823529411765,298.5233127398968
-0.13914111328125,0.10413134765625,0.96949169921875,0.9849455527205104,0.42529296875,-0.00537109375,-2.3427734375,46.788823529411765,298.5233127398968
-0.14207080078125,0.09192431640625,0.93580029296875,0.95097654056332,0.70068359375,-0.0703125,-2.3515625,47.63588235294118,298.6233005822515
-0.16160205078125,0.07141650390625,0.91822216796875,0.9350655001635598,1.0068359375,-0.208984375,-2.55126953125,47.07117647058824,298.6233005822515
-0.17625048828125,0.04700244140625,0.8967377929687499,0.9151022530056364,1.30517578125,-0.375,-2.7861328125,46.788823529411765,298.6233005822515
-0.18699267578125,0.01233447265625,0.8772065429687499,0.8970004008018752,1.56494140625,-0.1318359375,-3.033203125,46.93,298.6233005822515
-0.18015673828125,-0.01598583984375,0.8576752929687499,0.8765380229018476,1.75830078125,0.05712890625,-3.1640625,47.63588235294118,298.6233005822515
-0.14548876953125,-0.04284130859375,0.8591401367187499,0.8724242857135823,1.86279296875,0.18994140625,-3.34130859375,47.54176470588236,298.75718159594857
-0.09470751953125,-0.07409130859375,0.8459565429687499,0.8544597760319294,1.80859375,0.26416015625,-3.63623046875,46.31823529411765,298.75718159594857
-0.05759814453125,-0.09069287109375,0.8479096679687499,0.854689152941317,1.640625,0.2216796875,-3.984375,46.788823529411765,298.75718159594857
-0.04197314453125,-0.10729443359375,0.8576752929687499,0.8653789623691321,1.36083984375,-0.1083984375,-4.09033203125,46.36529411764706,298.75718159594857
-0.02341845703125,-0.13756787109375,0.8776948242187499,0.8887190488266657,1.0732421875,-0.70947265625,-3.94970703125,46.788823529411765,298.5233127398968
-0.0009575195312499,-0.16295849609375,0.92359326171875,0.9378597450499028,0.8720703125,-1.12890625,-3.72607421875,46.97705882352941,298.5233127398968
0.00050732421875,-0.17809521484375,0.96949169921875,0.985714115645182,0.48974609375,-1.34521484375,-3.67138671875,46.36529411764706,298.5233127398968
-0.02634814453125,-0.17711865234375,0.99781201171875,1.013752461135619,0.27294921875,-0.95849609375,-3.7265625,46.788823529411765,298.5233127398968
-0.11130908203125,-0.15661083984375,1.03345654296875,1.051165587861458,0.0927734375,-0.32666015625,-3.76513671875,47.63588235294118,298.5233127398968
-0.23484423828125,-0.10973583984375,0.98267529296875,1.0162895759631363,-0.05126953125,-0.14794921875,-3.6591796875,47.73,298.8001207095374
-0.29783251953125,-0.03112255859375,1.28394482421875,1.3184032520370506,-0.2412109375,-1.34375,-4.04052734375,46.788823529411765,298.8001207095374
-0.01707080078125,0.01184619140625,1.39185498046875,1.3920100686222825,-0.8896484375,-3.09765625,-5.74462890625,47.07117647058824,298.8001207095374
0.38087841796875,0.00891650390625,1.33521435546875,1.3885046807145152,-2.0498046875,-2.10498046875,-7.36572265625,46.97705882352941,298.8001207095374
0.48634716796875,0.35461962890625,1.26783154296875,1.403454833738283,-2.44482421875,0.888671875,-6.22216796875,46.88294117647059,298.6216131654652
0.34474560546875,0.38489306640625,1.14966748046875,1.2604473494378832,-2.19140625,2.2314453125,-3.474609375,46.93,298.6216131654652
0.25929638671875,0.56360400390625,0.94556591796875,1.1309195349840946,-2.0380859375,0.8671875,-2.8056640625,46.31823529411765,298.6216131654652
0.29689404296875,0.53918994140625,0.8132416992187499,1.019918588423706,-1.82421875,-1.93359375,-4.27490234375,47.3064705882353,298.6216131654652
0.24074169921875,0.43811572265625,0.8215424804687499,0.9616828996067704,-1.13720703125,-4.97509765625,-5.26708984375,46.88294117647059,298.6216131654652
0.05714794921875,0.30139697265625,0.95777294921875,1.0057012704980757,-0.06005859375,-7.09765625,-4.1181640625,46.88294117647059,298.5018432305968
-0.14353564453125,0.20422900390625,1.14576123046875,1.1726383775626674,1.08984375,-7.5009765625,-1.5322265625,46.93,298.5018432305968
-0.21726611328125,0.17981494140625,1.31568310546875,1.3455705151158628,1.92236328125,-5.31005859375,-0.083984375,46.97705882352941,298.5018432305968
-0.16111376953125,0.19885791015625,1.40992138671875,1.4329621180935677,2.423828125,-0.8447265625,-0.6064453125,47.3064705882353,298.5018432305968
-0.06443408203125,0.22229541015625,1.38794873046875,1.4071135983685044,2.806640625,4.400390625,-2.09912109375,47.63588235294118,298.6571926417545
0.00148388671875,0.22180712890625,1.24976513671875,1.2692964591895244,3.08740234375,8.140625,-3.01025390625,46.31823529411765,298.6571926417545
0.04835888671875,0.19641650390625,1.04322216796875,1.0626525851250022,3.1982421875,9.03515625,-3.015625,47.63588235294118,298.6571926417545
0.09767529296875,0.15051806640625,0.8151948242187499,0.8347087831119582,3.11962890625,7.27978515625,-2.9306640625,47.68294117647059,298.6571926417545
0.14357373046875,0.10706103515625,0.6535737304687499,0.6776681359546716,2.26416015625,4.2236328125,-3.29296875,47.54176470588236,298.6571926417545
0.15333935546875,0.08460009765625,0.6057221679687499,0.6305311088501353,1.17919921875,0.505859375,-3.97021484375,46.31823529411765,298.9678964929884
0.12794873046875,0.06506884765625,0.6599213867187499,0.6753525517925248,-0.072265625,-2.17529296875,-4.66064453125,46.31823529411765,298.9678964929884
0.10939404296875,0.06165087890625,0.7517182617187499,0.7621339990503119,-1.3369140625,-3.0947265625,-5.2099609375,47.73,298.9678964929884
0.09962841796875,0.09387744140625,0.8581635742187499,0.8690129549021923,-2.18994140625,-2.80712890625,-5.56494140625,47.25941176470588,298.9678964929884
0.08205029296875,0.12073291015625,0.92749951171875,0.938916412898174,-2.4462890625,-2.03466796875,-5.71923828125,47.16529411764706,298.71086656079086
0.05324169921875,0.15784228515625,0.95679638671875,0.9711890604599612,-2.13525390625,-0.87841796875,-5.6455078125,46.36529411764706,298.71086656079086
0.01710888671875,0.17835009765625,0.94703076171875,0.9638302417855256,-1.4501953125,0.400390625,-5.2685546875,47.118235294117646,298.71086656079086
-0.0043754882812499,0.19006884765625,0.92115185546875,0.9405668783136024,-0.611328125,1.58984375,-4.59130859375,46.31823529411765,298.71086656079086
-0.01414111328125,0.20667041015625,0.8908784179687499,0.9146458249625854,0.30029296875,1.8623046875,-3.85400390625,46.31823529411765,298.71086656079086
-0.01609423828125,0.23059619140625,0.8713471679687499,0.9014873904409768,1.07958984375,1.4189453125,-2.958984375,47.68294117647059,298.5538302347618
-0.01560595703125,0.25549853515625,0.8723237304687499,0.9091049103930564,1.55078125,0.72216796875,-2.51318359375,46.36529411764706,298.5538302347618
-0.03269580078125,0.27112353515625,0.92212841796875,0.9617160734488632,1.79345703125,0.10888671875,-2.3896484375,46.31823529411765,298.5538302347618
-0.04441455078125,0.27698291015625,0.98951123046875,1.0285060330710292,2.01025390625,-0.1103515625,-2.27978515625,47.73,298.5538302347618
-0.04587939453125,0.26868212890625,1.05201123046875,1.0867486527567092,2.099609375,0.14599609375,-2.11865234375,46.88294117647059,298.98936605525296
-0.0058403320312499,0.25696337890625,1.09205029296875,1.121890426891274,2.0810546875,0.5166015625,-2.0830078125,46.41235294117647,298.98936605525296
0.03322216796875,0.22180712890625,1.10279248046875,1.1253681041581889,1.9169921875,0.77587890625,-2.0732421875,47.63588235294118,298.98936605525296
0.06984326171875,0.17786181640625,1.10181591796875,1.118262591716348,1.6044921875,0.77392578125,-2.017578125,47.07117647058824,298.98936605525296
0.10060498046875,0.13831103515625,1.10328076171875,1.1164585723258236,1.09716796875,0.55322265625,-1.912109375,47.118235294117646,298.98936605525296
0.12160107421875,0.11975634765625,1.09888623046875,1.1120608578530842,0.47021484375,0.27099609375,-1.83349609375,46.36529411764706,298.701819652415
0.11915966796875,0.12268603515625,1.10914013671875,1.122248961939048,0.01318359375,0.1142578125,-1.884765625,47.63588235294118,298.701819652415
0.08302685546875,0.12415087890625,1.09986279296875,1.109957234680347,-0.3271484375,0.19921875,-1.9951171875,46.60058823529412,298.701819652415
0.03419873046875,0.13342822265625,1.08814404296875,1.0968272890547797,-0.490234375,0.37158203125,-2.1748046875,47.118235294117646,298.701819652415
-0.01316455078125,0.14075244140625,1.06714794921875,1.0764707616470015,-0.53955078125,0.53857421875,-2.314453125,46.88294117647059,298.70013174988304
-0.07419970703125,0.13831103515625,1.05054638671875,1.0622067828899129,-0.48974609375,0.6806640625,-2.2548828125,46.88294117647059,298.70013174988304
-0.10691455078125,0.14026416015625,1.03785107421875,1.0527295987337433,-0.31689453125,0.83447265625,-2.3125,47.25941176470588,298.70013174988304
-0.12595751953125,0.14221728515625,1.00513623046875,1.022932008847415,-0.091796875,1.02197265625,-2.1728515625,46.97705882352941,298.70013174988304
-0.12400439453125,0.15295947265625,0.97730419921875,0.9969439241747462,0.00244140625,1.0908203125,-2.10302734375,47.118235294117646,298.70013174988304
-0.11619189453125,0.15149462890625,0.94605419921875,0.9651267931218332,0.28466796875,1.03369140625,-2.03857421875,46.31823529411765,298.6555049519509
-0.09910205078125,0.16223681640625,0.91578076171875,0.935305514043865,0.3984375,0.83984375,-1.9365234375,47.54176470588236,298.6555049519509
-0.07761767578125,0.17346728515625,0.8967377929687499,0.91665373612484,0.494140625,0.615234375,-1.80615234375,47.68294117647059,298.6555049519509
-0.02341845703125,0.18518603515625,0.8693940429687499,0.8892065528864286,0.53662109375,0.26611328125,-1.740234375,46.31823529411765,298.6555049519509
0.01564404296875,0.19739306640625,0.8674409179687499,0.8897541822953898,0.4951171875,-0.193359375,-1.7587890625,46.788823529411765,298.37869975348
0.03273388671875,0.21497119140625,0.8689057617187499,0.8957015927318537,0.44189453125,-0.630859375,-1.78662109375,47.07117647058824,298.37869975348
0.02492138671875,0.23547900390625,0.8698823242187499,0.9015357423779046,0.33984375,-1.37353515625,-1.7578125,47.63588235294118,298.37869975348
0.01124951171875,0.26086962890625,0.8899018554687499,0.9274183668476264,0.234375,-1.97216796875,-1.7666015625,46.788823529411765,298.37869975348
-0.0077934570312499,0.27991259765625,0.91187451171875,0.9539008991616876,0.11669921875,-2.2939453125,-1.8203125,46.93,298.37869975348
-0.02488330078125,0.28333056640625,0.94068310546875,0.9827411121105027,0.08544921875,-2.16015625,-1.86328125,47.73,298.4125908800675
-0.04587939453125,0.28040087890625,0.97681591796875,1.017299812902314,0.10107421875,-1.65380859375,-1.7734375,47.118235294117646,298.4125908800675
-0.05369189453125,0.27551806640625,0.98609326171875,1.025267255529853,0.13134765625,-1.17919921875,-1.58935546875,46.31823529411765,298.4125908800675
-0.05515673828125,0.27112353515625,0.99585888671875,1.033578811387964,0.2333984375,-0.74365234375,-1.4521484375,46.93,298.4125908800675
-0.05125048828125,0.26868212890625,0.99195263671875,1.0289736305833797,0.35498046875,-0.40478515625,-1.41455078125,47.07117647058824,298.6571926417545
-0.05662158203125,0.26331103515625,0.98169873046875,1.017974018426174,0.40087890625,-0.4072265625,-1.3564453125,47.07117647058824,298.6571926417545
-0.08005908203125,0.25354541015625,0.97974560546875,1.0151828323323413,0.4365234375,-0.6455078125,-1.24462890625,46.97705882352941,298.6571926417545
-0.08787158203125,0.23889697265625,0.99732373046875,1.029294808025912,0.48388671875,-0.9150390625,-0.72265625,47.118235294117646,298.6571926417545
-0.04880908203125,0.23303759765625,0.99732373046875,1.0253504141347158,0.47705078125,-0.7265625,-0.46875,46.788823529411765,298.6571926417545
0.00587841796875,0.23450244140625,0.99195263671875,1.019311524665834,0.42041015625,0.36083984375,-0.4775390625,46.788823529411765,298.4323737875308
0.03859326171875,0.24719775390625,0.98462841796875,1.015917954786719,0.41845703125,0.814453125,-0.33642578125,47.54176470588236,298.4323737875308
0.04689404296875,0.24768603515625,0.92310498046875,0.9569065932699956,0.35888671875,0.6025390625,-0.173828125,46.93,298.4323737875308
0.05031201171875,0.24329150390625,0.8762299804687499,0.910769473065725,0.1708984375,0.10693359375,-0.08251953125,47.118235294117646,298.4323737875308
0.03224560546875,0.21936572265625,0.8410737304687499,0.8698080934511729,0.04638671875,-0.376953125,0.01904296875,47.118235294117646,298.72160138526567
-0.01169970703125,0.19543994140625,0.8308198242187499,0.8535779016331023,-0.08056640625,-1.05810546875,0.048828125,46.93,298.72160138526567
-0.06150439453125,0.18176806640625,0.8313081054687499,0.8531679709938511,-0.1865234375,-1.50341796875,0.0751953125,46.788823529411765,298.72160138526567
-0.10447314453125,0.17981494140625,0.8454682617187499,0.8706690718378052,-0.310546875,-1.55615234375,0.04248046875,46.36529411764706,298.72160138526567
-0.12498095703125,0.18225634765625,0.8845307617187499,0.9117194109528408,-0.39404296875,-1.37158203125,0.17529296875,46.31823529411765,298.72160138526567
-0.13718798828125,0.17395556640625,0.92408154296875,0.950267215717706,-0.45654296875,-0.72021484375,0.46044921875,46.88294117647059,298.56793918550034
-0.13328173828125,0.15491259765625,0.96558544921875,0.9869737556869757,-0.501953125,-0.46240234375,0.9365234375,46.31823529411765,298.56793918550034
