AccX,AccY,AccZ,Magnitude,GyroX,GyroY,GyroZ,Temperature,Altitude
-0.94919970703125,0.12268603515625,0.0466401367187498,0.9582313130991468,0.041015625,0.26025390625,-0.07080078125,46.27117647058824,314.4738155858181
-0.96287158203125,0.12024462890625,0.0485932617187498,0.9715666520360972,0.05224609375,0.24560546875,-0.04248046875,46.27117647058824,314.4738155858181
-0.98289111328125,0.12170947265625,0.0407807617187498,0.9912372101711472,0.04248046875,-0.04833984375,0.06298828125,46.97705882352941,314.4738155858181
-0.99705126953125,0.12317431640625,0.0461518554687498,1.0056903798183776,0.06884765625,-0.16064453125,0.23486328125,46.03588235294118,314.4738155858181
-0.99705126953125,0.12317431640625,0.0520112304687498,1.0059762991198635,0.12451171875,-0.06396484375,0.45361328125,45.80058823529412,314.5630860371009
-0.99021533203125,0.12073291015625,0.0573823242187498,0.999197463226014,0.10888671875,0.201171875,0.6015625,46.27117647058824,314.5630860371009
-0.97849658203125,0.12756884765625,0.0534760742187498,0.9882252083675216,0.1015625,0.63671875,0.75830078125,46.45941176470589,314.5630860371009
-0.94334033203125,0.12366259765625,0.0617768554687498,0.9534148100210776,0.1357421875,1.205078125,0.67822265625,45.70647058823529,314.5630860371009
-0.90476611328125,0.13489306640625,0.0500581054687498,0.9161351827266876,0.11962890625,1.7490234375,0.39990234375,47.02411764705882,314.5630860371009
-0.89890673828125,0.13977587890625,0.0398041992187498,0.910579482926612,0.0888671875,2.24755859375,0.12548828125,46.08294117647059,314.5432236051211
-0.88621142578125,0.14075244140625,0.0100190429687498,0.8973752404479775,0.07568359375,2.615234375,0.0107421875,47.02411764705882,314.5432236051211
-0.85544970703125,0.13684619140625,-0.0056059570312501,0.8663443357675306,0.0615234375,2.81103515625,-0.05126953125,45.70647058823529,314.5432236051211
-0.82078173828125,0.13635791015625,-0.0158598632812501,0.8321824780788587,0.05859375,2.65673828125,-0.21728515625,46.36529411764706,314.5432236051211
-0.81638720703125,0.13977587890625,-0.0344145507812501,0.8289811393715631,0.05517578125,2.06640625,-0.48583984375,46.41235294117647,314.7308795293679
-0.84324267578125,0.13977587890625,-0.0436918945312501,0.8558647604794036,0.046875,1.03076171875,-0.7158203125,46.36529411764706,314.7308795293679
-0.89744189453125,0.25745166015625,-0.0475981445312501,0.9348523384684162,0.0166015625,-0.31689453125,-0.74169921875,45.80058823529412,314.7308795293679
-0.95408251953125,0.12024462890625,-0.0353911132812501,0.9622810170398178,-0.0234375,-1.8076171875,-0.5078125,47.02411764705882,314.7308795293679
-0.99070361328125,0.10999072265625,-0.0173247070312501,0.9969411988240264,-0.06591796875,-3.01806640625,-0.24853515625,45.61235294117647,314.7308795293679
-1.01462939453125,0.10461962890625,0.0197846679687498,1.020200719508649,-0.10498046875,-3.814453125,0.255859375,46.36529411764706,314.3076621814929
-1.02439501953125,0.10608447265625,0.0554291992187498,1.031363887047252,-0.11572265625,-3.95166015625,0.50341796875,46.45941176470589,314.3076621814929
-1.02244189453125,0.11243212890625,0.0930268554687498,1.0328031792851178,-0.0888671875,-3.45751953125,0.5654296875,46.97705882352941,314.3076621814929
-1.01609423828125,0.11926806640625,0.1237885742187498,1.030531893654801,-0.0673828125,-2.3779296875,0.62353515625,46.45941176470589,314.3076621814929
-1.01023486328125,0.12854541015625,0.1399018554687499,1.0279450036965612,0.00390625,-0.96630859375,0.375,47.02411764705882,314.5077010143706
-0.99949267578125,0.13391650390625,0.1320893554687499,1.017038267120262,0.0537109375,0.59033203125,0.3681640625,46.45941176470589,314.5077010143706
-0.98191455078125,0.13440478515625,0.1115815429687498,0.997332077113801,0.1181640625,1.93994140625,0.14599609375,46.27117647058824,314.5077010143706
-0.95505908203125,0.13245166015625,0.0754487304687498,0.9671472501009692,0.15869140625,2.865234375,0.07275390625,47.02411764705882,314.5077010143706
-0.93210986328125,0.14075244140625,0.0388276367187498,0.94347635495606,0.158203125,3.2255859375,0.029296875,46.97705882352941,314.5077010143706
-0.91453173828125,0.13635791015625,0.0051362304687498,0.9246556985436972,0.11328125,3.025390625,-0.02197265625,45.65941176470588,314.11837601846133
-0.90330126953125,0.13684619140625,-0.0202543945312501,0.9138327550142812,0.07666015625,2.345703125,-0.0302734375,47.02411764705882,314.11837601846133
-0.90427783203125,0.13098681640625,-0.0344145507812501,0.9143633330798308,0.02734375,1.38427734375,0.02001953125,46.55352941176471,314.11837601846133
-0.91355517578125,0.12756884765625,-0.0427153320312501,0.9234075317429428,0.0029296875,0.4892578125,0.10888671875,46.45941176470589,314.11837601846133
-0.92673876953125,0.13049853515625,-0.0207426757812501,0.9361115709298696,-0.015625,-0.4541015625,0.2080078125,46.41235294117647,314.5415866571961
-0.93796923828125,0.13196337890625,-0.0041411132812501,0.9472158012583356,-0.0263671875,-0.75146484375,0.27294921875,45.89470588235295,314.5415866571961
-0.95017626953125,0.12805712890625,0.0144135742187498,0.9588750296914578,-0.03173828125,-0.77734375,0.32470703125,45.80058823529412,314.5415866571961
-0.95798876953125,0.13049853515625,0.0363862304687498,0.9675207015840284,-0.0205078125,-0.251953125,0.333984375,46.788823529411765,314.5415866571961
-0.95701220703125,0.01038134765625,0.0500581054687498,0.9583767269237627,-0.001953125,0.4921875,0.26904296875,46.788823529411765,314.5415866571961
-0.94578173828125,0.13586962890625,0.0490815429687498,0.9567510911337485,0.04296875,1.185546875,0.11328125,47.02411764705882,314.4754519872116
-0.94871142578125,0.13782275390625,0.0315034179687498,0.9591876491312368,0.0791015625,1.6376953125,-0.00439453125,47.02411764705882,314.4754519872116
-0.94041064453125,0.13635791015625,0.0109956054687498,0.9503086674073248,0.0966796875,1.79296875,-0.0556640625,46.45941176470589,314.4754519872116
-0.93308642578125,0.13293994140625,-0.0026762695312501,0.9425128478789716,0.06640625,1.59912109375,-0.06103515625,47.02411764705882,314.4754519872116
-0.92380908203125,0.13489306640625,-0.0339262695312501,0.9342217890694954,0.02783203125,1.20361328125,-0.03955078125,46.97705882352941,314.5415866571961
-0.91209033203125,0.13196337890625,-0.0314848632812501,0.9221249393509914,-0.03076171875,0.69287109375,-0.0068359375,45.61235294117647,314.5415866571961
-0.91502001953125,0.12659228515625,-0.0363676757812501,0.9244511077638344,-0.08154296875,0.16943359375,-0.0185546875,45.61235294117647,314.5415866571961
-0.92576220703125,0.13245166015625,-0.0285551757812501,0.935625194353709,-0.150390625,-0.248046875,-0.04443359375,46.36529411764706,314.5415866571961
-0.94724658203125,0.13391650390625,-0.0183012695312501,0.9568409761579056,-0.16552734375,-0.39404296875,-0.025390625,46.45941176470589,314.5415866571961
-0.95701220703125,0.13635791015625,-0.0124418945312501,0.9667578004901388,-0.20703125,-0.30322265625,-0.076171875,46.55352941176471,314.48456530832044
-0.96189501953125,0.13635791015625,-0.0095122070312501,0.9715585367561798,-0.2236328125,0.00830078125,-0.138671875,46.27117647058824,314.48456530832044
-0.96921923828125,0.13928759765625,-0.0070708007812501,0.979202207380592,-0.24853515625,0.408203125,-0.19384765625,45.70647058823529,314.48456530832044
-0.97996142578125,0.13684619140625,-0.0178129882812501,0.9896305263446172,-0.2822265625,0.72509765625,-0.1435546875,46.45941176470589,314.48456530832044
-0.97214892578125,0.13196337890625,-0.0231840820312501,0.9813385597894464,-0.30419921875,0.95947265625,-0.0615234375,45.65941176470588,314.4217038797924
-0.95359423828125,0.14319384765625,-0.0329497070312501,0.9648482432399637,-0.3046875,1.04638671875,0.01611328125,45.80058823529412,314.4217038797924
-0.92625048828125,0.14563525390625,-0.0363676757812501,0.9383348027560964,-0.28662109375,1.0009765625,0.0107421875,46.36529411764706,314.4217038797924
-0.91306689453125,0.16028369140625,-0.0349028320312501,0.9276854118199532,-0.25244140625,0.89013671875,-0.02490234375,47.02411764705882,314.4217038797924
-0.90769580078125,0.16614306640625,-0.0349028320312501,0.9234356463525696,-0.20703125,0.66162109375,-0.08447265625,46.45941176470589,314.4217038797924
-0.90427783203125,0.17493212890625,-0.0275786132812501,0.9214554938451054,-0.17236328125,0.35546875,-0.14306640625,45.70647058823529,314.5324739958476
-0.91257861328125,0.17883837890625,-0.0134184570312501,0.9300338414150552,-0.12646484375,0.0634765625,-0.2197265625,46.36529411764706,314.5324739958476
-0.92039111328125,0.18225634765625,-0.0143950195312501,0.9383732702157492,-0.0693359375,-0.22998046875,-0.279296875,46.97705882352941,314.5324739958476
-0.93015673828125,0.17932666015625,0.0022065429687498,0.9472879591996732,-0.02392578125,-0.3671875,-0.28955078125,46.45941176470589,314.5324739958476
-0.93943408203125,0.17688525390625,0.0153901367187498,0.9560657110468912,0.04248046875,-0.40478515625,-0.23388671875,47.02411764705882,314.4647023386045
-0.95896533203125,0.17004931640625,0.0246674804687498,0.9742380420824854,0.1240234375,-0.33349609375,-0.07568359375,46.36529411764706,314.4647023386045
-0.97068408203125,0.15686572265625,0.0251557617187498,0.9835991329809968,0.2470703125,-0.23583984375,0.0927734375,45.61235294117647,314.4647023386045
-0.96580126953125,0.14465869140625,0.0236909179687498,0.9768620623310872,0.28515625,-0.14501953125,0.18994140625,45.70647058823529,314.4647023386045
-0.95750048828125,0.13635791015625,0.0163666992187498,0.967299608996266,0.32861328125,0.1884765625,0.2158203125,46.36529411764706,314.4647023386045
-0.92722705078125,0.12024462890625,0.0236909179687498,0.9352914166587324,0.38330078125,0.625,0.1611328125,46.41235294117647,314.5432236051211
-0.91453173828125,0.10754931640625,0.0236909179687498,0.9211386515489286,0.439453125,1.2685546875,-0.0146484375,46.55352941176471,314.5432236051211
-0.94334033203125,0.10706103515625,-0.0109770507812501,0.9494596057386596,0.46923828125,1.65966796875,-0.0849609375,46.788823529411765,314.5432236051211
-0.96531298828125,0.10461962890625,-0.0388090820312501,0.971741003017299,0.4677734375,1.76171875,0.06982421875,46.41235294117647,314.5432236051211
-0.97947314453125,0.10168994140625,-0.0646879882812501,0.9868601830396324,0.4580078125,1.48828125,0.27734375,46.97705882352941,314.50186289299944
-0.97263720703125,0.10510791015625,-0.0861723632812501,0.982087819633479,0.4140625,0.9462890625,0.3671875,46.36529411764706,314.50186289299944
-0.95603564453125,0.10071337890625,-0.0925200195312501,0.96576772172146,0.37060546875,0.29345703125,0.43603515625,47.02411764705882,314.50186289299944
-0.94675830078125,0.10803759765625,-0.0866606445312501,0.9568351320452784,0.3046875,-0.283203125,0.4453125,46.224117647058826,314.50186289299944
-0.93503955078125,0.11145556640625,-0.0646879882812501,0.9438780856848066,0.23828125,-0.61328125,0.4375,46.45941176470589,314.50186289299944
-0.94236376953125,0.11389697265625,-0.0451567382812501,0.950295283329138,0.22119140625,-0.64111328125,0.4228515625,46.224117647058826,314.3216841025787
-0.95359423828125,0.11243212890625,-0.0270903320312501,0.9605815118891016,0.19775390625,-0.36474609375,0.369140625,46.97705882352941,314.3216841025787
-0.95896533203125,0.10706103515625,-0.0212309570312501,0.9651566333103638,0.19677734375,0.07373046875,0.328125,46.97705882352941,314.3216841025787
-0.94236376953125,0.10608447265625,-0.0217192382812501,0.9485647657252608,0.18896484375,0.533203125,0.30078125,46.36529411764706,314.3216841025787
-0.92869189453125,0.10754931640625,-0.0226958007812501,0.9351740959845908,0.17041015625,0.92138671875,0.23876953125,46.27117647058824,314.5093376890274
-0.91453173828125,0.11243212890625,-0.0324614257812501,0.9219886268809762,0.13671875,1.2021484375,0.13525390625,47.02411764705882,314.5093376890274
-0.92869189453125,0.11096728515625,-0.0534575195312501,0.9368244658085232,0.07958984375,1.33544921875,0.00146484375,47.02411764705882,314.5093376890274
-0.93796923828125,0.11487353515625,-0.0690825195312501,0.947499137490894,0.03857421875,1.2890625,0.15234375,46.27117647058824,314.5093376890274
-0.93796923828125,0.11243212890625,-0.0915434570312501,0.9491087820147552,-0.05078125,1.080078125,0.1875,46.60058823529412,314.5093376890274
-0.93064501953125,0.11243212890625,-0.1003325195312501,0.9427660104523292,-0.1474609375,0.71875,0.19091796875,46.788823529411765,314.45395270356454
-0.92869189453125,0.12073291015625,-0.0930083007812501,0.9411140284668246,-0.25390625,0.41455078125,0.1474609375,45.80058823529412,314.45395270356454
-0.93699267578125,0.13831103515625,-0.1047270507812501,0.9529181350352394,-0.2802734375,0.45654296875,0.083984375,46.41235294117647,314.45395270356454
-0.94871142578125,0.15833056640625,-0.1052153320312501,0.9675702577905454,-0.21875,0.84521484375,0.03955078125,45.61235294117647,314.45395270356454
-0.93308642578125,0.17688525390625,-0.1252348632812501,0.9579261151089786,-0.15576171875,1.11279296875,-0.06591796875,45.70647058823529,314.35556953318246
-0.91697314453125,0.19788134765625,-0.1291411132812501,0.9469288266186128,-0.12158203125,1.07958984375,-0.2333984375,45.65941176470588,314.35556953318246
-0.89402392578125,0.21008837890625,-0.1374418945312501,0.928604426649536,-0.10205078125,0.77197265625,-0.49072265625,46.41235294117647,314.35556953318246
-0.88914111328125,0.21106494140625,-0.1315825195312501,0.923273680045108,-0.0693359375,0.2822265625,-0.64013671875,46.27117647058824,314.35556953318246
-0.91502001953125,0.20471728515625,-0.1188872070312501,0.9451481211854604,-0.08447265625,-0.27685546875,-0.5390625,45.70647058823529,314.35556953318246
-0.94724658203125,0.18958056640625,-0.0915434570312501,0.9703592545310384,-0.0537109375,-0.76708984375,-0.2763671875,45.70647058823529,314.31093452312
-0.96531298828125,0.17249072265625,-0.0534575195312501,0.9820590212107344,-0.00927734375,-1.107421875,0.02587890625,46.36529411764706,314.31093452312
-0.96287158203125,0.15393603515625,-0.0158598632812501,0.9752279331860262,-0.01513671875,-1.21044921875,0.0771484375,46.88294117647059,314.31093452312
-0.96189501953125,0.14514697265625,0.0188081054687498,0.9729662980297014,-0.01611328125,-1.0361328125,-0.07666015625,46.45941176470589,314.31093452312
-0.97361376953125,0.13489306640625,0.0344331054687498,0.9835169293599136,0.05078125,-0.52685546875,-0.2119140625,47.02411764705882,314.66638178026784
-0.97507861328125,0.11145556640625,0.0451752929687498,0.98246702359735,0.00244140625,0.2216796875,-0.26904296875,46.55352941176471,314.66638178026784
-0.97947314453125,0.09924853515625,0.0446870117187498,0.985502329578651,0.21337890625,1.07275390625,-0.27099609375,46.36529411764706,314.66638178026784
-0.99607470703125,0.07971728515625,0.0188081054687498,0.9994365474463084,0.279296875,1.85791015625,-0.2861328125,46.27117647058824,314.66638178026784
-1.00437548828125,0.06213916015625,-0.0056059570312501,1.0063114942399096,0.3466796875,2.3603515625,-0.37939453125,46.97705882352941,314.66638178026784
-1.01316455078125,0.05676806640625,-0.0344145507812501,1.0153370778361004,0.4443359375,2.32568359375,-0.43603515625,46.60058823529412,314.13239636778746
-1.01658251953125,0.04651416015625,-0.0734770507812501,1.0202952823095164,0.5341796875,1.8154296875,-0.32861328125,46.224117647058826,314.13239636778746
-0.99070361328125,0.03381884765625,-0.1105864257812501,0.9974300583962732,0.55078125,1.11328125,-0.1416015625,46.27117647058824,314.13239636778746
-0.93162158203125,0.05481494140625,-0.1179106445312501,0.940652098281588,0.52587890625,0.54638671875,-0.18310546875,46.97705882352941,314.13239636778746
-0.88816455078125,0.08460009765625,-0.0939848632812501,0.8971212851749211,0.4658203125,0.33349609375,-0.39306640625,46.36529411764706,314.79118050269125
-0.87742236328125,0.10217822265625,-0.0876372070312501,0.8876883872325255,0.49462890625,0.3916015625,-0.73779296875,45.65941176470588,314.79118050269125
-0.89695361328125,0.10510791015625,-0.0754301757812501,0.9062357135834443,0.48876953125,0.6396484375,-1.06005859375,46.36529411764706,314.79118050269125
-0.90818408203125,0.11096728515625,-0.0915434570312501,0.9195065360045708,0.4365234375,0.7392578125,-1.27685546875,46.45941176470589,314.79118050269125
-0.89988330078125,0.11829150390625,-0.1052153320312501,0.9137029610413911,0.35595703125,0.625,-1.40283203125,47.02411764705882,314.79118050269125
-0.88669970703125,0.13342822265625,-0.1223051757812501,0.9049850921829558,0.21630859375,0.19580078125,-1.3544921875,46.83588235294118,314.37706869344754
-0.89011767578125,0.13977587890625,-0.1237700195312501,0.9094865533898756,0.0361328125,-0.39501953125,-1.16162109375,45.61235294117647,314.37706869344754
-0.92283251953125,0.15247119140625,-0.1393950195312501,0.9456734609701988,-0.10302734375,-1.04443359375,-0.806640625,47.02411764705882,314.37706869344754
-0.96189501953125,0.15833056640625,-0.1330473632812501,0.983876108935287,-0.16650390625,-1.56689453125,-0.51318359375,46.224117647058826,314.37706869344754
-0.99900439453125,0.17053759765625,-0.1384184570312501,1.0228648599663723,-0.10302734375,-1.76025390625,-0.4189453125,46.41235294117647,314.5464988638836
-1.03220751953125,0.17688525390625,-0.1467192382812501,1.0574815796543051,0.0517578125,-1.65087890625,-0.4501953125,45.65941176470588,314.5464988638836
-1.06003955078125,0.17053759765625,-0.1711333007812501,1.0872228511538768,0.1552734375,-1.353515625,-0.5126953125,46.45941176470589,314.5464988638836
-1.07127001953125,0.15491259765625,-0.1921293945312501,1.0993321026432534,0.12255859375,-1.16064453125,-0.41357421875,46.224117647058826,314.5464988638836
-1.05027392578125,0.14514697265625,-0.1882231445312501,1.076833745284974,-0.38134765625,-1.3017578125,-0.06591796875,46.45941176470589,314.5464988638836
-0.99753955078125,0.13782275390625,-0.1359770507812501,1.016154528212283,-0.76171875,-1.7890625,0.65869140625,46.55352941176471,314.3233208944881
-0.90720751953125,0.12122119140625,-0.0134184570312501,0.9153688413580032,-1.19189453125,-2.41064453125,1.4619140625,46.41235294117647,314.3233208944881
-0.79343798828125,0.12317431640625,0.1037690429687498,0.8096195203603939,-1.251953125,-2.61669921875,1.6865234375,47.02411764705882,314.3233208944881
-0.75974658203125,0.13098681640625,0.1887299804687499,0.7937199887291149,-1.18798828125,-1.2998046875,1.45458984375,46.45941176470589,314.3233208944881
-0.75779345703125,0.13293994140625,0.2243745117187499,0.8014161671999745,-1.05126953125,0.9541015625,1.09130859375,47.02411764705882,314.4754519872116
-0.75535205078125,0.13342822265625,0.1975190429687499,0.7920691785165843,-0.85595703125,3.44775390625,0.75244140625,46.224117647058826,314.4754519872116
-0.73972705078125,0.13293994140625,0.1130463867187498,0.7600319882931168,-0.66162109375,5.37890625,0.38525390625,46.224117647058826,314.4754519872116
-0.74119189453125,0.14124072265625,-0.0070708007812501,0.7545623648705067,-0.39794921875,6.70361328125,0.10205078125,46.41235294117647,314.4754519872116
-0.74656298828125,0.16516650390625,-0.1594145507812501,0.7810565078692008,-0.1318359375,6.7529296875,0.0,45.70647058823529,314.4754519872116
-0.74753955078125,0.18567431640625,-0.3098051757812501,0.8302226079167037,-0.06201171875,5.41796875,0.06884765625,47.02411764705882,314.4357281225857
-0.73191455078125,0.21204150390625,-0.4020903320312501,0.8615898932422225,-0.11572265625,2.8955078125,0.2841796875,46.55352941176471,314.4357281225857
-0.71580126953125,0.24573291015625,-0.4509184570312501,0.880956057637299,-0.12646484375,-0.2734375,0.4970703125,45.65941176470588,314.4357281225857
-0.73484423828125,0.28772509765625,-0.4333403320312501,0.9003141838943799,-0.4072265625,-3.44384765625,0.46044921875,45.70647058823529,314.4357281225857
-0.77683642578125,0.31360400390625,-0.3688872070312501,0.9153688192187536,-0.580078125,-5.6767578125,0.08056640625,46.36529411764706,314.6895189564088
-0.84714892578125,0.33118212890625,-0.2761137695312501,0.9505691551296824,-0.69189453125,-6.7724609375,-0.5888671875,45.80058823529412,314.6895189564088
-0.91990283203125,0.32971728515625,-0.1916411132812501,0.995821783658903,-0.7294921875,-6.7109375,-1.31298828125,45.61235294117647,314.6895189564088
-1.00877001953125,0.30335009765625,-0.1320708007812501,1.0616406786065309,-0.70703125,-5.70458984375,-1.91845703125,46.36529411764706,314.6895189564088
-1.07273486328125,0.27014697265625,-0.0827543945312501,1.10931860326446,-0.6201171875,-4.37890625,-2.31298828125,46.55352941176471,314.6895189564088
-1.10252001953125,0.21887744140625,-0.0641997070312501,1.1258682561501734,-0.4423828125,-3.07177734375,-2.5341796875,46.27117647058824,314.4448401188022
-1.11912158203125,0.16907275390625,-0.0500395507812501,1.132926594322845,-0.2802734375,-2.12646484375,-2.70947265625,46.13,314.4448401188022
-1.12351611328125,0.10657275390625,-0.0432036132812501,1.1293860105731452,-0.09326171875,-1.56787109375,-2.73291015625,46.13,314.4448401188022
-1.14451220703125,0.05383837890625,-0.0402739257812501,1.1464853911780253,0.01123046875,-1.291015625,-2.55419921875,46.45941176470589,314.4448401188022
-1.14841845703125,0.01477587890625,-0.0168364257812501,1.148636907068799,0.1005859375,-1.14306640625,-2.2412109375,46.45941176470589,314.13239636778746
-1.14451220703125,-0.00622021484375,-0.0036528320312501,1.1445349388717208,0.15966796875,-1.0,-2.11083984375,46.45941176470589,314.13239636778746
-1.15525439453125,-0.01452099609375,0.0329682617187498,1.155815937635433,0.21728515625,-0.40185546875,-2.02392578125,46.97705882352941,314.13239636778746
-1.17087939453125,-0.02623974609375,0.0593354492187498,1.172675477848378,0.3271484375,0.18115234375,-1.86572265625,47.02411764705882,314.13239636778746
-1.18455126953125,-0.02721630859375,0.0642182617187498,1.1866028917627598,0.38232421875,0.94091796875,-1.603515625,46.27117647058824,314.13239636778746
-1.17966845703125,-0.00817333984375,0.0529877929687498,1.180886183424292,0.453125,1.748046875,-1.4287109375,45.80058823529412,314.3679561113661
-1.15378955078125,0.0284477539062499,0.0310151367187498,1.1545568591022235,0.49755859375,2.38427734375,-1.4375,46.41235294117647,314.3679561113661
-1.10886767578125,0.06555712890625,0.0061127929687498,1.1108206992043408,0.50732421875,2.7373046875,-1.5595703125,47.02411764705882,314.3679561113661
-1.03904345703125,0.10315478515625,-0.0143950195312501,1.0442506556796545,0.5830078125,2.7119140625,-1.81982421875,47.02411764705882,314.3679561113661
-1.07127001953125,0.13586962890625,-0.0407622070312501,1.0806209179576642,0.62451171875,2.345703125,-2.19873046875,47.02411764705882,314.7002685141346
-0.86326220703125,0.16663134765625,-0.0681059570312501,0.8818310867129517,0.63671875,1.8154296875,-2.6845703125,45.61235294117647,314.7002685141346
-0.81101611328125,0.17883837890625,-0.0988676757812501,0.8363642263308654,0.619140625,1.15966796875,-3.19482421875,45.70647058823529,314.7002685141346
-0.79539111328125,0.16614306640625,-0.1306059570312501,0.8229875197192887,0.5029296875,0.60009765625,-3.67626953125,47.02411764705882,314.7002685141346
-0.79343798828125,0.14905322265625,-0.1457426757812501,0.8203667667427108,0.29736328125,0.2333984375,-3.853515625,46.36529411764706,314.7002685141346
-0.77439501953125,0.12317431640625,-0.1618559570312501,0.8006602958330418,0.1015625,0.22216796875,-3.755859375,46.45941176470589,314.65563220287527
-0.72556689453125,0.10510791015625,-0.1550200195312501,0.7493505172298246,-0.08349609375,0.42578125,-3.58154296875,45.65941176470588,314.65563220287527
-0.67771533203125,0.07971728515625,-0.1393950195312501,0.6964796395394685,-0.14892578125,0.72607421875,-3.42236328125,47.02411764705882,314.65563220287527
-0.64353564453125,0.0304008789062499,-0.1135161132812501,0.6541775349207625,-0.15234375,0.42138671875,-3.25830078125,47.02411764705882,314.65563220287527
-0.67283251953125,-0.04528271484375,-0.0954497070312501,0.6810761852940843,-0.119140625,-0.369140625,-3.11669921875,46.36529411764706,314.7110180854176
-0.75095751953125,-0.11266552734375,-0.0666411132812501,0.7622806275719838,-0.0107421875,-1.34033203125,-2.9033203125,46.27117647058824,314.7110180854176
-0.84080126953125,-0.16247021484375,-0.0329497070312501,0.8569883480830888,0.1181640625,-2.326171875,-2.59716796875,46.41235294117647,314.7110180854176
-0.91550830078125,-0.18834912109375,0.0080659179687498,0.9347170155982176,0.2578125,-3.11572265625,-2.13525390625,47.02411764705882,314.7110180854176
-0.97361376953125,-0.20299755859375,0.0466401367187498,0.9956440545541448,0.30517578125,-3.50830078125,-1.640625,46.27117647058824,314.7110180854176
-1.00632861328125,-0.19664990234375,0.0925385742187498,1.0295299168643954,0.3115234375,-3.537109375,-1.19677734375,46.64764705882353,314.45558967994185
-1.02048876953125,-0.18004833984375,0.1311127929687499,1.0445119903093316,0.40576171875,-3.25048828125,-0.71240234375,46.45941176470589,314.45558967994185
-1.02830126953125,-0.17028271484375,0.1452729492187499,1.0523801279332727,0.42578125,-2.53369140625,-0.359375,45.70647058823529,314.45558967994185
-1.01707080078125,-0.14635693359375,0.1569916992187499,1.0394709036025822,0.435546875,-1.560546875,-0.1591796875,46.55352941176471,314.45558967994185
-0.99265673828125,-0.10729443359375,0.1516206054687499,1.0098852922674355,0.443359375,-0.51171875,-0.1318359375,45.70647058823529,314.8465670850456
-0.95652392578125,-0.06481396484375,0.1394135742187499,0.968800813019471,0.4423828125,0.45654296875,-0.21435546875,46.27117647058824,314.8465670850456
-0.91794970703125,-0.02721630859375,0.1193940429687498,0.9260817078361128,0.46240234375,1.13818359375,-0.3330078125,46.55352941176471,314.8465670850456
-0.87791064453125,0.0020805664062499,0.0905854492187498,0.8825741624067682,0.53173828125,1.54931640625,-0.6611328125,47.02411764705882,314.8465670850456
-0.85789111328125,0.0221000976562499,0.0481049804687498,0.85952292913526,0.57861328125,1.56982421875,-1.09716796875,46.27117647058824,314.8465670850456
-0.86130908203125,0.0196586914062499,0.0197846679687498,0.8617605421600333,0.61865234375,1.36767578125,-1.421875,46.27117647058824,314.3340704271608
-0.88035205078125,-0.00426708984375,-0.0134184570312501,0.8804646479896775,0.6669921875,0.59326171875,-1.43017578125,45.70647058823529,314.3340704271608
-0.89451220703125,-0.03405224609375,-0.0446684570312501,0.8962739062616405,0.66064453125,-0.14599609375,-1.20849609375,45.65941176470588,314.3340704271608
-0.90574267578125,-0.05309521484375,-0.0641997070312501,0.9095661047739086,0.607421875,-1.2119140625,-1.00634765625,46.36529411764706,314.3340704271608
-0.91599658203125,-0.06530224609375,-0.0715239257812501,0.9211024881070417,0.57763671875,-2.01123046875,-0.93505859375,46.55352941176471,314.8589559383082
-0.92966845703125,-0.08434521484375,-0.0539458007812501,0.935044226059834,0.5751953125,-2.4853515625,-1.00732421875,46.45941176470589,314.8589559383082
-0.96433642578125,-0.10875927734375,-0.0417387695312501,0.9713472331658096,0.57421875,-2.48876953125,-1.0498046875,46.36529411764706,314.8589559383082
-0.99216845703125,-0.13024365234375,-0.0334379882812501,1.0012391098853,0.56689453125,-2.0078125,-0.99267578125,45.61235294117647,314.8589559383082
-1.01072314453125,-0.15807568359375,-0.1472075195312501,1.033546927062972,0.6015625,-1.14501953125,-0.89501953125,46.36529411764706,314.8589559383082
-0.99998095703125,-0.18981396484375,-0.0173247070312501,1.01798398865039,0.587890625,-0.244140625,-0.94189453125,46.27117647058824,314.64488263903985
-0.97459033203125,-0.20006787109375,-0.0178129882812501,0.9950732490044516,0.599609375,0.83154296875,-1.26416015625,46.13,314.64488263903985
-0.96238330078125,-0.19567333984375,-0.0334379882812501,0.9826432580588536,0.60009765625,1.4033203125,-1.53857421875,46.55352941176471,314.64488263903985
-0.98533251953125,-0.20006787109375,-0.0558989257812501,1.0069915674886678,0.5810546875,1.3623046875,-1.50537109375,46.27117647058824,314.64488263903985
-1.02976611328125,-0.20983349609375,-0.0700590820312501,1.053259995974574,0.52783203125,0.78076171875,-1.11474609375,46.45941176470589,314.55724836602315
-1.05710986328125,-0.20397412109375,-0.0700590820312501,1.0788859903147932,0.4072265625,0.12255859375,-0.205078125,46.36529411764706,314.55724836602315
-0.98679736328125,-0.16100537109375,-0.0324614257812501,1.0003726854845725,0.376953125,-0.61962890625,0.123046875,46.41235294117647,314.55724836602315
-0.90476611328125,-0.09362255859375,0.0246674804687498,0.9099315291890792,0.400390625,-0.8193359375,-0.2763671875,46.41235294117647,314.55724836602315
-0.90427783203125,-0.04479443359375,0.0603120117187498,0.9073932320343177,0.50341796875,-0.38916015625,-1.04052734375,46.08294117647059,314.55724836602315
-0.92429736328125,-0.05456005859375,0.0681245117187498,0.9284090503971526,0.6552734375,0.56201171875,-1.634765625,47.02411764705882,314.2662997015493
-0.92429736328125,-0.06139599609375,0.0510346679687498,0.927738983464474,0.73583984375,1.7666015625,-2.6806640625,45.80058823529412,314.2662997015493
-0.89793017578125,-0.06041943359375,0.0061127929687498,0.899981374680729,0.611328125,3.17919921875,-3.7236328125,46.27117647058824,314.2662997015493
-0.90134814453125,-0.04918896484375,-0.0349028320312501,0.9033638467395784,0.552734375,3.93896484375,-4.39208984375,46.97705882352941,314.2662997015493
-0.92918017578125,-0.04625927734375,-0.1213286132812501,0.9382091196561628,0.53076171875,3.97412109375,-4.3408203125,47.02411764705882,314.4217038797924
-0.96433642578125,-0.03795849609375,-0.2136137695312501,0.9884414155869864,0.447265625,3.2314453125,-3.6787109375,47.02411764705882,314.4217038797924
-0.95896533203125,-0.03405224609375,-0.2868559570312501,1.0015290328223887,0.30126953125,1.55126953125,-2.904296875,45.70647058823529,314.4217038797924
-0.91697314453125,-0.01012646484375,-0.3156645507812501,0.9698383379211656,0.13671875,-0.29638671875,-2.36767578125,46.97705882352941,314.4217038797924
-0.85203173828125,-0.00817333984375,-0.2961333007812501,0.9020641985770016,0.08203125,-1.90478515625,-2.10791015625,46.27117647058824,314.4217038797924
-0.79832080078125,-0.02135693359375,-0.2433989257812501,0.8348743957290884,0.18310546875,-2.890625,-2.22607421875,46.55352941176471,314.61263402889625
-0.77781298828125,-0.04821240234375,-0.1730864257812501,0.7982959296329224,0.33837890625,-3.224609375,-2.67578125,47.02411764705882,314.61263402889625
-0.82078173828125,-0.08385693359375,-0.1047270507812501,0.8316744569680348,0.5517578125,-3.20263671875,-3.20361328125,46.41235294117647,314.61263402889625
-0.91892626953125,-0.14049755859375,-0.0656645507812501,0.9319210728568847,0.76953125,-2.98876953125,-3.244140625,45.61235294117647,314.61263402889625
-0.96775439453125,-0.20690380859375,-0.0290434570312501,0.9900511484471252,0.9267578125,-2.69677734375,-2.92041015625,46.27117647058824,314.31093452312
-0.95652392578125,-0.25622021484375,0.0134370117187498,0.9903369993948936,0.99951171875,-2.373046875,-2.7373046875,46.83588235294118,314.31093452312
-0.94578173828125,-0.28747021484375,0.0402924804687498,0.9893258840599184,1.05615234375,-1.7373046875,-2.7880859375,45.80058823529412,314.31093452312
-0.96873095703125,-0.30456005859375,0.0549409179687498,1.0169636182620096,1.1435546875,-1.34423828125,-2.9853515625,46.41235294117647,314.31093452312
-1.02000048828125,-0.32409130859375,0.0529877929687498,1.071561420826495,1.22314453125,-1.21435546875,-2.99658203125,47.02411764705882,314.31093452312
-1.05808642578125,-0.34704052734375,0.0617768554687498,1.1152579934316431,1.248046875,-1.396484375,-2.7890625,46.224117647058826,314.3448199733906
-1.05955126953125,-0.36559521484375,0.0798432617187498,1.1236919953100226,1.1640625,-1.49560546875,-2.50439453125,45.70647058823529,314.3448199733906
-1.03562548828125,-0.37780224609375,0.1281831054687499,1.1098133165802582,1.1376953125,-1.3017578125,-2.28173828125,47.02411764705882,314.3448199733906
-1.02537158203125,-0.39782177734375,0.1662690429687499,1.1123373779640566,1.087890625,-0.759765625,-2.1357421875,46.45941176470589,314.3448199733906
-1.02781298828125,-0.41588818359375,0.2077729492187499,1.128065653479264,1.0771484375,0.1513671875,-2.1591796875,45.65941176470588,314.6018845193042
-1.04441455078125,-0.41979443359375,0.2185151367187499,1.146637687037676,1.0283203125,1.20068359375,-2.13916015625,45.70647058823529,314.6018845193042
-1.05662158203125,-0.43493115234375,0.2258393554687499,1.1647393224974525,1.03125,2.21875,-2.17236328125,46.03588235294118,314.6018845193042
-1.05906298828125,-0.42809521484375,0.2238862304687499,1.164046807612492,1.0185546875,2.98583984375,-2.35205078125,46.08294117647059,314.6018845193042
-1.06394580078125,-0.40514599609375,0.1975190429687499,1.15548159547703,0.99267578125,3.40771484375,-2.59423828125,46.60058823529412,314.6018845193042
-1.06345751953125,-0.36998974609375,0.1657807617187499,1.138120190936847,1.046875,3.49267578125,-2.7802734375,45.70647058823529,314.4432030820817
-1.06394580078125,-0.33727490234375,0.1379487304687499,1.1246176590241597,1.080078125,3.4765625,-2.783203125,46.97705882352941,314.4432030820817
-1.03757861328125,-0.30309521484375,0.1135346679687498,1.0868883147916324,1.12939453125,3.59375,-2.79443359375,46.45941176470589,314.4432030820817
-0.99558642578125,-0.26159130859375,0.0876557617187498,1.0331049687685028,1.21484375,3.86962890625,-2.97119140625,46.224117647058826,314.4432030820817
-0.94334033203125,-0.22350537109375,0.0593354492187498,0.9712704713305016,1.28173828125,4.23291015625,-3.283203125,46.97705882352941,314.7142951683213
-0.91013720703125,-0.20104443359375,0.0266206054687498,0.932457643293892,1.37109375,4.7890625,-3.71728515625,45.61235294117647,314.7142951683213
-0.87156298828125,-0.19079052734375,-0.0109770507812501,0.8922687731338034,1.5029296875,5.1318359375,-4.10009765625,45.70647058823529,314.7142951683213
-0.85935595703125,-0.18248974609375,-0.0720122070312501,0.8814652155791337,1.69091796875,5.072265625,-4.23583984375,47.02411764705882,314.7142951683213
-0.84519580078125,-0.19274365234375,-0.1188872070312501,0.8750087000554669,1.8310546875,4.65478515625,-4.18505859375,45.70647058823529,314.7142951683213
-0.83982470703125,-0.20202099609375,-0.1882231445312501,0.8840508885466196,1.97607421875,4.013671875,-4.0205078125,46.55352941176471,314.423341037204
-0.81199267578125,-0.19909130859375,-0.2214262695312501,0.8648693817672654,2.0537109375,2.8740234375,-3.83251953125,46.83588235294118,314.423341037204
-0.81345751953125,-0.19372021484375,-0.2399809570312501,0.8699606413273403,2.1552734375,1.30517578125,-3.705078125,46.27117647058824,314.423341037204
-0.81785205078125,-0.19713818359375,-0.2580473632812501,0.8799624322061397,2.07080078125,0.1318359375,-3.5205078125,46.45941176470589,314.423341037204
-0.80808642578125,-0.20690380859375,-0.2277739257812501,0.8646929043355897,2.16845703125,-0.45166015625,-3.29541015625,46.55352941176471,314.51261240124853
-0.79246142578125,-0.26500927734375,-0.2023833007812501,0.8597581223022102,2.18408203125,-0.55712890625,-3.12109375,46.41235294117647,314.51261240124853
-0.78806689453125,-0.32360302734375,-0.1608793945312501,0.8669778135263381,2.142578125,-0.50732421875,-2.4951171875,46.97705882352941,314.51261240124853
-0.70701220703125,-0.37438427734375,-0.1315825195312501,0.810767418844389,1.9521484375,-0.2568359375,-1.67333984375,45.70647058823529,314.51261240124853
-0.69382861328125,-0.40368115234375,-0.0622465820312501,0.8051280980936719,1.92333984375,0.5810546875,-1.38427734375,45.70647058823529,314.51261240124853
-0.46433642578125,-0.44567333984375,-0.0412504882812501,0.6449299535129613,2.11767578125,1.9423828125,-1.66015625,46.97705882352941,314.50186289299944
-0.42869189453125,-0.52282177734375,-0.0461333007812501,0.6776781188312364,2.2412109375,3.5341796875,-2.23974609375,46.45941176470589,314.50186289299944
-0.44285205078125,-0.60924755859375,-0.0817778320312501,0.7576200501209924,2.375,4.47900390625,-2.5830078125,45.65941176470588,314.50186289299944
-0.47361376953125,-0.66051708984375,-0.1555083007812501,0.8275117281810139,2.2060546875,3.92822265625,-2.57177734375,46.13,314.50186289299944
-0.51609423828125,-0.65368115234375,-0.2082426757812501,0.8584971308822711,1.82666015625,1.63427734375,-2.6142578125,46.36529411764706,314.38034303671327
-0.58250048828125,-0.60338818359375,-0.2297270507812501,0.8695738248182904,1.4375,-1.82080078125,-2.6298828125,46.41235294117647,314.38034303671327
-0.65818408203125,-0.56969677734375,-0.1804106445312501,0.8889930846836518,1.04150390625,-5.361328125,-2.4697265625,47.02411764705882,314.38034303671327
-0.76023486328125,-0.54772412109375,-0.0734770507812501,0.939871074758497,0.76416015625,-7.5869140625,-2.205078125,46.27117647058824,314.38034303671327
-0.85398486328125,-0.53844677734375,0.0461518554687498,1.0106161845669075,0.650390625,-7.8984375,-1.9345703125,45.80058823529412,314.38034303671327
-0.82615283203125,-0.52868115234375,0.1423432617187499,0.991107394217954,0.71630859375,-6.73095703125,-1.783203125,45.80058823529412,314.37706869344754
-1.00730517578125,-0.52868115234375,0.2014252929687499,1.1553093207651173,0.8359375,-4.22265625,-1.68115234375,45.70647058823529,314.37706869344754
-1.01560595703125,-0.54088818359375,0.2028901367187499,1.168409129837002,1.05029296875,-1.06396484375,-1.5966796875,45.61235294117647,314.37706869344754
-0.97898486328125,-0.56139599609375,0.1672456054687499,1.140854030764896,1.25830078125,1.86376953125,-1.43310546875,45.84764705882353,314.37706869344754
-0.93064501953125,-0.60534130859375,0.1057221679687498,1.1152199016643878,1.44140625,3.98046875,-1.26416015625,47.02411764705882,314.31420868191793
-0.86668017578125,-0.64049755859375,0.0305268554687498,1.0781018219823129,1.5615234375,4.70556640625,-1.37451171875,46.36529411764706,314.31420868191793
-0.78757861328125,-0.67760693359375,-0.0163481445312501,1.0390854105327223,1.5732421875,4.13720703125,-1.5283203125,46.45941176470589,314.31420868191793
-0.73435595703125,-0.72789990234375,-0.0490629882812501,1.035144490531834,1.45703125,2.8974609375,-1.89599609375,45.70647058823529,314.31420868191793
-0.71433642578125,-0.75866162109375,-0.0554106445312501,1.0435105768730362,1.3388671875,1.93115234375,-2.2041015625,45.80058823529412,314.31420868191793
-0.69871142578125,-0.78942333984375,-0.0378325195312501,1.0549019696357622,1.23876953125,1.36376953125,-2.4248046875,46.36529411764706,314.0802848540708
-0.70261767578125,-0.80895458984375,-0.0349028320312501,1.0720528599063188,1.11767578125,1.3671875,-2.55712890625,47.02411764705882,314.0802848540708
-0.69675830078125,-0.80407177734375,-0.0207426757812501,1.0641587341308052,0.95361328125,0.8779296875,-2.45654296875,46.97705882352941,314.0802848540708
-0.69334033203125,-0.78991162109375,-0.0109770507812501,1.0510954670266703,0.7841796875,0.412109375,-2.23779296875,46.45941176470589,314.0802848540708
-0.68015673828125,-0.76696240234375,-0.0109770507812501,1.0251658455499475,0.6142578125,-0.2822265625,-1.9775390625,46.55352941176471,314.6002465101873
-0.66404345703125,-0.74498974609375,0.0066010742187498,0.9980015074095254,0.41552734375,-1.10107421875,-1.81298828125,46.83588235294118,314.6002465101873
-0.65183642578125,-0.72545849609375,0.0295502929687498,0.975732532687324,0.2509765625,-1.72021484375,-1.69140625,46.27117647058824,314.6002465101873
-0.65476611328125,-0.70885693359375,0.0573823242187498,0.9666899950543164,0.1474609375,-1.95849609375,-1.5087890625,46.45941176470589,314.6002465101873
-0.73777392578125,-0.66491162109375,0.0954682617187498,0.997763508264256,0.099609375,-0.751953125,-0.30322265625,46.41235294117647,314.5820241248973
-0.72849658203125,-0.65075146484375,0.0857026367187498,0.98057619845071,0.05908203125,-0.60107421875,-0.37353515625,46.97705882352941,314.5820241248973
-0.71140673828125,-0.63854443359375,0.0744721679687498,0.9588454749058868,0.111328125,-0.4599609375,-0.2216796875,46.36529411764706,314.5820241248973
-0.69480517578125,-0.62389599609375,0.0642182617187498,0.9360151875757168,0.11083984375,-0.3486328125,-0.24267578125,47.02411764705882,314.5820241248973
-0.68943408203125,-0.60045849609375,0.0510346679687498,0.9156824211112284,0.16796875,-0.13916015625,-0.39208984375,46.55352941176471,314.5820241248973
-0.69236376953125,-0.59215771484375,0.0319916992187498,0.9116149501995876,0.150390625,-0.04248046875,-0.5947265625,45.70647058823529,314.8374570601805
-0.70554736328125,-0.62438427734375,0.0183198242187498,0.9423313767388874,0.1162109375,-0.14306640625,-0.6376953125,45.80058823529412,314.8374570601805
-0.71921923828125,-0.68590771484375,0.0212495117187498,0.9940811072263278,0.0078125,-0.15087890625,-0.36376953125,45.70647058823529,314.8374570601805
-0.71043017578125,-0.71081005859375,0.0471284179687498,1.006073089710119,-0.052734375,0.017578125,0.0546875,45.65941176470588,314.8374570601805
-0.70066455078125,-0.70299755859375,0.0764252929687498,0.9954783802351628,-0.06591796875,0.3359375,0.37353515625,46.224117647058826,314.8374570601805
-0.69578173828125,-0.69909130859375,0.0988862304687498,0.991271593284766,0.0361328125,0.796875,0.65234375,46.45941176470589,314.40020473174644
-0.68064501953125,-0.68590771484375,0.1052338867187498,0.9720191391165122,0.1689453125,1.41357421875,0.869140625,45.98882352941177,314.40020473174644
-0.68015673828125,-0.66198193359375,0.0866791992187498,0.953072165479148,0.26416015625,1.79296875,0.9208984375,45.61235294117647,314.40020473174644
-0.68894580078125,-0.65709912109375,0.0612885742187498,0.9540345175548228,0.29345703125,1.87841796875,0.892578125,46.83588235294118,314.40020473174644
-0.69138720703125,-0.67272412109375,0.0363862304687498,0.96534862661919,0.28857421875,1.68603515625,0.96826171875,46.224117647058826,314.6589089805904
-0.71140673828125,-0.69664990234375,0.0300385742187498,0.9961540792711832,0.29345703125,1.40869140625,1.2421875,46.55352941176471,314.6589089805904
-0.73923876953125,-0.74157177734375,0.0305268554687498,1.0475373731927922,0.337890625,1.05712890625,1.6748046875,46.97705882352941,314.6589089805904
-0.75632861328125,-0.78112255859375,0.0285737304687498,1.0876588991429648,0.330078125,0.8857421875,2.095703125,45.80058823529412,314.6589089805904
-0.74314501953125,-0.80016552734375,0.0183198242187498,1.0921835959044657,0.36328125,1.1103515625,2.47998046875,45.80058823529412,314.6589089805904
-0.72312548828125,-0.80602490234375,0.0012299804687498,1.0828610842819135,0.37060546875,1.5068359375,2.75,46.36529411764706,314.4018420098394
-0.67869189453125,-0.78063427734375,-0.0129301757812501,1.0344949260929943,0.33642578125,2.0869140625,3.1845703125,46.45941176470589,314.4018420098394
-0.61619189453125,-0.75231396484375,-0.0270903320312501,0.9728322767437856,0.2373046875,2.30322265625,3.32958984375,46.55352941176471,314.4018420098394
-0.56931689453125,-0.70592724609375,-0.0475981445312501,0.9081412811556526,0.125,2.189453125,3.1669921875,45.70647058823529,314.4018420098394
-0.54002001953125,-0.65368115234375,-0.0466215820312501,0.849172681105016,-0.02587890625,1.876953125,2.72900390625,45.65941176470588,314.3125713753726
-0.60984423828125,-0.61364208984375,-0.0524809570312501,0.866729981161122,-0.17724609375,1.44775390625,2.32080078125,45.61235294117647,314.3125713753726
-0.71384814453125,-0.59362255859375,-0.0685942382812501,0.9309522463840364,-0.32666015625,1.064453125,2.32568359375,47.02411764705882,314.3125713753726
-0.78904345703125,-0.58776318359375,-0.0768950195312501,0.9868981614638856,-0.42919921875,0.732421875,2.54443359375,46.224117647058826,314.3125713753726
-0.80710986328125,-0.57213818359375,-0.0930083007812501,0.993689577557322,-0.49169921875,0.50537109375,2.58251953125,46.27117647058824,314.3125713753726
-0.79783251953125,-0.55797802734375,-0.1003325195312501,0.9787455352110138,-0.52490234375,0.291015625,2.39990234375,46.97705882352941,314.1894163748193
-0.79490283203125,-0.56188427734375,-0.0969145507812501,0.97825195305225,-0.5107421875,0.16015625,2.23486328125,46.97705882352941,314.1894163748193
-0.78904345703125,-0.56676708984375,-0.0920317382812501,0.9758505787592936,-0.509765625,0.19677734375,2.1416015625,46.36529411764706,314.1894163748193
-0.80076220703125,-0.57995068359375,-0.0891020507812501,0.9927245756320536,-0.49462890625,0.26416015625,2.0029296875,45.84764705882353,314.1894163748193
-0.81443408203125,-0.59264599609375,-0.0978911132812501,1.0119855832567382,-0.52001953125,0.28515625,2.1923828125,45.65941176470588,314.6911573913907
-0.79002001953125,-0.60338818359375,-0.1022856445312501,0.9993354213865808,-0.6123046875,0.3896484375,2.2890625,46.55352941176471,314.6911573913907
-0.73484423828125,-0.60289990234375,-0.0832426757812501,0.954156009179042,-0.6767578125,0.73291015625,2.349609375,46.224117647058826,314.6911573913907
-0.73044970703125,-0.58190380859375,-0.0783598632812501,0.9371814579532648,-0.720703125,0.998046875,2.2548828125,47.02411764705882,314.6911573913907
-0.77341845703125,-0.55944287109375,-0.1154692382812501,0.9615017320231252,-0.78564453125,0.82177734375,2.22509765625,46.36529411764706,314.6911573913907
-0.79539111328125,-0.53356396484375,-0.1491606445312501,0.9693226632775832,-0.91748046875,0.33056640625,2.23486328125,45.70647058823529,314.6712974472723
-0.78709033203125,-0.50719677734375,-0.1599028320312501,0.94990982593958,-1.0546875,-0.16650390625,2.33740234375,46.88294117647059,314.6712974472723
-0.76609423828125,-0.47399365234375,-0.1423247070312501,0.9120453314509248,-1.1015625,-0.39697265625,2.5322265625,47.02411764705882,314.6712974472723
-0.75388720703125,-0.44079052734375,-0.1193754882812501,0.8814151786324915,-1.1259765625,-0.353515625,2.66845703125,46.36529411764706,314.6712974472723
-0.76462939453125,-0.41198193359375,-0.1057036132812501,0.8749631297658109,-1.08154296875,-0.24169921875,2.57373046875,46.83588235294118,314.3712314839084
-0.79539111328125,-0.38707958984375,-0.1017973632812501,0.8904158214741059,-1.03076171875,-0.29248046875,2.26123046875,46.60058823529412,314.3712314839084
-0.83103564453125,-0.36413037109375,-0.1140043945312501,0.9144441872562694,-1.0126953125,-0.51953125,1.9228515625,46.41235294117647,314.3712314839084
-0.85252001953125,-0.34606396484375,-0.1159575195312501,0.9273601230378516,-1.01416015625,-0.86572265625,1.83056640625,46.97705882352941,314.3712314839084
-0.86082080078125,-0.32897412109375,-0.0988676757812501,0.926828592956359,-1.02001953125,-1.22900390625,2.06787109375,46.224117647058826,314.3712314839084
-0.85935595703125,-0.31188427734375,-0.0939848632812501,0.9190199224528944,-0.9873046875,-1.43798828125,2.22314453125,46.36529411764706,314.62338355205526
-0.85544970703125,-0.27575146484375,-0.0832426757812501,0.9026419083415902,-0.92724609375,-1.42138671875,2.0380859375,46.41235294117647,314.62338355205526
-0.86375048828125,-0.24938427734375,-0.0690825195312501,0.9016816612847064,-0.7998046875,-1.29736328125,1.56103515625,45.70647058823529,314.62338355205526
-0.89597705078125,-0.25133740234375,-0.0646879882812501,0.932807537046869,-0.70166015625,-1.11572265625,1.20166015625,45.70647058823529,314.62338355205526
-0.92478564453125,-0.27331005859375,-0.0690825195312501,0.966798464502496,-0.59326171875,-0.88916015625,1.08349609375,46.13,314.2571868292188
-0.93259814453125,-0.27916943359375,-0.0690825195312501,0.9759340481512934,-0.51318359375,-0.73193359375,1.08447265625,46.41235294117647,314.2571868292188
-0.93894580078125,-0.27770458984375,-0.0739653320312501,0.9819419159846072,-0.478515625,-0.75048828125,1.1064453125,46.55352941176471,314.2571868292188
-0.93259814453125,-0.28698193359375,-0.0827543945312501,0.979257994201003,-0.44482421875,-0.88134765625,1.1806640625,46.08294117647059,314.2571868292188
-0.92136767578125,-0.29088818359375,-0.0900786132812501,0.9703857407751244,-0.4580078125,-1.03515625,1.2138671875,46.97705882352941,314.2571868292188
-0.89793017578125,-0.28893505859375,-0.0842192382812501,0.9470242598581065,-0.5048828125,-1.0908203125,1.16259765625,45.80058823529412,314.40347974223
-0.88230517578125,-0.28551708984375,-0.0847075195312501,0.9312130774792436,-0.52734375,-0.98291015625,1.091796875,45.65941176470588,314.40347974223
-0.86765673828125,-0.29528271484375,-0.0641997070312501,0.9187718430346304,-0.52734375,-0.75732421875,0.95947265625,46.27117647058824,314.40347974223
-0.87742236328125,-0.30651318359375,-0.0602934570312501,0.93137298450385,-0.53857421875,-0.466796875,0.80517578125,46.97705882352941,314.40347974223
-0.89841845703125,-0.31579052734375,-0.0749418945312501,0.955246391592446,-0.53564453125,-0.09765625,0.66748046875,46.27117647058824,314.26793634088176
-0.91941455078125,-0.31530224609375,-0.0964262695312501,0.9767479961769896,-0.56689453125,0.123046875,0.6083984375,46.97705882352941,314.26793634088176
-0.92332080078125,-0.30748974609375,-0.1262114257812501,0.9813259239956232,-0.58203125,-0.18994140625,0.59423828125,46.45941176470589,314.26793634088176
-0.89451220703125,-0.29870068359375,-0.1340239257812501,0.9525421773281798,-0.634765625,-0.544921875,0.56103515625,46.45941176470589,314.26793634088176
-0.86912158203125,-0.28209912109375,-0.1340239257812501,0.9235337845234396,-0.65966796875,-0.90625,0.53466796875,46.55352941176471,314.26793634088176
-0.86716845703125,-0.27428662109375,-0.1125395507812501,0.9164493624150932,-0.650390625,-1.18994140625,0.48388671875,47.02411764705882,314.5803855407867
-0.86912158203125,-0.26354443359375,-0.1008208007812501,0.9137794190618028,-0.62646484375,-1.27294921875,0.37841796875,46.224117647058826,314.5803855407867
-0.88767626953125,-0.25329052734375,-0.0886137695312501,0.9273497996341666,-0.5625,-1.166015625,0.20458984375,46.36529411764706,314.5803855407867
-0.91160205078125,-0.24791943359375,-0.0851958007812501,0.9485466087719596,-0.44677734375,-1.015625,0.00390625,45.80058823529412,314.5803855407867
-0.92185595703125,-0.24938427734375,-0.0778715820312501,0.9581622548338647,-0.37060546875,-0.91259765625,-0.11474609375,46.97705882352941,314.6712974472723
-0.91599658203125,-0.25768505859375,-0.0700590820312501,0.9541276658238448,-0.263671875,-0.8974609375,-0.15869140625,45.70647058823529,314.6712974472723
-0.91306689453125,-0.26647412109375,-0.0627348632812501,0.9532236223324224,-0.15869140625,-0.8408203125,-0.14599609375,46.224117647058826,314.6712974472723
-0.90720751953125,-0.27233349609375,-0.0485747070312501,0.9484463710468082,-0.0546875,-0.79541015625,-0.17626953125,46.224117647058826,314.6712974472723
-0.90671923828125,-0.27965771484375,-0.0524809570312501,0.9503170341480124,0.04150390625,-0.716796875,-0.234375,46.36529411764706,314.6712974472723
-0.91355517578125,-0.28161083984375,-0.0505278320312501,0.9573091382223357,0.1083984375,-0.6689453125,-0.34619140625,46.224117647058826,314.70354571771963
-0.91648486328125,-0.29577099609375,-0.0451567382812501,0.9640871940681204,0.17919921875,-0.61962890625,-0.3642578125,46.97705882352941,314.70354571771963
-0.90574267578125,-0.31286083984375,-0.0534575195312501,0.959744448399442,0.2412109375,-0.50732421875,-0.33740234375,46.36529411764706,314.70354571771963
-0.89255908203125,-0.32457958984375,-0.0422270507812501,0.9506822544243092,0.2763671875,-0.298828125,-0.32763671875,46.224117647058826,314.70354571771963
-0.88425830078125,-0.33873974609375,-0.0353911132812501,0.9475810725122616,0.345703125,-0.01416015625,-0.3046875,45.65941176470588,314.8374570601805
-0.87791064453125,-0.35143505859375,-0.0305083007812501,0.9461313104461908,0.40673828125,0.28271484375,-0.30712890625,46.97705882352941,314.8374570601805
-0.88035205078125,-0.24254833984375,-0.0334379882812501,0.9137655769047162,0.47509765625,0.47265625,-0.26318359375,45.61235294117647,314.8374570601805
-0.88523486328125,-0.38707958984375,-0.0285551757812501,0.966585107533774,0.52734375,0.52001953125,-0.17626953125,46.45941176470589,314.8374570601805
-0.87888720703125,-0.39586865234375,-0.0378325195312501,0.9646688613849472,0.5537109375,0.39794921875,-0.10205078125,46.97705882352941,314.8374570601805
-0.87839892578125,-0.40221630859375,-0.0446684570312501,0.9671390296984138,0.53369140625,0.2236328125,-0.0654296875,47.02411764705882,314.42497864890834
-0.87595751953125,-0.40465771484375,-0.0392973632812501,0.9657089235203145,0.5146484375,0.0986328125,-0.10205078125,47.02411764705882,314.42497864890834
-0.88132861328125,-0.40026318359375,-0.0417387695312501,0.9688616338832072,0.50390625,0.134765625,-0.15087890625,46.224117647058826,314.42497864890834
-0.87693408203125,-0.40954052734375,-0.0363676757812501,0.9685346847721656,0.4912109375,0.2978515625,-0.248046875,46.45941176470589,314.42497864890834
-0.87205126953125,-0.41491162109375,-0.0441801757812501,0.966735205701008,0.4912109375,0.56396484375,-0.0703125,46.45941176470589,314.5911350232693
-0.86277392578125,-0.41539990234375,-0.0451567382812501,0.9586318672396552,0.50830078125,0.8037109375,-0.06640625,46.55352941176471,314.5911350232693
-0.84910205078125,-0.41930615234375,-0.0495512695312501,0.9482864917030102,0.51025390625,0.97900390625,-0.09033203125,45.70647058823529,314.5911350232693
-0.84324267578125,-0.42760693359375,-0.0539458007812501,0.9470037219241022,0.52099609375,0.95703125,-0.13037109375,47.02411764705882,314.5911350232693
-0.84470751953125,-0.42516552734375,-0.0671293945312501,0.9480521477240892,0.5107421875,0.7548828125,-0.15185546875,47.02411764705882,314.5911350232693
-0.85935595703125,-0.41881787109375,-0.0700590820312501,0.9585454318954622,0.4462890625,0.380859375,-0.1435546875,46.27117647058824,314.55724836602315
-0.87009814453125,-0.41295849609375,-0.0808012695312501,0.9665062574916924,0.38818359375,-0.10888671875,-0.11474609375,45.89470588235295,314.55724836602315
-0.88035205078125,-0.41100537109375,-0.0788481445312501,0.9747626266320866,0.32275390625,-0.5068359375,-0.05224609375,45.61235294117647,314.55724836602315
-0.88523486328125,-0.40954052734375,-0.0641997070312501,0.977489544234857,0.28125,-0.68896484375,-0.07958984375,46.55352941176471,314.55724836602315
-0.88523486328125,-0.41491162109375,-0.0471098632812501,0.9787807495581404,0.2890625,-0.6142578125,-0.1171875,47.02411764705882,314.2141889181679
-0.88425830078125,-0.42516552734375,-0.0329497070312501,0.981714903286834,0.31591796875,-0.14990234375,-0.1630859375,46.45941176470589,314.2141889181679
-0.86521533203125,-0.43395458984375,-0.0124418945312501,0.968023221605727,0.39794921875,0.64013671875,-0.16796875,46.41235294117647,314.2141889181679
-0.85691455078125,-0.42418896484375,-0.0139067382812501,0.9562594954328384,0.47314453125,1.19482421875,-0.07666015625,45.65941176470588,314.2141889181679
-0.86130908203125,-0.42370068359375,-0.0466215820312501,0.961014659606409,0.48291015625,1.23193359375,0.0673828125,46.41235294117647,314.2141889181679
-0.84763720703125,-0.41247021484375,-0.0666411132812501,0.9450193388795554,0.4248046875,0.8388671875,0.15087890625,46.224117647058826,314.06953539188453
-0.82273486328125,-0.39733349609375,-0.0808012695312501,0.9172215694881805,0.34814453125,0.32421875,0.134765625,47.02411764705882,314.06953539188453
-0.79539111328125,-0.38561474609375,-0.0725004882812501,0.8869059004723969,0.23876953125,-0.05322265625,0.10986328125,45.61235294117647,314.06953539188453
-0.79441455078125,-0.38073193359375,-0.0568754882812501,0.8827718306098363,0.19384765625,-0.09765625,0.14208984375,47.02411764705882,314.06953539188453
-0.80320361328125,-0.39049755859375,-0.0441801757812501,0.8941902904794914,0.2060546875,0.12841796875,0.1044921875,47.02411764705882,314.2034394743005
-0.82224658203125,-0.40368115234375,-0.0388090820312501,0.9168173532758634,0.22021484375,0.3935546875,0.0078125,46.45941176470589,314.2034394743005
-0.84421923828125,-0.41881787109375,-0.0505278320312501,0.9437518705896444,0.2275390625,0.52880859375,-0.03759765625,46.27117647058824,314.2034394743005
-0.86326220703125,-0.44079052734375,-0.0558989257812501,0.970897840654692,0.2265625,0.4306640625,0.01953125,45.61235294117647,314.2034394743005
-0.87791064453125,-0.44713818359375,-0.0695708007812501,0.987673909410458,0.1962890625,-0.0341796875,0.18603515625,45.61235294117647,314.2034394743005
-0.88328173828125,-0.44762646484375,-0.0817778320312501,0.9936013763181848,0.13037109375,-0.73388671875,0.361328125,45.70647058823529,314.5464988638836
-0.87693408203125,-0.42858349609375,-0.0749418945312501,0.9789348726589864,0.013671875,-1.55615234375,0.55859375,47.02411764705882,314.5464988638836
-0.88425830078125,-0.41393505859375,-0.0651762695312501,0.9785207822747378,-0.0615234375,-2.15234375,0.76318359375,46.27117647058824,314.5464988638836
-0.89402392578125,-0.39733349609375,-0.0251372070312501,0.978664685254726,-0.0703125,-2.29052734375,0.8681640625,45.80058823529412,314.5464988638836
-0.90964892578125,-0.40270458984375,0.0212495117187498,0.9950294953439774,-0.00927734375,-1.94775390625,0.92333984375,45.80058823529412,314.2571868292188
-0.91843798828125,-0.41735302734375,0.0412690429687498,1.009660844867552,0.0712890625,-1.07373046875,0.91015625,46.83588235294118,314.2571868292188
-0.91550830078125,-0.41393505859375,0.0495698242187498,1.0059596656951315,0.13623046875,0.11767578125,0.75927734375,46.41235294117647,314.2571868292188
-0.89744189453125,-0.40416943359375,0.0422456054687498,0.9851596704558876,0.17626953125,1.15625,0.59326171875,46.27117647058824,314.2571868292188
-0.88035205078125,-0.39782177734375,0.0066010742187498,0.966087715491991,0.1787109375,1.77197265625,0.501953125,46.224117647058826,314.2571868292188
-0.86277392578125,-0.38952099609375,-0.0241606445312501,0.9469367403105776,0.1220703125,1.7587890625,0.70166015625,46.36529411764706,314.515888930665
-0.85007861328125,-0.37243115234375,-0.0617583007812501,0.9301358501367712,0.0322265625,1.3359375,0.65380859375,46.27117647058824,314.515888930665
-0.82712939453125,-0.35241162109375,-0.0778715820312501,0.90244167083951,-0.05322265625,0.69482421875,0.44482421875,46.45941176470589,314.515888930665
-0.83250048828125,-0.34118115234375,-0.0837309570312501,0.9035886867754032,-0.11865234375,0.1552734375,0.20556640625,45.61235294117647,314.515888930665
-0.84763720703125,-0.33873974609375,-0.0764067382812501,0.9160084278990972,-0.1767578125,-0.1318359375,0.193359375,46.36529411764706,314.54813717471126
-0.87595751953125,-0.33483349609375,-0.0715239257812501,0.9404949325163136,-0.212890625,-0.2119140625,0.38232421875,46.41235294117647,314.54813717471126
-0.87107470703125,-0.33581005859375,-0.0685942382812501,0.9360794358427604,-0.2314453125,-0.1337890625,0.580078125,47.02411764705882,314.54813717471126
-0.84910205078125,-0.34166943359375,-0.0500395507812501,0.9166331060656644,-0.189453125,0.10400390625,0.64306640625,46.88294117647059,314.54813717471126
-0.84666064453125,-0.35973583984375,-0.0334379882812501,0.92052279739638,-0.12841796875,0.4287109375,0.62255859375,45.61235294117647,314.54813717471126
-0.86277392578125,-0.37291943359375,-0.0339262695312501,0.9405310960963388,-0.0107421875,0.73095703125,0.626953125,46.45941176470589,314.3158464427559
-0.88279345703125,-0.37633740234375,-0.0607817382812501,0.961586474472534,0.12451171875,0.8759765625,0.96826171875,47.02411764705882,314.3158464427559
-0.88425830078125,-0.37096630859375,-0.0739653320312501,0.961769002908032,0.1904296875,0.703125,1.15625,45.61235294117647,314.3158464427559
-0.86765673828125,-0.36706005859375,-0.0881254882812501,0.9462174188760812,0.2919921875,0.30615234375,1.287109375,45.61235294117647,314.3158464427559
-0.84177783203125,-0.36315380859375,-0.0788481445312501,0.9201563112272818,0.34521484375,-0.03076171875,1.30517578125,47.02411764705882,314.56963607186617
-0.83005908203125,-0.35778271484375,-0.0637114257812501,0.9061267551941092,0.40185546875,-0.06103515625,1.26708984375,46.41235294117647,314.56963607186617
-0.82664111328125,-0.34606396484375,-0.0505278320312501,0.8975794448069869,0.439453125,0.1845703125,1.224609375,46.27117647058824,314.56963607186617
-0.83787158203125,-0.33825146484375,-0.0368559570312501,0.904323616308444,0.4638671875,0.4833984375,1.20654296875,47.02411764705882,314.56963607186617
-0.84373095703125,-0.32311474609375,-0.0461333007812501,0.9046620078444052,0.42138671875,0.64794921875,1.14794921875,46.224117647058826,314.56963607186617
-0.85056689453125,-0.30651318359375,-0.0651762695312501,0.9064559117239628,0.3662109375,0.64697265625,1.04443359375,46.41235294117647,314.3695935704884
-0.87791064453125,-0.29186474609375,-0.0959379882812501,0.9301162440195836,0.26953125,0.42626953125,0.97509765625,47.02411764705882,314.3695935704884
-0.90720751953125,-0.28258740234375,-0.1183989257812501,0.9575486562486452,0.193359375,-0.02587890625,0.9052734375,46.41235294117647,314.3695935704884
-0.91746142578125,-0.28551708984375,-0.1423247070312501,0.9713453549695594,0.107421875,-0.37841796875,0.75,46.97705882352941,314.3695935704884
-0.91453173828125,-0.28600537109375,-0.1486723632812501,0.96967563866575,-0.00830078125,-0.92529296875,0.94287109375,46.97705882352941,314.5266383317899
-0.92869189453125,-0.27379833984375,-0.1491606445312501,0.9796341479073776,-0.0625,-1.298828125,1.00927734375,47.02411764705882,314.5266383317899
-0.96482470703125,-0.27526318359375,-0.1476958007812501,1.0141353879578991,-0.06591796875,-1.46435546875,1.26025390625,46.27117647058824,314.5266383317899
-0.99802783203125,-0.29821240234375,-0.1618559570312501,1.0541288067627834,-0.04345703125,-1.2900390625,1.671875,45.61235294117647,314.5266383317899
-0.99900439453125,-0.35143505859375,-0.1608793945312501,1.0711669152313676,0.087890625,-0.68994140625,2.17578125,46.97705882352941,314.5266383317899
-0.96091845703125,-0.42956005859375,-0.1872465820312501,1.0690871842299718,0.17724609375,0.23486328125,2.7509765625,45.70647058823529,314.6836862611375
-0.91111376953125,-0.57067333984375,-0.2028715820312501,1.0940535821584454,0.12255859375,1.00732421875,3.8662109375,45.61235294117647,314.6836862611375
-0.83982470703125,-0.68932568359375,-0.2365629882812501,1.1119521050956604,-0.40380859375,1.642578125,5.10986328125,45.61235294117647,314.6836862611375
-0.60300830078125,-0.72155224609375,-0.2155668945312501,0.9647412817288752,-0.76806640625,0.888671875,5.66357421875,46.97705882352941,314.6836862611375
-0.28611376953125,-0.64879833984375,-0.1618559570312501,0.7273222983835221,-0.962890625,-0.70751953125,4.5126953125,46.97705882352941,314.3265958411851
-0.14451220703125,-0.53991162109375,-0.1306059570312501,0.5739740870328317,-1.02880859375,-2.009765625,2.5498046875,46.45941176470589,314.3265958411851
-0.33884814453125,-0.47985302734375,-0.1276762695312501,0.6011474217732693,-1.35693359375,-3.01708984375,1.7822265625,46.224117647058826,314.3265958411851
-0.67771533203125,-0.40368115234375,-0.0773833007812501,0.7926188991360267,-1.64599609375,-3.822265625,2.31005859375,47.02411764705882,314.3265958411851
-0.94187548828125,-0.28502880859375,0.0051362304687498,0.9840717646680264,-1.59033203125,-4.07177734375,2.625,45.61235294117647,314.3265958411851
-1.15427783203125,-0.14538037109375,0.1042573242187498,1.1680592260118372,-1.25634765625,-3.89599609375,1.77001953125,46.41235294117647,314.3265958411851
-1.32566455078125,-0.05211865234375,0.2043549804687499,1.342335208940958,-0.701171875,-2.83203125,0.65283203125,46.45941176470589,314.3265958411851
-1.42771533203125,-0.00963818359375,0.3171479492187499,1.462548045567648,-0.10595703125,-1.12158203125,0.662109375,47.02411764705882,314.3265958411851
-1.42722705078125,0.0235649414062499,0.4240815429687499,1.489086134524118,0.53759765625,1.1318359375,1.84228515625,46.27117647058824,314.3265958411851
-1.33787158203125,0.05774462890625,0.5075776367187499,1.4320858457059449,1.2880859375,3.408203125,3.3515625,46.224117647058826,314.0034021788271
-1.16013720703125,0.10510791015625,0.5349213867187499,1.2818373149057545,2.08251953125,5.60205078125,4.3271484375,46.97705882352941,314.0034021788271
-0.98777392578125,0.12952197265625,0.4870698242187499,1.1089230286717615,2.73095703125,7.21044921875,4.61962890625,46.27117647058824,314.0034021788271
-0.88572314453125,0.12659228515625,0.3972260742187499,0.9789380212549958,2.89697265625,7.9912109375,3.9453125,45.65941176470588,314.0034021788271
-0.91306689453125,0.12024462890625,0.3029877929687499,0.9695109733044884,2.79638671875,8.06201171875,3.1962890625,46.88294117647059,314.0034021788271
-1.03513720703125,0.05432666015625,0.1848237304687499,1.0529103640522182,2.466796875,7.79052734375,2.92431640625,46.36529411764706,314.28196038695853
-1.10691455078125,-0.04918896484375,0.0852143554687498,1.1112789313991382,1.9326171875,7.45654296875,3.3154296875,46.36529411764706,314.28196038695853
-1.13132861328125,-0.13219677734375,0.0066010742187498,1.1390452112843417,1.521484375,7.54345703125,4.080078125,46.97705882352941,314.28196038695853
-1.06296923828125,-0.20006787109375,-0.0651762695312501,1.0835952660870276,1.25732421875,8.14208984375,4.654296875,47.02411764705882,314.28196038695853
-1.07078173828125,-0.25524365234375,-0.1559965820312501,1.111781357418726,0.91796875,8.623046875,4.5068359375,46.60058823529412,314.64815953744613
-0.88572314453125,-0.27819287109375,-0.1559965820312501,0.9413987974770002,0.6455078125,8.369140625,3.82421875,46.83588235294118,314.64815953744613
-0.78171923828125,-0.27868115234375,-0.2878325195312501,0.8784052091548442,0.349609375,7.65478515625,3.22216796875,45.80058823529412,314.64815953744613
-0.67918017578125,-0.26207958984375,-0.5114653320312501,0.8897011905447552,-0.0732421875,6.39404296875,2.671875,46.45941176470589,314.64815953744613
-0.56980517578125,-0.13414990234375,-0.5383208007812501,0.7952756875447062,-0.41796875,4.66259765625,2.03759765625,46.41235294117647,314.64815953744613
-0.54392626953125,0.13342822265625,-0.5056059570312501,0.7545172370946036,-0.3837890625,2.82177734375,1.44873046875,45.65941176470588,314.6159112893613
-0.60740283203125,0.36487353515625,-0.5300200195312501,0.8848684185351565,-0.02490234375,1.43408203125,0.912109375,45.61235294117647,314.6159112893613
-0.74363330078125,0.52356494140625,-0.5778715820312501,1.07751858416449,0.1298828125,0.85205078125,-0.04541015625,46.41235294117647,314.6159112893613
-0.83201220703125,0.60510791015625,-0.6047270507812501,1.1933543905853217,0.244140625,1.0419921875,-0.83349609375,45.70647058823529,314.6159112893613
-0.95798876953125,0.54211962890625,-0.5827543945312501,1.2454873981453736,0.76953125,0.81494140625,-0.48095703125,46.97705882352941,314.50350099089707
-0.99119189453125,0.30920947265625,-0.5900786132812501,1.1942632204069286,1.1171875,-0.56396484375,0.55126953125,47.02411764705882,314.50350099089707
-0.87156298828125,0.06018603515625,-0.5471098632812501,1.030812108906953,1.13134765625,-2.66845703125,0.24951171875,46.45941176470589,314.50350099089707
-0.78074267578125,-0.13903271484375,-0.5231840820312501,0.9500583167752238,1.13330078125,-3.8779296875,-1.21923828125,46.41235294117647,314.50350099089707
-0.67673876953125,-0.33092724609375,-0.4890043945312501,0.8981166417925559,0.8046875,-4.1650390625,-1.88134765625,46.45941176470589,314.50350099089707
-0.66160205078125,-0.51696240234375,-0.4470122070312501,0.9512030867642968,0.32177734375,-3.58251953125,-2.63818359375,46.27117647058824,314.4943901691014
-0.82859423828125,-0.64147412109375,-0.4328520507812501,1.13376291949041,-0.1982421875,-2.72607421875,-3.142578125,46.224117647058826,314.4943901691014
-1.04050830078125,-0.72936474609375,-0.4499418945312501,1.3479904173596542,-0.5478515625,-2.16796875,-2.52587890625,46.36529411764706,314.4943901691014
-0.97947314453125,-0.70397412109375,-0.4997465820312501,1.3056392496702791,-0.9755859375,-1.77392578125,-1.0859375,45.65941176470588,314.4943901691014
-0.73533251953125,-0.57360302734375,-0.5334379882812501,1.0743790925923855,-1.3095703125,-2.00390625,0.49609375,47.02411764705882,314.20507692998933
-0.52439501953125,-0.43151318359375,-0.5876372070312501,0.8980597147249629,-1.5244140625,-3.060546875,0.9287109375,46.97705882352941,314.20507692998933
-0.51609423828125,-0.31579052734375,-0.6188872070312501,0.8655046475750946,-1.74267578125,-4.1767578125,0.84375,46.55352941176471,314.20507692998933
-0.58982470703125,-0.20055615234375,-0.6218168945312501,0.8802114550447052,-1.90087890625,-5.7001953125,0.623046875,46.45941176470589,314.20507692998933
-0.72898486328125,-0.09850537109375,-0.5671293945312501,0.9288476673647206,-1.79248046875,-7.21875,0.85498046875,46.08294117647059,314.20507692998933
-0.77000048828125,-0.03356396484375,-0.4899809570312501,0.9132954778945616,-1.38427734375,-8.21630859375,0.962890625,45.70647058823529,314.4911133983075
-0.79490283203125,0.0221000976562499,-0.4284575195312501,0.9032910786289152,-0.73974609375,-8.3974609375,0.6572265625,46.13,314.4911133983075
-0.87742236328125,0.06213916015625,-0.4167387695312501,0.9733460231805534,-0.0986328125,-7.9912109375,0.37890625,46.224117647058826,314.4911133983075
-0.93113330078125,0.08020556640625,-0.4250395507812501,1.026694100710947,0.53369140625,-7.3466796875,0.75,47.02411764705882,314.4911133983075
-0.91697314453125,0.10315478515625,-0.4128325195312501,1.0108963085671452,1.0126953125,-6.9052734375,0.5341796875,45.61235294117647,314.31420868191793
-0.98484423828125,0.09192431640625,-0.4382231445312501,1.0818538616769775,1.119140625,-6.751953125,0.30712890625,46.36529411764706,314.31420868191793
-1.02732470703125,0.04651416015625,-0.4030668945312501,1.1045463060636935,0.82421875,-7.3662109375,0.27783203125,46.83588235294118,314.31420868191793
-0.98191455078125,-0.01403271484375,-0.3068754882812501,1.0288467657672282,0.48779296875,-8.36328125,0.3720703125,45.89470588235295,314.31420868191793
-0.95164111328125,-0.05651318359375,-0.1740629882812501,0.9690781559278262,0.33740234375,-9.27392578125,0.1982421875,46.45941176470589,314.31420868191793
-1.03367236328125,-0.09899365234375,-0.0261137695312501,1.038730102950199,0.5419921875,-10.181640625,0.076171875,46.224117647058826,314.6497986681031
-1.19968798828125,-0.15709912109375,0.1247651367187498,1.2163460619474993,0.81396484375,-10.60205078125,0.55859375,45.61235294117647,314.6497986681031
-1.35496142578125,-0.18395458984375,0.2517182617187499,1.3903675196732874,0.91943359375,-10.69287109375,1.427734375,47.02411764705882,314.6497986681031
-1.39597705078125,-0.16393505859375,0.4030854492187499,1.4622258748619976,1.0419921875,-10.26953125,1.76220703125,45.65941176470588,314.6497986681031
-1.42478564453125,-0.11071240234375,0.4983002929687499,1.51346442008651,1.1220703125,-9.3076171875,1.56494140625,46.08294117647059,314.5282772176064
-1.46677783203125,-0.09606396484375,0.5485932617187499,1.568955085616861,1.30615234375,-8.09521484375,1.107421875,46.88294117647059,314.5282772176064
-1.52000048828125,-0.11217724609375,0.5441987304687499,1.6183749494972466,1.33837890625,-6.9130859375,0.90283203125,46.97705882352941,314.5282772176064
-1.47166064453125,-0.09606396484375,0.5280854492187499,1.5664889337879806,1.63671875,-6.0322265625,1.306640625,46.36529411764706,314.5282772176064
-1.31687548828125,-0.04772412109375,0.4865815429687499,1.40470646091203,2.12939453125,-5.56298828125,1.6748046875,46.27117647058824,314.5282772176064
-1.16697314453125,0.01477587890625,0.4094331054687499,1.2368023748798311,2.73486328125,-5.24951171875,1.71142578125,46.27117647058824,314.4357281225857
-1.10447314453125,0.05627978515625,0.3073823242187499,1.147829357722698,3.00732421875,-4.6025390625,1.74560546875,46.13,314.4357281225857
-1.02244189453125,0.05676806640625,0.1916596679687499,1.0417981903334483,3.1572265625,-4.2509765625,1.07666015625,46.55352941176471,314.4357281225857
-0.95457080078125,0.03918994140625,0.1062104492187498,0.961260591481223,3.20654296875,-4.2919921875,0.7724609375,46.41235294117647,314.4357281225857
-0.88328173828125,0.03967822265625,0.0573823242187498,0.8860325737054204,3.169921875,-4.93798828125,0.9541015625,46.36529411764706,314.392730309229
-0.80369189453125,0.03430712890625,0.0407807617187498,0.8054568337008393,2.9794921875,-6.02490234375,1.00146484375,46.88294117647059,314.392730309229
-0.76218798828125,0.03821337890625,0.0774018554687498,0.7670605184975021,2.7958984375,-7.0087890625,1.19580078125,46.83588235294118,314.392730309229
-0.72019580078125,0.03723681640625,0.1711518554687499,0.7411892670495267,2.87451171875,-7.94482421875,0.89599609375,46.45941176470589,314.392730309229
-0.71287158203125,0.0235649414062499,0.2692963867187499,0.7624052353118987,3.22216796875,-8.25048828125,0.25439453125,46.27117647058824,314.392730309229
-0.74509814453125,-0.01745068359375,0.2365815429687499,0.7819505085459534,3.501953125,-8.0166015625,-0.00830078125,46.97705882352941,314.449753954759
-0.76414111328125,-0.08532177734375,0.4348237304687499,0.8833250382925668,3.572265625,-7.623046875,0.6015625,45.70647058823529,314.449753954759
-0.77878955078125,-0.12536083984375,0.4743745117187499,0.9204670998687536,3.5302734375,-6.98046875,1.40673828125,46.08294117647059,314.449753954759
-0.77976611328125,-0.13805615234375,0.4939057617187499,0.9332939483789052,3.4619140625,-6.4970703125,1.49658203125,45.70647058823529,314.449753954759
-0.79197314453125,-0.15465771484375,0.4870698242187499,0.9425377892073562,3.36767578125,-6.1904296875,1.39794921875,46.36529411764706,314.5836631633056
-0.75339892578125,-0.17272412109375,0.4650971679687499,0.9020858822908724,3.248046875,-6.0205078125,1.33544921875,45.61235294117647,314.5836631633056
-0.73875048828125,-0.15221630859375,0.4480073242187499,0.8772870973012981,2.5771484375,-5.7900390625,1.4970703125,46.55352941176471,314.5836631633056
-0.82566455078125,-0.07262646484375,0.4362885742187499,0.9366665755787026,2.033203125,-5.7001953125,2.28369140625,45.70647058823529,314.5836631633056
-0.66404345703125,0.0240532226562499,0.4231049804687499,0.7877500205291181,1.69873046875,-5.75439453125,3.05419921875,45.65941176470588,314.5836631633056
-0.62791064453125,0.08655322265625,0.4133393554687499,0.7567117421100017,1.57470703125,-5.77685546875,3.05517578125,46.27117647058824,314.3265958411851
-0.60935595703125,0.10754931640625,0.4016206054687499,0.7376860094688035,1.4970703125,-5.78662109375,2.54541015625,46.03588235294118,314.3265958411851
-0.63621142578125,0.08606494140625,0.4143159179687499,0.7640875815743638,1.29296875,-5.56298828125,2.34521484375,46.97705882352941,314.3265958411851
-0.65769580078125,0.03967822265625,0.4294526367187499,0.7864907468642814,1.1533203125,-5.21728515625,2.74560546875,46.27117647058824,314.3265958411851
-0.59031298828125,0.0221000976562499,0.4685151367187499,0.7539656966895403,1.150390625,-5.12255859375,2.896484375,45.61235294117647,314.8175982790607
-0.53513720703125,0.04114306640625,0.5095307617187499,0.7400582270336609,1.2646484375,-5.18212890625,2.6103515625,45.61235294117647,314.8175982790607
-0.53220751953125,0.07971728515625,0.5388276367187499,0.7615345766872321,1.3291015625,-5.08935546875,2.423828125,46.97705882352941,314.8175982790607
-0.56541064453125,0.11292041015625,0.5734956054687499,0.813226552364756,1.3408203125,-4.833984375,2.63427734375,45.61235294117647,314.8175982790607
-0.61326220703125,0.14075244140625,0.5705659179687499,0.84938051018503,1.28271484375,-4.5908203125,3.09033203125,46.41235294117647,314.8175982790607
-0.64500048828125,0.17590869140625,0.5774018554687499,0.8833812315722275,1.2431640625,-4.53271484375,3.4912109375,47.02411764705882,314.6497986681031
-0.62107470703125,0.17688525390625,0.5759370117187499,0.8652893309355865,1.28369140625,-4.72314453125,3.45166015625,46.88294117647059,314.6497986681031
-0.63279345703125,0.14807666015625,0.5774018554687499,0.8693371953639998,1.1552734375,-4.73486328125,3.2607421875,46.36529411764706,314.6497986681031
-0.65378955078125,0.10559619140625,0.5808198242187499,0.8808762685847279,0.87939453125,-4.6708984375,3.21142578125,46.41235294117647,314.6497986681031
-0.65623095703125,0.08411181640625,0.6008393554687499,0.8937123685534467,0.56298828125,-4.548828125,3.2666015625,46.36529411764706,314.5729138150713
-0.64158251953125,0.08167041015625,0.5988862304687499,0.881454991651999,0.341796875,-4.2734375,3.439453125,46.45941176470589,314.5729138150713
-0.61033251953125,0.12854541015625,0.5940034179687499,0.8613186213174306,0.12353515625,-3.92041015625,3.4228515625,46.45941176470589,314.5729138150713
-0.61326220703125,0.19592822265625,0.5974213867187499,0.8782885154179297,-0.28857421875,-3.599609375,3.48046875,45.70647058823529,314.5729138150713
-0.62986376953125,0.26477587890625,0.6032807617187499,0.9114726061043458,-0.44580078125,-3.41552734375,3.509765625,46.36529411764706,314.5729138150713
-0.62937548828125,0.33313525390625,0.6193940429687499,0.943791069628028,-0.51220703125,-3.45166015625,3.26123046875,46.224117647058826,314.8622359954043
-0.61423876953125,0.40833056640625,0.6667573242187499,0.9942778519389136,-0.486328125,-3.48193359375,2.89208984375,46.55352941176471,314.8622359954043
-0.61668017578125,0.44543994140625,0.7087495117187499,1.0397293161987706,-0.44873046875,-3.27685546875,2.70263671875,46.27117647058824,314.8622359954043
-0.64500048828125,0.46594775390625,0.7590424804687499,1.099671963091486,-0.40576171875,-2.99755859375,2.6455078125,46.27117647058824,314.8622359954043
-0.67820361328125,0.43079150390625,0.7546479492187499,1.102286255092395,-0.30517578125,-2.39892578125,2.33984375,46.36529411764706,314.6159112893613
-0.71873095703125,0.39270556640625,0.7434174804687499,1.1061018943786391,-0.35546875,-1.92138671875,1.63427734375,46.97705882352941,314.6159112893613
-0.66892626953125,0.34387744140625,0.7102143554687499,1.0344653109171884,-0.38525390625,-1.75048828125,1.05078125,45.61235294117647,314.6159112893613
-0.65183642578125,0.33606494140625,0.7214448242187499,1.028743410773398,-0.4736328125,-1.79638671875,0.84619140625,46.41235294117647,314.6159112893613
-0.62449267578125,0.32092822265625,0.7136323242187499,1.0011279240794255,-0.53173828125,-1.8671875,0.9794921875,47.02411764705882,314.6159112893613
-0.56785205078125,0.33704150390625,0.6931245117187499,0.9573267549155896,-0.3349609375,-2.0849609375,0.8662109375,46.08294117647059,314.537387746472
-0.51902392578125,0.35120166015625,0.6608979492187499,0.9107768886568413,-0.201171875,-2.8564453125,0.4833984375,46.27117647058824,314.537387746472
-0.51560595703125,0.35461962890625,0.6628510742187499,0.9115789218299578,-0.3369140625,-4.03173828125,0.51708984375,46.13,314.537387746472
-0.49802783203125,0.37268603515625,0.6994721679687499,0.9360490991615428,-0.38525390625,-4.955078125,0.67919921875,46.88294117647059,314.537387746472
-0.47312548828125,0.39661181640625,0.7404877929687499,0.9640906762904444,-0.3212890625,-5.32080078125,0.6064453125,47.02411764705882,314.54813717471126
-0.47410205078125,0.40735400390625,0.7732026367187499,0.994259702734787,-0.15576171875,-5.515625,0.5185546875,47.02411764705882,314.54813717471126
-0.48435595703125,0.35852587890625,0.7727143554687499,0.9799127380050956,-0.06982421875,-5.740234375,0.3173828125,46.36529411764706,314.54813717471126
-0.49851611328125,0.29749072265625,0.7741791992187499,0.9676634114042788,-0.12060546875,-6.013671875,-0.01611328125,46.83588235294118,314.54813717471126
-0.52195361328125,0.25891650390625,0.7766206054687499,0.9708825342187568,-0.2490234375,-6.34716796875,-0.16552734375,46.36529411764706,314.54813717471126
-0.51072314453125,0.25061572265625,0.7800385742187499,0.9654566526114068,-0.44970703125,-6.60986328125,-0.1552734375,46.88294117647059,314.392730309229
-0.48875048828125,0.25940478515625,0.7683198242187499,0.946827985773895,-0.5322265625,-6.6298828125,0.0400390625,46.41235294117647,314.392730309229
-0.47068408203125,0.24085009765625,0.7487885742187499,0.916644207694116,-0.5625,-6.58935546875,0.24755859375,46.45941176470589,314.392730309229
-0.40232470703125,0.22034228515625,0.7248627929687499,0.8578123111416134,-0.53857421875,-6.716796875,-0.00732421875,46.224117647058826,314.392730309229
-0.36326220703125,0.21692431640625,0.6877534179687499,0.8074777730892855,-0.6630859375,-7.0732421875,-0.55322265625,46.27117647058824,314.3158464427559
-0.39500048828125,0.22424853515625,0.7014252929687499,0.8356495873740658,-0.9521484375,-7.46435546875,-0.544921875,45.80058823529412,314.3158464427559
-0.38279345703125,0.27112353515625,0.7419526367187499,0.8777998161286337,-1.06298828125,-7.55419921875,-0.17431640625,45.61235294117647,314.3158464427559
-0.34812548828125,0.30335009765625,0.7873627929687499,0.912772044428764,-0.85986328125,-7.109375,0.00439453125,46.97705882352941,314.3158464427559
-0.34421923828125,0.30090869140625,0.7898041992187499,0.912591692746716,-0.74609375,-6.07763671875,-0.0458984375,46.27117647058824,314.3158464427559
-0.34568408203125,0.29993212890625,0.8225190429687499,0.9412727248604686,-0.6142578125,-5.01904296875,-0.12890625,45.65941176470588,314.2604615914479
-0.32810595703125,0.30872119140625,0.8400971679687499,0.9532709712835072,-0.39892578125,-3.96923828125,-0.30029296875,46.45941176470589,314.2604615914479
-0.33250048828125,0.31946337890625,0.8249604492187499,0.9450783924863956,-0.0712890625,-3.17724609375,-0.5625,47.02411764705882,314.2604615914479
-0.31492236328125,0.31653369140625,0.8293549804687499,0.9419126054567032,0.29345703125,-2.83154296875,-0.8955078125,46.97705882352941,314.2604615914479
-0.25095751953125,0.27307666015625,0.8313081054687499,0.9102877046019088,0.669921875,-2.8876953125,-1.35595703125,46.45941176470589,314.6406889441716
-0.23142626953125,0.22034228515625,0.8264252929687499,0.8860516947196213,0.83349609375,-2.703125,-1.74365234375,45.61235294117647,314.6406889441716
-0.30222705078125,0.20960009765625,0.8220307617187499,0.9005598061058188,0.93310546875,-1.955078125,-1.775390625,45.65941176470588,314.6406889441716
-0.34373095703125,0.22620166015625,0.8391206054687499,0.9345809501596446,0.97216796875,-0.98388671875,-1.5791015625,45.61235294117647,314.6406889441716
-0.35935595703125,0.23694384765625,0.8986909179687499,0.9964559482664088,1.1337890625,-0.2021484375,-1.26806640625,47.02411764705882,314.6406889441716
-0.26072314453125,0.17835009765625,0.92408154296875,0.9765818007129574,1.35302734375,-0.4599609375,-1.10595703125,45.80058823529412,314.3265958411851
-0.17039111328125,0.05432666015625,0.8982026367187499,0.915834315854932,1.41357421875,-1.52001953125,-1.08935546875,46.36529411764706,314.3265958411851
-0.10789111328125,-0.02623974609375,0.8654877929687499,0.872581306456911,1.28662109375,-3.1337890625,-0.822265625,46.36529411764706,314.3265958411851
-0.01414111328125,-0.01940380859375,0.8449799804687499,0.8453210314819719,0.99853515625,-5.39111328125,-0.3955078125,45.65941176470588,314.3265958411851
-0.01316455078125,0.0211235351562499,0.8415620117187499,0.8419300022584293,0.92431640625,-8.41943359375,-0.123046875,46.97705882352941,314.6869664319495
-0.16990283203125,0.07874072265625,0.8171479492187499,0.8383303911042926,0.77197265625,-10.7587890625,-0.03564453125,46.03588235294118,314.6869664319495
-0.28562548828125,0.21936572265625,0.8967377929687499,0.96635496023504,0.35302734375,-12.2578125,0.0244140625,46.36529411764706,314.6869664319495
-0.27341845703125,0.33411181640625,1.00806591796875,1.0966244815240136,-0.00439453125,-13.013671875,0.55517578125,46.224117647058826,314.6869664319495
-0.15964892578125,0.35461962890625,1.11499951171875,1.1808754260470342,-0.4697265625,-12.78173828125,0.7998046875,47.02411764705882,314.6869664319495
-0.02537158203125,0.23157275390625,1.19312451171875,1.2156544566572358,-0.58203125,-12.24560546875,0.41650390625,46.27117647058824,314.5282772176064
-0.04392626953125,0.06311572265625,1.26246044921875,1.2648001808360725,-0.34033203125,-11.443359375,0.22998046875,47.02411764705882,314.5282772176064
-0.07078173828125,-0.03209912109375,1.27710888671875,1.2794715770915397,0.17138671875,-9.728515625,0.87451171875,46.97705882352941,314.5282772176064
0.01417919921875,-0.04577099609375,1.27369091796875,1.2745919301054658,0.69970703125,-8.23291015625,1.71337890625,46.36529411764706,314.5282772176064
0.06154248046875,0.00696337890625,1.24439404296875,1.2459343882099692,0.83203125,-6.5419921875,2.31689453125,47.02411764705882,314.3695935704884
0.00831982421875,0.07874072265625,1.26880810546875,1.2712762600562704,0.96630859375,-5.169921875,2.59814453125,46.83588235294118,314.3695935704884
-0.03025439453125,0.13098681640625,1.29908154296875,1.3060190388132809,0.984375,-4.033203125,2.86962890625,46.224117647058826,314.3695935704884
0.02052685546875,0.20911181640625,1.32398388671875,1.3405530335824258,1.169921875,-2.9228515625,3.19091796875,46.88294117647059,314.3695935704884
0.10744091796875,0.27649462890625,1.32105419921875,1.3539486799511515,1.40966796875,-1.728515625,3.19677734375,45.61235294117647,314.3695935704884
0.14015576171875,0.27210009765625,1.30054638671875,1.3360774695707958,1.5615234375,-0.61669921875,3.041015625,45.61235294117647,314.462142128442
0.09718701171875,0.23108447265625,1.26246044921875,1.2871098378115389,1.63037109375,-0.2626953125,3.0087890625,46.83588235294118,314.462142128442
0.05617138671875,0.20081103515625,1.22632763671875,1.2439291656306748,1.447265625,-0.30322265625,3.18115234375,47.02411764705882,314.462142128442
0.03810498046875,0.20129931640625,1.21460888671875,1.2317662732914507,1.21533203125,-0.40625,3.46044921875,45.61235294117647,314.462142128442
0.05617138671875,0.20813525390625,1.20581982421875,1.2249395728293964,1.044921875,-0.21826171875,3.65625,45.61235294117647,314.449753954759
0.09865185546875,0.22327197265625,1.18287060546875,1.207793621295976,1.0,-0.1484375,3.90283203125,45.70647058823529,314.449753954759
0.15138623046875,0.20227587890625,1.12671826171875,1.154697953255896,0.96630859375,-0.4375,4.09375,45.61235294117647,314.449753954759
0.18703076171875,0.21741259765625,1.10572216796875,1.1423091771434943,0.80126953125,-0.93798828125,4.12890625,45.80058823529412,314.449753954759
0.18996044921875,0.24622119140625,1.14820263671875,1.1895709908756151,0.7451171875,-1.50341796875,4.66552734375,46.97705882352941,314.449753954759
0.15822216796875,0.27454150390625,1.20289013671875,1.2439260318922063,0.91455078125,-1.75439453125,5.0908203125,45.61235294117647,314.67293691156027
0.11671826171875,0.27795947265625,1.22242138671875,1.2590467297782792,1.16748046875,-0.8818359375,5.2958984375,46.97705882352941,314.67293691156027
0.07960888671875,0.25501025390625,1.21509716796875,1.244117732390149,1.5166015625,0.5224609375,5.4208984375,46.55352941176471,314.67293691156027
0.06105419921875,0.19690478515625,1.15113232421875,1.169446338025364,1.78564453125,1.9599609375,5.5537109375,46.41235294117647,314.67293691156027
0.07228466796875,0.16956103515625,1.08081982421875,1.09642487672018,1.8046875,2.90234375,5.6259765625,46.45941176470589,314.4406435024647
0.12062451171875,0.18665087890625,1.04810498046875,1.0714069597997118,1.69091796875,3.65625,6.22265625,45.61235294117647,314.4406435024647
0.20949169921875,0.22522509765625,1.03785107421875,1.082473079994528,1.71337890625,3.8671875,6.58935546875,45.80058823529412,314.4406435024647
0.27199169921875,0.27258837890625,1.01685498046875,1.087326059681613,1.86572265625,3.677734375,6.61083984375,46.27117647058824,314.4406435024647
0.28322216796875,0.30676806640625,0.98951123046875,1.0739897197921997,2.0009765625,3.072265625,6.43701171875,45.61235294117647,314.4406435024647
0.26076123046875,0.33850634765625,0.92798779296875,1.0216380526478848,1.8828125,2.2998046875,6.31396484375,46.83588235294118,314.5266383317899
0.19923779296875,0.38782275390625,0.90113232421875,1.0010702534519604,1.806640625,1.2314453125,6.3427734375,46.36529411764706,314.5266383317899
0.14601513671875,0.42346728515625,0.90308544921875,1.0080715700480951,1.86474609375,-0.17724609375,6.4697265625,46.36529411764706,314.5266383317899
0.11427685546875,0.42444384765625,0.91919873046875,1.0188906151321784,1.89794921875,-1.22119140625,6.6123046875,46.36529411764706,314.5266383317899
0.08400341796875,0.42493212890625,0.96070263671875,1.053837484911971,1.9375,-1.86865234375,6.84033203125,46.45941176470589,314.5175278768295
0.10011669921875,0.41956103515625,1.00806591796875,1.0964723939315666,2.1015625,-1.89306640625,7.06689453125,46.55352941176471,314.5175278768295
0.13527294921875,0.39856494140625,1.02662060546875,1.1095506526885237,2.322265625,-1.8603515625,7.19189453125,46.41235294117647,314.5175278768295
0.17140576171875,0.37805712890625,1.01294873046875,1.0947019039105916,2.685546875,-1.763671875,7.171875,46.55352941176471,314.5175278768295
0.18263623046875,0.36389697265625,0.96753857421875,1.0497180059375324,3.06005859375,-1.6865234375,6.95263671875,47.02411764705882,314.5175278768295
0.18898388671875,0.34338916015625,0.94312451171875,1.02132995126789,3.521484375,-1.52490234375,6.787109375,45.65941176470588,314.6191903670413
0.16115185546875,0.34338916015625,0.93140576171875,1.005685203628213,3.94873046875,-1.30810546875,6.65234375,46.41235294117647,314.6191903670413
0.14845654296875,0.33557666015625,0.93970654296875,1.0088108974877972,4.12646484375,-1.1806640625,6.5751953125,46.27117647058824,314.6191903670413
0.13185498046875,0.34485400390625,0.95630810546875,1.0251025375394482,4.58544921875,-1.38232421875,6.50048828125,45.65941176470588,314.6191903670413
0.10353466796875,0.35022509765625,0.95435498046875,1.0218466006427958,4.98193359375,-1.66015625,6.72998046875,46.36529411764706,314.7175740684547
0.09279248046875,0.36731494140625,0.91773388671875,0.9928575917238704,5.24267578125,-2.09423828125,6.85693359375,45.65941176470588,314.7175740684547
0.09572216796875,0.38928759765625,0.8962495117187499,0.9818201232332272,5.38427734375,-2.46875,6.927734375,46.36529411764706,314.7175740684547
0.09572216796875,0.43030322265625,0.8776948242187499,0.982177072288584,5.51416015625,-2.88427734375,6.94921875,46.27117647058824,314.7175740684547
0.10158154296875,0.46350634765625,0.8698823242187499,0.990884555423972,5.5615234375,-3.10498046875,7.00634765625,46.27117647058824,314.7175740684547
0.10939404296875,0.46106494140625,0.8698823242187499,0.9905772028566032,5.66943359375,-2.85986328125,7.07373046875,45.61235294117647,314.60680127248
0.12306591796875,0.44739306640625,0.8884370117187499,1.0023103809826677,5.7294921875,-2.32080078125,7.1396484375,46.224117647058826,314.60680127248
0.14259716796875,0.40930712890625,0.8874604492187499,0.9876499010346382,5.73828125,-1.720703125,7.27734375,47.02411764705882,314.60680127248
0.14503857421875,0.38391650390625,0.8723237304687499,0.964041887431206,5.7177734375,-1.2978515625,7.3623046875,46.27117647058824,314.60680127248
0.13771435546875,0.36389697265625,0.8234956054687499,0.9107860685347025,5.611328125,-0.9365234375,7.6015625,46.88294117647059,314.7746010353654
0.16408154296875,0.37610400390625,0.7771088867187499,0.8787918959085667,5.38330078125,-0.7646484375,7.7578125,46.224117647058826,314.7746010353654
0.18068310546875,0.37903369140625,0.7473237304687499,0.8572080738914026,5.177734375,-1.046875,7.98046875,46.27117647058824,314.7746010353654
0.21730419921875,0.36829150390625,0.7287690429687499,0.8449639429213635,4.966796875,-1.54052734375,8.357421875,46.36529411764706,314.7746010353654
0.26076123046875,0.35706103515625,0.7224213867187499,0.8469838617890372,4.81640625,-1.99853515625,8.677734375,46.97705882352941,314.7746010353654
0.31056591796875,0.36047900390625,0.7356049804687499,0.8760770451001695,4.8310546875,-2.50927734375,8.85546875,46.27117647058824,314.4298942098118
0.33449169921875,0.36731494140625,0.7478120117187499,0.8977904922070445,4.96875,-2.83251953125,9.03515625,45.65941176470588,314.4298942098118
0.35499951171875,0.37219775390625,0.7561127929687499,0.9144738252265135,5.1865234375,-2.916015625,9.29736328125,47.02411764705882,314.4298942098118
0.40529248046875,0.38098681640625,0.7717377929687499,0.9513107642070276,5.43505859375,-2.7333984375,9.4677734375,46.27117647058824,314.4298942098118
0.45509716796875,0.38977587890625,0.7717377929687499,0.9770454898143656,5.76611328125,-2.3349609375,9.47265625,46.27117647058824,314.5191672772916
0.51417919921875,0.39856494140625,0.7609956054687499,1.0011735978191554,5.869140625,-1.58837890625,9.4033203125,46.27117647058824,314.5191672772916
0.55665966796875,0.42346728515625,0.7414643554687499,1.019295795130821,5.9130859375,-1.0224609375,9.2255859375,46.224117647058826,314.5191672772916
0.59816357421875,0.46399462890625,0.7160737304687499,1.0420423526150129,5.97265625,-0.48681640625,8.93359375,46.97705882352941,314.5191672772916
0.62941357421875,0.50159228515625,0.6677338867187499,1.0457651798619128,6.00439453125,-0.10791015625,8.53125,46.13,314.5191672772916
0.61427685546875,0.53430712890625,0.6306245117187499,1.0298094182639463,6.08935546875,-0.12060546875,8.10595703125,46.45941176470589,314.4852799358418
0.56740185546875,0.55676806640625,0.5837495117187499,0.9862550571687904,5.99560546875,-0.47119140625,7.978515625,45.65941176470588,314.4852799358418
0.51662060546875,0.58606494140625,0.5544526367187499,0.9580118433008972,5.90087890625,-1.22265625,7.92431640625,46.55352941176471,314.4852799358418
0.48146435546875,0.62317431640625,0.5451752929687499,0.957794473923763,5.7509765625,-2.09033203125,8.14599609375,45.61235294117647,314.4852799358418
0.51271435546875,0.63782275390625,0.5617768554687499,0.9926162959797936,5.6708984375,-2.77294921875,8.51708984375,46.36529411764706,315.0664757496025
0.58937451171875,0.64710009765625,0.5837495117187499,1.052076206309373,5.72900390625,-2.76953125,8.474609375,46.55352941176471,315.0664757496025
0.67335888671875,0.66370166015625,0.5881440429687499,1.1134745166805138,5.787109375,-2.12451171875,7.82470703125,46.36529411764706,315.0664757496025
0.72462841796875,0.66028369140625,0.5857026367187499,1.1419756897255973,5.708984375,-1.013671875,6.7509765625,46.36529411764706,315.0664757496025
0.69777294921875,0.65540087890625,0.5583588867187499,1.1082427744453465,5.56689453125,-0.0458984375,5.87353515625,46.27117647058824,315.0664757496025
0.61720654296875,0.63977587890625,0.5505463867187499,1.045637803373028,5.2529296875,0.88720703125,5.04150390625,45.61235294117647,314.4298942098118
0.52296826171875,0.62219775390625,0.5520112304687499,0.9825183185542836,4.89404296875,1.91015625,4.853515625,47.02411764705882,314.4298942098118
0.51076123046875,0.61047900390625,0.5520112304687499,0.9686475351354288,4.74755859375,2.919921875,4.80859375,45.65941176470588,314.4298942098118
0.59767529296875,0.59534228515625,0.5437104492187499,1.003628041113839,4.37646484375,3.91552734375,4.5234375,46.36529411764706,314.4298942098118
0.69874951171875,0.57385791015625,0.5417573242187499,1.0540705761573794,4.10595703125,4.80322265625,3.90673828125,45.70647058823529,314.6745768301507
0.75001904296875,0.55579150390625,0.5324799804687499,1.0746942310397554,3.80322265625,5.17724609375,2.90869140625,45.61235294117647,314.6745768301507
0.69044873046875,0.53284228515625,0.5217377929687499,1.0162926128179546,3.33740234375,4.7919921875,2.37109375,46.45941176470589,314.6745768301507
0.59865185546875,0.52258837890625,0.5168549804687499,0.9479566069495964,2.75,4.08642578125,1.8603515625,46.41235294117647,314.6745768301507
0.52833935546875,0.53186572265625,0.5422456054687499,0.925231818586002,2.158203125,3.462890625,1.439453125,46.97705882352941,314.6745768301507
0.50343701171875,0.53821337890625,0.5725190429687499,0.9332205101495792,1.67333984375,3.43896484375,0.93310546875,45.84764705882353,314.71921419998506
0.51955029296875,0.53967822265625,0.6023041992187499,0.961226008454756,1.30078125,4.087890625,0.47265625,45.65941176470588,314.71921419998506
0.54201123046875,0.52014697265625,0.6208588867187499,0.9745741656412588,0.974609375,5.01318359375,0.384765625,46.36529411764706,314.71921419998506
0.58400341796875,0.48401416015625,0.6120698242187499,0.9746584884717896,0.75390625,6.16796875,0.46875,46.55352941176471,314.71921419998506
0.64308544921875,0.41516650390625,0.5651948242187499,0.9515079139378104,0.375,6.833984375,0.66162109375,46.41235294117647,314.540665851731
0.72560498046875,0.35852587890625,0.5070893554687499,0.955082723095893,-0.1328125,6.85498046875,0.685546875,45.65941176470588,314.540665851731
0.83009716796875,0.32678759765625,0.4616791992187499,1.0044894848842114,-0.99755859375,6.18212890625,0.52099609375,46.27117647058824,314.540665851731
0.97462841796875,0.29407275390625,0.4304291992187499,1.1052821509652495,-1.83349609375,5.05517578125,-0.05517578125,46.36529411764706,314.540665851731
1.06349560546875,0.28870166015625,0.4358002929687499,1.1850288801459508,-2.66357421875,3.90673828125,-0.6982421875,46.36529411764706,314.540665851731
1.08888623046875,0.30286181640625,0.4763276367187499,1.2264935875264111,-3.3603515625,2.95556640625,-1.15087890625,46.36529411764706,314.7762417738146
1.06984326171875,0.35999072265625,0.5481049804687499,1.25482149912178,-3.919921875,2.3330078125,-1.4736328125,46.36529411764706,314.7762417738146
1.00783154296875,0.41907275390625,0.6574799804687499,1.2742159615961997,-4.30419921875,1.73193359375,-1.58544921875,46.97705882352941,314.7762417738146
0.87892529296875,0.46301806640625,0.7629487304687499,1.2525917793769297,-4.587890625,0.99755859375,-1.39794921875,45.70647058823529,314.7762417738146
0.69728466796875,0.50452197265625,0.8444916992187499,1.20578379451982,-4.703125,0.7978515625,-0.83740234375,45.84764705882353,314.8084895052173
0.57228466796875,0.53772509765625,0.91968701171875,1.2093313116618167,-4.5986328125,1.32275390625,-0.18701171875,45.70647058823529,314.8084895052173
0.49855419921875,0.53674853515625,0.96949169921875,1.2151417342866175,-4.25830078125,2.005859375,0.318359375,46.41235294117647,314.8084895052173
0.45997998046875,0.52307666015625,1.01099560546875,1.2277226433968598,-3.79150390625,2.63916015625,0.48095703125,45.61235294117647,314.8084895052173
0.41847607421875,0.49573291015625,1.04029248046875,1.2260023604485213,-3.3125,2.57421875,0.3603515625,46.27117647058824,314.8084895052173
0.35890576171875,0.46448291015625,1.05152294921875,1.2042666782552085,-2.9501953125,2.2646484375,0.35986328125,46.55352941176471,314.7423532449625
0.30812451171875,0.43909228515625,1.05738232421875,1.185664425196228,-2.67919921875,2.11181640625,0.6142578125,46.55352941176471,314.7423532449625
0.26222607421875,0.45032275390625,1.05982373046875,1.1810078053724218,-2.51171875,2.36376953125,0.9541015625,47.02411764705882,314.7423532449625
0.25001904296875,0.48840869140625,1.04664013671875,1.1817394583743148,-2.306640625,3.4521484375,1.04638671875,46.36529411764706,314.7423532449625
0.24464794921875,0.52112353515625,0.99878857421875,1.15282304537193,-2.10400390625,5.287109375,0.68310546875,45.61235294117647,315.0316810674589
0.26369091796875,0.52502978515625,0.92164013671875,1.092982029647046,-1.94873046875,7.80517578125,-0.0556640625,46.36529411764706,315.0316810674589
0.34425732421875,0.48938525390625,0.8244721679687499,1.0187077047780826,-1.7744140625,10.12451171875,-0.984375,46.45941176470589,315.0316810674589
0.44044873046875,0.39172900390625,0.6755463867187499,0.8965543024723461,-1.7822265625,11.27978515625,-1.60791015625,46.55352941176471,315.0316810674589
0.51857373046875,0.25793994140625,0.5275971679687499,0.7834605918318934,-2.13916015625,10.80078125,-1.6875,47.02411764705882,315.0316810674589
0.60060498046875,0.19202197265625,0.4323823242187499,0.7645608248160988,-2.890625,8.5400390625,-1.3125,45.80058823529412,314.93001338133354
0.61427685546875,0.21497119140625,0.3742768554687499,0.7507541760381847,-3.77783203125,5.203125,-0.75927734375,47.02411764705882,314.93001338133354
0.56886669921875,0.31116259765625,0.3772065429687499,0.7501441592911702,-4.6494140625,1.9462890625,-0.41064453125,47.02411764705882,314.93001338133354
0.46437451171875,0.39563525390625,0.4665620117187499,0.768017611807527,-5.1025390625,-0.83984375,-0.5634765625,46.224117647058826,314.93001338133354
0.28419873046875,0.42688525390625,0.5842377929687499,0.7773890513350754,-5.24951171875,-2.19140625,-0.94873046875,46.83588235294118,314.79774024785434
0.12257763671875,0.42737353515625,0.7175385742187499,0.8441178952417611,-5.17529296875,-2.171875,-1.134765625,46.36529411764706,314.79774024785434
0.06105419921875,0.41956103515625,0.8474213867187499,0.947566400909169,-5.0390625,-1.29638671875,-0.86181640625,45.65941176470588,314.79774024785434
0.11037060546875,0.40002978515625,0.95826123046875,1.044255756691423,-4.78955078125,-0.4501953125,-0.22607421875,47.02411764705882,314.79774024785434
0.24122998046875,0.37219775390625,1.05738232421875,1.1466387622351064,-4.38427734375,0.11083984375,0.35546875,46.97705882352941,314.79774024785434
0.35939404296875,0.32581103515625,1.13013623046875,1.2298474735385387,-3.96630859375,0.47900390625,0.6103515625,47.02411764705882,315.0994605963783
0.40431591796875,0.24426806640625,1.20533154296875,1.294589656325196,-3.4423828125,0.69873046875,0.76806640625,46.97705882352941,315.0994605963783
0.40773388671875,0.19543994140625,1.20533154296875,1.2873491451626806,-3.0341796875,1.07421875,1.0595703125,45.61235294117647,315.0994605963783
0.36281201171875,0.13245166015625,1.18238232421875,1.243866535746696,-3.0791015625,2.2060546875,1.484375,46.27117647058824,315.0994605963783
0.41994091796875,0.08460009765625,1.14771435546875,1.2250533836763735,-3.6630859375,3.77783203125,1.5947265625,46.45941176470589,314.8299880606148
0.50636669921875,0.14758837890625,1.14380810546875,1.2595580755971032,-4.05419921875,4.92431640625,1.44140625,46.41235294117647,314.8299880606148
0.52980419921875,0.22278369140625,1.12427685546875,1.2626652408334986,-4.06787109375,4.86474609375,1.78759765625,46.41235294117647,314.8299880606148
0.50441357421875,0.26965869140625,1.11255810546875,1.2509733817117292,-3.83349609375,3.546875,2.73828125,46.55352941176471,314.8299880606148
0.43996044921875,0.30872119140625,1.15162060546875,1.270867416310714,-3.28662109375,1.5009765625,4.00830078125,46.97705882352941,314.8299880606148
0.35109326171875,0.35364306640625,1.21119091796875,1.3096997123812426,-2.56640625,-0.79443359375,5.2783203125,46.45941176470589,314.6869664319495
0.28273388671875,0.41077197265625,1.28345654296875,1.3769287424947934,-1.86376953125,-2.0849609375,5.904296875,46.224117647058826,314.6869664319495
0.28810498046875,0.46497119140625,1.33472607421875,1.442461916935086,-1.5380859375,-1.8388671875,6.27294921875,46.36529411764706,314.6869664319495
0.34962841796875,0.51233447265625,1.44068310546875,1.56853257948516,-1.255859375,-0.4990234375,6.49560546875,47.02411764705882,314.6869664319495
0.49806591796875,0.55042041015625,1.56714794921875,1.734066025645841,-0.73828125,1.61669921875,6.1416015625,46.27117647058824,314.88865781735564
0.65822216796875,0.53235400390625,1.68482373046875,1.8855471913031328,-0.19287109375,3.51806640625,4.82666015625,46.27117647058824,314.88865781735564
0.72511669921875,0.44348681640625,1.73169873046875,1.929055540133339,0.40283203125,5.63427734375,3.06591796875,46.97705882352941,314.88865781735564
0.72218701171875,0.27649462890625,1.64380810546875,1.8166200613540588,0.52685546875,7.46923828125,1.3896484375,45.70647058823529,314.88865781735564
0.66115185546875,0.09387744140625,1.46021435546875,1.605665193591669,0.3564453125,8.65380859375,-0.1171875,46.27117647058824,314.88865781735564
0.52443310546875,-0.03747021484375,1.28345654296875,1.3869732502111674,0.16162109375,8.62109375,-0.900390625,46.45941176470589,314.5315563521566
0.29542919921875,-0.16100537109375,1.08863232421875,1.139439107019759,-0.2734375,6.88330078125,-0.28662109375,45.80058823529412,314.5315563521566
0.07765576171875,-0.12047802734375,0.97242138671875,0.9829286473334558,-0.63330078125,4.33154296875,1.91064453125,46.55352941176471,314.5315563521566
0.03761669921875,-0.30797802734375,0.92164013671875,0.9724638929017456,-1.0048828125,0.94189453125,4.77734375,46.27117647058824,314.5315563521566
0.18654248046875,-0.30211865234375,0.93531201171875,1.000441070917629,-0.91943359375,-2.48291015625,6.8251953125,46.64764705882353,314.66382755446887
0.36622998046875,-0.25573193359375,0.97242138671875,1.0701058703706636,-0.78076171875,-5.07373046875,7.37890625,46.27117647058824,314.66382755446887
0.43898388671875,-0.19079052734375,1.06617138671875,1.1686870000049585,-0.58984375,-6.1044921875,7.3447265625,45.80058823529412,314.66382755446887
0.44142529296875,-0.12487255859375,1.19068310546875,1.275999883546626,-0.1728515625,-5.1572265625,7.28466796875,45.84764705882353,314.66382755446887
0.44044873046875,-0.07262646484375,1.30640576171875,1.3805671667177883,0.3662109375,-2.921875,7.2177734375,46.27117647058824,314.66382755446887
0.42726513671875,-0.03112255859375,1.36988232421875,1.4353054354093688,0.830078125,-0.43994140625,7.0888671875,46.13,314.58530265602127
0.42921826171875,-0.00963818359375,1.35425732421875,1.420680861761705,1.14599609375,2.2041015625,6.74609375,45.80058823529412,314.58530265602127
0.46095654296875,0.00501025390625,1.26197216796875,1.343532578643947,1.13525390625,3.744140625,5.95458984375,46.27117647058824,314.58530265602127
0.46779248046875,0.01331103515625,1.14136669921875,1.2335821539425502,0.87548828125,4.3515625,5.41357421875,46.36529411764706,314.58530265602127
0.41408154296875,0.0001274414062499,1.03345654296875,1.1133265319184722,0.65673828125,3.90966796875,5.37841796875,46.36529411764706,315.0639288293013
0.36330029296875,-0.00670849609375,0.93677685546875,1.0047800673445602,0.4189453125,2.5595703125,6.10595703125,46.36529411764706,315.0639288293013
0.33839794921875,-0.00036083984375,0.8693940429687499,0.9329304926897808,0.29638671875,1.09375,6.77099609375,45.61235294117647,315.0639288293013
0.32912060546875,0.0230766601562499,0.8371674804687499,0.8998345934350815,0.29931640625,-0.07666015625,7.1455078125,45.61235294117647,315.0639288293013
0.33986279296875,0.05725634765625,0.8151948242187499,0.885057969188737,0.56787109375,-0.8037109375,6.982421875,45.65941176470588,315.0639288293013
0.34083935546875,0.09241259765625,0.8117768554687499,0.8852644901478092,0.962890625,-1.103515625,6.29736328125,46.97705882352941,314.765492557128
0.32423779296875,0.09485400390625,0.8137299804687499,0.8810697529480653,1.36962890625,-1.01708984375,5.56982421875,46.08294117647059,314.765492557128
0.29933544921875,0.07190478515625,0.8005463867187499,0.8576983890481569,1.70947265625,-0.701171875,5.15283203125,46.41235294117647,314.765492557128
0.29884716796875,0.0216118164062499,0.7976166992187499,0.8520382029486315,1.90625,-0.40576171875,5.0361328125,46.97705882352941,314.765492557128
0.33449169921875,-0.03942333984375,0.7815034179687499,0.8509914740275141,1.923828125,-0.2041015625,5.0869140625,46.27117647058824,314.92090541244886
0.36671826171875,-0.09850537109375,0.7878510742187499,0.8745827043567562,1.88427734375,-0.00341796875,5.15869140625,46.41235294117647,314.92090541244886
0.37892529296875,-0.15416943359375,0.7815034179687499,0.882099872011616,1.75048828125,-0.23779296875,5.0888671875,46.60058823529412,314.92090541244886
0.37746044921875,-0.19469677734375,0.7839448242187499,0.8916012075203964,1.6171875,-0.1572265625,4.951171875,46.55352941176471,314.92090541244886
0.32521435546875,-0.22399365234375,0.7707612304687499,0.866031412644454,1.57958984375,-0.1474609375,5.02587890625,45.61235294117647,314.92090541244886
0.27150341796875,-0.24303662109375,0.7985932617187499,0.8777995801001346,1.28564453125,0.2470703125,5.5556640625,46.27117647058824,314.6654679877099
0.23292919921875,-0.26110302734375,0.8161713867187499,0.8880126886678852,1.21142578125,0.61572265625,6.2880859375,46.55352941176471,314.6654679877099
0.20802685546875,-0.29235302734375,0.8220307617187499,0.8969281121724192,1.16162109375,1.021484375,6.9755859375,46.08294117647059,314.6654679877099
0.23097607421875,-0.31823193359375,0.8440034179687499,0.9311086295181968,1.04833984375,1.15673828125,7.43896484375,46.45941176470589,314.6654679877099
0.26222607421875,-0.33678662109375,0.8469331054687499,0.9484110012472774,0.8974609375,1.15576171875,7.62939453125,45.70647058823529,315.01018262735147
0.29347607421875,-0.32213818359375,0.8586518554687499,0.9629040577169964,0.8203125,1.2841796875,7.74267578125,45.70647058823529,315.01018262735147
0.30519482421875,-0.29967724609375,0.8640229492187499,0.9640985371490376,0.72216796875,1.65869140625,7.9306640625,46.41235294117647,315.01018262735147
0.31496044921875,-0.26842724609375,0.8620698242187499,0.9562518773033064,0.6708984375,2.11865234375,8.15869140625,46.36529411764706,315.01018262735147
0.31691357421875,-0.22985302734375,0.8547456054687499,0.9401365208156364,0.56103515625,2.52099609375,8.322265625,46.45941176470589,315.01018262735147
0.31642529296875,-0.18834912109375,0.8474213867187499,0.9239715169394976,0.42724609375,3.00830078125,8.35302734375,47.02411764705882,315.0316810674589
0.32716748046875,-0.13854443359375,0.8225190429687499,0.8959747186178364,0.3125,3.45751953125,8.20751953125,46.97705882352941,315.0316810674589
0.32863232421875,-0.09166943359375,0.8034760742187499,0.8729125336588945,0.22314453125,3.8056640625,7.9482421875,47.02411764705882,315.0316810674589
0.32277294921875,-0.05211865234375,0.7692963867187499,0.8358921349600215,0.15234375,3.984375,7.52490234375,46.36529411764706,315.0316810674589
0.31056591796875,-0.03014599609375,0.7439057617187499,0.8066943366620409,0.1318359375,4.00390625,7.14208984375,47.02411764705882,314.6869664319495
0.28810498046875,-0.02477490234375,0.7150971679687499,0.7713509157277041,0.19384765625,3.88037109375,6.8525390625,45.70647058823529,314.6869664319495
0.28419873046875,-0.03551708984375,0.7014252929687499,0.7576462391428568,0.2939453125,3.658203125,6.7451171875,46.45941176470589,314.6869664319495
0.28664013671875,-0.05260693359375,0.6877534179687499,0.7469503473243579,0.36572265625,3.35693359375,6.33203125,46.97705882352941,314.6869664319495
0.29054638671875,-0.07018505859375,0.6774995117187499,0.7405057283129375,0.404296875,3.109375,5.92919921875,45.65941176470588,314.6869664319495
0.28712841796875,-0.07164990234375,0.6887299804687499,0.7496168507361549,0.41455078125,2.9814453125,5.53564453125,46.45941176470589,315.3995465622955
0.26759716796875,-0.07702099609375,0.6843354492187499,0.7388203335057835,0.41748046875,2.96044921875,5.36474609375,45.70647058823529,315.3995465622955
0.25490185546875,-0.08288037109375,0.6916596679687499,0.7417797571575343,0.373046875,2.79736328125,5.4443359375,47.02411764705882,315.3995465622955
0.23585888671875,-0.08532177734375,0.7082612304687499,0.7513608924600829,0.34326171875,2.3427734375,5.62841796875,46.41235294117647,315.3995465622955
0.20167919921875,-0.08629833984375,0.7297456054687499,0.7620042989106138,0.302734375,1.595703125,5.88671875,46.36529411764706,315.2887679734988
0.23390576171875,-0.06139599609375,0.7697846679687499,0.8068765759032362,0.30517578125,0.81787109375,6.06787109375,45.61235294117647,315.2887679734988
0.34718701171875,-0.01598583984375,0.8337495117187499,0.9032898850717632,0.5361328125,0.83349609375,5.412109375,46.41235294117647,315.2887679734988
0.41798779296875,0.01086962890625,0.8879487304687499,0.981470779923942,0.64892578125,1.5625,4.33740234375,46.55352941176471,315.2887679734988
0.32374951171875,0.04114306640625,0.94751904296875,1.002147112473939,0.69091796875,2.1943359375,4.201171875,46.41235294117647,315.2887679734988
0.16505810546875,0.05823291015625,0.96314404296875,0.9789186368194184,0.6337890625,2.7783203125,5.54296875,45.80058823529412,315.0887114088819
0.11183544921875,0.09436572265625,0.95581982421875,0.9669558385386364,0.6103515625,3.06640625,6.87646484375,46.788823529411765,315.0887114088819
0.14796826171875,0.15198291015625,0.94458935546875,0.968112835324736,0.60498046875,2.94287109375,7.49462890625,46.41235294117647,315.0887114088819
0.21583935546875,0.20569384765625,0.94019482421875,0.986338123475172,0.65625,2.4619140625,6.69140625,46.36529411764706,315.0887114088819
0.23634716796875,0.21887744140625,0.93726513671875,0.991076815727122,0.66845703125,1.884765625,5.78466796875,46.27117647058824,315.4921162572698
0.19874951171875,0.19104541015625,0.93433544921875,0.974157301885591,0.63818359375,1.69482421875,5.369140625,45.65941176470588,315.4921162572698
0.14992138671875,0.17346728515625,0.94214794921875,0.96964430562565,0.55615234375,1.95654296875,5.4716796875,46.36529411764706,315.4921162572698
0.11232373046875,0.17835009765625,0.95484326171875,0.9778297562511132,0.46923828125,2.478515625,5.60546875,45.70647058823529,315.4921162572698
0.08351513671875,0.17932666015625,0.95386669921875,0.9741634919162284,0.43798828125,3.16162109375,5.4921875,46.55352941176471,315.4921162572698
0.06300732421875,0.18274462890625,0.93238232421875,0.9522091791275948,0.4638671875,3.67333984375,5.17529296875,46.224117647058826,315.3011605179534
0.05470654296875,0.19543994140625,0.8991791992187499,0.9217986813009348,0.4375,3.837890625,4.9375,46.41235294117647,315.3011605179534
0.06544873046875,0.22522509765625,0.8596284179687499,0.891050446334939,0.435546875,3.5361328125,4.78662109375,45.80058823529412,315.3011605179534
0.07570263671875,0.25696337890625,0.8142182617187499,0.8571536880988092,0.46923828125,2.86181640625,4.65234375,46.41235294117647,315.3011605179534
0.05910107421875,0.29504931640625,0.7834565429687499,0.8392563320024164,0.47216796875,1.97216796875,4.57177734375,46.97705882352941,315.45822434084005
0.04640576171875,0.32385791015625,0.7863862304687499,0.8517280928572927,0.45556640625,1.0107421875,4.58740234375,46.224117647058826,315.45822434084005
0.01466748046875,0.34387744140625,0.8029877929687499,0.8736453658940989,0.4853515625,0.17333984375,4.697265625,46.41235294117647,315.45822434084005
-0.01121142578125,0.34778369140625,0.8317963867187499,0.9016453965027352,0.53076171875,-0.31884765625,4.796875,45.65941176470588,315.45822434084005
-0.0033989257812499,0.33704150390625,0.8586518554687499,0.9224378228107194,0.599609375,-0.71728515625,4.88818359375,46.27117647058824,315.45822434084005
0.01759716796875,0.33264697265625,0.8947846679687499,0.9547791738249396,0.55908203125,-1.06689453125,5.08154296875,47.02411764705882,315.00107568515585
0.05519482421875,0.33899462890625,0.95044873046875,1.0106021058247816,0.50146484375,-0.978515625,5.19921875,46.36529411764706,315.00107568515585
0.10597607421875,0.35461962890625,1.03150341796875,1.0958947535204455,0.5263671875,-0.03662109375,5.005859375,45.61235294117647,315.00107568515585
0.15431591796875,0.37170947265625,1.08863232421875,1.160647091899533,0.609375,1.4111328125,4.380859375,46.36529411764706,315.00107568515585
0.15040966796875,0.37610400390625,1.10669873046875,1.1784987781045533,0.736328125,2.8916015625,3.6015625,46.36529411764706,315.1887393195442
0.11622998046875,0.34680712890625,1.06958935546875,1.1304008060648305,0.69873046875,3.7666015625,2.91455078125,46.97705882352941,315.1887393195442
0.07667919921875,0.29797900390625,1.01831982421875,1.0637887246811255,0.6201171875,3.7177734375,2.93017578125,46.27117647058824,315.1887393195442
0.04249951171875,0.25305712890625,0.95533154296875,0.9891928406421364,0.49462890625,3.12158203125,3.2080078125,45.61235294117647,315.1887393195442
0.01466748046875,0.22131884765625,0.91871044921875,0.9451063732802296,0.34326171875,1.89990234375,3.546875,47.02411764705882,315.1887393195442
-0.02683642578125,0.21741259765625,0.8991791992187499,0.9254791535610206,0.23828125,0.91064453125,3.716796875,46.83588235294118,315.01018262735147
-0.06443408203125,0.22376025390625,0.90894482421875,0.9382969122987954,0.1767578125,0.47216796875,3.76611328125,46.27117647058824,315.01018262735147
-0.08787158203125,0.23792041015625,0.92359326171875,0.9577849704343204,0.15234375,0.6533203125,3.697265625,47.02411764705882,315.01018262735147
-0.10935595703125,0.25256884765625,0.93970654296875,0.9791823808887216,0.14794921875,1.3525390625,3.568359375,46.88294117647059,315.01018262735147
-0.08738330078125,0.26819384765625,0.94703076171875,0.9881452549183676,0.18798828125,2.07568359375,3.5048828125,46.36529411764706,315.3565498774886
-0.03269580078125,0.28235400390625,0.93628857421875,0.9784830571467232,0.20263671875,2.48974609375,3.5302734375,46.41235294117647,315.3565498774886
0.04298779296875,0.28626025390625,0.93335888671875,0.9772162988446615,0.224609375,2.44287109375,3.46044921875,46.45941176470589,315.3565498774886
0.08253857421875,0.29407275390625,0.92408154296875,0.9732513030454032,0.24609375,2.1435546875,3.14404296875,46.27117647058824,315.3565498774886
0.05372998046875,0.31506884765625,0.92066357421875,0.9745648805789447,0.26318359375,1.9794921875,2.767578125,46.41235294117647,315.3565498774886
-0.0043754882812499,0.32922900390625,0.93238232421875,0.988811246106333,0.26025390625,2.009765625,2.55029296875,46.45941176470589,315.20113149706026
-0.04002001953125,0.33655322265625,0.95337841796875,1.011830065520977,0.2431640625,2.20166015625,2.54833984375,46.224117647058826,315.20113149706026
-0.05710986328125,0.33606494140625,0.96021435546875,1.018927274036109,0.2353515625,2.478515625,2.64013671875,46.224117647058826,315.20113149706026
-0.05173876953125,0.33215869140625,0.96119091796875,1.018280058399912,0.23583984375,2.8408203125,2.70361328125,46.224117647058826,315.20113149706026
-0.04783251953125,0.32288134765625,0.94898388671875,1.0035490679786658,0.21630859375,2.98095703125,2.7451171875,47.02411764705882,315.3226588183326
-0.05808642578125,0.31995166015625,0.94605419921875,1.000380750292713,0.16162109375,2.87744140625,2.79736328125,46.27117647058824,315.3226588183326
-0.06052783203125,0.32141650390625,0.95337841796875,1.007919934956302,0.1259765625,2.48779296875,2.97265625,46.41235294117647,315.3226588183326
-0.06638720703125,0.32385791015625,0.97193310546875,1.02661831696805,0.080078125,2.21533203125,3.126953125,45.61235294117647,315.3226588183326
-0.06248095703125,0.32825244140625,1.01343701171875,1.0671026717247665,0.0595703125,2.3505859375,3.55029296875,46.27117647058824,315.3226588183326
-0.04050830078125,0.31604541015625,1.05103466796875,1.0982711400128828,0.06591796875,2.9697265625,3.7431640625,46.41235294117647,315.2581640798956
-0.01462939453125,0.30530322265625,1.08130810546875,1.1236775764876064,0.13134765625,3.9736328125,3.67236328125,46.36529411764706,315.2581640798956
0.01173779296875,0.28137744140625,1.07398388671875,1.1102938481535498,0.21142578125,4.82861328125,3.484375,46.55352941176471,315.2581640798956
0.01271435546875,0.24622119140625,1.03101513671875,1.0600843089470204,0.18359375,5.1318359375,3.17919921875,45.70647058823529,315.2581640798956
0.01662060546875,0.22376025390625,0.97339794921875,0.9989236523867104,0.08740234375,4.8623046875,2.7109375,45.80058823529412,314.94404552756123
0.02150341796875,0.20764697265625,0.92701123046875,0.950226017141622,0.0712890625,3.9267578125,2.08447265625,46.55352941176471,314.94404552756123
0.00685498046875,0.19495166015625,0.8811127929687499,0.9024482780127048,-0.0087890625,2.99462890625,1.5185546875,46.36529411764706,314.94404552756123
-0.01218798828125,0.17688525390625,0.8654877929687499,0.8834625401711949,-0.005859375,1.80322265625,1.0263671875,46.27117647058824,314.94404552756123
-0.03269580078125,0.15393603515625,0.8635346679687499,0.8777570512916729,-0.00439453125,0.9462890625,0.591796875,46.45941176470589,314.94404552756123
-0.06052783203125,0.14026416015625,0.8654877929687499,0.8788667548910125,-0.00390625,0.41552734375,0.25048828125,45.70647058823529,315.37476187470475
-0.08884814453125,0.12073291015625,0.8757416992187499,0.8884784477588561,-0.03955078125,0.17431640625,0.07373046875,47.02411764705882,315.37476187470475
-0.11863330078125,0.11243212890625,0.8801362304687499,0.895184130695125,-0.0908203125,0.20458984375,0.0205078125,46.97705882352941,315.37476187470475
-0.14060595703125,0.10950244140625,0.8908784179687499,0.9085291274522274,-0.1494140625,0.3818359375,0.15478515625,45.61235294117647,315.37476187470475
-0.15525439453125,0.10559619140625,0.90455029296875,0.9238320816959226,-0.203125,0.4912109375,0.39013671875,46.36529411764706,314.92254718371646
-0.16892626953125,0.10120166015625,0.92261669921875,0.9433978133499288,-0.2177734375,0.6201171875,0.736328125,46.45941176470589,314.92254718371646
-0.17722705078125,0.08801806640625,0.93824169921875,0.9588816891021552,-0.203125,0.7197265625,1.20068359375,46.27117647058824,314.92254718371646
-0.17429736328125,0.08215869140625,0.95581982421875,0.9750493104402184,-0.2060546875,0.8291015625,1.57080078125,46.224117647058826,314.92254718371646
