AccX,AccY,AccZ,Magnitude,GyroX,GyroY,GyroZ,Temperature,Altitude
0.09718701171875,0.98987353515625,0.1750581054687499,1.0099209232112485,-0.06982421875,-0.21923828125,-0.03271484375,47.16529411764706,335.89828338195497
0.09914013671875,0.99719775390625,0.1706635742187499,1.0165422680190928,-0.06103515625,-0.05859375,0.01806640625,47.40058823529412,335.89828338195497
0.10255810546875,0.99817431640625,0.1770112304687499,1.01892252239436,-0.02880859375,0.07421875,0.0556640625,47.40058823529412,335.89828338195497
0.10988232421875,0.99329150390625,0.1701752929687499,1.0137365373927558,0.0029296875,0.11083984375,0.0595703125,47.63588235294118,335.89828338195497
0.10988232421875,0.99817431640625,0.1589448242187499,1.0167052415792537,0.0107421875,0.06201171875,0.076171875,47.16529411764706,335.8554031330286
0.10890576171875,1.00110400390625,0.1525971679687499,1.018506547472695,0.03173828125,-0.0859375,0.107421875,47.3064705882353,335.8554031330286
0.11037060546875,0.99963916015625,0.1486909179687499,1.0166460102493005,0.0615234375,-0.19189453125,0.11669921875,47.40058823529412,335.8554031330286
0.09083935546875,0.99573291015625,0.1486909179687499,1.010863396288837,0.07373046875,-0.26025390625,0.12158203125,47.40058823529412,335.8554031330286
0.05470654296875,0.99231494140625,0.1330659179687499,1.0026905241930568,0.1533203125,-0.1865234375,0.01513671875,47.25941176470588,335.8554031330286
0.00441357421875,0.99866259765625,0.1164643554687498,1.0054404058369968,0.33544921875,0.072265625,-0.068359375,47.3064705882353,335.96647847738313
-0.00828173828125,1.00989306640625,0.0974213867187498,1.0146149611328337,0.62109375,0.1171875,0.3876953125,47.3064705882353,335.96647847738313
0.08302685546875,1.02551806640625,0.0715424804687498,1.0313578863645072,0.8603515625,-0.49462890625,1.10546875,47.40058823529412,335.96647847738313
0.21290966796875,1.04993212890625,0.0647065429687498,1.0732543681379267,0.89501953125,-2.1494140625,1.69775390625,47.447647058823534,335.96647847738313
0.30958935546875,1.07532275390625,0.0940034179687498,1.1229431137318957,0.79541015625,-4.587890625,1.89990234375,47.118235294117646,335.9791363151481
0.34132763671875,1.11047900390625,0.1252534179687499,1.168484742055915,0.74072265625,-6.4912109375,1.76708984375,47.447647058823534,335.9791363151481
0.32912060546875,1.13293994140625,0.1774995117187499,1.1930546343056163,0.6279296875,-7.4970703125,1.423828125,47.25941176470588,335.9791363151481
0.29835888671875,1.12952197265625,0.2468354492187499,1.194054291474362,0.66552734375,-7.52685546875,1.00927734375,47.3064705882353,335.9791363151481
0.26271435546875,1.11536181640625,0.3181245117187499,1.1892241248068856,0.90234375,-6.755859375,0.79150390625,47.25941176470588,335.9791363151481
0.25929638671875,1.09680712890625,0.3610932617187499,1.1834732096011538,1.26611328125,-5.40625,0.57080078125,47.3064705882353,335.9274750051796
0.27345654296875,1.07971728515625,0.3776948242187499,1.176104279815032,1.57373046875,-3.85400390625,0.05126953125,47.3064705882353,335.9274750051796
0.30080029296875,1.08313525390625,0.3654877929687499,1.1820508116463566,1.75634765625,-2.22216796875,-0.7607421875,47.3064705882353,335.9274750051796
0.30714794921875,1.08948291015625,0.3293549804687499,1.1788925215605477,1.91357421875,-0.77001953125,-1.8876953125,47.118235294117646,335.9274750051796
0.26027294921875,1.07239306640625,0.2839448242187499,1.1394707368650774,1.96484375,0.3876953125,-3.04931640625,47.3064705882353,335.97423257497934
0.18117138671875,1.04016650390625,0.2170502929687499,1.0779054953436158,1.8984375,1.37109375,-3.60791015625,47.3064705882353,335.97423257497934
0.11964794921875,1.00940478515625,0.1506440429687499,1.0275734911579602,1.72265625,2.09912109375,-3.68212890625,47.3064705882353,335.97423257497934
0.09865185546875,0.97571337890625,0.0998627929687498,0.9857592828797496,1.5283203125,2.49560546875,-3.5576171875,47.25941176470588,335.97423257497934
0.11427685546875,0.95520556640625,0.0564057617187498,0.963669281311998,1.32080078125,2.505859375,-3.37548828125,47.25941176470588,335.97423257497934
0.14552685546875,0.94104541015625,0.0417573242187498,0.9531464755034648,1.11669921875,2.02978515625,-3.06103515625,47.3064705882353,335.8504972495106
0.17287060546875,0.94641650390625,0.0383393554687498,0.962838694319573,1.0078125,1.19677734375,-2.79052734375,47.25941176470588,335.8504972495106
0.18117138671875,0.95764697265625,0.0632416992187498,0.976683320285214,0.98876953125,0.32470703125,-2.63232421875,47.49470588235295,335.8504972495106
0.15724560546875,0.97327197265625,0.0739838867187498,0.988664821206578,1.056640625,-0.29931640625,-2.5947265625,47.3064705882353,335.8504972495106
0.11183544921875,0.99622119140625,0.1047456054687498,1.0079362439032853,1.12451171875,-0.5,-2.630859375,47.07117647058824,335.7462657787915
0.08058544921875,1.00989306640625,0.1110932617187498,1.0191760068803213,1.18359375,-0.25244140625,-2.6826171875,47.16529411764706,335.7462657787915
0.05861279296875,1.02112353515625,0.1106049804687498,1.028767318325231,1.1845703125,0.23876953125,-2.74853515625,47.25941176470588,335.7462657787915
0.03615185546875,1.01965869140625,0.0940034179687498,1.0246206352616305,1.13525390625,0.8271484375,-2.845703125,47.3064705882353,335.7462657787915
0.02150341796875,1.01477587890625,0.0744721679687498,1.0177320792803264,1.02490234375,1.35791015625,-2.8994140625,47.07117647058824,335.7462657787915
0.01222607421875,1.13245166015625,0.0481049804687498,1.1335388518385012,0.9716796875,1.7333984375,-2.84765625,47.49470588235295,335.8699985751222
0.03322216796875,0.99963916015625,0.0119721679687498,1.0002627133749955,0.92333984375,1.8505859375,-2.7529296875,47.3064705882353,335.8699985751222
0.05324169921875,0.98499072265625,-0.0100004882812501,0.9864793013644254,0.9091796875,1.60888671875,-2.77490234375,47.3064705882353,335.8699985751222
0.05372998046875,0.97327197265625,-0.0319731445312501,0.9752781785370658,0.8671875,1.24072265625,-2.82421875,47.58882352941177,335.8699985751222
0.02980419921875,0.97278369140625,-0.0451567382812501,0.9742871915247796,0.84521484375,0.51953125,-2.859375,47.3064705882353,335.827118970515
0.00392529296875,0.96692431640625,-0.0627348632812501,0.968965275256808,0.72900390625,0.12451171875,-2.79150390625,47.3064705882353,335.827118970515
-0.02000048828125,0.96741259765625,-0.0505278320312501,0.968937673663936,0.572265625,-0.53076171875,-2.6669921875,47.49470588235295,335.827118970515
-0.04050830078125,0.96106494140625,-0.0378325195312501,0.962661957057858,0.4150390625,-0.9541015625,-2.44287109375,47.25941176470588,335.827118970515
-0.05613330078125,0.96790087890625,-0.0090239257812501,0.9695692291325024,0.32763671875,-1.20458984375,-2.29541015625,47.3064705882353,335.827118970515
-0.06589892578125,0.96741259765625,0.0129487304687498,0.9697409304262083,0.2451171875,-1.30029296875,-2.28466796875,47.58882352941177,335.83099667446675
-0.07566455078125,0.97131884765625,0.0329682617187498,0.9748191290377664,0.18408203125,-1.3427734375,-2.28515625,47.25941176470588,335.83099667446675
-0.09080126953125,0.95764697265625,0.0407807617187498,0.9628061410857996,0.146484375,-1.2919921875,-2.212890625,47.16529411764706,335.83099667446675
-0.11716845703125,0.95422900390625,0.0388276367187498,0.9621793100000442,0.10791015625,-1.1767578125,-2.232421875,47.118235294117646,335.83099667446675
-0.15330126953125,0.95227587890625,0.0412690429687498,0.9654189570824266,0.15966796875,-1.09765625,-2.18798828125,47.25941176470588,335.90797439492445
-0.17039111328125,0.95227587890625,0.0407807617187498,0.9682590312298958,0.21630859375,-0.978515625,-2.00439453125,47.118235294117646,335.90797439492445
-0.16843798828125,0.95715869140625,0.0500581054687498,0.9731546281829418,0.23876953125,-0.69921875,-1.86767578125,47.3064705882353,335.90797439492445
-0.15916064453125,0.96936572265625,0.0515229492187498,0.9836953945834424,0.25732421875,-0.22509765625,-1.70458984375,47.118235294117646,335.90797439492445
-0.13181689453125,0.99719775390625,0.0534760742187498,1.007292779976796,0.298828125,0.39013671875,-1.626953125,47.49470588235295,335.90797439492445
-0.08689501953125,1.03577197265625,0.0398041992187498,1.040172436682977,0.3466796875,0.9970703125,-1.70703125,47.40058823529412,335.92941399825605
-0.06834033203125,1.07239306640625,0.0080659179687498,1.074598692019965,0.26806640625,1.33447265625,-2.02294921875,47.25941176470588,335.92941399825605
-0.05955126953125,1.09827197265625,-0.0183012695312501,1.1000375521278762,0.14697265625,1.35595703125,-2.38623046875,47.3064705882353,335.92941399825605
-0.07273486328125,1.12219775390625,-0.0344145507812501,1.1250788952399071,0.0673828125,1.0048828125,-2.62548828125,47.118235294117646,335.92941399825605
-0.10642626953125,1.12268603515625,-0.0495512695312501,1.128807252232797,-0.0107421875,0.6435546875,-2.56201171875,47.40058823529412,336.0317109690831
-0.08298876953125,1.10706103515625,-0.0451567382812501,1.111085236353062,-0.16845703125,0.45263671875,-2.45361328125,47.3064705882353,336.0317109690831
-0.06931689453125,1.05627978515625,-0.0534575195312501,1.0599007136480398,-0.41162109375,0.646484375,-2.61083984375,47.49470588235295,336.0317109690831
-0.15769580078125,0.90686572265625,-0.1345122070312501,0.9302510082516976,-1.1748046875,1.86572265625,-2.833984375,47.40058823529412,336.0317109690831
-0.04880908203125,0.97327197265625,0.0647065429687498,0.976640975973202,-0.77197265625,1.8095703125,-2.462890625,47.25941176470588,336.0317109690831
-0.04002001953125,1.02307666015625,-0.0119536132812501,1.0239288761384877,0.193359375,-0.00341796875,-1.7490234375,47.49470588235295,336.1194092438724
0.03615185546875,1.04163134765625,0.0046479492187498,1.042268883017213,0.04736328125,-1.56298828125,-1.82763671875,47.3064705882353,336.1194092438724
0.01124951171875,1.11877978515625,0.0617768554687498,1.1205405566331734,0.06591796875,-2.77001953125,-2.67822265625,47.40058823529412,336.1194092438724
-0.13474658203125,1.10706103515625,0.0515229492187498,1.1164207948737477,-0.244140625,-2.18408203125,-3.1962890625,47.16529411764706,336.1194092438724
-0.22117236328125,1.06751025390625,0.0915620117187498,1.094019633491275,-0.5615234375,-0.79443359375,-3.17529296875,47.40058823529412,335.7968982141385
-0.20945361328125,1.02551806640625,0.1320893554687499,1.0549908617947052,-0.35302734375,0.19384765625,-3.130859375,47.40058823529412,335.7968982141385
-0.18113330078125,0.95520556640625,0.1135346679687498,0.9788345455571998,0.0205078125,0.51953125,-3.2353515625,47.40058823529412,335.7968982141385
-0.17478564453125,0.89417041015625,0.0695893554687498,0.9137469137172266,0.2138671875,0.6083984375,-3.1748046875,47.118235294117646,335.7968982141385
-0.16404345703125,0.86829150390625,0.0393159179687498,0.8845259368476802,0.2841796875,0.32666015625,-2.94287109375,47.447647058823534,335.7968982141385
-0.16892626953125,0.87659228515625,0.0070893554687498,0.8927487764730698,0.16455078125,-0.05810546875,-2.7978515625,47.40058823529412,335.68388430315287
-0.20408251953125,0.90491259765625,-0.0075590820312501,0.927671075272028,0.0302734375,-0.22265625,-2.76025390625,47.63588235294118,335.68388430315287
-0.22263720703125,0.93909228515625,-0.0270903320312501,0.9655027354100176,-0.07861328125,-0.00048828125,-2.7021484375,47.16529411764706,335.68388430315287
-0.24900439453125,0.93811572265625,-0.0558989257812501,0.9722083045799548,-0.26708984375,0.484375,-2.8330078125,47.40058823529412,335.68388430315287
-0.23728564453125,0.92102587890625,-0.0602934570312501,0.9530102033432908,-0.4404296875,1.04931640625,-2.95458984375,47.49470588235295,335.92941399825605
-0.22214892578125,0.87610400390625,-0.0798247070312501,0.9073479788586906,-0.5615234375,1.5380859375,-3.02880859375,47.118235294117646,335.92941399825605
-0.22459033203125,0.84241259765625,-0.1091215820312501,0.8786394719091903,-0.70458984375,1.53662109375,-2.98095703125,47.25941176470588,335.92941399825605
-0.22605517578125,0.81458056640625,-0.1364653320312501,0.8563090730049625,-0.8544921875,1.0888671875,-2.7939453125,47.3064705882353,335.92941399825605
-0.23240283203125,0.79260791015625,-0.1642973632812501,0.8421591293571391,-1.09375,0.41748046875,-2.78515625,47.25941176470588,335.92941399825605
-0.24753955078125,0.77551806640625,-0.1926176757812501,0.8365438838141384,-1.47216796875,-0.18505859375,-2.78125,47.3064705882353,335.7968982141385
-0.23777392578125,0.76917041015625,-0.1833403320312501,0.8256956079516775,-1.93505859375,-0.65673828125,-2.8837890625,47.40058823529412,335.7968982141385
-0.27097705078125,0.77600634765625,-0.1530668945312501,0.8360884449951079,-2.2939453125,-0.94775390625,-2.74072265625,47.3064705882353,335.7968982141385
-0.31785205078125,0.79163134765625,-0.1491606445312501,0.8660017405611116,-2.54736328125,-1.15478515625,-2.2890625,47.58882352941177,335.7968982141385
-0.33787158203125,0.83362353515625,-0.1266997070312501,0.9083711906883154,-2.82275390625,-1.3134765625,-1.90283203125,47.3064705882353,335.8524362087582
-0.33933642578125,0.87756884765625,-0.1032622070312501,0.9465407416691988,-3.1044921875,-1.287109375,-1.89013671875,47.25941176470588,335.8524362087582
-0.35593798828125,0.93469775390625,-0.0744536132812501,1.002943210351277,-3.38623046875,-1.076171875,-1.78466796875,47.3064705882353,335.8524362087582
-0.35007861328125,0.97473681640625,-0.0544340820312501,1.0371258197640725,-3.5537109375,-0.8779296875,-1.79150390625,47.16529411764706,335.8524362087582
-0.38230517578125,1.00452197265625,-0.0666411132812501,1.0768763526782918,-3.638671875,-0.87158203125,-1.9755859375,47.3064705882353,335.8524362087582
-0.39500048828125,1.00647509765625,-0.0729887695312501,1.0836719376371566,-3.875,-1.10888671875,-1.9404296875,47.3064705882353,336.0190513418816
-0.34519580078125,0.99133837890625,-0.0451567382812501,1.050690750593,-3.9677734375,-1.400390625,-1.7939453125,47.25941176470588,336.0190513418816
-0.33250048828125,0.97473681640625,-0.0295317382812501,1.0303109043055758,-3.9853515625,-1.9091796875,-1.7490234375,47.118235294117646,336.0190513418816
-0.33250048828125,0.95715869140625,0.0070893554687498,1.0132914655728416,-4.04248046875,-2.34716796875,-1.33642578125,47.25941176470588,336.0190513418816
-0.35837939453125,0.94885791015625,0.0349213867187498,1.0148825682516338,-4.15625,-2.57177734375,-1.19482421875,47.16529411764706,336.0599914810565
-0.37986376953125,0.96057666015625,0.0817963867187498,1.036192381905826,-4.21826171875,-2.37890625,-1.1494140625,47.118235294117646,336.0599914810565
-0.38767626953125,0.97083056640625,0.1208588867187498,1.052336328901194,-4.29150390625,-1.916015625,-0.9931640625,47.447647058823534,336.0599914810565
-0.38962939453125,0.97278369140625,0.1574799804687499,1.0596787813281894,-4.28271484375,-1.4697265625,-0.77978515625,47.118235294117646,336.0599914810565
-0.38865283203125,0.97522509765625,0.1604096679687499,1.0620010718084978,-4.291015625,-1.18798828125,-0.6416015625,47.3064705882353,336.0599914810565
-0.36375048828125,0.95374072265625,0.1667573242187499,1.0342841915829086,-4.25634765625,-1.24951171875,-0.654296875,47.58882352941177,335.89337672147803
-0.33689501953125,0.92297900390625,0.1862885742187499,1.000045963304282,-4.19287109375,-1.240234375,-0.72412109375,47.07117647058824,335.89337672147803
-0.34226611328125,0.88147509765625,0.1823823242187499,0.96302012039011,-4.0625,-1.4931640625,-0.75537109375,47.40058823529412,335.89337672147803
-0.37253955078125,0.86096728515625,0.1794526367187499,0.9551196950282884,-4.01318359375,-1.91943359375,-0.71142578125,47.25941176470588,335.89337672147803
-0.42087939453125,0.86536181640625,0.1862885742187499,0.9801499736873794,-3.984375,-2.43603515625,-0.46142578125,47.25941176470588,335.73064065203124
-0.48679736328125,0.89710009765625,0.2136323242187499,1.0427842672688996,-3.9716796875,-3.0927734375,-0.07470703125,47.118235294117646,335.73064065203124
-0.49998095703125,0.96252978515625,0.2727143554687499,1.1183995996000522,-3.86083984375,-3.7412109375,0.53857421875,47.3064705882353,335.73064065203124
-0.47898486328125,1.03040087890625,0.3269135742187499,1.182381053430665,-3.68701171875,-4.14306640625,0.8642578125,47.25941176470588,335.73064065203124
-0.40964892578125,1.07727587890625,0.3615815429687499,1.2079225032602992,-3.51904296875,-4.197265625,0.642578125,47.40058823529412,335.73064065203124
-0.40085986328125,1.09290087890625,0.4025971679687499,1.2317489357658784,-3.17822265625,-4.05126953125,0.4208984375,47.447647058823534,335.662444693077
-0.36423876953125,1.07581103515625,0.4108979492187499,1.2078395544383267,-2.78515625,-3.8076171875,0.28173828125,47.3064705882353,335.662444693077
-0.30076220703125,1.05725634765625,0.4196870117187499,1.1765993700674653,-2.42431640625,-3.6396484375,-0.12255859375,47.16529411764706,335.662444693077
-0.26560595703125,1.02795947265625,0.4104096679687499,1.1382808517217626,-2.19287109375,-3.41162109375,-0.64599609375,47.49470588235295,335.662444693077
-0.27683642578125,0.99426806640625,0.3791596679687499,1.099531467639164,-2.13623046875,-3.07958984375,-1.20654296875,47.3064705882353,335.6965425646085
-0.30027392578125,0.97620166015625,0.3557221679687499,1.0815139262072817,-2.21337890625,-2.85986328125,-1.560546875,47.3064705882353,335.6965425646085
-0.31394580078125,0.95374072265625,0.3254487304687499,1.055509454265933,-2.451171875,-2.7626953125,-1.732421875,47.25941176470588,335.6965425646085
-0.28220751953125,0.91272509765625,0.3205659179687499,1.007705659274939,-2.68359375,-2.802734375,-1.943359375,46.55352941176471,335.6965425646085
-0.25193408203125,0.84827197265625,0.3396088867187499,0.9478239906340222,-2.82177734375,-3.046875,-2.0908203125,47.49470588235295,335.6965425646085
-0.29343798828125,0.78430712890625,0.3435151367187499,0.9051221876490564,-2.80517578125,-3.2939453125,-2.056640625,47.40058823529412,335.8524362087582
-0.31492236328125,0.73840869140625,0.3527924804687499,0.8768614626691217,-2.74560546875,-3.5205078125,-1.90283203125,47.3064705882353,335.8524362087582
-0.30369189453125,0.71350634765625,0.3615815429687499,0.8556058012691378,-2.81689453125,-3.71435546875,-1.708984375,47.118235294117646,335.8524362087582
-0.30613330078125,0.69446337890625,0.3781831054687499,0.8479501422554846,-2.8515625,-3.57373046875,-1.42724609375,47.447647058823534,335.8524362087582
-0.29539111328125,0.69251025390625,0.3864838867187499,0.8462837327185645,-2.90087890625,-3.21728515625,-1.150390625,47.3064705882353,335.7627999696967
-0.27927783203125,0.69788134765625,0.3947846679687499,0.8490520696245754,-2.97607421875,-2.9091796875,-0.77685546875,47.25941176470588,335.7627999696967
-0.30222705078125,0.72815478515625,0.3889252929687499,0.8790980974161557,-3.14794921875,-2.8896484375,-0.58740234375,47.40058823529412,335.7627999696967
-0.31589892578125,0.77405322265625,0.3952729492187499,0.9247654984904888,-3.30078125,-3.02099609375,-0.70458984375,47.16529411764706,335.7627999696967
-0.29343798828125,0.79553759765625,0.4113862304687499,0.9424566583512008,-3.5205078125,-3.12939453125,-0.67822265625,47.3064705882353,335.7627999696967
-0.25632861328125,0.82288134765625,0.4567963867187499,0.9754491320548502,-3.6044921875,-3.2451171875,-0.623046875,47.16529411764706,336.04631161298346
-0.21384814453125,0.83362353515625,0.4939057617187499,0.9922711971758732,-3.6337890625,-3.29638671875,-0.81787109375,47.3064705882353,336.04631161298346
-0.21287158203125,0.83655322265625,0.5173432617187499,1.006369542076289,-3.62109375,-3.32666015625,-1.21533203125,47.3064705882353,336.04631161298346
-0.28367236328125,0.83752978515625,0.5119721679687499,1.0217835639156003,-3.64501953125,-3.2568359375,-1.48681640625,47.25941176470588,336.04631161298346
-0.31052783203125,0.87219775390625,0.5256440429687499,1.064639899822315,-3.69873046875,-3.1982421875,-1.45947265625,47.3064705882353,336.0229315526531
-0.27244189453125,0.90051806640625,0.5510346679687499,1.0903194848865438,-3.87841796875,-3.2666015625,-1.46142578125,47.25941176470588,336.0229315526531
-0.22166064453125,0.93274462890625,0.5832612304687499,1.1222030329024189,-3.91650390625,-3.3720703125,-1.64990234375,47.49470588235295,336.0229315526531
-0.20457080078125,0.93030322265625,0.5930268554687499,1.122049085345218,-3.8759765625,-3.30712890625,-2.0185546875,47.16529411764706,336.0229315526531
-0.22849658203125,0.91467822265625,0.6018159179687499,1.1184942280236092,-3.861328125,-3.22265625,-2.24609375,47.3064705882353,336.0229315526531
-0.25291064453125,0.88928759765625,0.5891206054687499,1.0962934430389992,-3.84765625,-3.27099609375,-2.33984375,47.3064705882353,335.89919424282675
-0.25925830078125,0.86194384765625,0.5876557617187499,1.074942490237355,-3.91796875,-3.41552734375,-2.3544921875,47.40058823529412,335.89919424282675
-0.23679736328125,0.84436572265625,0.5788666992187499,1.0507678717576847,-4.072265625,-3.591796875,-2.39208984375,47.63588235294118,335.89919424282675
-0.20310595703125,0.80481494140625,0.5964448242187499,1.0221181673513395,-4.2734375,-3.83154296875,-2.47119140625,47.3064705882353,335.89919424282675
-0.17429736328125,0.73450244140625,0.6145112304687499,0.9733948118059572,-4.36572265625,-4.06103515625,-2.68359375,47.3064705882353,335.9440130523583
-0.18992236328125,0.63684619140625,0.6247651367187499,0.9121266642534792,-4.44482421875,-4.16650390625,-2.80517578125,47.3064705882353,335.9440130523583
-0.19529345703125,0.56946337890625,0.6482026367187499,0.8846438450154274,-4.62841796875,-4.12939453125,-2.46875,47.49470588235295,335.9440130523583
-0.18259814453125,0.51721728515625,0.6657807617187499,0.8626238027816389,-4.88037109375,-4.50927734375,-2.03955078125,47.25941176470588,335.9440130523583
-0.16746142578125,0.48157275390625,0.7043549804687499,0.8695237690487085,-5.14111328125,-5.0302734375,-1.9248046875,47.40058823529412,335.9440130523583
-0.18650439453125,0.44348681640625,0.7439057617187499,0.8859233758198124,-5.34619140625,-5.443359375,-1.97802734375,47.25941176470588,335.8007771904511
-0.20261767578125,0.39319384765625,0.7878510742187499,0.9035289920757164,-5.54150390625,-5.54736328125,-1.943359375,47.3064705882353,335.8007771904511
-0.21384814453125,0.35754931640625,0.8161713867187499,0.9163559761798044,-5.705078125,-5.18408203125,-1.72412109375,47.40058823529412,335.8007771904511
-0.20652392578125,0.33606494140625,0.8171479492187499,0.9073712292523354,-5.88427734375,-4.5205078125,-1.3291015625,47.25941176470588,335.8007771904511
-0.23728564453125,0.34485400390625,0.8215424804687499,0.922041652164114,-6.0908203125,-3.86376953125,-0.91455078125,47.3064705882353,335.7773980756292
-0.30271533203125,0.35559619140625,0.8122651367187499,0.9369417676238742,-6.208984375,-3.37890625,-0.57861328125,47.447647058823534,335.7773980756292
-0.32712939453125,0.37366259765625,0.7893159179687499,0.9325540177450576,-6.0869140625,-3.14453125,-0.29541015625,47.25941176470588,335.7773980756292
-0.26414111328125,0.39563525390625,0.8068940429687499,0.936683392848072,-5.9990234375,-3.287109375,-0.06689453125,47.3064705882353,335.7773980756292
-0.19578173828125,0.39172900390625,0.8386323242187499,0.946089994012384,-5.38671875,-3.48779296875,0.03515625,47.3064705882353,335.7773980756292
-0.07810595703125,0.34436572265625,0.8327729492187499,0.9045435735302216,-4.83544921875,-3.3916015625,0.35107421875,47.3064705882353,335.8095571943252
-0.20115283203125,0.33655322265625,0.7854096679687499,0.8778376159935741,-4.623046875,-2.87744140625,0.8212890625,47.25941176470588,335.8095571943252
-0.15037158203125,0.34338916015625,0.7316987304687499,0.8221379204032471,-4.38623046875,-2.46533203125,0.98046875,47.447647058823534,335.8095571943252
-0.12449267578125,0.35315478515625,0.6892182617187499,0.7843714304387608,-4.642578125,-2.49560546875,1.02392578125,47.40058823529412,335.8095571943252
-0.14060595703125,0.35413134765625,0.6931245117187499,0.790949198931803,-5.10107421875,-2.9921875,1.29052734375,47.118235294117646,335.9547327673955
-0.17136767578125,0.35852587890625,0.7316987304687499,0.8326408099040948,-5.68505859375,-3.5966796875,1.62060546875,47.40058823529412,335.9547327673955
-0.21921923828125,0.35315478515625,0.7854096679687499,0.8886189977994791,-6.20166015625,-3.81298828125,1.6162109375,47.3064705882353,335.9547327673955
-0.27097705078125,0.33167041015625,0.8537690429687499,0.9551729695479736,-6.5751953125,-3.65380859375,1.56640625,47.16529411764706,335.9547327673955
-0.31199267578125,0.31946337890625,0.90699169921875,1.0109551041737994,-6.64697265625,-3.291015625,1.7890625,47.25941176470588,335.9547327673955
-0.28123095703125,0.31165087890625,0.95386669921875,1.042151045383645,-6.41845703125,-3.1376953125,2.0634765625,47.118235294117646,335.86509535070104
-0.19041064453125,0.30042041015625,0.99976513671875,1.0611498315447805,-6.18359375,-3.22900390625,2.18115234375,47.40058823529412,335.86509535070104
-0.10007861328125,0.28040087890625,1.04371044921875,1.0853441313869534,-6.01025390625,-3.32080078125,2.08251953125,47.40058823529412,335.86509535070104
-0.02878955078125,0.25940478515625,1.08619091796875,1.1171080480750026,-5.97509765625,-3.26416015625,1.97802734375,47.3064705882353,335.86509535070104
-0.01755908203125,0.23987353515625,1.11402294921875,1.1396906446997703,-5.87255859375,-3.20947265625,2.1943359375,47.16529411764706,335.7345194402112
-0.01658251953125,0.23645556640625,1.14039013671875,1.1647643018069855,-5.88525390625,-3.375,2.39697265625,47.118235294117646,335.7345194402112
-0.01902392578125,0.26282275390625,1.18091748046875,1.2099602495122128,-5.94921875,-3.18701171875,2.21630859375,47.447647058823534,335.7345194402112
-0.04294970703125,0.30725634765625,1.21314404296875,1.2521859324795552,-5.85107421875,-2.83447265625,2.1005859375,47.25941176470588,335.7345194402112
-0.01853564453125,0.38049853515625,1.19605419921875,1.255256289704635,-5.71337890625,-2.2861328125,1.94189453125,47.3064705882353,335.7345194402112
0.03224560546875,0.43909228515625,1.13111279296875,1.2137783835500409,-5.70166015625,-1.69580078125,1.478515625,47.49470588235295,335.7793379119944
0.09718701171875,0.47571337890625,1.06958935546875,1.1746360812818917,-5.78125,-1.33935546875,0.7900390625,47.3064705882353,335.7793379119944
0.13234326171875,0.47522509765625,0.99732373046875,1.1126581935710775,-5.947265625,-1.34619140625,-0.03369140625,47.49470588235295,335.7793379119944
0.11525341796875,0.44934619140625,0.93970654296875,1.047971248166218,-5.93408203125,-1.923828125,-0.8603515625,47.3064705882353,335.7793379119944
0.08546826171875,0.36194384765625,0.9001557617187499,0.973955115995033,-5.8701171875,-2.82958984375,-1.4990234375,47.447647058823534,335.854375623484
0.10451123046875,0.28137744140625,0.8855073242187499,0.9349968358617424,-5.80615234375,-3.58154296875,-2.0185546875,47.25941176470588,335.854375623484
0.13136669921875,0.23059619140625,0.90943310546875,0.9473649700496805,-5.65380859375,-4.00830078125,-2.2177734375,47.3064705882353,335.854375623484
0.18214794921875,0.19592822265625,0.94361279296875,0.9808011250463156,-5.39013671875,-4.02978515625,-2.32470703125,47.16529411764706,335.854375623484
0.21486279296875,0.19885791015625,0.94898388671875,0.9931167632689866,-5.0615234375,-3.68505859375,-2.65380859375,47.3064705882353,335.854375623484
0.19826123046875,0.20081103515625,0.94458935546875,0.985840574237222,-4.9091796875,-3.47119140625,-2.9287109375,47.40058823529412,335.9011343275742
0.17384716796875,0.23206103515625,0.94996044921875,0.993227072188648,-4.66455078125,-3.60595703125,-3.09423828125,47.3064705882353,335.9011343275742
0.14845654296875,0.26575244140625,0.91138623046875,0.9608790591701184,-4.41064453125,-4.0791015625,-3.4892578125,47.49470588235295,335.9011343275742
0.14357373046875,0.27600634765625,0.92310498046875,0.9741230543383456,-4.2763671875,-5.169921875,-3.86279296875,47.25941176470588,335.9011343275742
0.13136669921875,0.24866259765625,0.8913666992187499,0.934679030262749,-4.3544921875,-6.64501953125,-3.76025390625,47.25941176470588,335.95861370097606
0.19386669921875,0.24377978515625,0.92994091796875,0.9807155508246832,-4.5,-8.25146484375,-3.47802734375,47.118235294117646,335.95861370097606
0.25587841796875,0.22083056640625,0.95191357421875,1.0101382858912986,-4.41748046875,-9.34619140625,-3.20654296875,47.3064705882353,335.95861370097606
0.26466748046875,0.21985400390625,1.01050732421875,1.0674782014406776,-4.47265625,-9.4833984375,-3.0458984375,47.3064705882353,335.95861370097606
0.27540966796875,0.16418994140625,0.8762299804687499,0.933052946376523,-5.35400390625,-7.341796875,-3.71337890625,47.3064705882353,335.95861370097606
0.22999951171875,0.20422900390625,1.07789013671875,1.120917663462829,-5.2265625,-6.0771484375,-4.51171875,47.40058823529412,335.8904146802145
0.06544873046875,0.00598681640625,1.22730419921875,1.2290626410849166,-2.90380859375,-5.69091796875,-3.4189453125,47.3064705882353,335.8904146802145
0.21437451171875,-0.07995068359375,0.96851513671875,0.9951734085751583,-2.46630859375,-5.46826171875,-3.318359375,47.118235294117646,335.8904146802145
0.26759716796875,0.0172172851562499,0.96558544921875,1.0021277059117877,-1.85791015625,-6.0595703125,-3.49072265625,47.40058823529412,335.8904146802145
0.22609326171875,-0.00084912109375,0.8952729492187499,0.9233810359781564,-1.068359375,-6.00537109375,-3.36181640625,47.118235294117646,336.1486121167783
0.24367138671875,-0.07116162109375,0.8322846679687499,0.8701364775470463,-1.275390625,-5.5361328125,-3.6435546875,47.25941176470588,336.1486121167783
0.26417919921875,-0.07750927734375,0.8210541992187499,0.8659840272366188,-1.40869140625,-5.12646484375,-4.17822265625,47.3064705882353,336.1486121167783
0.21339794921875,-0.05114208984375,0.8020112304687499,0.8314903558564901,-1.20556640625,-5.17431640625,-4.22216796875,47.447647058823534,336.1486121167783
0.23390576171875,-0.07262646484375,0.7546479492187499,0.7933977791883426,-1.10888671875,-5.404296875,-4.04248046875,47.49470588235295,336.1486121167783
0.35109326171875,-0.05407177734375,0.7546479492187499,0.8340765928795075,-0.9326171875,-5.43408203125,-3.92578125,47.25941176470588,335.9118539884616
0.43458935546875,-0.03747021484375,0.7678315429687499,0.883083916321066,-0.55419921875,-5.8740234375,-3.76025390625,47.118235294117646,335.9118539884616
0.43849560546875,-0.06627880859375,0.7888276367187499,0.9049421622044695,-0.4228515625,-6.70703125,-3.505859375,47.07117647058824,335.9118539884616
0.40724560546875,-0.11559521484375,0.97339794921875,1.061468230523952,-0.3076171875,-7.57861328125,-3.46484375,47.3064705882353,335.9118539884616
0.34474560546875,-0.11950146484375,0.8947846679687499,0.9663176158084684,-0.1005859375,-7.98583984375,-3.29638671875,47.118235294117646,335.7199209065494
0.34718701171875,-0.09362255859375,0.93970654296875,1.006157239939223,0.12353515625,-8.03564453125,-3.1025390625,47.40058823529412,335.7199209065494
0.35158154296875,-0.05016552734375,0.93970654296875,1.0045768006420628,0.22412109375,-7.66455078125,-2.98779296875,47.49470588235295,335.7199209065494
0.37599560546875,-0.05114208984375,0.92945263671875,1.0039274936910707,0.19482421875,-7.3115234375,-2.83056640625,47.3064705882353,335.7199209065494
0.42775341796875,-0.05700146484375,0.90162060546875,0.9995708428041088,0.09765625,-7.06787109375,-2.7626953125,47.25941176470588,335.7199209065494
0.43898388671875,-0.07702099609375,0.8982026367187499,1.0026998869285308,0.02880859375,-6.91455078125,-2.62841796875,47.3064705882353,335.6789815275149
0.39455029296875,-0.08581005859375,0.8708588867187499,0.9599106731433972,0.12353515625,-6.97314453125,-2.17138671875,47.118235294117646,335.6789815275149
0.42042919921875,-0.04723583984375,0.97583935546875,1.0636044301351557,0.30029296875,-6.1982421875,-1.67333984375,47.25941176470588,335.6789815275149
0.64015576171875,-0.21081005859375,0.95777294921875,1.1711401719355354,0.3232421875,-6.16357421875,-2.07470703125,47.3064705882353,335.6789815275149
0.48976513671875,-0.30602490234375,0.95533154296875,1.1163240958568843,0.55419921875,-6.2421875,-1.75927734375,47.49470588235295,335.87775484118487
0.49269482421875,-0.30797802734375,0.7873627929687499,0.978539126908088,0.32470703125,-5.0859375,-0.1865234375,47.49470588235295,335.87775484118487
0.66847607421875,-0.17174755859375,0.8156831054687499,1.068501948633211,-0.65966796875,-5.841796875,0.7109375,47.3064705882353,335.87775484118487
0.86574169921875,-0.13659130859375,0.90455029296875,1.259514631856007,-0.5625,-7.8857421875,0.10791015625,47.25941176470588,335.87775484118487
0.78615185546875,-0.18053662109375,0.8889252929687499,1.20034011342306,-0.8759765625,-9.0185546875,0.27685546875,47.16529411764706,335.87775484118487
0.89992138671875,-0.24743115234375,0.96070263671875,1.339414138204578,-0.77001953125,-10.029296875,0.66552734375,47.25941176470588,335.7754586947422
0.83986279296875,-0.32799755859375,0.7360932617187499,1.1639524042693834,-0.8359375,-9.607421875,1.47412109375,47.3064705882353,335.7754586947422
0.93410107421875,-0.29284130859375,0.92798779296875,1.348874416976812,-0.52197265625,-9.291015625,2.40576171875,47.40058823529412,335.7754586947422
0.86622998046875,-0.34215771484375,0.8928315429687499,1.290183880309294,-0.83642578125,-8.51953125,2.70458984375,47.16529411764706,335.7754586947422
0.83400341796875,-0.37682568359375,1.05591748046875,1.3973263836909855,-0.81396484375,-7.91943359375,3.08056640625,47.40058823529412,335.8455958402384
0.76417919921875,-0.39245068359375,1.05103466796875,1.3574465959454878,-1.39208984375,-7.45263671875,3.58349609375,47.118235294117646,335.8455958402384
0.87794873046875,-0.33727490234375,1.02710888671875,1.3926596850125683,-2.412109375,-7.35302734375,4.14208984375,47.25941176470588,335.8455958402384
0.98146435546875,-0.40416943359375,1.00464794921875,1.461486474099785,-3.90673828125,-7.55517578125,4.66796875,47.447647058823534,335.8455958402384
1.01515576171875,-0.43590771484375,0.92017529296875,1.437803646608674,-4.5517578125,-7.0498046875,5.365234375,47.3064705882353,335.8455958402384
0.92580029296875,-0.39098583984375,0.8532807617187499,1.3183566162987448,-4.91162109375,-5.67724609375,6.462890625,47.118235294117646,336.09113120153995
0.99122998046875,-0.27965771484375,0.8293549804687499,1.3223369446854412,-4.46875,-4.431640625,7.876953125,47.118235294117646,336.09113120153995
1.01759716796875,-0.34069287109375,0.8054291992187499,1.3417495383365257,-4.5830078125,-4.00146484375,8.66064453125,47.07117647058824,336.09113120153995
1.08937451171875,-0.20299755859375,0.96119091796875,1.4669126819150131,-4.70849609375,-2.87060546875,8.83203125,47.3064705882353,336.09113120153995
1.21046826171875,-0.11852490234375,0.99097607421875,1.568857910958801,-3.47998046875,-0.33203125,8.03955078125,47.3064705882353,335.9118539884616
1.20949169921875,0.07043994140625,1.01246044921875,1.5788945870629263,-0.21044921875,2.69921875,6.97998046875,47.16529411764706,335.9118539884616
1.32570263671875,0.10315478515625,1.21216748046875,1.79929941683135,1.447265625,6.5517578125,5.0224609375,47.16529411764706,335.9118539884616
1.19386669921875,0.20862353515625,1.27124951171875,1.756393121134823,4.07421875,10.6875,2.68603515625,47.3064705882353,335.9118539884616
1.1105333658854168,-0.0154975585937499,1.1278575846354166,2.203110247353095,8.36181640625,13.47998046875,-1.90576171875,47.118235294117646,335.9118539884616
1.0272000325520834,-0.23961865234375,0.9844656575520834,1.3317390975286572,-2.310546875,15.99951171875,-3.1357421875,47.25941176470588,335.55524745488793
0.94386669921875,-0.46373974609375,0.8410737304687499,1.3466045886175395,-5.46728515625,8.384765625,2.8876953125,47.118235294117646,335.55524745488793
1.04249951171875,-0.28258740234375,0.4880463867187499,1.185263745959712,-1.71826171875,0.533203125,6.62109375,47.3064705882353,335.55524745488793
1.38234326171875,-0.19811474609375,0.3444916992187499,1.4383312819617202,-2.6572265625,-4.72607421875,4.64453125,47.49470588235295,335.55524745488793
0.92287060546875,-0.07750927734375,0.5534760742187499,1.0789038915701468,-3.69580078125,-9.2373046875,3.51953125,47.49470588235295,335.7988374745557
1.05372998046875,-0.02184521484375,0.8991791992187499,1.385405109510541,-2.78173828125,-11.1591796875,3.90087890625,47.3064705882353,335.7988374745557
1.01808544921875,-0.06139599609375,0.8122651367187499,1.3038566265414373,-2.0439453125,-11.1533203125,2.38232421875,47.63588235294118,335.7988374745557
0.88576123046875,-0.09801708984375,0.8586518554687499,1.2375230568368731,-2.10205078125,-9.19482421875,1.37890625,47.16529411764706,335.7988374745557
0.83497998046875,-0.17321240234375,0.94361279296875,1.271848735960205,-1.62890625,-6.890625,1.1982421875,47.40058823529412,335.7988374745557
0.75539013671875,-0.23571240234375,0.91871044921875,1.2125194781010122,-1.212890625,-3.52685546875,1.4306640625,47.40058823529412,335.88847453523704
0.79787060546875,-0.26647412109375,0.8601166992187499,1.203082165339805,-1.201171875,-1.21533203125,1.16796875,47.3064705882353,335.88847453523704
0.78419873046875,-0.29137646484375,0.8708588867187499,1.2075856465322286,-0.8828125,0.03173828125,1.52587890625,47.3064705882353,335.88847453523704
0.92384716796875,-0.33727490234375,0.7976166992187499,1.2662702509288764,-0.361328125,-0.0419921875,1.87890625,47.40058823529412,335.88847453523704
1.07228466796875,-0.32555615234375,0.7526948242187499,1.3499373007274873,-0.11962890625,-1.33349609375,1.91552734375,47.25941176470588,335.8904146802145
1.05861279296875,-0.25133740234375,0.6858002929687499,1.2861390193482294,0.0859375,-2.6015625,1.51806640625,47.447647058823534,335.8904146802145
1.08742138671875,-0.15123974609375,0.6848237304687499,1.293963784232374,0.5458984375,-3.59716796875,1.583984375,47.118235294117646,335.8904146802145
1.10646435546875,-0.09606396484375,0.6320893554687499,1.2779000776904577,0.90283203125,-4.07763671875,1.31884765625,47.49470588235295,335.8904146802145
1.13283154296875,-0.08141552734375,0.6267182617187499,1.297193729714028,0.96142578125,-4.71826171875,0.61376953125,47.16529411764706,335.8904146802145
1.10695263671875,-0.08629833984375,0.6599213867187499,1.2916221506490118,1.16845703125,-5.36474609375,-0.10888671875,47.3064705882353,335.7237998152041
1.06984326171875,-0.11608349609375,0.7199799804687499,1.2947629725112404,1.55615234375,-5.8876953125,-0.3330078125,47.40058823529412,335.7237998152041
1.10841748046875,-0.18883740234375,0.7380463867187499,1.3449763360302032,2.03125,-5.84619140625,-0.5439453125,47.07117647058824,335.7237998152041
1.08790966796875,-0.26256787109375,0.7522065429687499,1.3484450362827467,2.30810546875,-5.134765625,-0.8759765625,47.73,335.7237998152041
1.00148388671875,-0.31676708984375,0.7673432617187499,1.3008178373125665,2.4716796875,-3.9501953125,-1.32373046875,47.16529411764706,336.0268135853669
0.99660107421875,-0.35338818359375,0.7863862304687499,1.317763337215187,2.67822265625,-2.89892578125,-1.00048828125,47.3064705882353,336.0268135853669
1.00636669921875,-0.38170849609375,0.7702729492187499,1.3235542019822029,2.93896484375,-1.845703125,-0.87646484375,47.3064705882353,336.0268135853669
1.04249951171875,-0.38122021484375,0.7326752929687499,1.330017732613438,3.3408203125,-0.716796875,-0.74267578125,47.49470588235295,336.0268135853669
1.02199169921875,-0.36364208984375,0.6643159179687499,1.2720134596947554,4.240234375,-1.66796875,-0.244140625,47.3064705882353,336.18271271653026
1.03419873046875,-0.34899365234375,0.6389252929687499,1.264748636478651,4.27734375,-2.0048828125,-0.259765625,47.3064705882353,336.18271271653026
1.02003857421875,-0.34557568359375,0.6228120117187499,1.2441045164802933,4.279296875,-2.4462890625,-0.33544921875,47.3064705882353,336.18271271653026
1.01515576171875,-0.34166943359375,0.6311127929687499,1.243214615362877,4.2841796875,-2.65234375,-0.3701171875,47.49470588235295,336.18271271653026
1.02492138671875,-0.34850537109375,0.6359956054687499,1.2555517722540317,4.23388671875,-2.7470703125,-0.2890625,47.3064705882353,336.18271271653026
1.03029248046875,-0.37682568359375,0.6589448242187499,1.2797298435572353,4.3447265625,-2.431640625,0.16064453125,47.40058823529412,336.0268135853669
1.05226513671875,-0.40612255859375,0.6628510742187499,1.308269466564673,4.4482421875,-1.99658203125,0.53515625,47.16529411764706,336.0268135853669
0.98488232421875,-0.41393505859375,0.6799409179687499,1.2663550360067766,4.5673828125,-1.28955078125,1.04736328125,47.25941176470588,336.0268135853669
0.94435498046875,-0.40709912109375,0.6843354492187499,1.2352534276774405,4.703125,-0.99755859375,1.57763671875,47.49470588235295,336.0268135853669
0.94093701171875,-0.39049755859375,0.6691987304687499,1.2188838107674074,4.78466796875,-0.55078125,2.05224609375,47.118235294117646,336.0268135853669
0.89064404296875,-0.35924755859375,0.6384370117187499,1.1532161278631416,4.8642578125,-0.30419921875,2.44775390625,47.3064705882353,336.1700513248863
0.83351513671875,-0.33336865234375,0.5808198242187499,1.069221122925592,4.89453125,-0.12939453125,2.7236328125,47.16529411764706,336.1700513248863
0.75831982421875,-0.29528271484375,0.5446870117187499,0.979247046573924,4.845703125,-0.05078125,3.10986328125,47.3064705882353,336.1700513248863
0.73585888671875,-0.24547802734375,0.5251557617187499,0.9367690948883496,4.7685546875,-0.26171875,3.35498046875,47.16529411764706,336.1700513248863
0.72414013671875,-0.19469677734375,0.5344331054687499,0.920817309207458,4.62841796875,-0.703125,3.42333984375,47.63588235294118,336.2382526618066
0.70753857421875,-0.16051708984375,0.5568940429687499,0.9146078641874276,4.75537109375,-0.83251953125,3.341796875,47.25941176470588,336.2382526618066
0.65333935546875,-0.15368115234375,0.5817963867187499,0.8882326528500389,4.75732421875,-0.5478515625,3.01318359375,47.25941176470588,336.2382526618066
0.53224560546875,-0.13024365234375,0.5920502929687499,0.8067046193750339,4.75244140625,-0.02197265625,2.87451171875,47.40058823529412,336.2382526618066
0.44533154296875,-0.11022412109375,0.6110932617187499,0.7641364502180732,4.68603515625,0.6796875,2.6904296875,47.16529411764706,336.2382526618066
0.38966748046875,-0.09801708984375,0.6233002929687499,0.7415870484651352,4.64013671875,1.681640625,2.611328125,47.49470588235295,336.05897233253967
0.39064404296875,-0.09948193359375,0.6115815429687499,0.7324830422054552,4.564453125,2.85009765625,2.3447265625,47.3064705882353,336.05897233253967
0.39796826171875,-0.10289990234375,0.5730073242187499,0.7051982138704893,4.54931640625,3.6884765625,1.9140625,47.49470588235295,336.05897233253967
0.38331982421875,-0.09997021484375,0.5153901367187499,0.65004240209541,4.52978515625,4.3203125,1.87353515625,47.16529411764706,336.05897233253967
0.42628857421875,-0.08385693359375,0.4670502929687499,0.6378792283680323,4.5595703125,4.6171875,1.76708984375,47.25941176470588,336.0696919420023
0.48732373046875,-0.04088818359375,0.4416596679687499,0.6589533550607672,4.62548828125,4.5556640625,1.7060546875,47.58882352941177,336.0696919420023
0.55080029296875,-0.06627880859375,0.3894135742187499,0.6778029027592679,5.0361328125,4.388671875,1.708984375,47.3064705882353,336.0696919420023
0.60841748046875,-0.14586865234375,0.3571870117187499,0.720438793803536,5.17529296875,4.275390625,1.7578125,47.40058823529412,336.0696919420023
0.64162060546875,-0.23766552734375,0.3352143554687499,0.7619255661559058,5.0703125,3.806640625,1.42626953125,47.3064705882353,336.0696919420023
0.56642529296875,-0.30504833984375,0.2995698242187499,0.709671883153486,4.83984375,3.35009765625,1.0478515625,47.40058823529412,336.20415188538846
0.45900341796875,-0.33532177734375,0.2844331054687499,0.6356312008976301,4.47998046875,3.48046875,1.126953125,47.16529411764706,336.20415188538846
0.40968701171875,-0.33434521484375,0.2854096679687499,0.6009066889542707,4.39990234375,3.9873046875,1.95458984375,47.49470588235295,336.20415188538846
0.45363232421875,-0.31920849609375,0.2834565429687499,0.6229156935784597,4.58447265625,4.7236328125,2.41943359375,47.40058823529412,336.20415188538846
0.54982373046875,-0.32164990234375,0.2893159179687499,0.6996202503175684,4.865234375,5.255859375,2.62158203125,47.25941176470588,336.60754198657463
0.62550732421875,-0.35387646484375,0.2785737304687499,0.7707731756677096,5.09375,5.55224609375,2.79931640625,47.49470588235295,336.60754198657463
0.70607373046875,-0.37633740234375,0.2585541992187499,0.8408449483671455,5.17041015625,5.0107421875,2.79736328125,47.118235294117646,336.60754198657463
0.76759716796875,-0.37389599609375,0.2473237304687499,0.8889165629132815,5.0390625,4.0703125,2.7265625,47.40058823529412,336.60754198657463
0.76417919921875,-0.35045849609375,0.2590424804687499,0.8797124602336298,4.66357421875,3.0107421875,3.23681640625,47.40058823529412,336.60754198657463
0.73683544921875,-0.30846630859375,0.3137299804687499,0.8581983706625024,4.21826171875,1.86376953125,3.96484375,47.3064705882353,336.4857398052773
0.79835888671875,-0.26549755859375,0.3733002929687499,0.920444987140784,3.64697265625,0.44189453125,4.23291015625,47.40058823529412,336.4857398052773
0.60646435546875,-0.18932568359375,0.4807221679687499,0.7967038544521684,3.01904296875,-0.7021484375,3.982421875,47.49470588235295,336.4857398052773
0.59718701171875,-0.12536083984375,0.4777924804687499,0.7750053687068119,2.529296875,-1.10400390625,3.7666015625,47.447647058823534,336.4857398052773
0.63576123046875,-0.06969677734375,0.7341401367187499,0.9736589358089762,2.36767578125,-1.1064453125,3.8818359375,47.49470588235295,336.49645932677583
0.75001904296875,-0.06188427734375,0.8357026367187499,1.1246142119041482,2.2607421875,-0.984375,3.71923828125,47.118235294117646,336.49645932677583
0.80910107421875,-0.02575146484375,0.93531201171875,1.236978676254732,2.40283203125,-0.50390625,3.55029296875,47.40058823529412,336.49645932677583
0.89503857421875,-0.03698193359375,0.94507763671875,1.3021649097475183,2.76611328125,0.47216796875,3.41015625,47.3064705882353,336.49645932677583
0.92970654296875,-0.05407177734375,0.8850190429687499,1.2847321586857463,3.0791015625,2.6083984375,2.837890625,47.16529411764706,336.49645932677583
0.94826123046875,-0.03747021484375,0.8708588867187499,1.2880211872432707,3.3466796875,3.97900390625,1.8369140625,47.3064705882353,336.3746579266679
0.81789013671875,0.00452197265625,0.7946870117187499,1.1403912357489407,3.51220703125,4.318359375,1.26318359375,47.118235294117646,336.3746579266679
0.73976513671875,0.04895556640625,0.7702729492187499,1.0690975265544385,3.80810546875,3.681640625,1.66259765625,47.40058823529412,336.3746579266679
0.77247998046875,0.05872119140625,0.7546479492187499,1.0815114543106952,4.0927734375,2.6181640625,2.24169921875,47.25941176470588,336.3746579266679
0.85158154296875,0.05627978515625,0.7702729492187499,1.1496429684212492,4.1259765625,1.63623046875,2.041015625,47.16529411764706,336.3746579266679
0.84181591796875,0.04065478515625,0.7922456054687499,1.1567021875514094,4.36328125,1.3427734375,1.3466796875,47.25941176470588,336.3746579266679
0.71193310546875,0.0162407226562499,0.8093354492187499,1.0780242933704651,4.3671875,1.72412109375,0.92529296875,47.118235294117646,336.3746579266679
0.58839794921875,-0.01891552734375,0.8039643554687499,0.9964580416072748,4.30126953125,2.65380859375,0.98779296875,47.49470588235295,336.3746579266679
0.52736279296875,-0.04284130859375,0.7912690429687499,0.9518684738400084,4.08203125,4.02099609375,1.11767578125,47.25941176470588,336.3746579266679
0.50001904296875,-0.05309521484375,0.7590424804687499,0.9104853828188793,3.857421875,5.47021484375,1.0673828125,47.3064705882353,336.6094860199772
0.47462841796875,-0.05895458984375,0.7297456054687499,0.8725115629652799,3.87158203125,6.431640625,1.1474609375,47.40058823529412,336.6094860199772
0.45900341796875,-0.08971630859375,0.6823823242187499,0.827271896138668,3.48193359375,6.7451171875,1.4931640625,47.3064705882353,336.6094860199772
0.43361279296875,-0.10436474609375,0.6442963867187499,0.7836005923888839,3.435546875,6.8828125,2.01318359375,47.3064705882353,336.6094860199772
0.43996044921875,-0.12731396484375,0.6042573242187499,0.7582222341721477,3.48046875,6.890625,2.44287109375,47.118235294117646,336.53933754814955
0.43214794921875,-0.13610302734375,0.5754487304687499,0.7324050282898124,3.529296875,6.73779296875,2.68798828125,47.49470588235295,336.53933754814955
0.41164013671875,-0.13561474609375,0.5490815429687499,0.6995209091548633,3.56201171875,6.15478515625,2.8955078125,47.40058823529412,336.53933754814955
0.41359326171875,-0.12389599609375,0.5310151367187499,0.684387813605451,3.5009765625,5.52978515625,2.93115234375,47.118235294117646,336.53933754814955
0.42921826171875,-0.09752880859375,0.5339448242187499,0.6919806789272179,3.3681640625,4.84375,2.7509765625,47.118235294117646,336.53933754814955
0.42872998046875,-0.05993115234375,0.5583588867187499,0.7065166562451208,3.17041015625,4.1708984375,2.46044921875,47.25941176470588,336.8530933083747
0.41066357421875,-0.00719677734375,0.5671479492187499,0.7002522124901056,2.9287109375,3.8095703125,2.13232421875,47.3064705882353,336.8530933083747
0.38234326171875,0.05676806640625,0.5940034179687499,0.7086953109085697,2.69873046875,3.8408203125,1.8193359375,47.40058823529412,336.8530933083747
0.37062451171875,0.11536181640625,0.6120698242187499,0.724776066858228,2.53125,4.0654296875,1.50390625,47.3064705882353,336.8530933083747
0.37404248046875,0.15735400390625,0.6364838867187499,0.7548375969658306,2.357421875,4.32763671875,1.29638671875,47.447647058823534,336.498403051507
0.40089794921875,0.19983447265625,0.6604096679687499,0.7979936789826066,2.28564453125,4.57568359375,1.04833984375,47.25941176470588,336.498403051507
0.42921826171875,0.22668994140625,0.6711518554687499,0.8282882703665314,2.3330078125,4.77197265625,0.60986328125,47.3064705882353,336.498403051507
0.46730419921875,0.24036181640625,0.7087495117187499,0.8823111059910531,2.28271484375,4.24560546875,0.1337890625,47.40058823529412,336.498403051507
0.41310498046875,0.25696337890625,0.7346284179687499,0.8811156652076227,2.2373046875,3.2314453125,-0.19140625,47.40058823529412,336.498403051507
0.40187451171875,0.25647509765625,0.8088471679687499,0.9388910160492716,2.3359375,2.21826171875,-0.3798828125,47.3064705882353,336.3171744082536
0.34035107421875,0.27600634765625,0.8537690429687499,0.9596561552973936,2.37255859375,1.65283203125,-0.830078125,47.118235294117646,336.3171744082536
0.38331982421875,0.27405322265625,0.8962495117187499,1.0125721918675563,2.32568359375,1.54736328125,-0.9208984375,47.40058823529412,336.3171744082536
0.46974560546875,0.26477587890625,0.97339794921875,1.1127761533439902,2.3955078125,1.603515625,-0.9365234375,47.16529411764706,336.3171744082536
0.49953076171875,0.23889697265625,1.00367138671875,1.146280505794971,2.22607421875,2.2109375,-1.3134765625,47.3064705882353,336.55200056089217
0.56398388671875,0.18323291015625,1.05103466796875,1.2067833264985464,1.77685546875,2.9423828125,-2.07763671875,47.73,336.55200056089217
0.54982373046875,0.11389697265625,1.06861279296875,1.2071503453436545,1.3974609375,4.1533203125,-2.5283203125,47.63588235294118,336.55200056089217
0.51906201171875,0.03479541015625,1.11011669921875,1.2259670380812815,1.08740234375,5.78759765625,-2.31298828125,47.118235294117646,336.55200056089217
0.50636669921875,-0.03649365234375,1.11890576171875,1.2286940727237576,0.81640625,6.61181640625,-1.8046875,47.3064705882353,336.55200056089217
0.48634716796875,-0.06041943359375,1.10425732421875,1.20812595114821,0.4287109375,6.927734375,-1.625,47.40058823529412,336.72056975475624
0.43312451171875,-0.04870068359375,1.07251904296875,1.1576984481136303,0.44091796875,7.3466796875,-1.32958984375,47.3064705882353,336.72056975475624
0.37111279296875,-0.08141552734375,1.03589794921875,1.103375617998395,0.4970703125,7.29296875,-0.93310546875,47.49470588235295,336.72056975475624
0.30470654296875,-0.11022412109375,1.00318310546875,1.0542161909669103,0.5517578125,6.8564453125,-0.60791015625,47.118235294117646,336.72056975475624
0.27394482421875,-0.14928662109375,0.95484326171875,1.004518748657053,0.51953125,6.51513671875,-0.572265625,47.40058823529412,336.6182615365107
0.27101513671875,-0.18883740234375,0.90113232421875,0.959764676682,0.4052734375,6.30322265625,-0.71728515625,47.25941176470588,336.6182615365107
0.28468701171875,-0.23864208984375,0.8342377929687499,0.9132083206496286,0.31689453125,6.01220703125,-0.6220703125,47.3064705882353,336.6182615365107
0.31398388671875,-0.27233349609375,0.7688081054687499,0.8739664279868569,0.08740234375,5.423828125,0.16650390625,47.63588235294118,336.6182615365107
0.35158154296875,-0.25817333984375,0.7277924804687499,0.8484956979202777,-0.2060546875,4.6103515625,0.94091796875,47.118235294117646,336.6182615365107
0.33644482421875,-0.20690380859375,0.6906831054687499,0.7956427954390971,-0.4443359375,3.7109375,1.34814453125,47.40058823529412,336.59682245017603
0.23683544921875,-0.11364208984375,0.6516206054687499,0.7025773751425264,-0.6103515625,2.8583984375,1.42822265625,47.40058823529412,336.59682245017603
0.13136669921875,-0.02331005859375,0.6223237304687499,0.6364647625751286,-0.734375,2.08984375,1.26953125,47.16529411764706,336.59682245017603
0.10206982421875,0.07727587890625,0.6159760742187499,0.6291393601474341,-0.86328125,1.3916015625,0.86181640625,47.40058823529412,336.59682245017603
0.18214794921875,0.17493212890625,0.6472260742187499,0.6947522697169718,-1.06591796875,0.9013671875,-0.0830078125,47.3064705882353,336.6630836038381
0.34132763671875,0.21790087890625,0.7302338867187499,0.8350011245073238,-1.31103515625,0.8369140625,-0.96337890625,47.07117647058824,336.6630836038381
0.44337841796875,0.22766650390625,0.8234956054687499,0.9625806307773438,-1.36669921875,1.109375,-1.64501953125,47.49470588235295,336.6630836038381
0.42921826171875,0.18909228515625,0.94019482421875,1.0506904948585971,-1.2509765625,0.60302734375,-1.83984375,47.16529411764706,336.6630836038381
0.37697216796875,0.13977587890625,1.03150341796875,1.1070883492424115,-1.36669921875,-0.4990234375,-1.4365234375,47.25941176470588,336.6630836038381
0.37990185546875,0.11389697265625,1.06665966796875,1.138007375828497,-1.02294921875,-1.32421875,-0.66162109375,47.49470588235295,336.528617972506
0.26466748046875,0.11243212890625,1.07203076171875,1.109927841302916,-0.13232421875,-1.5263671875,0.70947265625,47.3064705882353,336.528617972506
0.09621044921875,0.08997119140625,1.03638623046875,1.044723735983422,0.912109375,-0.97998046875,2.201171875,47.118235294117646,336.528617972506
0.02980419921875,0.06506884765625,0.96363232421875,0.9662864489920228,1.6669921875,-0.56787109375,2.8671875,47.3064705882353,336.528617972506
0.04591748046875,0.05432666015625,0.92798779296875,0.930710021926992,2.0048828125,-0.77001953125,2.5576171875,47.118235294117646,336.6738031612119
0.03859326171875,0.04700244140625,0.96705029296875,0.9689607517743868,1.7001953125,-1.34619140625,2.3916015625,47.3064705882353,336.6738031612119
0.00880810546875,0.06018603515625,1.11353466796875,1.115194780438849,1.07373046875,-1.77001953125,2.82373046875,47.40058823529412,336.6738031612119
0.02589794921875,0.08313525390625,1.32398388671875,1.326844190742335,0.45068359375,-1.7109375,3.11767578125,47.25941176470588,336.6738031612119
0.10011669921875,0.12317431640625,1.52173779296875,1.5299938484301194,0.0771484375,-0.890625,3.20849609375,47.58882352941177,336.6738031612119
0.10695263671875,0.21399462890625,1.64136669921875,1.6587095010899502,-0.01123046875,0.80029296875,3.05126953125,47.49470588235295,336.72056975475624
0.04445263671875,0.33752978515625,1.62622998046875,1.6614831754051151,0.18701171875,3.5712890625,2.7236328125,47.25941176470588,336.72056975475624
-0.30759814453125,0.40686572265625,1.50660107421875,1.590598356477446,0.4775390625,6.0498046875,2.64892578125,47.447647058823534,336.72056975475624
-0.35056689453125,0.45081103515625,1.34253857421875,1.4589508422922444,0.82861328125,7.39111328125,2.88232421875,47.49470588235295,336.72056975475624
-0.19089892578125,0.45276416015625,1.20337841796875,1.299829758629722,1.3974609375,7.7294921875,3.25439453125,47.49470588235295,336.34055628657126
0.00246044921875,0.40295947265625,1.09302685546875,1.1649421003593547,1.87744140625,7.7587890625,2.79931640625,47.40058823529412,336.34055628657126
0.08351513671875,0.33801806640625,1.00757763671875,1.0660411273932695,1.96337890625,7.71337890625,1.6494140625,47.25941176470588,336.34055628657126
0.04054638671875,0.28430712890625,0.94507763671875,0.9877480915945922,1.75927734375,7.70947265625,0.39111328125,47.40058823529412,336.34055628657126
-0.05271533203125,0.25989306640625,0.90747998046875,0.9454328252968432,1.45556640625,7.85791015625,-0.48388671875,47.49470588235295,336.34055628657126
-0.13865283203125,0.23108447265625,0.8772065429687499,0.917668763966764,1.20654296875,7.7314453125,-0.97900390625,47.58882352941177,336.528617972506
-0.16697314453125,0.22131884765625,0.8444916992187499,0.8888353578542629,0.951171875,7.1650390625,-1.46923828125,47.3064705882353,336.528617972506
-0.14744189453125,0.22668994140625,0.7927338867187499,0.8375884770876144,0.90771484375,6.17041015625,-2.14208984375,47.40058823529412,336.528617972506
-0.12449267578125,0.21008837890625,0.7360932617187499,0.7755442238985341,0.9365234375,4.77783203125,-2.65380859375,47.3064705882353,336.528617972506
-0.11472705078125,0.16809619140625,0.6833588867187499,0.7130203319707927,0.79736328125,3.2587890625,-2.51806640625,47.49470588235295,336.396096953417
-0.11277392578125,0.12854541015625,0.6706635742187499,0.6921210230821068,0.611328125,2.064453125,-1.607421875,47.25941176470588,336.396096953417
-0.06931689453125,0.09485400390625,0.7043549804687499,0.7140854657781772,0.52490234375,1.31201171875,-0.33154296875,47.3064705882353,336.396096953417
-0.0058403320312499,0.07288134765625,0.7585541992187499,0.7620697300554755,0.37841796875,0.63037109375,0.47705078125,47.16529411764706,336.396096953417
-0.01560595703125,0.07385791015625,0.8386323242187499,0.8420229878168721,0.11181640625,-0.08203125,0.6533203125,47.25941176470588,336.396096953417
-0.12400439453125,0.06751025390625,0.94263623046875,0.9531515027727137,0.078125,-0.3271484375,0.77978515625,47.3064705882353,336.5325055160569
-0.26511767578125,0.04504931640625,1.04419873046875,1.0782707506154805,0.45751953125,0.34326171875,1.33056640625,47.16529411764706,336.5325055160569
-0.34666064453125,0.0221000976562499,1.11988232421875,1.172517990003065,0.96533203125,1.76220703125,2.10595703125,47.49470588235295,336.5325055160569
-0.32615283203125,0.0177055664062499,1.10865185546875,1.1557673180870245,1.34228515625,3.59765625,2.4658203125,47.25941176470588,336.5325055160569
-0.24070361328125,0.05237353515625,1.04956982421875,1.078089992784457,1.4990234375,4.6259765625,2.2646484375,47.49470588235295,336.797550947145
-0.14500048828125,0.09387744140625,0.95142529296875,0.9669789055131744,1.49658203125,5.19921875,1.65673828125,47.40058823529412,336.797550947145
-0.06003955078125,0.01135791015625,0.8479096679687499,0.8501085547246349,0.97900390625,4.84521484375,0.84619140625,47.40058823529412,336.797550947145
0.00294873046875,0.16272509765625,0.7644135742187499,0.7815473529278297,0.4169921875,3.7021484375,0.04296875,47.118235294117646,336.797550947145
0.01466748046875,0.19055712890625,0.7375581054687499,0.7619180489415813,-0.18994140625,2.05029296875,-0.55078125,47.40058823529412,336.797550947145
-0.04636767578125,0.19983447265625,0.7741791992187499,0.8008977527263648,-0.6171875,0.32958984375,-0.6943359375,47.3064705882353,336.5091225263081
-0.13425830078125,0.18958056640625,0.8586518554687499,0.8895218330021529,-0.76171875,-0.96875,-0.41064453125,47.3064705882353,336.5091225263081
-0.19187548828125,0.17346728515625,0.94703076171875,0.9817201055617856,-0.68359375,-1.39697265625,-0.1259765625,47.25941176470588,336.5091225263081
-0.21970751953125,0.16418994140625,1.02857373046875,1.0645156880046267,-0.4453125,-0.86328125,0.0302734375,47.40058823529412,336.5091225263081
-0.22947314453125,0.17151416015625,1.06324169921875,1.1011620871391907,-0.20166015625,0.21240234375,0.1748046875,47.3064705882353,336.8657577805335
-0.22752001953125,0.18469775390625,1.05591748046875,1.0958286112093385,0.02734375,1.4462890625,0.49951171875,47.3064705882353,336.8657577805335
-0.20994189453125,0.19446337890625,1.02369091796875,1.0629368280131744,0.21044921875,2.20849609375,0.89404296875,47.118235294117646,336.8657577805335
-0.19578173828125,0.18713916015625,0.96851513671875,1.0056704849809173,0.373046875,2.1845703125,1.134765625,47.3064705882353,336.8657577805335
-0.20603564453125,0.18274462890625,0.91822216796875,0.9586335253686477,0.42919921875,1.52001953125,1.03759765625,47.40058823529412,336.8657577805335
-0.23289111328125,0.18079150390625,0.8806245117187499,0.9286675234818704,0.4130859375,0.76513671875,0.8212890625,47.3064705882353,336.6543083079674
-0.25828173828125,0.16809619140625,0.8776948242187499,0.930222548831866,0.28955078125,0.34375,0.646484375,47.3064705882353,336.6543083079674
-0.26560595703125,0.14172900390625,0.8894135742187499,0.938983567994305,0.1396484375,0.09814453125,0.5146484375,47.16529411764706,336.6543083079674
-0.24412158203125,0.12268603515625,0.90845654296875,0.9486519385414932,-0.06787109375,-0.14892578125,0.43603515625,47.3064705882353,336.6543083079674
-0.25388720703125,0.10901416015625,0.93872998046875,0.9785483009231384,-0.21240234375,-0.279296875,0.423828125,47.25941176470588,336.4428618546335
-0.24509814453125,0.09583056640625,0.96412060546875,0.999392385302106,-0.29736328125,-0.10302734375,0.51318359375,47.3064705882353,336.4428618546335
-0.21189501953125,0.09583056640625,0.97242138671875,0.9998431627549932,-0.3447265625,0.71484375,0.70947265625,47.49470588235295,336.4428618546335
-0.19089892578125,0.08362353515625,0.97437451171875,0.9964140628190752,-0.3095703125,1.6669921875,1.16455078125,47.3064705882353,336.4428618546335
-0.17478564453125,0.07581103515625,0.92847607421875,0.9478212674245752,-0.3623046875,1.5751953125,1.5693359375,47.25941176470588,336.4428618546335
-0.20750048828125,0.09729541015625,0.8869721679687499,0.9161017826778934,-0.40625,1.060546875,1.75390625,47.3064705882353,336.5305615165276
-0.21677783203125,0.10657275390625,0.8669526367187499,0.8999762522694272,-0.43701171875,0.44677734375,2.52734375,47.25941176470588,336.5305615165276
-0.20310595703125,0.11975634765625,0.8674409179687499,0.8989145447438327,-0.490234375,-0.1298828125,3.10791015625,47.25941176470588,336.5305615165276
-0.19822314453125,0.13635791015625,0.8918549804687499,0.9237376255609332,-0.537109375,-0.6435546875,3.29248046875,47.118235294117646,336.5305615165276
-0.21091845703125,0.15198291015625,0.91382763671875,0.9500875486643228,-0.5771484375,-0.7060546875,3.27294921875,47.49470588235295,336.5071788618167
-0.22361376953125,0.15979541015625,0.93482373046875,0.9743885765332478,-0.6337890625,-0.3896484375,3.1875,47.3064705882353,336.5071788618167
-0.20603564453125,0.16663134765625,0.94068310546875,0.9772928925114912,-0.6748046875,-0.05322265625,3.14453125,47.3064705882353,336.5071788618167
-0.18650439453125,0.18372119140625,0.92408154296875,0.9604499275895156,-0.62841796875,-0.01318359375,3.115234375,47.40058823529412,336.5071788618167
-0.16746142578125,0.19739306640625,0.90992138671875,0.9460255185765996,-0.89306640625,-0.248046875,2.9912109375,47.49470588235295,336.5071788618167
-0.15476611328125,0.21057666015625,0.91626904296875,0.952808500552768,-0.998046875,-0.46826171875,2.81640625,47.3064705882353,336.55394443995164
-0.16257861328125,0.19983447265625,0.91919873046875,0.9546161155425869,-1.017578125,-0.58203125,2.8212890625,47.3064705882353,336.55394443995164
-0.17478564453125,0.19153369140625,0.93970654296875,0.9748248885703464,-1.0244140625,-0.61376953125,2.8779296875,47.447647058823534,336.55394443995164
-0.18650439453125,0.18762744140625,0.94947216796875,0.9856395607398284,-1.0791015625,-0.5517578125,2.90283203125,47.49470588235295,336.55394443995164
-0.20212939453125,0.18762744140625,0.95337841796875,0.9924670053713734,-1.107421875,-0.46728515625,2.97509765625,47.3064705882353,336.6669724348319
-0.21189501953125,0.19202197265625,0.95533154296875,0.9972112585986976,-1.17431640625,-0.3779296875,3.21240234375,47.25941176470588,336.6669724348319
-0.21140673828125,0.20129931640625,0.94654248046875,0.9905336395641868,-1.15771484375,-0.3154296875,3.43798828125,47.25941176470588,336.6669724348319
-0.19480517578125,0.21936572265625,0.93433544921875,0.979312569333441,-1.17138671875,-0.21337890625,3.48388671875,47.118235294117646,336.6669724348319
-0.16990283203125,0.23645556640625,0.92945263671875,0.973991997462082,-1.21826171875,-0.17626953125,3.271484375,47.25941176470588,336.6669724348319
-0.15134814453125,0.25940478515625,0.91871044921875,0.9665536678936816,-1.271484375,-0.24755859375,2.9638671875,47.25941176470588,336.4301987701895
-0.15427783203125,0.27600634765625,0.91382763671875,0.9669860924717484,-1.30908203125,-0.3505859375,2.673828125,47.25941176470588,336.4301987701895
-0.16746142578125,0.29016650390625,0.92212841796875,0.9811018032494968,-1.31591796875,-0.40478515625,2.59521484375,47.40058823529412,336.4301987701895
-0.17039111328125,0.28772509765625,0.92261669921875,0.9813462370559248,-1.2890625,-0.376953125,2.50830078125,47.3064705882353,336.4301987701895
-0.16892626953125,0.29553759765625,0.92212841796875,0.9829544116548444,-1.251953125,-0.30126953125,2.3662109375,47.3064705882353,336.8121604842604
-0.16453173828125,0.30188525390625,0.92310498046875,0.9850523866242352,-1.19775390625,-0.28369140625,2.1708984375,47.3064705882353,336.8121604842604
-0.15916064453125,0.30676806640625,0.92261669921875,0.9852209554265142,-1.13623046875,-0.11865234375,2.0322265625,47.3064705882353,336.8121604842604
-0.14890673828125,0.30920947265625,0.93140576171875,0.9926229937135256,-1.05078125,-0.00146484375,2.046875,47.118235294117646,336.8121604842604
-0.15183642578125,0.31799853515625,0.92749951171875,0.9921858257373288,-0.94775390625,0.0625,2.083984375,47.16529411764706,336.8121604842604
-0.15330126953125,0.32629931640625,0.93140576171875,0.998743819049692,-0.84765625,0.0107421875,2.06787109375,47.49470588235295,336.4789084432014
-0.17039111328125,0.33704150390625,0.92652294921875,1.0005372967908897,-0.798828125,-0.22216796875,1.88525390625,47.40058823529412,336.4789084432014
-0.16746142578125,0.34827197265625,0.92017529296875,0.998027687918872,-0.77392578125,-0.47216796875,1.54833984375,47.25941176470588,336.4789084432014
-0.16257861328125,0.35461962890625,0.92994091796875,1.008452774112215,-0.7890625,-0.552734375,1.109375,47.118235294117646,336.4789084432014
-0.16111376953125,0.35608447265625,0.93628857421875,1.0145886322111184,-0.8134765625,-0.45556640625,0.6865234375,47.40058823529412,336.6007110929586
-0.17820361328125,0.35901416015625,0.94507763671875,1.0265570780064244,-0.83203125,-0.28564453125,0.4248046875,47.40058823529412,336.6007110929586
-0.17918017578125,0.35559619140625,0.94751904296875,1.027787197587149,-0.78759765625,-0.23828125,0.330078125,47.3064705882353,336.6007110929586
-0.18259814453125,0.35266650390625,0.93628857421875,1.0170309924364604,-0.724609375,-0.12548828125,0.25634765625,47.16529411764706,336.6007110929586
-0.17576220703125,0.34631884765625,0.93726513671875,1.0145417853252106,-0.599609375,-0.31591796875,0.173828125,47.49470588235295,336.6007110929586
-0.17136767578125,0.33948291015625,0.92896435546875,1.0037879757808887,-0.50537109375,-0.44287109375,-0.037109375,47.49470588235295,336.8979163207284
-0.18650439453125,0.34143603515625,0.93189404296875,1.0098460093515895,-0.45068359375,-0.611328125,-0.30859375,47.25941176470588,336.8979163207284
-0.20554736328125,0.35559619140625,0.93482373046875,1.021074814566501,-0.41357421875,-0.6318359375,-0.51611328125,47.3064705882353,336.8979163207284
-0.22019580078125,0.36096728515625,0.95630810546875,1.0456140608369795,-0.3779296875,-0.5234375,-0.6572265625,47.40058823529412,336.8979163207284
-0.23582080078125,0.35608447265625,0.99634716796875,1.0840273432286374,-0.28173828125,-0.33251953125,-0.82568359375,47.25941176470588,336.7994957786194
-0.25877001953125,0.34045947265625,1.06470654296875,1.1473772693277666,-0.177734375,-0.20703125,-0.87744140625,47.25941176470588,336.7994957786194
-0.28367236328125,0.32141650390625,1.12818310546875,1.2068867793368183,-0.02001953125,0.00830078125,-0.64892578125,47.49470588235295,336.7994957786194
-0.27878955078125,0.32288134765625,1.16822216796875,1.2436715852759257,0.17626953125,0.94921875,-0.49658203125,47.49470588235295,336.7994957786194
-0.21335986328125,0.33167041015625,1.17847607421875,1.2427121749378034,0.3193359375,2.3740234375,-0.59423828125,47.447647058823534,336.7994957786194
-0.15964892578125,0.32239306640625,1.15943310546875,1.2139646596284597,0.3271484375,3.13525390625,-1.470703125,47.118235294117646,336.59876654381344
-0.17429736328125,0.30090869140625,1.12037060546875,1.173096715965496,0.310546875,3.12109375,-2.54541015625,47.25941176470588,336.59876654381344
-0.16941455078125,0.28235400390625,1.10230419921875,1.150434535796624,0.302734375,2.98193359375,-3.28125,47.118235294117646,336.59876654381344
-0.12595751953125,0.25501025390625,1.09205029296875,1.1284810005919144,0.2880859375,2.72607421875,-3.5556640625,47.63588235294118,336.59876654381344
-0.09470751953125,0.24475634765625,1.06910107421875,1.1008416284232143,0.25439453125,2.3125,-3.55224609375,47.3064705882353,336.4876835902385
-0.06687548828125,0.23694384765625,1.03980419921875,1.0685539249789644,0.30078125,1.98583984375,-3.521484375,47.40058823529412,336.4876835902385
-0.04685595703125,0.22571337890625,1.01343701171875,1.039325063128962,0.40576171875,1.77099609375,-3.72314453125,47.49470588235295,336.4876835902385
-0.07078173828125,0.19543994140625,0.97632763671875,0.9982096369960636,0.46142578125,1.54150390625,-4.01318359375,47.3064705882353,336.4876835902385
-0.10447314453125,0.15930712890625,0.93580029296875,0.9549950720129388,0.515625,1.197265625,-4.13818359375,47.40058823529412,336.4876835902385
-0.11423876953125,0.12317431640625,0.8830659179687499,0.8989036790247061,0.51611328125,0.57666015625,-4.2216796875,47.3064705882353,336.89986152114346
-0.11570361328125,0.10413134765625,0.8415620117187499,0.8558371826808842,0.46435546875,-0.29052734375,-4.31884765625,47.49470588235295,336.89986152114346
-0.15037158203125,0.08948291015625,0.8191010742187499,0.8375830547945216,0.46875,-1.10595703125,-4.22216796875,47.3064705882353,336.89986152114346
-0.19431689453125,0.07874072265625,0.8347260742187499,0.8606548529377752,0.609375,-1.5185546875,-3.5712890625,47.3064705882353,336.89986152114346
-0.19138720703125,0.06995166015625,0.8415620117187499,0.8658804290096568,0.76220703125,-1.2744140625,-2.7607421875,47.63588235294118,336.62214993835363
-0.17039111328125,0.06116259765625,0.8708588867187499,0.8894769223618477,0.8984375,-0.63134765625,-2.16455078125,47.25941176470588,336.62214993835363
-0.13816455078125,0.06067431640625,0.8859956054687499,0.8987541536337326,0.92724609375,-0.40185546875,-1.9501953125,47.3064705882353,336.62214993835363
-0.10154345703125,0.06409228515625,0.8855073242187499,0.8936118373921966,0.8759765625,-0.4072265625,-1.9736328125,47.447647058823534,336.62214993835363
-0.06541064453125,0.06653369140625,0.90357373046875,0.9083780990883416,0.7880859375,-0.6650390625,-2.03759765625,47.40058823529412,336.62214993835363
-0.05564501953125,0.05627978515625,0.93482373046875,0.9381679963969016,0.6865234375,-0.97216796875,-2.11669921875,47.25941176470588,336.7673374231973
-0.06736376953125,0.03870166015625,0.96802685546875,0.9711393766360342,0.642578125,-1.11474609375,-2.10888671875,47.25941176470588,336.7673374231973
-0.05515673828125,0.0274711914062499,0.99683544921875,0.998738126314527,0.64013671875,-1.248046875,-2.02685546875,47.3064705882353,336.7673374231973
-0.05320361328125,0.0230766601562499,1.00904248046875,1.010707615535114,0.59375,-1.2880859375,-1.98193359375,47.49470588235295,336.7673374231973
-0.03074267578125,0.0284477539062499,1.02417919921875,1.0250353256980278,0.4716796875,-1.15576171875,-1.9609375,47.40058823529412,336.67769187174576
-0.01804736328125,0.0289360351562499,1.02955029296875,1.0301149485392436,0.28759765625,-0.97412109375,-1.89453125,47.49470588235295,336.67769187174576
-0.01218798828125,0.0245415039062499,1.03003857421875,1.0304029778930766,0.1201171875,-0.93212890625,-1.8056640625,47.447647058823534,336.67769187174576
-0.02048876953125,0.0172172851562499,1.01783154296875,1.0181833206486948,0.0244140625,-0.837890625,-1.74609375,47.118235294117646,336.67769187174576
-0.03806689453125,0.00452197265625,0.99585888671875,0.996596437357,-0.0380859375,-0.73095703125,-1.658203125,47.49470588235295,336.67769187174576
-0.05662158203125,-0.00622021484375,0.97242138671875,0.9740883163104056,-0.015625,-0.626953125,-1.5283203125,47.49470588235295,336.4428618546335
-0.08445361328125,-0.01647412109375,0.93775341796875,0.9416927749399712,0.01025390625,-0.68505859375,-1.31298828125,47.118235294117646,336.4428618546335
-0.08591845703125,-0.03454052734375,0.91822216796875,0.9228797207854588,0.03857421875,-0.923828125,-1.01318359375,47.49470588235295,336.4428618546335
-0.06394580078125,-0.05163037109375,0.91382763671875,0.9175160545122952,0.04296875,-1.31591796875,-0.75048828125,47.16529411764706,336.4428618546335
-0.03757861328125,-0.06872021484375,0.92115185546875,0.9244757222003364,0.02197265625,-1.46240234375,-0.60400390625,47.40058823529412,336.4535813219919
-0.02830126953125,-0.08971630859375,0.94703076171875,0.9516917786375824,0.05419921875,-1.25048828125,-0.39892578125,47.25941176470588,336.4535813219919
-0.03562548828125,-0.10827099609375,0.94947216796875,0.9562892772365944,0.048828125,-1.0322265625,-0.166015625,47.118235294117646,336.4535813219919
-0.03318408203125,-0.10729443359375,0.94605419921875,0.9526971326921744,-0.07373046875,-1.162109375,-0.05712890625,47.25941176470588,336.4535813219919
-0.02830126953125,-0.08678662109375,0.95581982421875,0.9601689517098084,-0.26708984375,-1.4921875,-0.23779296875,47.16529411764706,336.4535813219919
-0.04002001953125,-0.05895458984375,0.98169873046875,0.9842812824751276,-0.4248046875,-1.66796875,-0.54736328125,47.25941176470588,336.79072166049974
-0.04392626953125,-0.03844677734375,0.99830029296875,1.0000055733767406,-0.57373046875,-1.53955078125,-0.830078125,47.447647058823534,336.79072166049974
-0.04636767578125,-0.01842724609375,1.01246044921875,1.0136891466264142,-0.82373046875,-1.41796875,-1.07373046875,47.3064705882353,336.79072166049974
-0.05613330078125,-0.00817333984375,1.02759716796875,1.029161644523442,-1.02490234375,-1.31787109375,-1.20458984375,47.3064705882353,336.79072166049974
-0.07078173828125,-0.00719677734375,1.04273388671875,1.0451582686798409,-1.171875,-1.26806640625,-1.103515625,47.118235294117646,336.8696489982757
-0.08640673828125,-0.00963818359375,1.05787060546875,1.0614373447915857,-1.1953125,-1.11865234375,-0.85888671875,47.49470588235295,336.8696489982757
-0.06150439453125,-0.01354443359375,1.05835888671875,1.0602310009260167,-1.08984375,-0.76318359375,-0.671875,47.49470588235295,336.8696489982757
-0.06248095703125,-0.02623974609375,1.06080029296875,1.0629626784742685,-0.955078125,-0.470703125,-0.65234375,47.118235294117646,336.8696489982757
-0.06736376953125,-0.03112255859375,1.05201123046875,1.0546251088094074,-0.853515625,-0.26806640625,-0.73095703125,47.58882352941177,336.8696489982757
-0.07127001953125,-0.03258740234375,1.03687451171875,1.039831768858547,-0.7548828125,-0.11865234375,-0.89697265625,47.49470588235295,336.5325055160569
-0.07517626953125,-0.03209912109375,1.01587841796875,1.019161805195974,-0.72314453125,-0.07177734375,-1.03173828125,47.118235294117646,336.5325055160569
-0.09177783203125,-0.02184521484375,1.00415966796875,1.00858168862965,-0.7109375,-0.1025390625,-1.115234375,47.40058823529412,336.5325055160569
-0.09617236328125,-0.01061474609375,0.98755810546875,0.9922866561486968,-0.6982421875,-0.18603515625,-1.1005859375,47.25941176470588,336.5325055160569
-0.09861376953125,-0.00182568359375,0.96802685546875,0.973038540639816,-0.68798828125,-0.27001953125,-0.974609375,47.3064705882353,336.3619953525702
-0.09470751953125,-0.00866162109375,0.95044873046875,0.9551949158079686,-0.65380859375,-0.39404296875,-0.8486328125,47.25941176470588,336.3619953525702
-0.09763720703125,-0.01256787109375,0.93921826171875,0.9443632345272038,-0.63330078125,-0.44775390625,-0.72705078125,47.118235294117646,336.3619953525702
-0.08835986328125,-0.01452099609375,0.91919873046875,0.923550015354879,-0.60302734375,-0.43798828125,-0.671875,47.3064705882353,336.3619953525702
-0.07664111328125,-0.02428662109375,0.91675732421875,0.9202758780484592,-0.60498046875,-0.564453125,-0.6357421875,47.118235294117646,336.3619953525702
-0.07419970703125,-0.03551708984375,0.91236279296875,0.9160638221151572,-0.63232421875,-0.74169921875,-0.68701171875,47.49470588235295,336.33178003559493
-0.08689501953125,-0.03600537109375,0.91773388671875,0.92254139094072,-0.68603515625,-0.90771484375,-0.78515625,47.49470588235295,336.33178003559493
-0.11423876953125,-0.04039990234375,0.93580029296875,0.9436126519360564,-0.73779296875,-0.93017578125,-0.86474609375,47.3064705882353,336.33178003559493
-0.13132861328125,-0.03942333984375,0.94849560546875,0.9583555279667052,-0.740234375,-0.9580078125,-0.85595703125,47.3064705882353,336.33178003559493
-0.12888720703125,-0.02916943359375,0.96509716796875,0.974102310650066,-0.73193359375,-0.9658203125,-0.85888671875,47.3064705882353,336.65625301145064
-0.11423876953125,-0.00866162109375,0.97339794921875,0.9801168745038796,-0.6669921875,-0.94091796875,-0.96630859375,47.49470588235295,336.65625301145064
-0.10544970703125,0.0001274414062499,0.98609326171875,0.9917154721801064,-0.607421875,-0.79736328125,-1.10986328125,47.118235294117646,336.65625301145064
-0.10349658203125,0.0206352539062499,0.99195263671875,0.9975506952978416,-0.49755859375,-0.52099609375,-1.26123046875,47.3064705882353,336.65625301145064
-0.10935595703125,0.0245415039062499,1.00122998046875,1.0074832428093556,-0.3876953125,-0.220703125,-1.32666015625,47.49470588235295,336.65625301145064
-0.10496142578125,0.0274711914062499,0.99976513671875,1.0056350709166682,-0.2587890625,0.01416015625,-1.33935546875,47.40058823529412,336.64553360161176
-0.09324267578125,0.0274711914062499,0.99488232421875,0.9996197787093992,-0.138671875,0.130859375,-1.4208984375,47.447647058823534,336.64553360161176
-0.08835986328125,0.0274711914062499,0.99292919921875,0.9972314307409028,0.02392578125,0.05859375,-1.59912109375,47.25941176470588,336.64553360161176
-0.10007861328125,0.03137744140625,0.98609326171875,0.9916552795566732,0.193359375,-0.10986328125,-1.77490234375,47.3064705882353,336.64553360161176
-0.10789111328125,0.03674853515625,0.98169873046875,0.9882931470799304,0.3447265625,-0.33642578125,-1.912109375,47.49470588235295,336.6435888378937
-0.11326220703125,0.03430712890625,0.99390576171875,1.0009265556538642,0.4462890625,-0.4892578125,-2.0546875,47.58882352941177,336.6435888378937
-0.11912158203125,0.03821337890625,0.99634716796875,1.0041702508800032,0.53759765625,-0.462890625,-2.24267578125,47.49470588235295,336.6435888378937
-0.12253955078125,0.03577197265625,1.00220654296875,1.0103036822177591,0.63427734375,-0.29931640625,-2.4404296875,47.16529411764706,336.6435888378937
-0.12839892578125,0.04504931640625,1.00318310546875,1.012369531420407,0.6474609375,-0.041015625,-2.6240234375,47.49470588235295,336.6435888378937
-0.13035205078125,0.04016650390625,1.00025341796875,1.0095107257167184,0.71240234375,0.205078125,-2.79736328125,47.3064705882353,336.8569837355566
-0.12644580078125,0.0255180664062499,1.00464794921875,1.0128954606067526,0.75732421875,0.37841796875,-2.98388671875,47.07117647058824,336.8569837355566
-0.13377001953125,0.0177055664062499,0.99439404296875,1.0035075574697447,0.84521484375,0.80908203125,-3.20361328125,47.25941176470588,336.8569837355566
-0.15330126953125,-0.00182568359375,0.98804638671875,0.9998701289009764,0.9248046875,0.92919921875,-3.3310546875,47.49470588235295,336.8569837355566
-0.17087939453125,-0.01647412109375,0.97242138671875,0.9874586155830504,0.94873046875,0.779296875,-3.34765625,47.49470588235295,336.66502779157867
-0.18015673828125,-0.01745068359375,0.97046826171875,0.987202929346059,0.9921875,0.77734375,-3.24462890625,47.3064705882353,336.66502779157867
-0.17771533203125,-0.02770458984375,0.96851513671875,0.9850745421493372,1.0048828125,0.88134765625,-3.06787109375,47.3064705882353,336.66502779157867
-0.17771533203125,-0.03209912109375,0.97681591796875,0.9933692316611684,1.0146484375,1.1630859375,-2.95947265625,47.3064705882353,336.66502779157867
-0.18699267578125,-0.03356396484375,0.98853466796875,1.0066248508297173,1.04736328125,1.4482421875,-2.94970703125,47.3064705882353,336.66502779157867
-0.20750048828125,-0.03649365234375,0.98414013671875,1.006439291760384,1.06982421875,1.50341796875,-2.94921875,47.40058823529412,336.68841132219217
-0.23240283203125,-0.04332958984375,0.99048779296875,1.0183096767252475,1.14501953125,1.7509765625,-2.84619140625,47.3064705882353,336.68841132219217
-0.25046923828125,-0.05114208984375,0.99292919921875,1.025309098438107,1.19189453125,1.80810546875,-2.6865234375,47.63588235294118,336.68841132219217
-0.26218798828125,-0.05114208984375,0.99830029296875,1.033422241629261,1.2333984375,1.88916015625,-2.49267578125,47.25941176470588,336.68841132219217
-0.26511767578125,-0.04967724609375,1.00122998046875,1.0369265569849029,1.267578125,2.017578125,-2.3740234375,47.3064705882353,336.5899916905624
-0.26316455078125,-0.03795849609375,1.00855419921875,1.0430139025801002,1.28857421875,2.24365234375,-1.9345703125,47.3064705882353,336.5899916905624
-0.24363330078125,-0.03063427734375,1.00806591796875,1.0375415843078866,1.29541015625,2.4404296875,-1.67626953125,47.25941176470588,336.5899916905624
-0.22605517578125,-0.01891552734375,1.01831982421875,1.043280405293366,1.3076171875,2.60888671875,-1.6220703125,47.16529411764706,336.5899916905624
-0.22166064453125,-0.01305615234375,1.01490185546875,1.038907926951154,1.33740234375,2.744140625,-1.33984375,47.118235294117646,336.5899916905624
-0.23142626953125,-0.01061474609375,1.01441357421875,1.0405314462441997,1.37353515625,2.822265625,-1.1552734375,47.07117647058824,336.68841132219217
-0.24705126953125,0.0001274414062499,1.01685498046875,1.0464360455003527,1.41650390625,2.82373046875,-0.94287109375,47.3064705882353,336.68841132219217
-0.27537158203125,0.0030571289062499,1.02564404296875,1.061972013334074,1.4287109375,2.6455078125,-0.634765625,47.447647058823534,336.68841132219217
-0.27781298828125,0.01331103515625,1.05591748046875,1.0919335903223062,1.4384765625,2.2451171875,-0.35400390625,47.40058823529412,336.68841132219217
-0.25681689453125,0.0308891601562499,1.09205029296875,1.1222668577058517,1.36865234375,1.88623046875,-0.3125,47.3064705882353,336.5003472317361
-0.22703173828125,0.03528369140625,1.11841748046875,1.1417731866199716,1.279296875,1.8154296875,-0.43701171875,47.447647058823534,336.5003472317361
-0.22605517578125,0.0274711914062499,1.13794873046875,1.1605097681752663,1.16357421875,2.18310546875,-0.49462890625,47.3064705882353,336.5003472317361
-0.25339892578125,-0.00231396484375,1.13111279296875,1.1591516382415012,1.09375,2.64990234375,-0.14111328125,47.3064705882353,336.5003472317361
-0.29343798828125,-0.02721630859375,1.10230419921875,1.1410175844549055,1.03955078125,2.69482421875,0.603515625,47.25941176470588,336.5003472317361
-0.31248095703125,-0.03161083984375,1.06324169921875,1.1086597785887105,0.99560546875,2.2001953125,1.41259765625,47.16529411764706,336.69035630049314
-0.28367236328125,-0.01793896484375,1.03492138671875,1.0732446565611662,0.93701171875,1.5673828125,1.9970703125,47.40058823529412,336.69035630049314
-0.23582080078125,-0.00036083984375,1.00953076171875,1.0367082227622884,0.826171875,1.2294921875,2.3505859375,47.25941176470588,336.69035630049314
-0.18796923828125,0.00793994140625,0.99830029296875,1.015873492198246,0.64892578125,1.28662109375,2.55859375,47.25941176470588,336.69035630049314
-0.14500048828125,0.0186821289062499,0.95826123046875,0.9693496527887928,0.42138671875,1.3408203125,2.5439453125,47.3064705882353,336.5685529263824
-0.13181689453125,0.04456103515625,0.92798779296875,0.9383617231308354,0.18017578125,1.27734375,2.33056640625,47.25941176470588,336.5685529263824
-0.11179736328125,0.07239306640625,0.90601513671875,0.9157526054911528,0.09619140625,1.25634765625,2.04296875,47.118235294117646,336.5685529263824
-0.09226611328125,0.08899462890625,0.8889252929687499,0.8981209585093577,0.138671875,1.36181640625,1.8369140625,47.3064705882353,336.5685529263824
-0.08005908203125,0.09338916015625,0.8786713867187499,0.8872397633608556,0.2568359375,1.36279296875,1.73876953125,47.25941176470588,336.5685529263824
-0.07078173828125,0.09729541015625,0.8674409179687499,0.8757455095391901,0.4013671875,1.16064453125,1.61181640625,47.3064705882353,336.8608759848038
-0.07371142578125,0.11096728515625,0.8527924804687499,0.8631350574560718,0.48779296875,0.8798828125,1.39794921875,47.3064705882353,336.8608759848038
0.04835888671875,0.12708056640625,0.8606049804687499,0.8712800839514396,0.533203125,0.54052734375,1.04296875,47.25941176470588,336.8608759848038
-0.08347705078125,0.14319384765625,0.8757416992187499,0.8912891897494775,0.52490234375,0.203125,0.69384765625,47.40058823529412,336.8608759848038
-0.11082080078125,0.16809619140625,0.8938081054687499,0.9162044034235592,0.427734375,-0.01513671875,0.33837890625,47.40058823529412,336.5325055160569
-0.13328173828125,0.18616259765625,0.91773388671875,0.9458625805883736,0.31787109375,-0.1259765625,0.00927734375,47.3064705882353,336.5325055160569
-0.15769580078125,0.20471728515625,0.94458935546875,0.979298822061302,0.1669921875,-0.435546875,-0.27783203125,47.25941176470588,336.5325055160569
-0.17234423828125,0.21106494140625,0.98462841796875,1.0216379336297234,0.05712890625,-0.4365234375,-0.5283203125,47.3064705882353,336.5325055160569
-0.19431689453125,0.20081103515625,1.01539013671875,1.0531387644021637,-0.02587890625,-0.1943359375,-0.64697265625,47.25941176470588,336.5325055160569
-0.21482470703125,0.17493212890625,1.05103466796875,1.0869336583926896,-0.0927734375,0.11669921875,-0.5283203125,47.40058823529412,336.47696414250254
-0.23630908203125,0.14661181640625,1.06226513671875,1.0980638540852243,-0.08544921875,0.55517578125,-0.1357421875,47.49470588235295,336.47696414250254
-0.24607470703125,0.12073291015625,1.04273388671875,1.078157296291642,-0.07080078125,1.0263671875,0.2587890625,47.49470588235295,336.47696414250254
-0.24656298828125,0.10461962890625,1.00855419921875,1.0435133668067869,-0.08349609375,1.4462890625,0.50634765625,47.40058823529412,336.47696414250254
-0.24900439453125,0.10559619140625,0.95630810546875,0.9938203744744868,-0.16259765625,1.77880859375,0.654296875,47.3064705882353,336.70302107782084
-0.24851611328125,0.10022509765625,0.91773388671875,0.956054818298892,-0.2490234375,2.0498046875,0.826171875,47.25941176470588,336.70302107782084
-0.24363330078125,0.08850634765625,0.8820893554687499,0.9193868553858549,-0.30712890625,2.328125,1.15087890625,47.25941176470588,336.70302107782084
-0.22117236328125,0.06897509765625,0.8444916992187499,0.8756945862716486,-0.38623046875,2.458984375,1.458984375,47.3064705882353,336.70302107782084
-0.19480517578125,0.04944384765625,0.8039643554687499,0.8287052765890299,-0.48974609375,2.36865234375,1.67724609375,47.3064705882353,336.70302107782084
-0.16013720703125,0.0294243164062499,0.7775971679687499,0.7944602388444401,-0.58935546875,2.02685546875,1.7890625,47.3064705882353,336.51301122180905
-0.10789111328125,0.0196586914062499,0.7512299804687499,0.7591926237971177,-0.7216796875,1.451171875,1.7529296875,47.3064705882353,336.51301122180905
-0.09226611328125,0.00940478515625,0.7517182617187499,0.7574178705611075,-0.94482421875,0.76708984375,1.72607421875,47.3064705882353,336.51301122180905
-0.11570361328125,0.0196586914062499,0.7722260742187499,0.781093400290545,-1.20166015625,-0.099609375,1.791015625,47.63588235294118,336.51301122180905
-0.15085986328125,0.03284228515625,0.8274018554687499,0.8416835180022547,-1.435546875,-0.8466796875,1.99560546875,47.3064705882353,336.61143050888734
-0.17136767578125,0.04749072265625,0.8933198242187499,0.9108471646677606,-1.63134765625,-1.10595703125,2.306640625,47.3064705882353,336.61143050888734
-0.20652392578125,0.06409228515625,0.97925732421875,1.0028483733709277,-1.66162109375,-0.7490234375,2.6328125,47.118235294117646,336.61143050888734
-0.22410205078125,0.05042041015625,1.05494091796875,1.0796593385551922,-1.50048828125,-0.029296875,3.1787109375,47.447647058823534,336.61143050888734
-0.24851611328125,0.05042041015625,1.08081982421875,1.1101684416091973,-1.6630859375,0.4423828125,3.3759765625,47.3064705882353,336.61143050888734
-0.28123095703125,0.04602587890625,1.09351513671875,1.1300374272362983,-1.72509765625,0.89501953125,3.88818359375,47.447647058823534,336.47502029731135
-0.29929736328125,0.03577197265625,1.09497998046875,1.13571110029011,-1.7421875,1.1630859375,4.70556640625,47.3064705882353,336.47502029731135
-0.31248095703125,0.03430712890625,1.06128857421875,1.1068670947174388,-1.71533203125,1.35400390625,5.35400390625,47.07117647058824,336.47502029731135
-0.30613330078125,0.03821337890625,1.03394482421875,1.0789901573709548,-1.66845703125,1.40087890625,5.70556640625,47.40058823529412,336.47502029731135
-0.29734423828125,0.05383837890625,1.10132763671875,1.142030967392223,-1.64501953125,1.23388671875,5.787109375,47.25941176470588,336.6815824043203
-0.29929736328125,0.07483447265625,0.92066357421875,0.970979158817578,-1.64111328125,0.96826171875,5.76513671875,47.07117647058824,336.6815824043203
-0.30320361328125,0.08118212890625,0.8703706054687499,0.9252394068697004,-1.7158203125,0.72265625,5.767578125,47.3064705882353,336.6815824043203
-0.30271533203125,0.08850634765625,0.8410737304687499,0.8982621921838068,-1.80419921875,0.4765625,5.70654296875,47.3064705882353,336.6815824043203
-0.30173876953125,0.09485400390625,0.8225190429687499,0.8812384144722176,-1.91552734375,0.18212890625,5.548828125,47.447647058823534,336.6815824043203
-0.30027392578125,0.09924853515625,0.8156831054687499,0.8748449181322875,-2.00341796875,-0.04833984375,5.44287109375,47.447647058823534,336.46818906923784
-0.31492236328125,0.10364306640625,0.8005463867187499,0.8664828315651639,-2.029296875,-0.17626953125,5.55908203125,47.40058823529412,336.46818906923784
-0.32029345703125,0.10071337890625,0.8093354492187499,0.8762162704891178,-1.9912109375,-0.17333984375,5.869140625,47.447647058823534,336.46818906923784
-0.30808642578125,0.09631884765625,0.8147065429687499,0.8763226102986189,-1.8876953125,-0.138671875,6.177734375,47.40058823529412,336.46818906923784
-0.29490283203125,0.09680712890625,0.8205659179687499,0.8773070877856967,-1.79443359375,-0.26025390625,6.4326171875,47.40058823529412,336.6328693813573
-0.28367236328125,0.09534228515625,0.8420502929687499,0.8936491800013822,-1.73486328125,-0.61328125,6.63134765625,47.447647058823534,336.6328693813573
-0.27878955078125,0.10608447265625,0.8591401367187499,0.9094500005413592,-1.72119140625,-1.01123046875,6.8037109375,47.40058823529412,336.6328693813573
-0.27781298828125,0.11829150390625,0.8855073242187499,0.9355726361962552,-1.7236328125,-1.27880859375,6.904296875,47.447647058823534,336.6328693813573
-0.27000048828125,0.13293994140625,0.91529248046875,0.963500709130952,-1.82421875,-1.31884765625,6.90087890625,47.40058823529412,336.6328693813573
-0.25632861328125,0.14563525390625,0.96607373046875,1.0100556607775797,-1.92919921875,-1.1787109375,6.83203125,47.40058823529412,336.73323399671887
-0.25535205078125,0.15247119140625,0.99878857421875,1.0421279911973167,-2.07958984375,-0.78173828125,6.75634765625,47.16529411764706,336.73323399671887
-0.24558642578125,0.14856494140625,1.03394482421875,1.0730452618001691,-2.14990234375,-0.1650390625,6.7548828125,47.40058823529412,336.73323399671887
-0.23777392578125,0.14807666015625,1.04615185546875,1.083003620384145,-2.2724609375,0.52880859375,6.748046875,47.16529411764706,336.73323399671887
-0.21970751953125,0.14807666015625,1.04029248046875,1.0735019964310402,-2.33056640625,0.97119140625,6.7509765625,47.40058823529412,336.52178607441084
-0.20798876953125,0.13831103515625,1.01978466796875,1.0499285879150309,-2.4033203125,1.0791015625,6.82958984375,47.49470588235295,336.52178607441084
-0.20066455078125,0.12756884765625,0.99634716796875,1.0243279513671062,-2.43115234375,1.19384765625,6.994140625,47.16529411764706,336.52178607441084
-0.17869189453125,0.12952197265625,0.98365185546875,1.00810600005111,-2.41552734375,1.2880859375,7.21435546875,47.447647058823534,336.52178607441084
-0.17771533203125,0.11682666015625,0.96558544921875,0.9887297241942392,-2.45166015625,1.18017578125,7.3310546875,47.118235294117646,336.52178607441084
-0.19675830078125,0.10510791015625,0.95142529296875,0.9772264782558908,-2.56103515625,0.82763671875,7.263671875,47.3064705882353,336.76928289088903
-0.24216845703125,0.09143603515625,0.94947216796875,0.98412575814947,-2.6455078125,0.3828125,7.1083984375,47.3064705882353,336.76928289088903
-0.27683642578125,0.07581103515625,0.98072216796875,1.0218618744410248,-2.71923828125,-0.01806640625,7.0390625,47.3064705882353,336.76928289088903
-0.29929736328125,0.06702197265625,1.03638623046875,1.0808178732751734,-2.74658203125,-0.1328125,7.12939453125,47.25941176470588,336.76928289088903
-0.29783251953125,0.07043994140625,1.06812451171875,1.1111057409491083,-2.75244140625,0.30810546875,7.2802734375,47.25941176470588,336.5451693660425
-0.27293017578125,0.08752978515625,1.07886669921875,1.1162910457513509,-2.69873046875,1.09423828125,7.38916015625,47.40058823529412,336.5451693660425
-0.23142626953125,0.08362353515625,1.06812451171875,1.0961026349733851,-2.6962890625,1.39208984375,7.39111328125,47.16529411764706,336.5451693660425
-0.19285205078125,0.05920947265625,1.04029248046875,1.0596726475957516,-2.7734375,0.73388671875,7.35205078125,47.3064705882353,336.5451693660425
-0.18113330078125,0.03577197265625,1.02955029296875,1.0459745276208543,-2.7353515625,-0.41162109375,7.5634765625,47.58882352941177,336.5451693660425
-0.15232470703125,0.01233447265625,1.02124951171875,1.0326207051834906,-2.5537109375,-0.53515625,8.12353515625,47.3064705882353,336.72251455235744
-0.09128955078125,0.0011040039062499,1.01050732421875,1.014623108945487,-2.36083984375,0.04150390625,8.6533203125,47.3064705882353,336.72251455235744
-0.04148486328125,0.0162407226562499,0.96412060546875,0.9651493650431988,-2.35595703125,0.46923828125,8.60498046875,47.25941176470588,336.72251455235744
-0.03513720703125,0.03577197265625,0.91578076171875,0.9171524741720158,-2.46923828125,0.54150390625,8.1259765625,47.25941176470588,336.72251455235744
-0.04636767578125,0.05627978515625,0.8689057617187499,0.8719602045521514,-2.54248046875,0.39111328125,7.67919921875,47.3064705882353,336.57927230170856
-0.05418017578125,0.05920947265625,0.8239838867187499,0.8278832639159074,-2.6162109375,0.1572265625,7.51416015625,47.3064705882353,336.57927230170856
-0.04099658203125,0.06018603515625,0.7946870117187499,0.7980166196017167,-2.72998046875,-0.30419921875,7.47802734375,47.3064705882353,336.57927230170856
-0.03953173828125,0.06751025390625,0.7888276367187499,0.7926975672760145,-2.83251953125,-0.86279296875,7.34814453125,47.3064705882353,336.57927230170856
-0.04929736328125,0.07971728515625,0.7981049804687499,0.803589842785603,-2.916015625,-1.28857421875,7.03759765625,47.40058823529412,336.57927230170856
-0.07810595703125,0.08313525390625,0.8435151367187499,0.8511931607099974,-2.92919921875,-1.4912109375,6.77490234375,47.3064705882353,336.5237305896827
-0.10007861328125,0.07776416015625,0.8879487304687499,0.8969481263608111,-2.830078125,-1.521484375,6.6240234375,47.40058823529412,336.5237305896827
-0.11912158203125,0.08215869140625,0.92164013671875,0.9329311568868152,-2.67138671875,-1.56005859375,6.609375,47.25941176470588,336.5237305896827
-0.13132861328125,0.09143603515625,0.94605419921875,0.9594927311089444,-2.49072265625,-1.67626953125,6.73193359375,47.3064705882353,336.5237305896827
-0.12302783203125,0.10217822265625,0.8552338867187499,0.870058180601481,-2.375,-1.728515625,6.89453125,47.40058823529412,336.6240948225415
-0.05808642578125,0.11340869140625,1.00953076171875,1.0175401333622955,-2.0439453125,-1.56298828125,6.87353515625,47.58882352941177,336.6240948225415
0.01076123046875,0.11780322265625,1.02124951171875,1.0280778027635773,-1.84912109375,-1.1416015625,6.6904296875,47.40058823529412,336.6240948225415
0.05226513671875,0.10022509765625,1.03638623046875,1.0425320778861722,-1.61669921875,-1.05908203125,6.5361328125,47.16529411764706,336.6240948225415
0.04152294921875,0.08020556640625,1.04468701171875,1.0485838262381422,-1.5556640625,-1.53466796875,6.3720703125,47.3064705882353,336.6240948225415
-0.00828173828125,0.06116259765625,1.05640576171875,1.0582072499910364,-1.541015625,-1.8173828125,6.2236328125,47.25941176470588,336.78000226892567
-0.04246142578125,0.03479541015625,1.07105419921875,1.0724601581930382,-1.599609375,-1.74658203125,6.255859375,47.25941176470588,336.78000226892567
-0.06052783203125,0.01233447265625,1.08765576171875,1.0894084696137192,-1.6650390625,-1.177734375,6.42529296875,47.3064705882353,336.78000226892567
-0.07322314453125,-0.01452099609375,1.07984326171875,1.0824204165212277,-1.72216796875,-0.787109375,6.6806640625,47.16529411764706,336.78000226892567
-0.06345751953125,-0.03405224609375,1.05640576171875,1.0588576607087758,-1.83154296875,-0.84716796875,6.8720703125,47.40058823529412,336.4857398052773
-0.06248095703125,-0.04870068359375,1.03150341796875,1.0345409261383782,-1.9111328125,-1.20556640625,7.0390625,47.40058823529412,336.4857398052773
-0.05613330078125,-0.04870068359375,1.01441357421875,1.0171320482603805,-1.95849609375,-1.578125,7.09375,47.3064705882353,336.4857398052773
-0.06248095703125,-0.04137646484375,1.01343701171875,1.0162039453554277,-1.96044921875,-1.796875,7.09228515625,47.40058823529412,336.4857398052773
-0.07127001953125,-0.05065380859375,1.01587841796875,1.0196343384290898,-1.912109375,-1.74658203125,7.15234375,47.16529411764706,336.4857398052773
-0.07273486328125,-0.05651318359375,1.00562451171875,1.0098340253853688,-1.8359375,-1.5859375,7.21240234375,47.118235294117646,336.7117951215335
-0.07859423828125,-0.05309521484375,0.99732373046875,1.001823726753573,-1.84130859375,-1.53955078125,7.0791015625,47.447647058823534,336.7117951215335
-0.08640673828125,-0.04430615234375,0.98706982421875,0.9918346623501044,-1.84228515625,-1.4345703125,6.94970703125,47.16529411764706,336.7117951215335
-0.08543017578125,-0.04332958984375,0.96412060546875,0.9688675400587388,-1.78759765625,-1.26318359375,6.94189453125,47.40058823529412,336.7117951215335
-0.08689501953125,-0.05065380859375,0.94703076171875,0.9523569794914007,-1.716796875,-1.1884765625,6.994140625,47.40058823529412,336.5899916905624
-0.08933642578125,-0.05553662109375,0.94410107421875,0.949943235985644,-1.66845703125,-1.13232421875,7.00048828125,47.3064705882353,336.5899916905624
-0.07029345703125,-0.05797802734375,0.95093701171875,0.9552925321662796,-1.65380859375,-1.1044921875,6.83935546875,47.25941176470588,336.5899916905624
-0.06052783203125,-0.05748974609375,0.97535107421875,0.9789169563022168,-1.583984375,-1.17138671875,6.61962890625,47.40058823529412,336.5899916905624
-0.06589892578125,-0.06139599609375,0.99976513671875,1.003813959533203,-1.5439453125,-1.22802734375,6.18505859375,47.16529411764706,336.5899916905624
-0.07517626953125,-0.06432568359375,1.01587841796875,1.0206851743633434,-1.4970703125,-1.244140625,6.01025390625,47.3064705882353,336.6240948225415
-0.07859423828125,-0.06676708984375,1.04322216796875,1.0483069160883336,-1.48193359375,-1.1328125,5.91455078125,47.118235294117646,336.6240948225415
-0.08738330078125,-0.06432568359375,1.06177685546875,1.0673067626668242,-1.43115234375,-0.88330078125,5.9990234375,47.40058823529412,336.6240948225415
-0.09080126953125,-0.07311474609375,1.06714794921875,1.073496801190681,-1.30712890625,-0.63818359375,6.36865234375,47.40058823529412,336.6240948225415
-0.08396533203125,-0.08239208984375,1.05347607421875,1.0600238074700437,-1.2021484375,-0.46044921875,6.60693359375,47.49470588235295,336.7117951215335
-0.06150439453125,-0.08873974609375,1.04175732421875,1.047337507991979,-1.17138671875,-0.4326171875,6.4833984375,47.16529411764706,336.7117951215335
-0.05418017578125,-0.09508740234375,1.02564404296875,1.0314663389609244,-1.18017578125,-0.33740234375,6.27734375,47.3064705882353,336.7117951215335
-0.05076220703125,-0.10485302734375,1.01197216796875,1.0186553036965962,-1.20361328125,-0.15478515625,6.11279296875,47.3064705882353,336.7117951215335
-0.05271533203125,-0.10045849609375,1.01978466796875,1.026075818198985,-1.23046875,-0.07177734375,6.0302734375,47.3064705882353,336.7117951215335
-0.06638720703125,-0.08190380859375,1.00171826171875,1.0072511955715944,-1.216796875,0.01806640625,6.02490234375,47.25941176470588,337.11715510683774
-0.06736376953125,-0.07409130859375,1.00513623046875,1.0101119944122643,-1.18505859375,0.109375,6.0146484375,47.40058823529412,337.11715510683774
-0.08933642578125,-0.05309521484375,0.99585888671875,1.0012667082587838,-1.1083984375,0.16259765625,6.0029296875,47.16529411764706,337.11715510683774
-0.09421923828125,-0.04137646484375,0.99488232421875,1.0001900398165176,-1.00732421875,0.18896484375,5.9697265625,47.3064705882353,337.11715510683774
-0.09226611328125,-0.03063427734375,0.99878857421875,1.0035088991126713,-0.8857421875,0.1796875,5.87548828125,47.3064705882353,336.5919367554501
-0.08494189453125,-0.01549755859375,1.00855419921875,1.0122434848052613,-0.7529296875,0.16015625,5.7783203125,47.40058823529412,336.5919367554501
-0.08884814453125,-0.00329052734375,1.01929638671875,1.0231666258898136,-0.64306640625,0.1494140625,5.58203125,47.63588235294118,336.5919367554501
-0.09080126953125,-0.11608349609375,1.03492138671875,1.0453623894619966,-0.58349609375,0.27001953125,5.28564453125,47.447647058823534,336.5919367554501
-0.09519580078125,0.0250297851562499,1.04956982421875,1.0541752921321623,-0.52294921875,0.45654296875,5.0927734375,47.3064705882353,336.5919367554501
-0.09617236328125,0.03479541015625,1.05445263671875,1.0594008717714776,-0.41650390625,0.6279296875,5.06201171875,47.3064705882353,336.4165375200638
-0.09910205078125,0.03967822265625,1.03882763671875,1.0442980592880904,-0.31640625,0.7265625,5.01123046875,47.25941176470588,336.4165375200638
-0.07664111328125,0.04553759765625,1.03736279296875,1.0411863893084743,-0.36865234375,0.72802734375,4.763671875,47.49470588235295,336.4165375200638
-0.05613330078125,0.05432666015625,1.03736279296875,1.040299907572935,-0.18017578125,0.70068359375,4.3388671875,47.25941176470588,336.4165375200638
-0.04002001953125,0.06946337890625,1.05201123046875,1.055061321442848,-0.224609375,0.64111328125,3.90185546875,47.58882352941177,336.6260401622372
-0.04002001953125,0.07385791015625,1.07300732421875,1.0762905326551062,-0.2802734375,0.6015625,3.814453125,47.49470588235295,336.6260401622372
-0.01072314453125,0.07239306640625,1.07056591796875,1.0730643627521186,-0.314453125,0.5234375,3.92236328125,47.3064705882353,336.6260401622372
0.03566357421875,0.07092822265625,1.05103466796875,1.054028736120326,-0.34228515625,0.3671875,3.853515625,47.3064705882353,336.6260401622372
0.02785107421875,0.06458056640625,1.02515576171875,1.0275654079802614,-0.265625,0.279296875,3.90771484375,47.25941176470588,336.6260401622372
-0.01121142578125,0.06165087890625,0.98365185546875,0.9856457272798762,-0.04443359375,0.154296875,4.400390625,47.40058823529412,336.76928289088903
-0.02097705078125,0.06555712890625,0.94996044921875,0.9524508537923618,0.2607421875,-0.0009765625,4.8623046875,47.40058823529412,336.76928289088903
0.01124951171875,0.07825244140625,0.92749951171875,0.9308626860812867,0.45654296875,-0.38330078125,4.70947265625,47.16529411764706,336.76928289088903
0.02003857421875,0.09680712890625,0.91675732421875,0.9220722076781804,0.4951171875,-0.4638671875,4.14453125,47.3064705882353,336.76928289088903
-0.0014458007812499,0.11682666015625,0.91822216796875,0.9256254688654554,0.4189453125,-0.4267578125,3.7119140625,47.49470588235295,336.69035630049314
-0.01658251953125,0.13196337890625,0.93091748046875,0.9403704954796508,0.3056640625,-0.3046875,3.46875,47.3064705882353,336.69035630049314
-0.00877001953125,0.16272509765625,0.97046826171875,0.9840553935898256,0.20361328125,-0.09033203125,3.18603515625,47.3064705882353,336.69035630049314
-0.01902392578125,0.20227587890625,0.97095654296875,0.9919849037526994,0.16455078125,0.27294921875,2.73779296875,47.25941176470588,336.69035630049314
-0.04734423828125,0.22034228515625,0.98023388671875,1.0058084669548455,0.27978515625,0.46142578125,2.3115234375,47.118235294117646,336.69035630049314
-0.07566455078125,0.21057666015625,0.96607373046875,0.991648176900102,0.42724609375,0.36376953125,2.07958984375,47.49470588235295,336.5919367554501
-0.08152392578125,0.19055712890625,0.94996044921875,0.972308091569575,0.60107421875,0.21533203125,1.99609375,47.40058823529412,336.5919367554501
-0.05759814453125,0.14954150390625,0.94263623046875,0.9561606928944107,0.76123046875,0.16552734375,1.96044921875,47.118235294117646,336.5919367554501
-0.04978564453125,0.11194384765625,0.94654248046875,0.9544384227185174,0.85400390625,0.185546875,1.9580078125,47.3064705882353,336.5919367554501
-0.03757861328125,0.08948291015625,0.93628857421875,0.941305283953486,0.8876953125,0.2255859375,1.93017578125,47.49470588235295,336.6007110929586
-0.03367236328125,0.08167041015625,0.92798779296875,0.9321830441726808,0.8203125,0.2578125,1.8505859375,47.49470588235295,336.6007110929586
-0.05076220703125,0.09290087890625,0.92359326171875,0.9296407306355056,0.71044921875,0.27490234375,1.78759765625,47.40058823529412,336.6007110929586
-0.06150439453125,0.09778369140625,0.92749951171875,0.9346656006777012,0.61865234375,0.15966796875,1.67333984375,47.58882352941177,336.6007110929586
-0.05271533203125,0.10217822265625,0.94849560546875,0.9554387520976348,0.62353515625,-0.0576171875,1.515625,47.3064705882353,336.6007110929586
-0.04148486328125,0.09729541015625,0.97388623046875,0.979613076992936,0.49853515625,-0.126953125,1.43408203125,47.447647058823534,336.6601437849648
-0.03074267578125,0.08899462890625,1.00513623046875,1.0095365262779157,0.30078125,-0.28857421875,1.42578125,47.3064705882353,336.6601437849648
-0.03562548828125,0.08264697265625,1.03931591796875,1.0432052889281889,0.28076171875,-0.138671875,1.49609375,47.447647058823534,336.6601437849648
-0.04490283203125,0.08264697265625,1.05445263671875,1.058639291494886,0.279296875,0.0029296875,1.59912109375,47.25941176470588,336.6601437849648
-0.05222705078125,0.08313525390625,1.06812451171875,1.072627198895209,0.3408203125,0.4150390625,1.7333984375,47.25941176470588,336.72251455235744
-0.06638720703125,0.09436572265625,1.06910107421875,1.0753089127155655,0.380859375,0.615234375,1.85400390625,47.447647058823534,336.72251455235744
-0.04392626953125,0.10803759765625,1.04810498046875,1.0545737004807512,0.43896484375,0.71240234375,1.95703125,47.118235294117646,336.72251455235744
-0.02488330078125,0.13733447265625,1.03980419921875,1.0491295004671666,0.4951171875,0.76953125,2.12451171875,47.16529411764706,336.72251455235744
-0.01414111328125,0.16809619140625,1.02320263671875,1.0370149162082107,0.54443359375,0.88330078125,1.95166015625,47.63588235294118,336.72251455235744
-0.03025439453125,0.20081103515625,1.00953076171875,1.0297537371067982,0.58935546875,1.11083984375,1.7958984375,47.16529411764706,336.8949805694993
-0.04929736328125,0.22668994140625,1.00025341796875,1.0268035156345248,0.595703125,1.41259765625,1.58544921875,47.3064705882353,336.8949805694993
-0.07468798828125,0.25159228515625,0.98609326171875,1.0204199597963417,0.576171875,1.80029296875,1.32568359375,47.40058823529412,336.8949805694993
-0.07517626953125,0.26331103515625,0.97779248046875,1.0154123830232331,0.51708984375,2.09912109375,1.01220703125,47.3064705882353,336.8949805694993
-0.07615283203125,0.26526416015625,0.95240185546875,0.9915813747696646,0.48779296875,2.32373046875,0.705078125,47.16529411764706,336.3785453347455
-0.07664111328125,0.25891650390625,0.94117138671875,0.9791400285036452,0.4482421875,2.3515625,0.50537109375,47.16529411764706,336.3785453347455
-0.09470751953125,0.24817431640625,0.92164013671875,0.9591561641309656,0.40625,2.146484375,0.36767578125,47.40058823529412,336.3785453347455
-0.11570361328125,0.23401416015625,0.92212841796875,0.95836880818687,0.369140625,1.78564453125,0.27978515625,47.49470588235295,336.3785453347455
-0.13669970703125,0.22083056640625,0.93677685546875,0.9721130725916888,0.34814453125,1.544921875,0.28515625,47.40058823529412,336.3785453347455
-0.14304736328125,0.19446337890625,0.96607373046875,0.995779597390487,0.3427734375,1.35498046875,0.400390625,47.25941176470588,336.53639488163856
-0.15525439453125,0.17542041015625,0.98853466796875,1.015911923887469,0.34423828125,1.33447265625,0.6083984375,47.25941176470588,336.53639488163856
-0.15476611328125,0.16858447265625,1.01783154296875,1.0432422173700209,0.35302734375,1.470703125,0.91455078125,47.447647058823534,336.53639488163856
-0.14988330078125,0.17249072265625,1.04419873046875,1.068910212304152,0.39990234375,1.73046875,1.279296875,47.25941176470588,336.53639488163856
-0.13865283203125,0.19299853515625,1.04224560546875,1.068994361314252,0.4296875,2.03759765625,1.56884765625,47.3064705882353,336.758563526385
-0.12742236328125,0.21497119140625,1.04468701171875,1.0741601483264278,0.4482421875,2.296875,1.6259765625,47.118235294117646,336.758563526385
-0.12351611328125,0.23401416015625,1.02027294921875,1.0540283432153368,0.427734375,2.28662109375,1.5302734375,47.118235294117646,336.758563526385
-0.13132861328125,0.24182666015625,1.00269482421875,1.039771248277126,0.49755859375,2.09228515625,1.31640625,47.3064705882353,336.758563526385
-0.13914111328125,0.25061572265625,0.97144482421875,1.012854153542877,0.2890625,1.77001953125,1.07275390625,47.3064705882353,336.758563526385
-0.13865283203125,0.24866259765625,0.95777294921875,0.999193033181588,0.15478515625,1.47607421875,0.8779296875,47.3064705882353,336.7712288141032
-0.14988330078125,0.24475634765625,0.95191357421875,0.9942384655368274,0.05322265625,1.22607421875,0.650390625,47.25941176470588,336.7712288141032
-0.14939501953125,0.23450244140625,0.95044873046875,0.9902843309554548,-0.0458984375,1.09814453125,0.45849609375,47.49470588235295,336.7712288141032
-0.15525439453125,0.23059619140625,0.94458935546875,0.984645916549295,-0.06591796875,1.09814453125,0.330078125,47.40058823529412,336.7712288141032
-0.17039111328125,0.22571337890625,0.94654248046875,0.9878878115628484,-0.0625,1.134765625,0.23583984375,47.49470588235295,336.7390709418984
-0.17527392578125,0.22083056640625,0.93189404296875,0.973608543223979,-0.04541015625,1.15625,0.14013671875,47.63588235294118,336.7390709418984
-0.18845751953125,0.22327197265625,0.91968701171875,0.9649822847937928,-0.0498046875,1.0634765625,0.046875,47.118235294117646,336.7390709418984
-0.19968798828125,0.21545947265625,0.91138623046875,0.957560931799726,-0.0908203125,1.06103515625,0.03369140625,47.40058823529412,336.7390709418984
-0.20994189453125,0.20862353515625,0.91285107421875,0.959633504106014,-0.1025390625,1.24951171875,0.12841796875,47.3064705882353,336.7390709418984
-0.22166064453125,0.19348681640625,0.91871044921875,0.9646758413896102,-0.0771484375,1.138671875,0.125,47.3064705882353,336.4701338856695
-0.24314501953125,0.18372119140625,0.93335888671875,0.9818512046697544,-0.078125,0.955078125,0.3798828125,47.49470588235295,336.4701338856695
-0.25437548828125,0.17688525390625,0.97095654296875,1.0191917829445196,-0.07373046875,0.6416015625,0.51708984375,47.25941176470588,336.4701338856695
-0.24363330078125,0.16711962890625,1.01441357421875,1.056560956677176,-0.02587890625,0.5703125,0.74560546875,47.3064705882353,336.4701338856695
-0.22410205078125,0.17542041015625,1.04273388671875,1.0808737243431077,0.07470703125,1.275390625,1.05322265625,47.3064705882353,336.93785779472694
-0.18601611328125,0.20422900390625,1.05103466796875,1.086731500283756,0.21728515625,2.41015625,1.166015625,47.40058823529412,336.93785779472694
-0.13425830078125,0.22376025390625,1.02662060546875,1.059265693832233,0.17333984375,3.29541015625,0.794921875,47.3064705882353,336.93785779472694
-0.14109423828125,0.23840869140625,0.98853466796875,1.026619246843879,0.001953125,3.06494140625,0.16552734375,47.3064705882353,336.93785779472694
-0.16013720703125,0.22522509765625,0.96021435546875,0.9991906115142914,-0.13525390625,2.46435546875,-0.16015625,47.16529411764706,336.93785779472694
-0.13181689453125,0.18176806640625,0.93970654296875,0.9661592573417742,-0.16259765625,1.73876953125,-0.14697265625,47.3064705882353,336.4808531994031
-0.09959033203125,0.14026416015625,0.93824169921875,0.9538814155917495,-0.2109375,0.9404296875,-0.07373046875,47.49470588235295,336.4808531994031
-0.11765673828125,0.10559619140625,0.92749951171875,0.94087672303071,-0.2587890625,0.31787109375,0.0517578125,47.3064705882353,336.4808531994031
-0.15867236328125,0.08118212890625,0.92212841796875,0.9391955473428084,-0.31298828125,-0.0634765625,0.19873046875,47.25941176470588,336.4808531994031
-0.20896533203125,0.06995166015625,0.92603466796875,0.9518928253903056,-0.39013671875,-0.35888671875,0.4013671875,47.25941176470588,336.7712288141032
-0.24656298828125,0.07239306640625,0.94605419921875,0.980332908308861,-0.39990234375,-0.45703125,0.64892578125,47.25941176470588,336.7712288141032
-0.25877001953125,0.09338916015625,0.93531201171875,0.9749318014652452,-0.376953125,-0.2197265625,0.66650390625,47.16529411764706,336.7712288141032
-0.24558642578125,0.11194384765625,0.91382763671875,0.95285102045759,-0.35302734375,0.08349609375,0.43505859375,47.40058823529412,336.7712288141032
-0.23044970703125,0.12073291015625,0.8967377929687499,0.9337141813231984,-0.4052734375,0.220703125,0.044921875,47.16529411764706,336.7712288141032
-0.23289111328125,0.12610400390625,0.8723237304687499,0.9116409277700754,-0.486328125,0.181640625,-0.259765625,47.25941176470588,336.3912090479445
-0.25242236328125,0.12659228515625,0.8620698242187499,0.907142236903408,-0.52001953125,0.12890625,-0.34765625,47.49470588235295,336.3912090479445
-0.26560595703125,0.13635791015625,0.8664643554687499,0.9164608466107772,-0.466796875,0.17041015625,-0.1083984375,47.40058823529412,336.3912090479445
-0.26023486328125,0.15784228515625,0.8791596679687499,0.9303537460736536,-0.35498046875,0.2939453125,0.2041015625,47.25941176470588,336.3912090479445
-0.23191455078125,0.17493212890625,0.8977143554687499,0.9435447379973112,-0.236328125,0.39599609375,0.3916015625,47.447647058823534,336.617266708679
-0.19138720703125,0.18372119140625,0.91675732421875,0.9543723228885448,-0.095703125,0.37890625,0.38818359375,47.447647058823534,336.617266708679
-0.16648486328125,0.19348681640625,0.93091748046875,0.9652780497178456,-0.01953125,0.32568359375,0.2646484375,47.40058823529412,336.617266708679
-0.15183642578125,0.18713916015625,0.95777294921875,0.9876256313569396,0.0859375,0.283203125,0.1572265625,47.40058823529412,336.617266708679
-0.16257861328125,0.17444384765625,0.96314404296875,0.9922242231409996,0.1181640625,0.34716796875,0.0732421875,47.40058823529412,336.617266708679
-0.17380908203125,0.16614306640625,0.97876904296875,1.0078700089720796,0.13525390625,0.4892578125,0.06396484375,47.40058823529412,336.50229186746793
-0.19675830078125,0.15149462890625,0.98267529296875,1.0135655789957478,0.130859375,0.6298828125,0.107421875,47.118235294117646,336.50229186746793
-0.21677783203125,0.13635791015625,0.97388623046875,1.0069957785507246,0.04931640625,0.69140625,0.06396484375,47.16529411764706,336.50229186746793
-0.23533251953125,0.11682666015625,0.96412060546875,0.999278942618936,-0.0673828125,0.64794921875,0.0126953125,47.25941176470588,336.50229186746793
-0.24949267578125,0.09534228515625,0.94947216796875,0.9863235495285416,-0.19873046875,0.4619140625,-0.05126953125,47.49470588235295,336.7751220270745
-0.26121142578125,0.08557666015625,0.94068310546875,0.9800201419544922,-0.31005859375,0.30908203125,-0.01611328125,47.40058823529412,336.7751220270745
-0.26902392578125,0.06946337890625,0.94165966796875,0.9817952759770466,-0.3623046875,0.3720703125,0.04150390625,47.3064705882353,336.7751220270745
-0.27097705078125,0.05335009765625,0.94263623046875,0.9822616036282644,-0.337890625,0.48193359375,0.12451171875,47.40058823529412,336.7751220270745
-0.27390673828125,0.04651416015625,0.94165966796875,0.981789895369641,-0.33349609375,0.56298828125,0.185546875,47.58882352941177,336.7751220270745
-0.27293017578125,0.04749072265625,0.92896435546875,0.9693920895705034,-0.29443359375,0.51025390625,0.26416015625,47.3064705882353,336.4486952988148
-0.28074267578125,0.04993212890625,0.91675732421875,0.9600800273990958,-0.3125,0.38330078125,0.32763671875,47.40058823529412,336.4486952988148
-0.28074267578125,0.06213916015625,0.90113232421875,0.9458949154010852,-0.31689453125,0.29150390625,0.37255859375,47.25941176470588,336.4486952988148
-0.28171923828125,0.08215869140625,0.8977143554687499,0.9444611393837378,-0.33251953125,0.203125,0.35791015625,47.3064705882353,336.4486952988148
-0.27830126953125,0.09192431640625,0.9001557617187499,0.9466689346994146,-0.36572265625,0.09912109375,0.318359375,47.3064705882353,336.64747882084254
-0.27976611328125,0.11145556640625,0.90162060546875,0.9505846293882888,-0.38623046875,-0.029296875,0.279296875,47.3064705882353,336.64747882084254
-0.27244189453125,0.11975634765625,0.90552685546875,0.953176297793259,-0.40673828125,-0.0927734375,0.16845703125,47.40058823529412,336.64747882084254
-0.26414111328125,0.11877978515625,0.91431591796875,0.9590895489672802,-0.38525390625,-0.0791015625,0.13134765625,47.3064705882353,336.64747882084254
-0.26023486328125,0.10999072265625,0.92310498046875,0.9653719221645438,-0.3642578125,0.00439453125,0.13232421875,47.40058823529412,336.64747882084254
-0.25046923828125,0.10071337890625,0.92798779296875,0.9664571216121876,-0.306640625,0.078125,0.1650390625,47.25941176470588,336.68352835388146
-0.24363330078125,0.08948291015625,0.92310498046875,0.9588989422383412,-0.29248046875,0.1064453125,0.14990234375,47.49470588235295,336.68352835388146
-0.23972705078125,0.08655322265625,0.91773388671875,0.952468375359708,-0.28369140625,0.08544921875,0.17822265625,47.40058823529412,336.68352835388146
-0.24119189453125,0.08557666015625,0.91480419921875,0.9499282171087088,-0.28173828125,-0.02001953125,0.20263671875,47.25941176470588,336.68352835388146
-0.24900439453125,0.09485400390625,0.91333935546875,0.9514143412840658,-0.30517578125,-0.119140625,0.12548828125,47.447647058823534,336.7497902190975
-0.24900439453125,0.10022509765625,0.91578076171875,0.954307425429695,-0.3212890625,-0.173828125,0.25390625,47.3064705882353,336.7497902190975
-0.24607470703125,0.10364306640625,0.92359326171875,0.9614151859352364,-0.3310546875,-0.212890625,0.12548828125,47.16529411764706,336.7497902190975
-0.24753955078125,0.10071337890625,0.92066357421875,0.9586659641318974,-0.34423828125,-0.287109375,0.2255859375,47.3064705882353,336.7497902190975
