AccX,AccY,AccZ,Magnitude,GyroX,GyroY,GyroZ,Temperature,Altitude
-0.23435595703125,0.98010791015625,-0.0065825195312501,1.0077586812874717,0.013671875,-0.08544921875,-0.08251953125,47.63588235294118,332.09534397693625
-0.21873095703125,0.96936572265625,-0.0002348632812501,0.9937369828005,0.0673828125,0.01416015625,-0.11328125,47.68294117647059,332.09534397693625
-0.32517626953125,0.96106494140625,-0.0060942382812501,1.0146046361054573,0.10595703125,-0.029296875,-0.09423828125,47.49470588235295,332.09534397693625
-0.19529345703125,0.95081103515625,-0.0183012695312501,0.9708326814650255,0.134765625,-0.21533203125,-0.12255859375,47.68294117647059,332.09534397693625
-0.21726611328125,0.94739306640625,-0.1467192382812501,0.9829978235666692,0.18603515625,-0.39697265625,0.10693359375,47.63588235294118,331.8069715299734
-0.23240283203125,0.95471728515625,-0.0261137695312501,0.9829435893638032,0.22265625,-0.45068359375,0.220703125,47.68294117647059,331.8069715299734
-0.22703173828125,0.95715869140625,-0.0329497070312501,0.984267165923448,0.21337890625,-0.40625,0.26953125,47.63588235294118,331.8069715299734
-0.22703173828125,0.97034228515625,-0.0368559570312501,0.9972291221770192,0.18505859375,-0.43896484375,0.3193359375,47.777058823529416,331.8069715299734
-0.21775439453125,0.97620166015625,-0.0349028320312501,1.000802110965645,0.16650390625,-0.47119140625,0.36865234375,47.21235294117647,331.8069715299734
-0.19187548828125,0.98547900390625,-0.0466215820312501,1.005066486385015,0.1328125,-0.4755859375,0.36279296875,48.388823529411766,331.8430176570716
-0.16502001953125,0.98987353515625,-0.0554106445312501,1.0050629641849282,0.1259765625,-0.63525390625,0.2412109375,47.68294117647059,331.8430176570716
-0.16843798828125,1.00842822265625,-0.0632231445312501,1.0243515032205972,0.07666015625,-0.9990234375,0.11865234375,47.68294117647059,331.8430176570716
-0.18406298828125,1.00842822265625,-0.0588286132812501,1.0267752770909817,0.02392578125,-1.32763671875,-0.06298828125,47.63588235294118,331.8430176570716
-0.20603564453125,1.01038134765625,-0.0510161132812501,1.0324358567598246,-0.0400390625,-1.39404296875,-0.1708984375,47.777058823529416,331.6598662853169
-0.20408251953125,1.00842822265625,-0.0383208007812501,1.0295851780209264,-0.0732421875,-1.25244140625,-0.23681640625,47.63588235294118,331.6598662853169
-0.20359423828125,0.99866259765625,-0.0324614257812501,1.0197212079694151,-0.08251953125,-1.15771484375,-0.30029296875,47.63588235294118,331.6598662853169
-0.21531298828125,0.99573291015625,-0.0324614257812501,1.019263192435883,-0.13330078125,-1.07470703125,-0.27783203125,47.49470588235295,331.6598662853169
-0.22263720703125,0.98792041015625,-0.0085356445312501,1.0127324029503215,-0.15576171875,-0.96923828125,-0.17333984375,47.68294117647059,331.6598662853169
-0.23435595703125,0.98303759765625,0.0017182617187498,1.010588237327715,-0.13916015625,-0.84716796875,-0.1787109375,47.58882352941177,331.91803329575225
-0.22996142578125,0.97815478515625,0.0144135742187498,1.0049262620676076,-0.07080078125,-0.6669921875,-0.26904296875,47.447647058823534,331.91803329575225
-0.23386767578125,0.96204150390625,0.0105073242187498,0.9901153209983982,0.00634765625,-0.5537109375,-0.41845703125,47.777058823529416,331.91803329575225
-0.24656298828125,0.95374072265625,0.0056245117187498,0.9851123328712924,-0.0185546875,-0.5107421875,-0.349609375,47.68294117647059,331.91803329575225
-0.24656298828125,0.94348681640625,-0.0051176757812501,0.9751855569726116,-0.02880859375,-0.54541015625,-0.2060546875,47.58882352941177,332.1674406006007
-0.23777392578125,0.94251025390625,-0.0016997070312501,0.9720416181953544,-0.08056640625,-0.5576171875,-0.119140625,47.63588235294118,332.1674406006007
-0.24607470703125,0.95227587890625,-0.0012114257812501,0.9835565965106482,-0.08642578125,-0.52734375,-0.09716796875,47.49470588235295,332.1674406006007
-0.26267626953125,0.95862353515625,-0.0021879882812501,0.9939631240760588,-0.1171875,-0.50537109375,-0.06396484375,47.777058823529416,332.1674406006007
-0.25584033203125,0.96692431640625,0.0114838867187498,1.0002643594598997,-0.060546875,-0.48974609375,-0.0732421875,47.68294117647059,332.1674406006007
-0.25730517578125,0.95911181640625,0.0129487304687498,0.9931108193321976,-0.00048828125,-0.45556640625,-0.14453125,47.63588235294118,332.23173950445755
-0.25877001953125,0.95715869140625,0.0251557617187498,0.9918404588896236,0.06298828125,-0.37890625,-0.15283203125,48.43588235294118,332.23173950445755
-0.25974658203125,0.95178759765625,0.0354096679687498,0.987229336332156,0.11767578125,-0.306640625,-0.15234375,47.63588235294118,332.23173950445755
-0.24949267578125,0.95227587890625,0.0300385742187498,0.9848747436888888,0.162109375,-0.17626953125,-0.12353515625,47.68294117647059,332.23173950445755
-0.23923876953125,0.96692431640625,0.0339448242187498,0.9966594571847308,0.20361328125,-0.05224609375,-0.07275390625,47.58882352941177,332.0583263678747
-0.23191455078125,0.97815478515625,0.0241791992187498,1.0055624178851348,0.21826171875,0.0361328125,-0.08837890625,47.21235294117647,332.0583263678747
-0.24558642578125,0.98352587890625,0.0036713867187498,1.0137304010863832,0.23828125,0.06103515625,-0.115234375,47.447647058823534,332.0583263678747
-0.24216845703125,0.98889697265625,-0.0041411132812501,1.0181256960360054,0.2392578125,0.05126953125,-0.15478515625,47.68294117647059,332.0583263678747
-0.24216845703125,0.98938525390625,-0.0002348632812501,1.0185915753572636,0.2275390625,0.046875,-0.20263671875,47.40058823529412,332.0583263678747
-0.23582080078125,0.98303759765625,-0.0114653320312501,1.0109924937038195,0.12548828125,0.0732421875,-0.2529296875,47.49470588235295,332.2015401398297
-0.23289111328125,0.97864306640625,-0.0163481445312501,1.0061052548814278,0.22265625,0.04541015625,-0.2607421875,47.68294117647059,332.2015401398297
-0.23679736328125,0.98010791015625,-0.0222075195312501,1.0085522697071951,0.18310546875,-0.0107421875,-0.22998046875,47.777058823529416,332.2015401398297
-0.23777392578125,0.97571337890625,-0.0202543945312501,1.0044716412402623,0.16943359375,-0.03173828125,-0.1748046875,47.777058823529416,332.2015401398297
-0.23386767578125,0.97571337890625,-0.1452543945312501,1.0138094133921896,0.16845703125,0.01171875,-0.08203125,47.49470588235295,332.00961158552127
-0.21824267578125,0.99377978515625,-0.0192778320312501,1.0176442215849246,0.18408203125,0.11865234375,-0.0517578125,47.68294117647059,332.00961158552127
-0.21775439453125,1.00256884765625,-0.0231840820312501,1.0262060086980995,0.154296875,0.171875,-0.119140625,48.53,332.00961158552127
-0.21970751953125,1.00256884765625,-0.0295317382812501,1.0267851829838934,0.14306640625,0.18212890625,-0.1806640625,47.68294117647059,332.00961158552127
-0.23728564453125,0.99377978515625,-0.0324614257812501,1.0222311297595883,0.09716796875,0.19384765625,-0.169921875,47.63588235294118,332.00961158552127
-0.22263720703125,0.99426806640625,-0.0119536132812501,1.0189598631449508,0.1171875,0.28076171875,-0.1142578125,47.58882352941177,332.11190837830486
-0.18796923828125,0.99133837890625,-0.0080473632812501,1.0090336843179644,0.16162109375,0.3486328125,-0.23046875,47.777058823529416,332.11190837830486
-0.18552783203125,0.99182666015625,-0.0231840820312501,1.0092958941334047,0.20166015625,0.4091796875,-0.33642578125,47.447647058823534,332.11190837830486
-0.18357470703125,0.98547900390625,-0.0305083007812501,1.0028954564750123,0.21044921875,0.353515625,-0.396484375,47.63588235294118,332.11190837830486
-0.20603564453125,0.98401416015625,-0.0427153320312501,1.006259983203127,0.2216796875,0.2333984375,-0.376953125,47.68294117647059,331.8303526988178
-0.24168017578125,0.97766650390625,-0.0466215820312501,1.0081739295067207,0.1884765625,0.0390625,-0.546875,48.43588235294118,331.8303526988178
-0.23484423828125,0.96887744140625,-0.0349028320312501,0.9975437436040704,0.1630859375,-0.05810546875,-0.55517578125,47.63588235294118,331.8303526988178
-0.22898486328125,0.95960009765625,-0.0280668945312501,0.986941824831862,0.17138671875,-0.134765625,-0.58251953125,47.777058823529416,331.8303526988178
-0.24363330078125,0.94788134765625,-0.0266020507812501,0.979052554049048,0.17333984375,-0.1826171875,-0.52001953125,47.58882352941177,331.8303526988178
-0.25828173828125,0.94348681640625,-0.0178129882812501,0.9783629856109096,0.18701171875,-0.279296875,-0.46923828125,47.49470588235295,331.943363603976
-0.26609423828125,0.93762744140625,-0.0314848632812501,0.9751628885167588,0.193359375,-0.39111328125,-0.42626953125,47.68294117647059,331.943363603976
-0.29294970703125,0.93469775390625,-0.0319731445312501,0.98005188841117,0.1796875,-0.5419921875,-0.369140625,47.49470588235295,331.943363603976
-0.30027392578125,0.91370166015625,-0.0266020507812501,0.9621449076839408,0.18603515625,-0.68603515625,-0.28564453125,48.388823529411766,331.943363603976
-0.27878955078125,0.90002978515625,0.1003510742187498,0.9475481865794868,0.19873046875,-0.724609375,-0.291015625,47.63588235294118,331.8878323019387
-0.27585986328125,0.89661181640625,-0.0256254882812501,0.9384391717839348,0.17236328125,-0.7412109375,-0.240234375,47.68294117647059,331.8878323019387
-0.29636767578125,0.89417041015625,-0.0314848632812501,0.94253160067067,0.15087890625,-0.7919921875,-0.11962890625,47.777058823529416,331.8878323019387
-0.32273486328125,0.89417041015625,-0.0383208007812501,0.9514026477515604,0.07421875,-0.74560546875,0.13818359375,47.777058823529416,331.8878323019387
-0.31345751953125,0.90588916015625,-0.0305083007812501,0.9590732732465436,-0.0126953125,-0.61572265625,0.39404296875,47.63588235294118,331.8878323019387
-0.29343798828125,0.92346728515625,-0.0256254882812501,0.9693061154093964,-0.0615234375,-0.43994140625,0.57177734375,47.777058823529416,332.3145564243018
-0.27146533203125,0.94641650390625,-0.0168364257812501,0.984723865149034,-0.091796875,-0.3330078125,0.6484375,47.63588235294118,332.3145564243018
-0.27341845703125,0.96643603515625,-0.0212309570312501,1.0045929604722228,-0.087890625,-0.28369140625,0.736328125,47.49470588235295,332.3145564243018
-0.26755908203125,0.98743212890625,-0.0183012695312501,1.0232033072856,-0.09375,-0.271484375,0.89111328125,47.58882352941177,332.3145564243018
-0.24851611328125,0.99719775390625,-0.0246489257812501,1.0279937687059484,-0.12060546875,-0.18701171875,0.8681640625,47.3064705882353,332.03299383220894
-0.23435595703125,1.00793994140625,-0.0100004882812501,1.0348747024852485,-0.1787109375,-0.11474609375,0.70361328125,47.777058823529416,332.03299383220894
-0.25339892578125,0.99915087890625,-0.0231840820312501,1.0310436441130195,-0.20068359375,-0.0556640625,0.5791015625,48.388823529411766,332.03299383220894
-0.28074267578125,0.98303759765625,-0.0168364257812501,1.0224787692874973,-0.25244140625,-0.01220703125,0.59375,47.58882352941177,332.03299383220894
-0.29343798828125,0.95862353515625,-0.0056059570312501,1.0025449425717778,-0.27001953125,0.0390625,0.69970703125,47.49470588235295,332.03299383220894
-0.26951220703125,0.94251025390625,0.0041596679687498,0.9802957264493656,-0.21435546875,0.04541015625,0.67724609375,47.40058823529412,331.8108683006655
-0.25584033203125,0.93616259765625,0.0070893554687498,0.9705178739751888,-0.111328125,0.02490234375,0.6826171875,47.63588235294118,331.8108683006655
-0.25291064453125,0.93616259765625,0.0168549804687498,0.9698702458237968,-0.01025390625,-0.0458984375,0.826171875,47.63588235294118,331.8108683006655
-0.24802783203125,0.94739306640625,0.0075776367187498,0.9793512384813736,0.16162109375,-0.13427734375,0.96875,47.777058823529416,331.8108683006655
-0.24656298828125,0.96448291015625,0.0070893554687498,0.9955254141078524,0.2705078125,-0.13134765625,1.06640625,47.63588235294118,332.0437103006021
-0.22703173828125,0.99768603515625,-0.0056059570312501,1.0232068518569646,0.328125,0.02490234375,1.15087890625,47.68294117647059,332.0437103006021
-0.19919970703125,1.03577197265625,-0.0065825195312501,1.0547736402588634,0.39697265625,0.224609375,1.04931640625,47.68294117647059,332.0437103006021
-0.19236376953125,1.07336962890625,-0.0319731445312501,1.0909392568139753,0.4404296875,0.2880859375,0.79931640625,47.777058823529416,332.0437103006021
-0.20457080078125,1.07776416015625,-0.0485747070312501,1.0980821005793513,0.42724609375,0.21240234375,0.5693359375,47.63588235294118,332.0437103006021
-0.20945361328125,1.06751025390625,-0.0495512695312501,1.0889923262464785,0.3984375,0.0224609375,0.39990234375,47.63588235294118,331.9794116932465
-0.20554736328125,1.03723681640625,-0.0490629882812501,1.0585448071194403,0.3291015625,-0.15869140625,0.34619140625,47.777058823529416,331.9794116932465
-0.20945361328125,1.01917041015625,-0.0324614257812501,1.0409768898579748,0.3369140625,-0.2646484375,0.41162109375,47.40058823529412,331.9794116932465
-0.23679736328125,1.01477587890625,-0.0183012695312501,1.0421986433177506,0.3857421875,-0.2529296875,0.345703125,47.63588235294118,331.9794116932465
-0.27146533203125,1.01770556640625,0.0007416992187498,1.0532894172575902,0.4384765625,-0.09228515625,0.28955078125,47.777058823529416,331.9667457146592
-0.27146533203125,1.01868212890625,0.0246674804687498,1.0545213088603205,0.47607421875,0.19677734375,0.2890625,47.777058823529416,331.9667457146592
-0.23679736328125,1.02210009765625,0.0300385742187498,1.0496017896454652,0.5205078125,0.587890625,0.240234375,47.3064705882353,331.9667457146592
-0.19724658203125,1.02747119140625,0.0412690429687498,1.047046511479001,0.533203125,0.875,0.1611328125,47.49470588235295,331.9667457146592
-0.16990283203125,1.02649462890625,0.0363862304687498,1.0410966109220336,0.57421875,1.23681640625,0.1005859375,47.21235294117647,331.9667457146592
-0.15183642578125,1.03577197265625,0.0310151367187498,1.0473012070268646,0.6494140625,1.4033203125,0.0234375,48.24764705882353,331.91316368062206
-0.12400439453125,1.04114306640625,0.0017182617187498,1.04850318407347,0.69580078125,1.4697265625,-0.18115234375,47.447647058823534,331.91316368062206
-0.10252001953125,1.04797900390625,-0.0192778320312501,1.0531580991669052,0.72607421875,1.4228515625,-0.5068359375,47.40058823529412,331.91316368062206
-0.10105517578125,1.05237353515625,-0.0549223632812501,1.0586400105974834,0.7314453125,1.1396484375,-0.7548828125,47.63588235294118,331.91316368062206
-0.10740283203125,1.05432666015625,-0.0676176757812501,1.061937957096658,0.6669921875,0.6484375,-1.2470703125,47.07117647058824,331.79820320233915
-0.12546923828125,1.05920947265625,-0.0768950195312501,1.069383037432481,0.60205078125,0.04638671875,-1.44287109375,47.777058823529416,331.79820320233915
-0.12400439453125,1.07043994140625,-0.0524809570312501,1.078875807899961,0.611328125,-0.39892578125,-1.5849609375,48.43588235294118,331.79820320233915
-0.12449267578125,1.06897509765625,-0.0275786132812501,1.076553187558739,0.63916015625,-0.57861328125,-1.82373046875,48.24764705882353,331.79820320233915
-0.15671923828125,1.06360400390625,-0.0021879882812501,1.0750903143762296,0.67822265625,-0.60400390625,-2.01123046875,48.388823529411766,331.79820320233915
-0.19968798828125,1.04797900390625,0.0222260742187498,1.0670657354012103,0.77490234375,-0.5849609375,-2.0,47.63588235294118,332.03299383220894
-0.21140673828125,1.02307666015625,0.0461518554687498,1.0457096419706535,0.9091796875,-0.38330078125,-1.98046875,47.58882352941177,332.03299383220894
-0.21482470703125,0.98743212890625,0.0505463867187498,1.0117938530934614,1.046875,0.0859375,-2.14404296875,47.49470588235295,332.03299383220894
-0.22849658203125,0.93860400390625,0.0451752929687498,0.967072371254406,1.08984375,0.4697265625,-2.23681640625,47.777058823529416,332.03299383220894
-0.26072314453125,0.91760791015625,0.0568940429687498,0.9556242812951716,1.16015625,0.75830078125,-1.841796875,47.49470588235295,332.00279437433386
-0.25388720703125,0.90881884765625,0.0466401367187498,0.944767545009092,1.3359375,1.0908203125,-1.53515625,47.447647058823534,332.00279437433386
-0.24851611328125,0.92151416015625,0.0300385742187498,0.9549088552683932,1.49072265625,1.3056640625,-1.44873046875,47.49470588235295,332.00279437433386
-0.24216845703125,0.93469775390625,0.0090424804687498,0.965601998336433,1.6171875,1.39794921875,-1.49658203125,47.68294117647059,332.00279437433386
-0.24802783203125,0.93469775390625,-0.0173247070312501,0.9672010349938782,1.662109375,1.5927734375,-1.513671875,47.68294117647059,332.00279437433386
-0.25437548828125,0.93323291015625,-0.0495512695312501,0.9685483374355596,1.646484375,1.9169921875,-1.48388671875,47.40058823529412,332.4041901116613
-0.24558642578125,0.93860400390625,-0.0886137695312501,0.9742394822770172,1.50732421875,2.2705078125,-1.39794921875,47.68294117647059,332.4041901116613
-0.22556689453125,0.94641650390625,-0.1354887695312501,0.9823145267396248,1.3642578125,2.3779296875,-1.396484375,48.388823529411766,332.4041901116613
-0.18943408203125,0.94934619140625,-0.1667387695312501,0.9823162829951309,1.25390625,2.04345703125,-1.55859375,47.63588235294118,332.4041901116613
-0.18943408203125,0.95129931640625,-0.2018950195312501,0.9907659964600848,1.10986328125,1.48974609375,-1.71484375,47.63588235294118,332.156724163995
-0.20603564453125,0.94202197265625,-0.2165434570312501,0.988305192016932,0.93896484375,0.99951171875,-1.70556640625,47.63588235294118,332.156724163995
-0.18552783203125,0.92102587890625,-0.2053129882812501,0.9616978055658768,0.82763671875,0.35693359375,-1.986328125,47.777058823529416,332.156724163995
-0.20652392578125,0.91028369140625,-0.1882231445312501,0.9522061136631712,0.75634765625,0.123046875,-2.4033203125,47.68294117647059,332.156724163995
-0.29539111328125,0.90393603515625,-0.1794340820312501,0.9677566095118828,0.6728515625,-0.18603515625,-2.30517578125,47.58882352941177,332.156724163995
-0.33445361328125,0.90735400390625,-0.1657622070312501,0.9811358810692116,0.63916015625,-0.06103515625,-2.08154296875,47.49470588235295,332.2122565703504
-0.35935595703125,0.92883837890625,-0.1476958007812501,1.0068224707223468,0.63720703125,0.33837890625,-1.9189453125,47.68294117647059,332.2122565703504
-0.39255908203125,0.97473681640625,-0.1511137695312501,1.061626047855342,0.6875,0.81396484375,-1.55419921875,47.63588235294118,332.2122565703504
-0.37693408203125,1.00354541015625,-0.1613676757812501,1.0840766666751294,0.810546875,1.13671875,-1.2890625,48.53,332.2122565703504
-0.36863330078125,1.02161181640625,-0.1760161132812501,1.1002558275239422,0.99609375,1.3134765625,-1.19677734375,47.777058823529416,332.3593731729044
-0.33738330078125,1.01184619140625,-0.2082426757812501,1.08674984183386,1.1884765625,1.38134765625,-1.19580078125,47.49470588235295,332.3593731729044
-0.29587939453125,0.99036181640625,-0.2316801757812501,1.0592624072219765,1.388671875,1.1875,-1.28955078125,47.68294117647059,332.3593731729044
-0.25144580078125,0.93225634765625,-0.2868559570312501,1.0072801142483698,1.623046875,0.6435546875,-1.47119140625,47.777058823529416,332.3593731729044
-0.20066455078125,0.84387744140625,-0.3395903320312501,0.931513280454817,1.158203125,-0.09619140625,-1.92822265625,47.68294117647059,332.3593731729044
-0.19382861328125,0.79944384765625,-0.3498442382812501,0.8939077066121255,0.81591796875,-0.9892578125,-2.29296875,47.68294117647059,331.8469158879227
-0.23826220703125,0.75940478515625,-0.3693754882812501,0.8774410284233489,0.423828125,-1.8232421875,-2.400390625,47.777058823529416,331.8469158879227
-0.29392626953125,0.74231494140625,-0.3488676757812501,0.8712822615895108,0.11474609375,-2.4599609375,-2.2724609375,47.58882352941177,331.8469158879227
-0.36130908203125,0.73694384765625,-0.2975981445312501,0.8730378817583494,-0.06005859375,-2.9755859375,-1.90478515625,47.63588235294118,331.8469158879227
-0.41355517578125,0.74085009765625,-0.2482817382812501,0.8840421778267681,-0.21435546875,-3.146484375,-1.47998046875,47.07117647058824,332.0154610031629
-0.45505908203125,0.75647509765625,-0.2219145507812501,0.91026337362414,-0.333984375,-2.9443359375,-1.06298828125,47.63588235294118,332.0154610031629
-0.44138720703125,0.77747119140625,-0.1921293945312501,0.9144385295034576,-0.32568359375,-2.57470703125,-0.798828125,47.63588235294118,332.0154610031629
-0.43455126953125,0.79504931640625,-0.1994536132812501,0.9277499475721962,-0.30859375,-2.3056640625,-0.71435546875,48.388823529411766,332.0154610031629
-0.42625048828125,0.79065478515625,-0.1891997070312501,0.9179438965379044,-0.50732421875,-2.1396484375,-0.66552734375,47.777058823529416,332.0154610031629
-0.43113330078125,0.79065478515625,-0.1535551757812501,0.9135590316680264,-0.7705078125,-1.96923828125,-0.5087890625,47.68294117647059,332.10119194914193
-0.43064501953125,0.79846728515625,-0.1350004882812501,0.9171860608121118,-0.98486328125,-1.73583984375,-0.19287109375,48.388823529411766,332.10119194914193
-0.38962939453125,0.81995166015625,-0.1242583007812501,0.91628156992751,-1.16357421875,-1.63720703125,-0.18310546875,47.777058823529416,332.10119194914193
-0.38035205078125,0.83752978515625,-0.1130278320312501,0.9267681017228966,-1.25341796875,-1.65283203125,-0.396484375,47.68294117647059,332.10119194914193
-0.38181689453125,0.85071337890625,-0.1183989257812501,0.939955158305826,-1.21923828125,-1.71826171875,-0.56298828125,47.16529411764706,332.0349435176328
-0.44919970703125,0.85803759765625,-0.1354887695312501,0.9779397233254008,-1.13232421875,-1.794921875,-0.56396484375,47.49470588235295,332.0349435176328
-0.42673876953125,0.86096728515625,-0.1340239257812501,0.970223199172328,-1.07958984375,-1.84765625,-0.4736328125,47.63588235294118,332.0349435176328
-0.43699267578125,0.87805712890625,-0.1418364257812501,0.99099167099827,-1.15234375,-1.8212890625,-0.50341796875,48.388823529411766,332.0349435176328
-0.47117236328125,0.90881884765625,-0.1335356445312501,1.0323695375860569,-1.25390625,-1.66845703125,-0.3857421875,47.63588235294118,332.0349435176328
-0.47361376953125,0.91760791015625,-0.1037504882812501,1.0378238980142624,-1.28857421875,-1.35498046875,-0.46533203125,47.63588235294118,332.04956054236743
-0.46775439453125,0.92200244140625,-0.1052153320312501,1.039207843338775,-1.34423828125,-1.06201171875,-0.55908203125,47.63588235294118,332.04956054236743
-0.48875048828125,0.93323291015625,-0.1105864257812501,1.0592592043314686,-1.33984375,-1.04638671875,-0.51318359375,47.40058823529412,332.04956054236743
-0.49265673828125,0.94690478515625,-0.0964262695312501,1.0717450066976928,-1.31982421875,-1.18408203125,-0.326171875,48.53,332.04956054236743
-0.49509814453125,0.95032275390625,-0.0964262695312501,1.0758873243820464,-1.26806640625,-1.15283203125,-0.18115234375,47.63588235294118,332.2375907732317
-0.48875048828125,0.96985400390625,-0.0754301757812501,1.0886613523527575,-1.080078125,-1.083984375,0.072265625,47.63588235294118,332.2375907732317
-0.46335986328125,0.98401416015625,-0.0808012695312501,1.0906489240107884,-0.9462890625,-1.0087890625,0.02783203125,47.07117647058824,332.2375907732317
-0.51121142578125,0.99329150390625,-0.1003325195312501,1.1216201442810874,-0.86181640625,-0.91162109375,-0.056640625,47.49470588235295,332.2375907732317
-0.53123095703125,1.01331103515625,-0.1183989257812501,1.1502277554049558,-0.77099609375,-0.9248046875,-0.00146484375,47.63588235294118,332.2375907732317
-0.44724658203125,1.03088916015625,-0.1393950195312501,1.1323395856086689,-0.7294921875,-0.95849609375,-0.28076171875,47.63588235294118,331.87711584235086
-0.37449267578125,1.03528369140625,-0.1696684570312501,1.113931986800324,-0.76220703125,-1.13427734375,-0.72509765625,47.49470588235295,331.87711584235086
-0.37791064453125,1.02307666015625,-0.2126372070312501,1.111178153862171,-0.9248046875,-1.5048828125,-0.935546875,47.07117647058824,331.87711584235086
-0.40183642578125,1.03967822265625,-0.2385161132812501,1.1398654552380745,-1.2177734375,-2.45751953125,-1.2763671875,47.49470588235295,331.87711584235086
-0.41502001953125,1.04602587890625,-0.2062895507812501,1.144101015957438,-1.46728515625,-3.203125,-1.82177734375,47.49470588235295,332.26973986584875
-0.40281298828125,1.04260791015625,-0.1667387695312501,1.1300846760810666,-1.58544921875,-3.48583984375,-2.30224609375,47.447647058823534,332.26973986584875
-0.39744189453125,1.06067431640625,-0.0837309570312501,1.1357820821697373,-1.74755859375,-3.68017578125,-2.35888671875,47.447647058823534,332.26973986584875
-0.34421923828125,1.08167041015625,-0.0065825195312501,1.135139238055796,-1.46240234375,-3.78515625,-2.419921875,48.388823529411766,332.26973986584875
-0.28806689453125,1.08508837890625,0.0319916992187498,1.1231308002994018,-1.19580078125,-3.34228515625,-3.03125,47.63588235294118,332.26973986584875
-0.28953173828125,1.01526416015625,0.0080659179687498,1.05577222988797,-1.1748046875,-2.603515625,-3.77490234375,47.58882352941177,332.0817094867412
-0.35056689453125,0.93274462890625,-0.0012114257812501,0.996449275099925,-1.05517578125,-1.90673828125,-4.0234375,48.388823529411766,332.0817094867412
-0.37839892578125,0.88391650390625,-0.0158598632812501,0.9616369731731156,-0.86572265625,-1.98193359375,-3.74951171875,47.58882352941177,332.0817094867412
-0.28513720703125,0.83362353515625,-0.0256254882812501,0.8814125542841094,-0.88232421875,-2.3515625,-3.45751953125,47.40058823529412,332.0817094867412
-0.38181689453125,0.84924853515625,0.0207612304687498,0.9313636476184264,-1.1357421875,-2.60498046875,-3.3427734375,47.63588235294118,332.0437103006021
-0.48191455078125,0.88977587890625,0.0466401367187498,1.012974852250157,-0.9521484375,-2.3818359375,-3.09326171875,47.63588235294118,332.0437103006021
-0.39304736328125,0.91565478515625,0.0432221679687498,0.9973856180865052,-0.87548828125,-2.15625,-3.14990234375,47.21235294117647,332.0437103006021
-0.33396533203125,0.92835009765625,0.0261323242187498,0.9869395347163806,-1.27685546875,-2.2880859375,-3.44873046875,47.49470588235295,332.0437103006021
-0.34714892578125,0.93372119140625,0.0227143554687498,0.9964254020731024,-1.48828125,-2.6064453125,-3.70556640625,47.63588235294118,332.0437103006021
-0.32712939453125,0.86292041015625,0.0388276367187498,0.9236627416994668,-1.6748046875,-3.0458984375,-3.84130859375,47.777058823529416,332.0924258286041
-0.43552783203125,0.81165087890625,0.0891206054687498,0.925421052290386,-1.4638671875,-3.25830078125,-3.392578125,47.63588235294118,332.0924258286041
-0.42673876953125,0.79163134765625,0.0817963867187498,0.903037550101511,-1.3466796875,-3.42333984375,-2.81591796875,47.49470588235295,332.0924258286041
-0.42576220703125,0.84045947265625,0.0900971679687498,0.946447611751296,-1.3515625,-3.5458984375,-2.6318359375,47.82411764705883,332.0924258286041
-0.48289111328125,0.88733447265625,0.0847260742187498,1.0137676268764313,-1.2607421875,-3.634765625,-2.70947265625,47.58882352941177,331.9472625722903
-0.46628955078125,0.90833056640625,0.0476166992187498,1.0221339017370317,-1.427734375,-3.7958984375,-2.9208984375,47.68294117647059,331.9472625722903
-0.43748095703125,0.91174853515625,0.0642182617187498,1.013310892205706,-1.48828125,-4.19482421875,-2.7822265625,47.68294117647059,331.9472625722903
-0.46189501953125,0.91321337890625,0.0695893554687498,1.0257428346694408,-1.54541015625,-4.63037109375,-2.8740234375,47.49470588235295,331.9472625722903
-0.54294970703125,0.93713916015625,0.0730073242187498,1.0855202712309262,-1.5478515625,-4.84619140625,-3.1318359375,47.63588235294118,331.9472625722903
-0.57371142578125,0.98059619140625,0.0998627929687498,1.1404763338587596,-1.4326171875,-5.07958984375,-2.85205078125,47.49470588235295,332.1586745531072
-0.45603564453125,0.99573291015625,0.0988862304687498,1.0996504099156177,-1.3994140625,-5.3466796875,-3.0009765625,47.49470588235295,332.1586745531072
-0.44187548828125,0.98987353515625,0.1076752929687498,1.0893564758436198,-1.40771484375,-5.6181640625,-3.65087890625,47.21235294117647,332.1586745531072
-0.50486376953125,1.02502978515625,0.1091401367187498,1.1478175184609087,-1.494140625,-6.06005859375,-4.06201171875,47.40058823529412,332.1586745531072
-0.46335986328125,1.09778369140625,0.1008393554687498,1.1958260624475887,-1.7666015625,-6.564453125,-4.94189453125,47.63588235294118,332.0583263678747
-0.56541064453125,1.15247119140625,0.1306245117187499,1.2903262405424245,-1.84716796875,-6.96923828125,-5.7470703125,47.777058823529416,332.0583263678747
-0.63865283203125,1.14661181640625,0.1828706054687499,1.3251557477249545,-1.88427734375,-6.94677734375,-6.65478515625,47.07117647058824,332.0583263678747
-0.68308642578125,1.12708056640625,0.2888276367187499,1.349199418910998,-1.6376953125,-6.810546875,-6.6708984375,47.63588235294118,332.0583263678747
-0.64451220703125,1.06116259765625,0.3581635742187499,1.2921854315747423,-1.341796875,-6.28369140625,-6.42236328125,48.43588235294118,332.0583263678747
-0.56736376953125,0.95618212890625,0.3786713867187499,1.174554353674575,-0.9833984375,-5.228515625,-6.5517578125,47.63588235294118,331.80210100423614
-0.58298876953125,0.81360400390625,0.3923432617187499,1.0750630751671968,-0.4638671875,-3.87353515625,-6.75439453125,48.24764705882353,331.80210100423614
-0.58543017578125,0.66565478515625,0.3342377929687499,0.9473857112946656,-0.01806640625,-3.04052734375,-6.92919921875,47.68294117647059,331.80210100423614
-0.60886767578125,0.52942431640625,0.2810151367187499,0.8543883546014331,0.083984375,-3.1240234375,-6.91455078125,47.49470588235295,331.80210100423614
-0.66404345703125,0.44836962890625,0.2839448242187499,0.8500668798113233,0.13720703125,-3.73486328125,-6.693359375,47.58882352941177,331.95797893240814
-0.76267626953125,0.36340869140625,0.3244721679687499,0.9049989817022158,0.17626953125,-4.35498046875,-5.982421875,47.49470588235295,331.95797893240814
-0.73484423828125,0.30920947265625,0.3850190429687499,0.8853508999058389,0.26220703125,-4.6220703125,-4.77734375,47.07117647058824,331.95797893240814
-0.73435595703125,0.28967822265625,0.4289643554687499,0.89844452392526,0.19091796875,-4.75244140625,-3.9794921875,47.777058823529416,331.95797893240814
-0.75242236328125,0.28235400390625,0.4318940429687499,0.9123572001357388,-0.0654296875,-4.5205078125,-3.62109375,47.63588235294118,331.95797893240814
-0.72166064453125,0.29114306640625,0.4436127929687499,0.8957402977801258,-0.33251953125,-4.14404296875,-2.7314453125,47.63588235294118,332.0368936584512
-0.67869189453125,0.32092822265625,0.4611909179687499,0.8810872116973297,-0.462890625,-4.07373046875,-2.0830078125,47.49470588235295,332.0368936584512
-0.68503955078125,0.34924853515625,0.4514252929687499,0.8916493260106715,-0.74755859375,-4.0712890625,-1.67578125,47.777058823529416,332.0368936584512
-0.68601611328125,0.39172900390625,0.4494721679687499,0.908897656483624,-1.1181640625,-3.8037109375,-1.603515625,47.63588235294118,332.0368936584512
-0.70896533203125,0.46594775390625,0.4328706054687499,0.9524264341519202,-1.4033203125,-3.84033203125,-1.5009765625,47.49470588235295,332.25902348811053
-0.69089892578125,0.54993212890625,0.4362885742187499,0.9849438522285802,-1.5517578125,-4.02197265625,-0.90771484375,47.49470588235295,332.25902348811053
-0.54246142578125,0.60657275390625,0.4509370117187499,0.930343534819195,-1.583984375,-4.15869140625,-1.109375,47.63588235294118,332.25902348811053
-0.45847705078125,0.62952197265625,0.4362885742187499,0.8926627807542549,-1.84423828125,-4.0712890625,-2.0693359375,47.63588235294118,332.25902348811053
-0.48777392578125,0.63928759765625,0.4533784179687499,0.9231273070757892,-2.09619140625,-3.98779296875,-2.77734375,47.40058823529412,332.25902348811053
-0.47752001953125,0.64563525390625,0.4465424804687499,0.9188418998951328,-2.1455078125,-4.2421875,-3.5224609375,47.63588235294118,332.4402429584316
-0.48826220703125,0.66418994140625,0.4328706054687499,0.9310881924711252,-2.22119140625,-4.17578125,-4.7373046875,47.58882352941177,332.4402429584316
-0.54050830078125,0.66663134765625,0.4235932617187499,0.9570673060265676,-2.26171875,-4.02490234375,-5.35498046875,47.49470588235295,332.4402429584316
-0.60056689453125,0.68713916015625,0.3684174804687499,0.9841606881714428,-2.2841796875,-3.681640625,-5.7470703125,47.777058823529416,332.4402429584316
-0.71043017578125,0.68176806640625,0.3464448242187499,1.0438116435736169,-2.3369140625,-3.30712890625,-6.05615234375,47.58882352941177,332.2716910188891
-0.81931689453125,0.64026416015625,0.3835541992187499,1.1083014897505354,-2.39599609375,-2.95556640625,-5.828125,47.63588235294118,332.2716910188891
-0.79734423828125,0.56848681640625,0.4065034179687499,1.0602736078806718,-2.3310546875,-2.458984375,-5.21533203125,47.68294117647059,332.2716910188891
-0.71970751953125,0.48645556640625,0.4377534179687499,0.972751760060486,-2.05224609375,-1.78271484375,-4.6494140625,47.63588235294118,332.2716910188891
-0.61521533203125,0.37561572265625,0.4524018554687499,0.8510255664223407,-1.580078125,-1.556640625,-4.611328125,47.68294117647059,332.2716910188891
-0.64011767578125,0.29407275390625,0.4309174804687499,0.8257840507124916,-1.32958984375,-1.482421875,-4.38818359375,47.63588235294118,332.2716910188891
-0.66062548828125,0.27551806640625,0.4274995117187499,0.8337218200352251,-1.232421875,-1.5498046875,-3.63916015625,47.63588235294118,332.2716910188891
-0.63816455078125,0.30676806640625,0.4143159179687499,0.8203769379515442,-1.1767578125,-1.849609375,-3.05615234375,47.63588235294118,332.2716910188891
-0.63474658203125,0.35559619140625,0.4025971679687499,0.8315265205628998,-1.12158203125,-2.22705078125,-2.7421875,47.777058823529416,332.2716910188891
-0.66843798828125,0.37415087890625,0.4035737304687499,0.8658348458501004,-1.01611328125,-2.5458984375,-2.423828125,47.68294117647059,332.2034907434313
-0.68406298828125,0.39465869140625,0.4294526367187499,0.8989589655949007,-0.8466796875,-2.6572265625,-2.140625,47.49470588235295,332.2034907434313
-0.60154345703125,0.40784228515625,0.4182221679687499,0.8385103708595741,-0.78076171875,-2.62841796875,-2.07080078125,47.58882352941177,332.2034907434313
-0.51267626953125,0.41370166015625,0.4504487304687499,0.7980539328500453,-0.88134765625,-2.85888671875,-2.13232421875,47.58882352941177,332.2034907434313
-0.49949267578125,0.38049853515625,0.4963471679687499,0.8003952645822958,-1.02734375,-3.08642578125,-2.21044921875,47.68294117647059,332.2034907434313
-0.62205126953125,0.32239306640625,0.5295502929687499,0.8782417571349892,-1.171875,-3.3984375,-2.1484375,47.58882352941177,332.146007740922
-0.67527392578125,0.27161181640625,0.5744721679687499,0.9272465289351258,-1.431640625,-3.62353515625,-1.87060546875,47.777058823529416,332.146007740922
-0.64988330078125,0.24524462890625,0.6101166992187499,0.9245191286865184,-1.84912109375,-3.5771484375,-1.5712890625,47.58882352941177,332.146007740922
-0.65378955078125,0.23547900390625,0.6286713867187499,0.9370799594860112,-2.0400390625,-2.92041015625,-1.25146484375,47.68294117647059,332.146007740922
-0.65085986328125,0.22180712890625,0.6062104492187499,0.9166831910786408,-2.03466796875,-2.205078125,-1.22119140625,47.58882352941177,332.1158091829352
-0.66453173828125,0.23450244140625,0.5754487304687499,0.9097994656003529,-2.18017578125,-1.7099609375,-1.23193359375,47.63588235294118,332.1158091829352
-0.64793017578125,0.23596728515625,0.5642182617187499,0.8909749262514969,-2.28564453125,-1.740234375,-1.1943359375,48.24764705882353,332.1158091829352
-0.58396533203125,0.21350634765625,0.5378510742187499,0.8221217960510125,-2.37841796875,-2.03125,-1.20361328125,47.68294117647059,332.1158091829352
-0.60056689453125,0.23450244140625,0.5598237304687499,0.8538586528391856,-2.79052734375,-2.6240234375,-0.94775390625,47.63588235294118,332.1158091829352
-0.66941455078125,0.31506884765625,0.6198823242187499,0.9652141293205044,-2.8994140625,-3.30908203125,-0.3701171875,47.777058823529416,332.41685822098515
-0.68650439453125,0.42249072265625,0.7014252929687499,1.0685429968221285,-2.99560546875,-3.8076171875,-0.14013671875,48.43588235294118,332.41685822098515
-0.64060595703125,0.57043994140625,0.7995698242187499,1.1726421545964876,-3.345703125,-3.4658203125,-0.64453125,48.24764705882353,332.41685822098515
-0.55222705078125,0.67200244140625,0.8991791992187499,1.2510256708709817,-3.48486328125,-2.6533203125,-1.04638671875,47.447647058823534,332.41685822098515
-0.39988330078125,0.66907275390625,0.91138623046875,1.199245540059015,-3.53857421875,-1.8662109375,-2.0234375,47.63588235294118,332.02422712299733
-0.25535205078125,0.64905322265625,0.8772065429687499,1.1206989224166493,-3.7734375,-1.064453125,-3.5009765625,47.777058823529416,332.02422712299733
-0.20115283203125,0.64563525390625,0.8371674804687499,1.0761769061242556,-4.1884765625,-1.0048828125,-4.8349609375,47.49470588235295,332.02422712299733
-0.21824267578125,0.64075244140625,0.7995698242187499,1.0476189481397482,-4.39990234375,-1.5791015625,-6.1640625,47.68294117647059,332.02422712299733
-0.28367236328125,0.59485400390625,0.7722260742187499,1.0152115076949082,-4.35498046875,-2.1826171875,-7.513671875,47.63588235294118,332.02422712299733
-0.36668017578125,0.51672900390625,0.7551362304687499,0.985745373489253,-4.166015625,-2.2978515625,-8.52587890625,47.58882352941177,332.5045409204842
-0.43894580078125,0.40442431640625,0.7297456054687499,0.9427412648362794,-3.75439453125,-2.12744140625,-8.623046875,47.63588235294118,332.5045409204842
-0.53318408203125,0.27649462890625,0.6521088867187499,0.8865554383585265,-3.1767578125,-1.78564453125,-8.50634765625,47.63588235294118,332.5045409204842
-0.71726611328125,0.15198291015625,0.6491791992187499,0.9792870442007549,-2.6669921875,-1.46240234375,-8.17724609375,47.07117647058824,332.5045409204842
-0.79929736328125,0.01184619140625,0.6472260742187499,1.0285515049562697,-2.17431640625,-1.17626953125,-7.6279296875,47.40058823529412,332.10704401986425
-0.74949267578125,-0.12731396484375,0.7038666992187499,1.036038825026877,-1.64013671875,-1.15478515625,-7.10595703125,47.49470588235295,332.10704401986425
-0.70896533203125,-0.33873974609375,0.7981049804687499,1.11997679326621,-0.91357421875,-1.57275390625,-6.51416015625,47.68294117647059,332.10704401986425
-0.73484423828125,-0.53551708984375,0.8693940429687499,1.25802249979856,-0.07763671875,-2.4912109375,-5.02099609375,47.40058823529412,332.10704401986425
-0.69285205078125,-0.66247021484375,0.91138623046875,1.3227001213105507,0.47314453125,-3.18603515625,-3.4912109375,47.58882352941177,332.10704401986425
-0.67234423828125,-0.71325146484375,0.96412060546875,1.3748828927371155,0.6171875,-3.56982421875,-2.2431640625,47.777058823529416,332.0154610031629
-0.72556689453125,-0.62780224609375,0.99048779296875,1.379002917567684,0.5380859375,-3.7900390625,-0.744140625,47.63588235294118,332.0154610031629
-0.66599658203125,-0.41979443359375,0.98072216796875,1.257614720213997,0.26171875,-3.76416015625,0.65185546875,47.68294117647059,332.0154610031629
-0.58787158203125,-0.15221630859375,0.94361279296875,1.122126510076345,-0.1181640625,-3.6484375,0.9306640625,47.58882352941177,332.0154610031629
-0.55955126953125,0.04114306640625,0.8601166992187499,1.0269328660736787,-0.443359375,-3.52685546875,0.5859375,47.68294117647059,332.4636279645174
-0.55369189453125,0.16028369140625,0.7478120117187499,0.9441866238574144,-0.77783203125,-3.42138671875,0.0205078125,47.3064705882353,332.4636279645174
-0.52927783203125,0.20227587890625,0.6345307617187499,0.8506937417392777,-1.2451171875,-3.197265625,-0.68408203125,47.58882352941177,332.4636279645174
-0.57029345703125,0.23059619140625,0.5608002929687499,0.8324098745315062,-1.6806640625,-2.83349609375,-1.140625,47.07117647058824,332.4636279645174
-0.46726611328125,0.26770556640625,0.5954682617187499,0.8028613464479447,-1.41455078125,-1.61572265625,-1.572265625,47.63588235294118,332.02617732403587
-0.56736376953125,0.24475634765625,0.6115815429687499,0.869390188807519,-1.34716796875,-1.47705078125,-1.67724609375,47.63588235294118,332.02617732403587
-0.46287158203125,0.21448291015625,0.6442963867187499,0.8218094999086122,-1.28271484375,-1.39404296875,-1.7412109375,47.58882352941177,332.02617732403587
-0.48191455078125,0.17932666015625,0.6599213867187499,0.8365978256882377,-1.240234375,-1.32470703125,-1.80224609375,47.777058823529416,332.02617732403587
-0.51658251953125,0.06165087890625,0.7302338867187499,0.8966046283995747,-1.0419921875,-1.28759765625,-1.830078125,48.53,332.02617732403587
-0.54685595703125,-0.00768505859375,0.7912690429687499,0.9618821113976675,-0.78466796875,-1.47119140625,-1.81005859375,47.63588235294118,332.1050928742372
-0.50925830078125,-0.04870068359375,0.8283784179687499,0.9736152098511576,-0.482421875,-1.51123046875,-1.90576171875,47.49470588235295,332.1050928742372
-0.48777392578125,-0.05211865234375,0.8332612304687499,0.966935382947835,-0.2080078125,-1.58056640625,-1.96875,47.63588235294118,332.1050928742372
-0.46091845703125,-0.06579052734375,0.8288666992187499,0.95068092575481,-0.03271484375,-1.6162109375,-1.91845703125,47.07117647058824,332.1050928742372
-0.41502001953125,-0.08825146484375,0.7946870117187499,0.9008647979876132,0.03466796875,-1.51806640625,-2.033203125,47.63588235294118,332.1050928742372
-0.46433642578125,-0.12926708984375,0.7478120117187499,0.8896859567818423,-0.2265625,-1.38134765625,-1.93701171875,47.63588235294118,332.1031421839947
-0.50632861328125,-0.13414990234375,0.7639252929687499,0.9262541304434444,-0.5634765625,-1.25537109375,-1.712890625,47.447647058823534,332.1031421839947
-0.52488330078125,-0.12780224609375,0.7570893554687499,0.9300646137283768,-0.7880859375,-1.22265625,-1.8681640625,47.58882352941177,332.1031421839947
-0.48875048828125,-0.13024365234375,0.7395112304687499,0.8959449250709579,-0.9599609375,-1.30126953125,-2.02734375,47.63588235294118,332.1031421839947
-0.45457080078125,-0.12780224609375,0.7365815429687499,0.8749402245135027,-0.95556640625,-1.52880859375,-1.7724609375,47.58882352941177,332.4977294661057
-0.44089892578125,-0.13854443359375,0.7522065429687499,0.8828369646315626,-0.67333984375,-1.7158203125,-1.85546875,47.63588235294118,332.4977294661057
-0.42625048828125,-0.17565380859375,0.7605073242187499,0.8893340932539675,-0.20458984375,-1.75439453125,-2.10888671875,47.49470588235295,332.4977294661057
-0.41453173828125,-0.22008740234375,0.7663666992187499,0.8986617519313572,0.07861328125,-1.564453125,-1.85009765625,47.07117647058824,332.4977294661057
-0.36765673828125,-0.22057568359375,0.8313081054687499,0.9353599711418592,0.150390625,-1.29248046875,-1.01123046875,47.63588235294118,332.4977294661057
-0.36472705078125,-0.14782177734375,0.8576752929687499,0.9436546018526508,0.09716796875,-0.8125,-0.59814453125,47.63588235294118,332.1859608577348
-0.35203173828125,-0.03747021484375,0.8542573242187499,0.9247085690849488,0.052734375,-0.72900390625,-0.71044921875,47.447647058823534,332.1859608577348
-0.35105517578125,0.03235400390625,0.7785737304687499,0.8546716163460651,-0.11962890625,-1.236328125,-1.1220703125,47.68294117647059,332.1859608577348
-0.40085986328125,0.06458056640625,0.7551362304687499,0.8573739009987227,-0.5712890625,-1.9521484375,-1.150390625,47.63588235294118,332.1859608577348
-0.45164111328125,0.10071337890625,0.7541596679687499,0.8848048850946608,-0.9931640625,-2.71630859375,-1.16357421875,47.63588235294118,332.2609747013759
-0.45066455078125,0.12219775390625,0.7854096679687499,0.913728173435284,-1.271484375,-2.93603515625,-1.3974609375,47.58882352941177,332.2609747013759
-0.43308642578125,0.14856494140625,0.8391206054687499,0.9559073095929658,-1.27685546875,-2.6181640625,-1.49267578125,47.63588235294118,332.2609747013759
-0.41648486328125,0.13538134765625,0.8723237304687499,0.9760821898664784,-1.01318359375,-1.78076171875,-1.15576171875,47.49470588235295,332.2609747013759
-0.43357470703125,0.08606494140625,0.8400971679687499,0.9492931329919172,-0.8779296875,-1.01708984375,-1.34814453125,47.63588235294118,332.2609747013759
-0.48972705078125,0.0216118164062499,0.8591401367187499,0.9891518737769196,-0.896484375,-0.58935546875,-1.45068359375,47.49470588235295,332.2375907732317
-0.54392626953125,-0.03112255859375,0.8923432617187499,1.045514656556502,-0.89306640625,-0.53173828125,-1.02978515625,47.49470588235295,332.2375907732317
-0.55955126953125,-0.10875927734375,0.8884370117187499,1.0555787642019474,-0.8701171875,-0.29833984375,-0.6796875,47.63588235294118,332.2375907732317
-0.52439501953125,-0.18590771484375,0.8889252929687499,1.0486848866209444,-1.05322265625,0.17822265625,-0.638671875,47.07117647058824,332.2375907732317
-0.47849658203125,-0.22301708984375,0.8908784179687499,1.0355481432461102,-1.20703125,0.5263671875,-0.61865234375,47.63588235294118,332.1265255051805
-0.46433642578125,-0.22985302734375,0.8816010742187499,1.0225757598095344,-1.25439453125,0.6953125,-0.16748046875,47.40058823529412,332.1265255051805
-0.47214892578125,-0.22838818359375,0.8820893554687499,1.0262394465001408,-1.11181640625,0.5205078125,-0.06396484375,47.49470588235295,332.1265255051805
-0.50046923828125,-0.20788037109375,0.9001557617187499,1.0506969603588625,-0.8779296875,0.115234375,-0.197265625,48.388823529411766,332.1265255051805
-0.48630908203125,-0.18346630859375,0.8982026367187499,1.0377496741814032,-0.58837890625,-0.7109375,-0.2197265625,47.63588235294118,332.1265255051805
-0.46921923828125,-0.17760693359375,0.8962495117187499,1.027119323004834,-0.45361328125,-0.859375,-0.044921875,47.63588235294118,332.04956054236743
-0.48337939453125,-0.17272412109375,0.90210888671875,1.0379256739102027,-0.3759765625,-0.537109375,-0.18798828125,47.68294117647059,332.04956054236743
-0.52732470703125,-0.17516552734375,0.90259716796875,1.0599226180436077,-0.68603515625,-0.21337890625,-0.3994140625,48.388823529411766,332.04956054236743
-0.49851611328125,-0.18541943359375,0.90259716796875,1.047654680312401,-0.92236328125,-0.03515625,-0.61962890625,47.63588235294118,332.04956054236743
-0.46580126953125,-0.16832958984375,0.92603466796875,1.050164691747862,-1.07666015625,-0.00732421875,-0.4853515625,47.63588235294118,332.0943765790667
-0.46091845703125,-0.13463818359375,0.93335888671875,1.049634258172987,-1.06298828125,-0.130859375,-0.43896484375,47.63588235294118,332.0943765790667
-0.48826220703125,-0.09899365234375,0.93775341796875,1.061876263474919,-0.99169921875,-0.203125,-0.47900390625,47.63588235294118,332.0943765790667
-0.49998095703125,-0.08092724609375,0.92115185546875,1.051214020733991,-0.93701171875,-0.34521484375,-0.55029296875,47.63588235294118,332.0943765790667
-0.49363330078125,-0.07262646484375,0.8957612304687499,1.025347073456974,-1.03076171875,-0.45849609375,-0.68896484375,47.58882352941177,332.0943765790667
-0.47703173828125,-0.08581005859375,0.8840424804687499,1.0081933112041728,-1.16552734375,-0.42822265625,-0.9033203125,47.63588235294118,331.9472625722903
-0.45847705078125,-0.11071240234375,0.8645112304687499,0.9848035894189202,-1.2646484375,-0.3857421875,-0.904296875,47.68294117647059,331.9472625722903
-0.47898486328125,-0.11168896484375,0.8532807617187499,0.9848801868449564,-1.2197265625,-0.43505859375,-0.9072265625,47.63588235294118,331.9472625722903
-0.51023486328125,-0.10485302734375,0.8454682617187499,0.9930510332427582,-1.12109375,-0.81591796875,-0.927734375,47.63588235294118,331.9472625722903
-0.52634814453125,-0.09459912109375,0.8435151367187499,0.9987537979085992,-0.9736328125,-1.234375,-0.8134765625,47.40058823529412,332.1265255051805
-0.51658251953125,-0.09948193359375,0.8488862304687499,0.9986801223996846,-0.68408203125,-1.39404296875,-0.865234375,47.63588235294118,332.1265255051805
-0.50828173828125,-0.12877880859375,0.8132416992187499,0.9676240842192976,-0.52978515625,-1.22705078125,-0.94091796875,47.49470588235295,332.1265255051805
-0.50095751953125,-0.17956005859375,0.7961518554687499,0.9576314677282836,-0.45556640625,-1.0048828125,-0.9833984375,47.07117647058824,332.1265255051805
-0.49607470703125,-0.21032177734375,0.7756440429687499,0.9444305407885126,-0.4208984375,-1.02099609375,-0.9140625,47.63588235294118,332.1265255051805
-0.49851611328125,-0.21959912109375,0.7849213867187499,0.9554285282085084,-0.29833984375,-1.298828125,-0.76904296875,47.49470588235295,332.3613247549382
-0.50779345703125,-0.20885693359375,0.8034760742187499,0.9731645367335916,-0.1689453125,-1.638671875,-0.63037109375,47.49470588235295,332.3613247549382
-0.50193408203125,-0.18102490234375,0.8039643554687499,0.9649178839867152,-0.10888671875,-1.69580078125,-0.5126953125,47.777058823529416,332.3613247549382
-0.46873095703125,-0.16979443359375,0.8269135742187499,0.9655697380231436,-0.09912109375,-1.4541015625,-0.53125,47.68294117647059,332.3613247549382
-0.45798876953125,-0.15563427734375,0.8088471679687499,0.9424486630220912,-0.0458984375,-1.28662109375,-0.58154296875,47.49470588235295,332.4977294661057
-0.44578173828125,-0.16539990234375,0.7922456054687499,0.9239759657398676,-0.13818359375,-1.2080078125,-0.638671875,47.63588235294118,332.4977294661057
-0.40818408203125,-0.16930615234375,0.7961518554687499,0.910569379570537,-0.2021484375,-1.4775390625,-0.96875,47.68294117647059,332.4977294661057
-0.43210986328125,-0.16198193359375,0.8034760742187499,0.9265694159628218,-0.38525390625,-1.83203125,-1.14697265625,47.63588235294118,332.4977294661057
-0.48044970703125,-0.13024365234375,0.8366791992187499,0.973564282606743,-0.44384765625,-2.375,-0.8486328125,47.58882352941177,332.4977294661057
-0.50828173828125,-0.07555615234375,0.8503510742187499,0.9935572490059056,-0.49267578125,-2.8154296875,-0.61181640625,47.58882352941177,331.990128093967
-0.48435595703125,-0.05700146484375,0.8615815429687499,0.9900366737098192,-0.7685546875,-2.85400390625,-0.5029296875,47.49470588235295,331.990128093967
-0.41746142578125,-0.05797802734375,0.8737885742187499,0.9701247167788388,-0.8251953125,-2.61376953125,-0.98779296875,47.68294117647059,331.990128093967
-0.41257861328125,-0.07702099609375,0.8283784179687499,0.928635638629469,-1.03369140625,-2.3779296875,-1.30908203125,47.63588235294118,331.990128093967
-0.41453173828125,-0.09997021484375,0.8068940429687499,0.912638264854611,-1.11083984375,-2.48388671875,-1.2919921875,47.68294117647059,331.9472625722903
-0.39890673828125,-0.10143505859375,0.8103120117187499,0.9088570917882474,-1.068359375,-3.07080078125,-1.16015625,47.68294117647059,331.9472625722903
-0.38914111328125,-0.10338818359375,0.8230073242187499,0.916221031340305,-1.02099609375,-3.865234375,-1.09716796875,47.58882352941177,331.9472625722903
-0.41697314453125,-0.07604443359375,0.8523041992187499,0.9518780421602272,-1.03955078125,-4.4287109375,-1.078125,47.63588235294118,331.9472625722903
-0.44382861328125,-0.05553662109375,0.8825776367187499,0.9894500690210304,-1.02880859375,-4.48388671875,-1.185546875,47.49470588235295,331.9472625722903
-0.45750048828125,-0.03600537109375,0.90747998046875,1.0169183833901043,-1.02490234375,-4.1826171875,-1.3955078125,47.777058823529416,332.26973986584875
-0.41843798828125,-0.05748974609375,0.8757416992187499,0.9722751383704752,-1.07177734375,-3.4599609375,-1.63134765625,47.49470588235295,332.26973986584875
-0.35935595703125,-0.07457958984375,0.97583935546875,1.0425743459134091,-1.12060546875,-2.8779296875,-2.009765625,47.63588235294118,332.26973986584875
-0.31834033203125,-0.10338818359375,0.8357026367187499,0.9002380688036095,-1.181640625,-2.755859375,-2.13330078125,47.777058823529416,332.26973986584875
-0.29294970703125,-0.12047802734375,0.8142182617187499,0.8736623281558152,-1.05126953125,-3.1533203125,-2.43017578125,47.40058823529412,332.149909094991
-0.33591845703125,-0.10875927734375,0.8449799804687499,0.9157843401017292,-0.94384765625,-3.90380859375,-2.185546875,47.63588235294118,332.149909094991
-0.30906298828125,-0.08922802734375,0.8684174804687499,0.9260834152346562,-0.79736328125,-4.37841796875,-2.0341796875,47.3064705882353,332.149909094991
-0.29490283203125,-0.06432568359375,0.9001557617187499,0.9494134343189576,-0.61181640625,-4.689453125,-2.33154296875,47.58882352941177,332.149909094991
-0.33103564453125,-0.08092724609375,0.90796826171875,0.9698145087588176,-0.5869140625,-4.603515625,-2.6142578125,47.07117647058824,332.149909094991
-0.35984423828125,-0.12096630859375,0.91333935546875,0.9890952946440918,-0.68701171875,-4.3505859375,-2.76513671875,47.68294117647059,331.8128173690813
-0.30125048828125,-0.16930615234375,0.8933198242187499,0.9578291801012092,-0.73095703125,-4.01318359375,-2.91748046875,47.63588235294118,331.8128173690813
-0.22996142578125,-0.20446240234375,0.8796479492187499,0.931916115261602,-0.9169921875,-3.85009765625,-3.0244140625,47.49470588235295,331.8128173690813
-0.19089892578125,-0.24157177734375,0.8649995117187499,0.918163100297071,-0.98583984375,-3.990234375,-3.0380859375,48.43588235294118,331.8128173690813
-0.18552783203125,-0.25768505859375,0.8625581054687499,0.9191456093517062,-0.9482421875,-4.5712890625,-3.01513671875,48.34176470588236,332.1947255058944
-0.22068408203125,-0.25426708984375,0.8903901367187499,0.9519179652709676,-0.9443359375,-5.267578125,-2.7734375,47.447647058823534,332.1947255058944
-0.24314501953125,-0.24303662109375,0.91626904296875,0.9786394937965603,-0.970703125,-5.630859375,-2.6123046875,47.63588235294118,332.1947255058944
-0.23777392578125,-0.23913037109375,0.93091748046875,0.9901147052756804,-1.076171875,-5.38623046875,-2.58642578125,47.49470588235295,332.1947255058944
-0.23240283203125,-0.24938427734375,0.92359326171875,0.9844938329998258,-1.19921875,-4.826171875,-2.54443359375,47.58882352941177,332.1947255058944
-0.20554736328125,-0.26061474609375,0.90503857421875,0.9639837059086068,-1.271484375,-4.3173828125,-2.4638671875,47.63588235294118,332.0368936584512
-0.18894580078125,-0.28356396484375,0.8908784179687499,0.9538204198869292,-1.3095703125,-4.17138671875,-2.353515625,47.63588235294118,332.0368936584512
-0.19187548828125,-0.32360302734375,0.8845307617187499,0.9612126667579656,-1.279296875,-4.34423828125,-2.34033203125,47.777058823529416,332.0368936584512
-0.21043017578125,-0.34704052734375,0.9006440429687499,0.9878652127863656,-1.24462890625,-4.5009765625,-2.2216796875,47.777058823529416,332.0368936584512
-0.23728564453125,-0.37291943359375,0.91333935546875,1.0146734249503953,-1.31494140625,-4.857421875,-2.05322265625,47.63588235294118,332.1859608577348
-0.22947314453125,-0.37096630859375,0.92554638671875,1.0231862196789336,-1.451171875,-4.89208984375,-2.0478515625,47.777058823529416,332.1859608577348
-0.23728564453125,-0.38512646484375,0.93677685546875,1.0402777263623275,-1.697265625,-4.875,-2.130859375,48.24764705882353,332.1859608577348
-0.21677783203125,-0.36803662109375,0.96607373046875,1.0562869097115992,-1.74658203125,-5.044921875,-2.19482421875,47.68294117647059,332.1859608577348
-0.21482470703125,-0.39098583984375,0.98902294921875,1.0849820163443904,-1.6689453125,-5.3046875,-2.0615234375,47.49470588235295,332.1859608577348
-0.18210986328125,-0.38268505859375,1.01587841796875,1.1007364882068311,-1.529296875,-5.43505859375,-1.67822265625,47.68294117647059,332.216158112493
-0.10398486328125,-0.37194287109375,1.01929638671875,1.0900089335078782,-1.36083984375,-5.35498046875,-1.5859375,47.777058823529416,332.216158112493
-0.07908251953125,-0.33092724609375,1.01294873046875,1.0685654016768729,-1.2705078125,-5.18408203125,-1.5478515625,47.49470588235295,332.216158112493
-0.03562548828125,-0.27379833984375,0.98755810546875,1.025429528535968,-1.31201171875,-5.0361328125,-1.74951171875,47.58882352941177,332.216158112493
-0.03171923828125,-0.19713818359375,0.97046826171875,0.9907967604464588,-1.486328125,-4.9208984375,-1.962890625,47.777058823529416,332.00474469581764
-0.0068168945312499,-0.12340771484375,0.96070263671875,0.9686204056968678,-1.59814453125,-4.91162109375,-2.0263671875,47.777058823529416,332.00474469581764
0.03273388671875,-0.06530224609375,0.96216748046875,0.9649363456499018,-1.69580078125,-4.830078125,-2.1015625,47.49470588235295,332.00474469581764
0.10158154296875,-0.04039990234375,0.96802685546875,0.9741801449886016,-1.74951171875,-4.7607421875,-2.572265625,47.63588235294118,332.00474469581764
0.16896435546875,-0.05211865234375,0.94410107421875,0.9605166035431644,-1.56982421875,-4.6416015625,-3.32568359375,47.447647058823534,332.00474469581764
0.18019482421875,-0.11657177734375,0.92945263671875,0.9539084640843396,-1.6455078125,-4.66455078125,-4.2353515625,47.68294117647059,332.1947255058944
0.20607373046875,-0.19567333984375,0.92603466796875,0.9686561023371026,-1.666015625,-4.7607421875,-4.95751953125,48.43588235294118,332.1947255058944
0.19630810546875,-0.26354443359375,0.92896435546875,0.9853767373357514,-1.64111328125,-5.171875,-5.20556640625,47.777058823529416,332.1947255058944
0.15773388671875,-0.31286083984375,0.8547456054687499,0.9237704986603976,-1.5419921875,-5.767578125,-5.25537109375,47.63588235294118,332.1947255058944
0.18214794921875,-0.33532177734375,1.00513623046875,1.0751359967773828,-1.3857421875,-6.35205078125,-5.501953125,47.49470588235295,332.22687443609607
0.26515576171875,-0.31090771484375,1.00122998046875,1.0814030973284046,-1.3798828125,-6.12841796875,-5.86669921875,47.63588235294118,332.22687443609607
0.30568310546875,-0.30504833984375,0.97632763671875,1.0675730910955306,-1.39892578125,-5.4169921875,-6.2451171875,47.63588235294118,332.22687443609607
0.33790966796875,-0.30504833984375,0.96021435546875,1.0626613015427095,-1.42431640625,-4.64453125,-6.57958984375,48.53,332.22687443609607
0.40578076171875,-0.31920849609375,0.93970654296875,1.0721942349489488,-1.3798828125,-4.20703125,-6.888671875,47.63588235294118,332.22687443609607
0.44484326171875,-0.32506787109375,0.92505810546875,1.0767019767825412,-1.36767578125,-4.587890625,-7.05908203125,47.49470588235295,332.297027125887
0.42580029296875,-0.34118115234375,0.92749951171875,1.0760881991943791,-1.37353515625,-5.24951171875,-7.03857421875,47.58882352941177,332.297027125887
0.34279248046875,-0.36217724609375,0.93628857421875,1.060808812400496,-1.38330078125,-5.56103515625,-6.83642578125,47.68294117647059,332.297027125887
0.34816357421875,-0.39147412109375,0.93628857421875,1.0728961534610322,-1.390625,-5.32373046875,-6.53466796875,47.68294117647059,332.297027125887
0.36427685546875,-0.43151318359375,0.92505810546875,1.0838052193723955,-1.40576171875,-4.89208984375,-6.357421875,47.68294117647059,331.9794116932465
0.33693310546875,-0.46422802734375,0.91578076171875,1.0805951982432918,-1.4345703125,-4.41357421875,-6.021484375,47.58882352941177,331.9794116932465
0.33400341796875,-0.48229443359375,0.91236279296875,1.0846990688131255,-1.39892578125,-4.123046875,-5.61669921875,47.49470588235295,331.9794116932465
0.36671826171875,-0.51012646484375,0.90747998046875,1.103735117029247,-1.2861328125,-3.7236328125,-5.3427734375,47.49470588235295,331.9794116932465
0.38722607421875,-0.54577099609375,0.8830659179687499,1.107978081105407,-1.21875,-3.52392578125,-5.13525390625,47.63588235294118,331.9794116932465
0.48195263671875,-0.59508740234375,0.8542573242187499,1.1472414464487264,-1.38427734375,-3.30322265625,-4.97119140625,47.777058823529416,331.9492127395196
0.42872998046875,-0.59069287109375,0.8230073242187499,1.1000311449370055,-1.5859375,-2.8388671875,-4.5615234375,47.777058823529416,331.9492127395196
0.53615185546875,-0.55407177734375,0.7863862304687499,1.101298165821725,-1.8837890625,-2.08349609375,-3.6650390625,47.63588235294118,331.9492127395196
0.51173779296875,-0.48473583984375,0.8205659179687499,1.0817452698826329,-1.91552734375,-1.4814453125,-2.87841796875,47.63588235294118,331.9492127395196
0.47999951171875,-0.45055615234375,0.8459565429687499,1.0719341632099806,-1.92626953125,-1.22705078125,-2.630859375,47.40058823529412,332.1479581902641
0.52736279296875,-0.46325146484375,0.8620698242187499,1.1117004168912716,-2.28466796875,-1.40771484375,-2.83349609375,47.58882352941177,332.1479581902641
0.49220654296875,-0.49645458984375,0.8405854492187499,1.0933061502417616,-2.962890625,-1.92138671875,-2.744140625,47.777058823529416,332.1479581902641
0.46681591796875,-0.52331005859375,0.8708588867187499,1.1181080982049192,-3.38134765625,-2.2890625,-2.1748046875,47.63588235294118,332.1479581902641
0.39357373046875,-0.53991162109375,0.91040966796875,1.1292699426789587,-3.66064453125,-2.36962890625,-1.47265625,47.68294117647059,332.1479581902641
0.32374951171875,-0.54137646484375,0.9001557617187499,1.0991736070249811,-3.66015625,-2.05908203125,-0.68212890625,47.777058823529416,332.0817094867412
0.34474560546875,-0.49010693359375,0.8596284179687499,1.0478622790358183,-3.83740234375,-1.48291015625,-0.0595703125,47.58882352941177,332.0817094867412
0.39845654296875,-0.36413037109375,0.8332612304687499,0.9928156032163146,-3.9169921875,-0.69970703125,0.2568359375,47.63588235294118,332.0817094867412
0.43263623046875,-0.21520458984375,0.7692963867187499,0.9084624670411818,-3.830078125,0.447265625,0.25634765625,47.63588235294118,332.0817094867412
0.43898388671875,-0.10045849609375,0.7082612304687499,0.839304910518952,-3.60205078125,1.43212890625,0.11767578125,47.777058823529416,331.91511357314187
0.39455029296875,-0.01159130859375,0.6589448242187499,0.7681227593824578,-3.1640625,1.8232421875,-0.40478515625,48.24764705882353,331.91511357314187
0.34230419921875,0.01526416015625,0.6442963867187499,0.7297417305642471,-2.56591796875,1.716796875,-1.1005859375,47.63588235294118,331.91511357314187
0.28371044921875,-0.00866162109375,0.6281831054687499,0.6893334872703045,-1.98291015625,1.61865234375,-1.58642578125,47.63588235294118,331.91511357314187
0.30861279296875,-0.00670849609375,0.6081635742187499,0.6820189094961644,-1.31640625,1.36181640625,-1.7041015625,47.63588235294118,331.91511357314187
0.39650341796875,0.0006157226562499,0.6242768554687499,0.7395518452747184,-0.5537109375,0.93310546875,-1.806640625,47.3064705882353,332.0943765790667
0.45119091796875,-0.01647412109375,0.6442963867187499,0.7867416825503348,0.25732421875,0.63232421875,-2.16064453125,47.58882352941177,332.0943765790667
0.41164013671875,-0.07897412109375,0.6545502929687499,0.7772519539929365,1.193359375,0.56591796875,-2.60986328125,47.49470588235295,332.0943765790667
0.45314404296875,-0.15905224609375,0.7102143554687499,0.8573456545521316,2.07568359375,0.39306640625,-3.11279296875,47.68294117647059,332.0943765790667
0.50685498046875,-0.25670849609375,0.6604096679687499,0.8711728604239726,2.5693359375,-0.009765625,-3.5234375,47.63588235294118,332.1879129479702
0.55763623046875,-0.28747021484375,0.5622651367187499,0.8424603099986747,2.3876953125,0.0615234375,-3.771484375,47.63588235294118,332.1879129479702
0.57228466796875,-0.26793896484375,0.5178315429687499,0.8169764604730292,2.158203125,0.13623046875,-3.81884765625,47.777058823529416,332.1879129479702
0.56398388671875,-0.26403271484375,0.5012299804687499,0.7993888867796776,2.080078125,-0.21826171875,-3.69140625,47.63588235294118,332.1879129479702
0.56984326171875,-0.28991162109375,0.4670502929687499,0.7917740000364151,1.9736328125,-0.7998046875,-3.4873046875,47.49470588235295,332.1879129479702
0.63087841796875,-0.31090771484375,0.4792573242187499,0.8510926907366972,1.8447265625,-1.466796875,-3.25634765625,47.63588235294118,331.9277801803415
0.71290966796875,-0.32897412109375,0.5280854492187499,0.9462232340781362,2.06494140625,-2.12548828125,-3.1025390625,47.777058823529416,331.9277801803415
0.75587841796875,-0.30602490234375,0.6286713867187499,1.0296752575857682,2.68310546875,-3.04736328125,-2.93115234375,47.63588235294118,331.9277801803415
0.76320263671875,-0.25524365234375,0.7458588867187499,1.097238837105925,3.2529296875,-3.51904296875,-2.5810546875,47.777058823529416,331.9277801803415
0.71828076171875,-0.21373974609375,0.7976166992187499,1.09444247477339,3.85791015625,-3.22705078125,-2.22265625,47.63588235294118,332.1391928059056
0.76564404296875,-0.13268505859375,0.8669526367187499,1.1642263523993746,4.017578125,-2.4755859375,-1.8583984375,47.63588235294118,332.1391928059056
0.83888623046875,-0.09069287109375,0.8088471679687499,1.1688408983554448,3.77587890625,-0.89111328125,-1.82470703125,47.777058823529416,332.1391928059056
0.96339794921875,-0.03893505859375,0.8078706054687499,1.257897635949379,3.484375,0.3466796875,-2.0361328125,47.63588235294118,332.1391928059056
0.96730419921875,-0.04674755859375,0.8234956054687499,1.271222938861255,3.203125,0.8681640625,-1.98779296875,47.68294117647059,332.1391928059056
0.96681591796875,-0.05163037109375,0.8791596679687499,1.3077921991814898,3.23486328125,0.349609375,-1.90283203125,47.07117647058824,332.2073933168132
0.93361279296875,-0.11461865234375,0.90650341796875,1.3063379078358837,2.97998046875,-0.40673828125,-1.8291015625,47.58882352941177,332.2073933168132
0.94777294921875,-0.15319287109375,0.93531201171875,1.3403544972469517,2.75244140625,-1.0693359375,-1.642578125,47.58882352941177,332.2073933168132
1.00246044921875,-0.15954052734375,0.95044873046875,1.3905872577305742,2.560546875,-1.1474609375,-1.3935546875,47.63588235294118,332.2073933168132
1.03126904296875,-0.15172802734375,0.93238232421875,1.3985256636125294,2.55029296875,-0.77001953125,-1.2724609375,47.40058823529412,332.2522101262704
1.01466748046875,-0.17565380859375,0.90747998046875,1.3725612085972172,2.3251953125,-0.2431640625,-1.00146484375,47.63588235294118,332.2522101262704
1.00441357421875,-0.17467724609375,0.90357373046875,1.3622790664070978,2.16455078125,0.00390625,-0.81005859375,47.63588235294118,332.2522101262704
0.98585888671875,-0.15661083984375,0.8723237304687499,1.3256671491810508,2.0869140625,-0.2060546875,-0.93603515625,47.777058823529416,332.2522101262704
0.92238232421875,-0.14586865234375,0.8630463867187499,1.2715800727425917,1.85986328125,-0.458984375,-1.0478515625,47.58882352941177,332.2522101262704
0.90480419921875,-0.13610302734375,0.8562104492187499,1.2531125274002293,1.7294921875,-0.7138671875,-1.1318359375,47.63588235294118,332.19667708050525
0.90040966796875,-0.13122021484375,0.8317963867187499,1.2328185364901043,1.5869140625,-0.9365234375,-1.26708984375,47.49470588235295,332.19667708050525
0.89210888671875,-0.14977490234375,0.8064057617187499,1.2118502546386845,1.39990234375,-1.07958984375,-1.27685546875,47.68294117647059,332.19667708050525
0.88673779296875,-0.16393505859375,0.7775971679687499,1.1907291768274793,1.212890625,-1.16748046875,-1.14794921875,47.63588235294118,332.19667708050525
0.87746044921875,-0.16198193359375,0.7639252929687499,1.174630512114908,1.287109375,-1.25244140625,-1.033203125,47.777058823529416,332.1625766975005
0.85206982421875,-0.14782177734375,0.7414643554687499,1.1391416301899977,1.40283203125,-1.6923828125,-0.95751953125,47.68294117647059,332.1625766975005
0.81691357421875,-0.14293896484375,0.7024018554687499,1.0868061933847262,1.34375,-1.93505859375,-0.91943359375,47.49470588235295,332.1625766975005
0.74757763671875,-0.15905224609375,0.6799409179687499,1.0229807387422525,1.236328125,-2.06103515625,-0.67236328125,47.58882352941177,332.1625766975005
0.70509716796875,-0.18444287109375,0.6579682617187499,0.9818876831919476,1.17041015625,-2.1748046875,-0.1865234375,47.63588235294118,332.1625766975005
0.68996044921875,-0.18981396484375,0.6599213867187499,0.9734325859476052,1.15185546875,-2.26318359375,0.28515625,47.63588235294118,332.1304280109292
0.65529248046875,-0.18102490234375,0.6560151367187499,0.944740234049324,1.1533203125,-2.2734375,0.50146484375,47.68294117647059,332.1304280109292
0.61964794921875,-0.15270458984375,0.6413666992187499,0.9047836844224728,1.18896484375,-2.13134765625,0.96240234375,47.63588235294118,332.1304280109292
0.59914013671875,-0.10631787109375,0.6584565429687499,0.8965698032610885,1.2451171875,-2.08447265625,1.34814453125,47.58882352941177,332.1304280109292
0.58107373046875,-0.09557568359375,0.6462495117187499,0.8743110561647981,1.22021484375,-2.05908203125,1.783203125,47.68294117647059,332.04956054236743
0.58839794921875,-0.06383740234375,0.6701752929687499,0.894104179549888,1.2548828125,-2.0537109375,2.09033203125,47.07117647058824,332.04956054236743
0.59376904296875,-0.01793896484375,0.7014252929687499,0.9191740447075228,1.490234375,-2.009765625,2.27001953125,47.49470588235295,332.04956054236743
0.55714794921875,-0.01891552734375,0.6589448242187499,0.8631221905721288,1.48779296875,-1.64892578125,2.2529296875,47.63588235294118,332.04956054236743
0.57814404296875,-0.04284130859375,0.5881440429687499,0.8258325056704315,1.14404296875,-0.8818359375,2.06396484375,47.40058823529412,332.04956054236743
0.65822216796875,-0.07067333984375,0.5837495117187499,0.8826180577135448,0.99951171875,-0.541015625,2.08251953125,47.16529411764706,332.61756132875246
0.67140576171875,-0.04381787109375,0.6452729492187499,0.9322461486591332,1.05517578125,-0.9033203125,2.4189453125,47.63588235294118,332.61756132875246
0.69630810546875,-0.01647412109375,0.6535737304687499,0.955130878762764,1.4013671875,-1.1806640625,2.59814453125,47.07117647058824,332.61756132875246
0.70558544921875,0.03772509765625,0.6784760742187499,0.9795936874182508,1.63720703125,-1.30126953125,2.41064453125,47.777058823529416,332.61756132875246
0.69337841796875,0.10120166015625,0.7155854492187499,1.0015377884317835,1.865234375,-1.380859375,2.154296875,47.777058823529416,332.2288258300317
0.68507763671875,0.13196337890625,0.7434174804687499,1.0195171660992306,1.99658203125,-1.25634765625,1.77734375,47.63588235294118,332.2288258300317
0.68214794921875,0.11389697265625,0.7517182617187499,1.0214590985473009,2.06396484375,-1.1259765625,1.2998046875,47.58882352941177,332.2288258300317
0.65578076171875,0.08167041015625,0.7429291992187499,0.9943149694072432,2.0341796875,-0.966796875,0.89404296875,47.49470588235295,332.2288258300317
0.65480419921875,0.00940478515625,0.7043549804687499,0.9617551288189092,1.76123046875,-0.775390625,0.50048828125,48.24764705882353,332.2288258300317
0.72316357421875,-0.08971630859375,0.6740815429687499,0.9926734093727186,1.328125,-0.60546875,0.1083984375,47.447647058823534,332.00474469581764
0.78810498046875,-0.13805615234375,0.6892182617187499,1.0560259342110043,1.1044921875,-0.79541015625,-0.2216796875,47.58882352941177,332.00474469581764
0.83742138671875,-0.16979443359375,0.6691987304687499,1.0853256052790623,0.93896484375,-1.056640625,-0.1337890625,47.68294117647059,332.00474469581764
0.85353466796875,-0.16930615234375,0.6770112304687499,1.1025108656275366,0.841796875,-1.46533203125,-0.0048828125,47.58882352941177,332.00474469581764
0.77443310546875,-0.15465771484375,0.7048432617187499,1.0585223980610845,0.8388671875,-2.06005859375,0.126953125,47.777058823529416,331.9599290394124
0.73244091796875,-0.13952099609375,0.7038666992187499,1.0253604912102845,0.67822265625,-2.44287109375,0.470703125,47.777058823529416,331.9599290394124
0.71681591796875,-0.13463818359375,0.7077729492187499,1.0163144436544298,0.322265625,-2.59130859375,0.63427734375,47.68294117647059,331.9599290394124
0.73878857421875,-0.16295849609375,0.7175385742187499,1.0427011241660702,0.0634765625,-2.60888671875,0.59814453125,47.447647058823534,331.9599290394124
0.74269482421875,-0.19225537109375,0.7385346679687499,1.0648902222423808,-0.14501953125,-2.58056640625,0.5830078125,47.63588235294118,331.9599290394124
0.73830029296875,-0.19762646484375,0.7233979492187499,1.0523536169645036,-0.27490234375,-2.306640625,0.62841796875,47.68294117647059,332.0154610031629
0.76271435546875,-0.14977490234375,0.7341401367187499,1.0691713846486983,-0.23291015625,-2.10107421875,0.88427734375,47.40058823529412,332.0154610031629
0.76417919921875,-0.08776318359375,0.7346284179687499,1.0636499129884742,-0.32275390625,-1.8095703125,0.89208984375,47.49470588235295,332.0154610031629
0.82472607421875,-0.04821240234375,0.7419526367187499,1.1104013906556187,-0.380859375,-1.60400390625,0.732421875,47.25941176470588,332.0154610031629
0.85792919921875,-0.02721630859375,0.7346284179687499,1.1298062448105268,-0.474609375,-1.35009765625,0.48974609375,47.58882352941177,332.21420711372195
0.82130810546875,-0.03161083984375,0.7419526367187499,1.1072668894346114,-0.42578125,-1.38427734375,0.19873046875,48.388823529411766,332.21420711372195
0.80861279296875,-0.05602490234375,0.7634370117187499,1.1134763174389493,-0.27490234375,-1.7236328125,-0.00146484375,47.68294117647059,332.21420711372195
0.77638623046875,-0.06237255859375,0.7868745117187499,1.1071754206627,-0.0849609375,-1.97412109375,0.11865234375,47.68294117647059,332.21420711372195
0.82667919921875,-0.05163037109375,0.7849213867187499,1.141124785888343,0.087890625,-1.8876953125,0.05029296875,47.68294117647059,332.21420711372195
0.83107373046875,-0.04528271484375,0.7995698242187499,1.1541429606162608,0.10205078125,-1.58349609375,-0.1923828125,47.58882352941177,331.91316368062206
0.80861279296875,-0.05700146484375,0.7751557617187499,1.1215927384183757,0.09033203125,-1.07177734375,-0.38134765625,47.777058823529416,331.91316368062206
0.82814404296875,-0.04137646484375,0.7746674804687499,1.1347441443089248,0.11865234375,-0.88720703125,-0.60400390625,47.49470588235295,331.91316368062206
0.78322216796875,-0.05407177734375,0.7522065429687499,1.0872788992653994,0.10693359375,-0.87451171875,-0.75390625,47.68294117647059,331.91316368062206
0.76320263671875,-0.08434521484375,0.7346284179687499,1.0626717707969655,-0.064453125,-0.52099609375,-0.8447265625,48.059411764705885,332.297027125887
0.76076123046875,-0.07555615234375,0.7522065429687499,1.0725115688076825,-0.0673828125,-0.48388671875,-0.765625,47.68294117647059,332.297027125887
0.76027294921875,-0.07213818359375,0.7390229492187499,1.062719998079438,-0.005859375,-0.30029296875,-0.57421875,47.63588235294118,332.297027125887
0.75636669921875,-0.09313427734375,0.7404877929687499,1.0625849372352028,-0.0439453125,0.03857421875,-0.5732421875,47.777058823529416,332.297027125887
0.71828076171875,-0.11071240234375,0.7307221679687499,1.0306014629569191,-0.05224609375,0.23876953125,-0.548828125,47.777058823529416,332.297027125887
0.68458935546875,-0.12194287109375,0.7282807617187499,1.0069386859791156,-0.0537109375,0.34130859375,-0.5419921875,47.58882352941177,331.89173096174403
0.67580029296875,-0.13219677734375,0.7038666992187499,0.984687947618848,-0.15625,0.40283203125,-0.6416015625,47.49470588235295,331.89173096174403
0.69191357421875,-0.13268505859375,0.6897065429687499,0.9859233410240862,-0.30322265625,0.5546875,-0.7060546875,47.63588235294118,331.89173096174403
0.67384716796875,-0.12291943359375,0.6931245117187499,0.974474618284062,-0.32861328125,0.64453125,-0.427734375,48.388823529411766,331.89173096174403
0.70265576171875,-0.08336865234375,0.7214448242187499,1.0105236692241268,-0.0693359375,0.47802734375,-0.228515625,47.63588235294118,332.01741171981627
0.68117138671875,-0.07116162109375,0.7067963867187499,0.9841847218280296,0.013671875,0.27783203125,-0.18994140625,47.447647058823534,332.01741171981627
0.68263623046875,-0.07213818359375,0.7067963867187499,0.9852701522727004,0.0615234375,0.20751953125,-0.19091796875,47.49470588235295,332.01741171981627
0.67580029296875,-0.08288037109375,0.6818940429687499,0.9636154200330924,-0.001953125,0.31884765625,-0.21630859375,47.68294117647059,332.01741171981627
0.68898388671875,-0.09166943359375,0.6901948242187499,0.9795258937832249,-0.0869140625,0.373046875,-0.099609375,47.63588235294118,332.01741171981627
0.69240185546875,-0.09166943359375,0.6779877929687499,0.9733915255058486,-0.0078125,-0.259765625,-0.15283203125,47.49470588235295,331.9725958550066
0.60646435546875,-0.11120068359375,0.6574799804687499,0.9013570497882796,-0.21533203125,-0.2978515625,0.14501953125,47.49470588235295,331.9725958550066
0.66505810546875,-0.09313427734375,0.6989838867187499,0.9693063247283986,-0.26123046875,-0.1953125,0.32763671875,47.58882352941177,331.9725958550066
0.70705029296875,-0.09118115234375,0.6945893554687499,0.995333357252947,-0.23388671875,-0.21240234375,0.279296875,47.447647058823534,331.9725958550066
0.67238232421875,-0.10778271484375,0.6652924804687499,0.9520132289570136,-0.37451171875,-0.28759765625,0.3935546875,47.58882352941177,331.9511633621386
0.68312451171875,-0.10045849609375,0.6779877929687499,0.967687168129781,-0.345703125,-0.736328125,0.38671875,47.49470588235295,331.9511633621386
0.62892529296875,-0.10973583984375,0.6950776367187499,0.9437806417534552,-0.35107421875,-1.15576171875,0.388671875,47.63588235294118,331.9511633621386
0.64650341796875,-0.09411083984375,0.7238862304687499,0.9751075808769144,-0.5283203125,-1.16064453125,0.40771484375,47.63588235294118,331.9511633621386
0.67189404296875,-0.07995068359375,0.7624604492187499,1.0194016153640617,-0.6025390625,-0.9814453125,0.40673828125,47.63588235294118,331.9511633621386
0.68263623046875,-0.09606396484375,0.7756440429687499,1.037711033902499,-0.4658203125,-1.0439453125,0.3046875,47.63588235294118,331.8167168720473
0.65773388671875,-0.09850537109375,0.7800385742187499,1.0250743149360886,-0.46533203125,-0.7548828125,0.33984375,47.777058823529416,331.8167168720473
0.72609326171875,-0.09606396484375,0.7766206054687499,1.067510784438978,-0.49658203125,-0.6025390625,0.3154296875,47.63588235294118,331.8167168720473
0.75148388671875,-0.10045849609375,0.7800385742187499,1.0877867983683922,-0.462890625,-0.5634765625,0.244140625,47.58882352941177,331.8167168720473
0.75148388671875,-0.10338818359375,0.7888276367187499,1.094379362449796,-0.36962890625,-0.65576171875,0.2041015625,47.49470588235295,332.1372418409536
0.76906201171875,-0.09313427734375,0.7927338867187499,1.1084030794965565,-0.38232421875,-0.67626953125,0.1708984375,47.63588235294118,332.1372418409536
0.78419873046875,-0.06823193359375,0.8220307617187499,1.138137873389094,-0.34375,-0.677734375,-0.0078125,48.059411764705885,332.1372418409536
0.83351513671875,-0.06383740234375,0.8342377929687499,1.1810060932504307,-0.31884765625,-0.6337890625,-0.30419921875,47.49470588235295,332.1372418409536
0.87794873046875,-0.06627880859375,0.8420502929687499,1.2182920625568625,-0.26025390625,-0.7451171875,-0.38720703125,47.68294117647059,332.1372418409536
0.93751904296875,-0.13903271484375,0.7937104492187499,1.236223413839462,-0.41357421875,-0.69873046875,-0.5595703125,47.63588235294118,332.2181095666537
0.99513623046875,-0.16002880859375,0.8293549804687499,1.3052720101188904,-0.62255859375,-1.03173828125,-0.55419921875,47.49470588235295,332.2181095666537
1.05519482421875,-0.15319287109375,0.8693940429687499,1.375772573778651,-0.521484375,-1.64404296875,-0.35400390625,47.777058823529416,332.2181095666537
1.14894482421875,-0.13854443359375,0.8640229492187499,1.444231430884792,-0.419921875,-1.80224609375,-0.3427734375,47.68294117647059,332.2181095666537
1.20705029296875,-0.13463818359375,0.8757416992187499,1.4973380960851537,-0.408203125,-1.94140625,-0.41845703125,47.63588235294118,332.1197118091438
1.20314404296875,-0.18493115234375,0.8664643554687499,1.4941604995904063,-0.4521484375,-1.82568359375,-0.33984375,47.49470588235295,332.1197118091438
1.22609326171875,-0.21471630859375,0.8645112304687499,1.5155155714194566,-0.5703125,-1.6630859375,0.0048828125,47.63588235294118,332.1197118091438
1.26271435546875,-0.19323193359375,0.8723237304687499,1.5468467326810875,-0.55615234375,-1.888671875,0.41552734375,47.63588235294118,332.1197118091438
1.26955029296875,-0.14831005859375,0.8962495117187499,1.561094810417746,-0.44677734375,-2.58740234375,0.40771484375,47.68294117647059,332.1197118091438
1.22267529296875,-0.11852490234375,0.90357373046875,1.5249355759851062,-0.271484375,-3.10498046875,0.4169921875,47.777058823529416,332.256114950234
1.18947216796875,-0.11120068359375,0.91089794921875,1.5023131179267923,-0.265625,-3.2431640625,0.43603515625,47.40058823529412,332.256114950234
1.14992138671875,-0.10827099609375,0.90796826171875,1.4691658070200495,-0.22509765625,-2.95947265625,0.47802734375,47.63588235294118,332.256114950234
1.12355419921875,-0.12780224609375,0.8767182617187499,1.4308537182814465,-0.08544921875,-2.42822265625,0.41162109375,47.63588235294118,332.256114950234
1.12306591796875,-0.15368115234375,0.8225190429687499,1.4005115239564871,0.0654296875,-2.150390625,0.33203125,47.63588235294118,332.0943765790667
1.10695263671875,-0.16149365234375,0.7712495117187499,1.358767879003742,0.19091796875,-2.15771484375,0.40380859375,48.53,332.0943765790667
1.12355419921875,-0.16393505859375,0.7458588867187499,1.3585117669404103,0.2099609375,-2.51513671875,0.681640625,48.24764705882353,332.0943765790667
1.13869091796875,-0.13317333984375,0.7365815429687499,1.3626828371091633,0.2568359375,-2.89208984375,0.7265625,47.63588235294118,332.0943765790667
1.11085888671875,-0.10973583984375,0.7248627929687499,1.33096787691465,0.3486328125,-3.0517578125,0.61669921875,47.68294117647059,332.0943765790667
1.06984326171875,-0.12877880859375,0.6779877929687499,1.273112734050868,0.255859375,-2.95849609375,0.466796875,47.63588235294118,332.3847093232055
1.03712841796875,-0.14293896484375,0.6379487304687499,1.2259875552939576,0.0595703125,-2.7275390625,0.498046875,47.68294117647059,332.3847093232055
1.06300732421875,-0.16979443359375,0.6066987304687499,1.2356771708559326,-0.2158203125,-2.72314453125,0.54833984375,48.53,332.3847093232055
1.08107373046875,-0.18053662109375,0.5798432617187499,1.2399726168049867,-0.5390625,-2.94970703125,0.59423828125,47.68294117647059,332.3847093232055
1.07960888671875,-0.17272412109375,0.5881440429687499,1.2414919998007776,-0.82177734375,-3.3330078125,0.70068359375,47.63588235294118,332.1645284527964
1.05031201171875,-0.15270458984375,0.5944916992187499,1.2165091015524845,-0.953125,-3.69287109375,0.77099609375,47.63588235294118,332.1645284527964
1.03810498046875,-0.13219677734375,0.5983979492187499,1.2054949373777155,-1.13330078125,-3.8916015625,0.73046875,47.777058823529416,332.1645284527964
1.03029248046875,-0.11803662109375,0.6306245117187499,1.2137225852764673,-1.16845703125,-3.98388671875,0.63720703125,47.58882352941177,332.1645284527964
1.02785107421875,-0.11608349609375,0.6413666992187499,1.2170885143261934,-1.1591796875,-4.02734375,0.49072265625,47.58882352941177,332.1645284527964
1.00880810546875,-0.10485302734375,0.6447846679687499,1.201846587152524,-1.12548828125,-3.67138671875,0.5166015625,47.63588235294118,332.0963277849189
1.00978466796875,-0.11998974609375,0.6408784179687499,1.2019932451767477,-1.1015625,-3.19189453125,0.578125,47.58882352941177,332.0963277849189
1.04542919921875,-0.14342724609375,0.6316010742187499,1.2298022208694668,-1.15087890625,-2.802734375,0.48095703125,47.68294117647059,332.0963277849189
1.06544873046875,-0.17760693359375,0.6208588867187499,1.2458695667427195,-1.16796875,-2.66162109375,0.33740234375,47.58882352941177,332.0963277849189
1.05861279296875,-0.18493115234375,0.6193940429687499,1.2403667026365464,-1.1171875,-2.75732421875,0.4111328125,47.49470588235295,332.42757454731344
1.05226513671875,-0.16832958984375,0.6223237304687499,1.234051698380273,-0.97509765625,-3.04345703125,0.59033203125,47.3064705882353,332.42757454731344
1.02296826171875,-0.14391552734375,0.6262299804687499,1.2080313455918277,-0.9443359375,-3.41455078125,0.701171875,47.58882352941177,332.42757454731344
0.99464794921875,-0.11657177734375,0.6423432617187499,1.1897556001270295,-1.001953125,-3.55908203125,0.60205078125,47.16529411764706,332.42757454731344
0.98195263671875,-0.10192333984375,0.6633393554687499,1.1893857441879427,-0.87841796875,-3.37060546875,0.53076171875,47.49470588235295,332.42757454731344
1.01515576171875,-0.10582958984375,0.6701752929687499,1.2210143512436789,-0.67626953125,-2.55224609375,0.46875,47.58882352941177,332.1391928059056
1.01662060546875,-0.10973583984375,0.6433198242187499,1.208064487617571,-0.4248046875,-1.91650390625,0.3046875,47.63588235294118,332.1391928059056
0.98683544921875,-0.14342724609375,0.5754487304687499,1.1513282851363051,-0.419921875,-1.32080078125,0.00732421875,47.58882352941177,332.1391928059056
0.98146435546875,-0.17711865234375,0.5324799804687499,1.1305654459887562,-0.59521484375,-0.98486328125,-0.14794921875,47.63588235294118,332.1391928059056
0.95558544921875,-0.18493115234375,0.5061127929687499,1.0970383954412972,-0.7470703125,-1.34912109375,-0.0419921875,47.63588235294118,332.4402429584316
0.94191357421875,-0.17077099609375,0.5227143554687499,1.0906852028965566,-0.7421875,-2.03125,0.1513671875,47.777058823529416,332.4402429584316
0.97169873046875,-0.15612255859375,0.5339448242187499,1.1196739487040106,-0.67333984375,-2.6435546875,0.162109375,47.777058823529416,332.4402429584316
0.98488232421875,-0.13268505859375,0.5388276367187499,1.1304573142867744,-0.5498046875,-2.86962890625,-0.05908203125,47.68294117647059,332.4402429584316
0.95949169921875,-0.11608349609375,0.5588471679687499,1.1164272730821851,-0.5,-2.6884765625,-0.2236328125,47.63588235294118,332.4402429584316
0.95119091796875,-0.11071240234375,0.5725190429687499,1.1157058093515562,-0.13818359375,-2.42626953125,-0.39599609375,47.63588235294118,332.2200614762139
0.91554638671875,-0.08629833984375,0.5910737304687499,1.0931791914154745,0.0869140625,-1.96240234375,-0.6435546875,47.63588235294118,332.2200614762139
0.88185498046875,-0.06579052734375,0.6062104492187499,1.072141645869475,0.37353515625,-1.376953125,-0.87158203125,47.63588235294118,332.2200614762139
0.87892529296875,-0.04284130859375,0.6369721679687499,1.086314223007799,0.65380859375,-0.8408203125,-1.080078125,47.68294117647059,332.2200614762139
0.90919873046875,-0.03307568359375,0.6682221679687499,1.12883001293199,0.953125,-0.25146484375,-1.318359375,47.49470588235295,332.38861452336545
0.94191357421875,-0.04235302734375,0.6765229492187499,1.1604646746206264,1.296875,0.47802734375,-1.55029296875,47.07117647058824,332.38861452336545
0.93263623046875,-0.06676708984375,0.6711518554687499,1.150961769898683,1.53369140625,1.4248046875,-1.77734375,47.68294117647059,332.38861452336545
0.91505810546875,-0.10582958984375,0.6599213867187499,1.133149361346223,1.693359375,2.45068359375,-1.8994140625,47.68294117647059,332.38861452336545
0.88234326171875,-0.16051708984375,0.6482026367187499,1.1065541224366429,1.810546875,3.4013671875,-1.89697265625,47.63588235294118,332.38861452336545
0.88673779296875,-0.21666943359375,0.6301362304687499,1.1091984609988834,1.81640625,4.26318359375,-1.76953125,47.63588235294118,332.4655808261236
0.92042919921875,-0.26598583984375,0.6267182617187499,1.1448642528018882,1.7900390625,4.8095703125,-1.484375,47.63588235294118,332.4655808261236
0.93654248046875,-0.29430615234375,0.6145112304687499,1.1581675100788136,1.8720703125,4.9736328125,-1.2255859375,47.07117647058824,332.4655808261236
0.89992138671875,-0.31627880859375,0.6066987304687499,1.1304751817672394,1.708984375,4.9306640625,-0.97998046875,47.58882352941177,332.4655808261236
0.83400341796875,-0.31188427734375,0.5993745117187499,1.0733514377574014,1.65185546875,4.8857421875,-0.6376953125,47.40058823529412,332.4441484671448
0.77199169921875,-0.29723583984375,0.5915620117187499,1.0169886635843128,1.58544921875,5.0400390625,-0.166015625,47.21235294117647,332.4441484671448
0.74025341796875,-0.25817333984375,0.6037690429687499,0.9895279952926512,1.55078125,5.3486328125,0.298828125,48.388823529411766,332.4441484671448
0.71144482421875,-0.20543896484375,0.6120698242187499,0.9607228403149844,1.70654296875,5.74267578125,0.59130859375,48.24764705882353,332.4441484671448
0.67384716796875,-0.14782177734375,0.6042573242187499,0.9170867993317608,2.01220703125,6.26220703125,0.728515625,47.63588235294118,332.4441484671448
0.67531201171875,-0.09850537109375,0.5813081054687499,0.896475730173221,2.25537109375,6.826171875,0.83154296875,47.07117647058824,332.297027125887
0.70558544921875,-0.07213818359375,0.5515229492187499,0.8984610771738409,2.7421875,7.42333984375,0.8515625,47.63588235294118,332.297027125887
0.73585888671875,-0.06188427734375,0.4973237304687499,0.8903082937009348,2.875,7.87353515625,0.7880859375,47.40058823529412,332.297027125887
0.74953076171875,-0.05895458984375,0.4519135742187499,0.8772102855014298,3.1591796875,8.142578125,0.78857421875,47.63588235294118,332.297027125887
0.71193310546875,-0.06823193359375,0.4182221679687499,0.8285011316858907,3.4599609375,8.365234375,0.8349609375,47.777058823529416,332.9244850876296
0.65724560546875,-0.09313427734375,0.3718354492187499,0.760859632797033,3.81103515625,8.5966796875,1.0244140625,47.58882352941177,332.9244850876296
0.61427685546875,-0.10729443359375,0.3396088867187499,0.7100579881834497,4.2041015625,8.7421875,1.1279296875,47.58882352941177,332.9244850876296
0.57716748046875,-0.13854443359375,0.3176362304687499,0.6732084636253876,4.486328125,8.7275390625,1.458984375,47.63588235294118,332.9244850876296
0.52101513671875,-0.16344677734375,0.3073823242187499,0.6266223064623824,4.744140625,8.58935546875,1.728515625,47.3064705882353,332.9244850876296
0.48390576171875,-0.19567333984375,0.3064057617187499,0.6052580713750612,4.95068359375,8.32080078125,2.0361328125,47.49470588235295,332.6448537931012
0.46046826171875,-0.23278271484375,0.3132416992187499,0.6036051478489589,4.94482421875,7.974609375,2.42236328125,47.63588235294118,332.6448537931012
0.43654248046875,-0.26110302734375,0.3498627929687499,0.6173719316957764,4.83349609375,7.388671875,2.91162109375,47.49470588235295,332.6448537931012
0.41066357421875,-0.28551708984375,0.3996674804687499,0.6402332971091096,4.70458984375,6.70654296875,3.39453125,48.43588235294118,332.6448537931012
0.40480419921875,-0.29625927734375,0.4533784179687499,0.676156778415495,4.7001953125,6.23779296875,3.9111328125,47.63588235294118,332.6087980027305
0.41261669921875,-0.28698193359375,0.5197846679687499,0.7230402974515097,4.83349609375,6.25732421875,4.32666015625,47.58882352941177,332.6087980027305
0.40968701171875,-0.26305615234375,0.5681245117187499,0.748202811858259,4.98779296875,6.7216796875,4.7490234375,47.63588235294118,332.6087980027305
0.41359326171875,-0.22789990234375,0.5896088867187499,0.7554047861412905,5.13427734375,7.47314453125,5.087890625,47.58882352941177,332.6087980027305
0.42238232421875,-0.19762646484375,0.5896088867187499,0.7517324568733179,5.02490234375,8.341796875,5.22900390625,47.21235294117647,332.6087980027305
0.44972607421875,-0.15416943359375,0.5876557617187499,0.7558842837154841,4.8251953125,9.0830078125,5.140625,47.63588235294118,332.78807236933216
0.49074169921875,-0.12633740234375,0.5896088867187499,0.7774491583896637,4.58349609375,9.419921875,4.99609375,47.49470588235295,332.78807236933216
0.55031201171875,-0.10582958984375,0.5910737304687499,0.8145006858061437,4.33740234375,9.482421875,4.412109375,47.40058823529412,332.78807236933216
0.60109326171875,-0.10436474609375,0.5969331054687499,0.8535421734838088,3.95263671875,9.07275390625,3.798828125,47.63588235294118,332.78807236933216
0.63576123046875,-0.11413037109375,0.6286713867187499,0.9013577515348788,3.56787109375,8.01220703125,3.0849609375,47.777058823529416,332.79002667229645
0.64699169921875,-0.17321240234375,0.6535737304687499,0.9358201837652876,3.13720703125,6.380859375,2.3486328125,47.68294117647059,332.79002667229645
0.60206982421875,-0.23668896484375,0.7136323242187499,0.9632138046578534,2.82763671875,4.72021484375,2.15283203125,47.63588235294118,332.79002667229645
0.53566357421875,-0.29772412109375,0.7829682617187499,0.9942909110943,2.67626953125,3.2744140625,2.525390625,47.63588235294118,332.79002667229645
0.45509716796875,-0.31676708984375,0.8518159179687499,1.01638830158862,2.74560546875,2.37890625,3.29931640625,47.777058823529416,332.79002667229645
0.38624951171875,-0.27379833984375,0.8825776367187499,1.0015475530598734,2.8056640625,1.88916015625,4.09765625,47.777058823529416,332.7705492502856
0.33156201171875,-0.18200146484375,0.90406201171875,0.9799928682665034,2.6904296875,1.94384765625,4.60986328125,47.68294117647059,332.7705492502856
0.29005810546875,-0.08922802734375,0.92164013671875,0.970317415603128,2.48876953125,2.814453125,4.78466796875,47.777058823529416,332.7705492502856
0.25929638671875,-0.00475537109375,0.94165966796875,0.9767190793665572,2.3232421875,4.4453125,4.9150390625,47.68294117647059,332.7705492502856
0.28566357421875,0.05676806640625,0.92896435546875,0.9735507509782968,2.29443359375,6.02294921875,4.923828125,47.07117647058824,332.82412980279497
0.30519482421875,0.10950244140625,0.8967377929687499,0.9535582492655116,2.4150390625,7.30615234375,4.76513671875,47.58882352941177,332.82412980279497
0.32033154296875,0.14758837890625,0.8186127929687499,0.89135937299218,2.63720703125,7.69384765625,4.44775390625,47.58882352941177,332.82412980279497
0.32863232421875,0.16516650390625,0.7605073242187499,0.8447784139787153,2.89453125,7.033203125,3.98974609375,48.34176470588236,332.82412980279497
0.33888623046875,0.16126025390625,0.7268159179687499,0.8179915190904998,3.0166015625,5.75830078125,3.62353515625,47.49470588235295,332.82412980279497
0.31984326171875,0.13635791015625,0.7321870117187499,0.810549820713509,3.0927734375,4.38623046875,3.123046875,47.68294117647059,332.80269754118564
0.27736279296875,0.08997119140625,0.7849213867187499,0.8373329788889071,3.18603515625,3.3759765625,2.67236328125,47.3064705882353,332.80269754118564
0.22999951171875,0.04456103515625,0.8498627929687499,0.8815623790281117,3.2177734375,3.08251953125,2.54296875,48.24764705882353,332.80269754118564
0.22365185546875,0.0015922851562499,0.90552685546875,0.9327387489547948,3.14453125,3.4775390625,2.451171875,47.63588235294118,332.80269754118564
0.23439404296875,-0.00036083984375,0.96412060546875,0.99220423274347,3.2294921875,3.93505859375,2.37353515625,47.68294117647059,332.7666399480327
0.23292919921875,-0.00573193359375,0.98511669921875,1.012296289626242,3.1650390625,4.4091796875,1.8525390625,47.63588235294118,332.7666399480327
0.19728466796875,-0.01061474609375,0.97730419921875,0.997074425938594,2.8037109375,4.759765625,1.529296875,47.49470588235295,332.7666399480327
0.12843701171875,-0.00329052734375,0.98218701171875,0.9905545010439608,2.4140625,5.52392578125,1.66552734375,47.07117647058824,332.7666399480327
0.08644482421875,0.00403369140625,0.97828076171875,0.9821009250833588,2.25048828125,6.41455078125,2.0966796875,47.68294117647059,332.7666399480327
0.16505810546875,-0.00768505859375,0.93140576171875,0.9459492223525569,2.08984375,7.07421875,2.17529296875,47.49470588235295,332.7237752678591
0.23390576171875,-0.00768505859375,0.8679291992187499,0.8989282843182311,2.01123046875,6.9287109375,1.59130859375,47.777058823529416,332.7237752678591
0.21681591796875,-0.02819287109375,0.8098237304687499,0.8388196794874707,2.0009765625,5.83642578125,1.134765625,47.777058823529416,332.7237752678591
0.19142529296875,-0.04821240234375,0.7868745117187499,0.8112580204352673,1.9267578125,4.572265625,0.99658203125,47.3064705882353,332.7237752678591
0.14747998046875,-0.03551708984375,0.8283784179687499,0.8421535558711611,1.89013671875,3.74658203125,1.0673828125,47.68294117647059,332.9693049397685
0.10841748046875,-0.01110302734375,0.8977143554687499,0.9043056404236685,1.94287109375,3.22998046875,1.1865234375,47.63588235294118,332.9693049397685
0.09572216796875,0.0030571289062499,0.99439404296875,0.9989952913650408,2.11572265625,3.4541015625,1.24560546875,47.63588235294118,332.9693049397685
0.11867138671875,0.0186821289062499,1.07398388671875,1.0806818721981664,2.3623046875,3.96044921875,1.05615234375,47.777058823529416,332.9693049397685
0.13820263671875,0.0177055664062499,1.10767529296875,1.1164040534372792,2.46337890625,4.39111328125,0.755859375,47.63588235294118,332.9693049397685
0.09669873046875,0.0201469726562499,1.09400341796875,1.098453468977538,2.33056640625,4.54833984375,0.76171875,48.24764705882353,332.8114590272858
0.02980419921875,0.04553759765625,1.07105419921875,1.0724360404031057,2.03515625,4.33203125,1.1484375,47.49470588235295,332.8114590272858
-0.0029106445312499,0.06848681640625,1.04664013671875,1.0488824965951593,1.71044921875,4.0166015625,1.60791015625,48.24764705882353,332.8114590272858
0.02980419921875,0.07629931640625,1.04664013671875,1.049840679229842,1.44287109375,3.86328125,1.75537109375,47.63588235294118,332.8114590272858
0.08595654296875,0.09290087890625,1.05347607421875,1.061051808128162,1.31787109375,3.8798828125,1.7041015625,47.63588235294118,332.6770023600488
0.12208935546875,0.10120166015625,1.04810498046875,1.0600337904145107,1.2734375,4.08154296875,1.55908203125,47.68294117647059,332.6770023600488
0.13820263671875,0.10266650390625,1.03345654296875,1.0476988145575363,1.2666015625,4.49853515625,1.29248046875,47.58882352941177,332.6770023600488
0.14796826171875,0.10901416015625,1.02369091796875,1.0400585508144928,1.3388671875,5.0302734375,1.01611328125,47.63588235294118,332.6770023600488
0.15675732421875,0.10901416015625,1.01148388671875,1.02934765696652,1.43798828125,5.24609375,0.81591796875,47.63588235294118,332.6770023600488
0.16603466796875,0.10266650390625,0.99341748046875,1.012416027378421,1.46875,5.0732421875,0.69873046875,47.58882352941177,332.62342148280715
0.15773388671875,0.09827197265625,0.98414013671875,1.001533408494172,1.4970703125,4.43212890625,0.59619140625,47.49470588235295,332.62342148280715
0.12550732421875,0.08557666015625,0.98560498046875,0.9972425134945128,1.2109375,3.6025390625,0.6513671875,47.777058823529416,332.62342148280715
0.09230419921875,0.07678759765625,0.99097607421875,0.9982234118779412,0.98876953125,2.90478515625,0.7802734375,48.388823529411766,332.62342148280715
0.06056591796875,0.06604541015625,0.99585888671875,0.9998825675442156,0.68896484375,2.57666015625,0.8154296875,47.63588235294118,333.0248411223876
0.04640576171875,0.06555712890625,0.98121044921875,0.9844923450830836,0.3701171875,2.5400390625,0.74169921875,47.63588235294118,333.0248411223876
0.02443310546875,0.05920947265625,0.96119091796875,0.9633227491763529,0.0517578125,2.68994140625,0.77392578125,47.447647058823534,333.0248411223876
0.03078076171875,0.06116259765625,0.93238232421875,0.9348931046700498,-0.1630859375,2.99658203125,0.8994140625,47.21235294117647,333.0248411223876
0.03175732421875,0.06165087890625,0.90503857421875,0.9076916763611724,-0.2421875,3.31787109375,0.9404296875,47.63588235294118,333.0248411223876
0.03761669921875,0.05579150390625,0.8698823242187499,0.8724809258410463,-0.12548828125,3.5751953125,0.95947265625,47.07117647058824,332.68967251026106
0.04298779296875,0.05774462890625,0.8352143554687499,0.8383110473403794,-0.2255859375,3.6328125,0.943359375,47.68294117647059,332.68967251026106
0.03468701171875,0.06653369140625,0.7927338867187499,0.796276921696425,-0.18896484375,3.40380859375,0.9423828125,47.58882352941177,332.68967251026106
0.02687451171875,0.07971728515625,0.7614838867187499,0.7661166978111742,-0.1904296875,2.98291015625,1.03466796875,47.63588235294118,332.68967251026106
0.01173779296875,0.09876025390625,0.7497651367187499,0.7563326806203008,-0.1884765625,2.47998046875,1.21923828125,47.63588235294118,332.868949280656
-0.0009575195312499,0.12610400390625,0.7649018554687499,0.7752276989016689,-0.16259765625,1.9228515625,1.416015625,47.68294117647059,332.868949280656
-0.01365283203125,0.14856494140625,0.7761323242187499,0.7903412720684114,-0.12939453125,1.3388671875,1.5546875,47.58882352941177,332.868949280656
-0.03318408203125,0.17590869140625,0.7927338867187499,0.8126943251707445,-0.1015625,0.80859375,1.73388671875,47.68294117647059,332.868949280656
-0.06834033203125,0.20129931640625,0.8161713867187499,0.843402364394464,-0.1181640625,0.56005859375,1.93505859375,47.49470588235295,332.868949280656
-0.08884814453125,0.22278369140625,0.8513276367187499,0.8844689429168064,-0.1494140625,0.78271484375,2.17236328125,47.49470588235295,332.7578782413287
-0.08884814453125,0.23987353515625,0.8894135742187499,0.9254673477003792,-0.16455078125,1.3681640625,2.3408203125,47.63588235294118,332.7578782413287
-0.07175830078125,0.25403369140625,0.91578076171875,0.953067035226102,-0.14306640625,2.056640625,2.45166015625,47.777058823529416,332.7578782413287
-0.04636767578125,0.25354541015625,0.95142529296875,0.9857207132191794,-0.0810546875,2.56884765625,2.5791015625,47.63588235294118,332.7578782413287
-0.03611376953125,0.25549853515625,0.96363232421875,0.9975825590375844,0.01416015625,2.68603515625,2.625,47.07117647058824,332.9585888069249
-0.02732470703125,0.25452197265625,0.98023388671875,1.0131073718273496,0.03125,2.3310546875,2.99169921875,47.07117647058824,332.9585888069249
-0.02293017578125,0.24524462890625,0.99976513671875,1.0296606477704118,0.07177734375,1.65966796875,3.19775390625,47.68294117647059,332.9585888069249
-0.01707080078125,0.22864306640625,1.01099560546875,1.0366683068041052,0.052734375,0.92138671875,3.26611328125,47.447647058823534,332.9585888069249
-0.03464892578125,0.21252978515625,1.02662060546875,1.048961069444133,-0.06884765625,0.16455078125,3.2080078125,47.777058823529416,332.9585888069249
-0.09519580078125,0.21252978515625,1.04859326171875,1.0741410422225344,-0.2138671875,-0.267578125,3.35693359375,47.91823529411765,332.6662861575304
-0.16160205078125,0.21936572265625,1.06128857421875,1.095705243603622,-0.34521484375,-0.0908203125,3.64501953125,47.63588235294118,332.6662861575304
-0.19578173828125,0.23010791015625,1.06128857421875,1.1034552900449444,-0.4599609375,0.66796875,3.79345703125,47.68294117647059,332.6662861575304
-0.20310595703125,0.25110400390625,1.05347607421875,1.1018698151372872,-0.48974609375,1.3896484375,3.76953125,47.58882352941177,332.6662861575304
-0.18943408203125,0.24963916015625,1.02710888671875,1.0738517806919028,-0.4921875,2.21435546875,3.69482421875,47.49470588235295,332.9225301410988
-0.14890673828125,0.23792041015625,0.98999951171875,1.0290181589640883,-0.50732421875,2.576171875,3.68359375,48.43588235294118,332.9225301410988
-0.12400439453125,0.21741259765625,0.95093701171875,0.9833242231020684,-0.5009765625,2.47265625,3.666015625,47.07117647058824,332.9225301410988
-0.12742236328125,0.20715869140625,0.91138623046875,0.9432794088589904,-0.5478515625,1.76220703125,3.6630859375,47.07117647058824,332.9225301410988
-0.15720751953125,0.19348681640625,0.8942963867187499,0.9283950557916636,-0.64208984375,0.896484375,3.81982421875,47.68294117647059,332.9225301410988
-0.18210986328125,0.18860400390625,0.8879487304687499,0.9258447064896193,-0.71923828125,0.224609375,4.0732421875,47.58882352941177,333.101809832648
-0.18455126953125,0.17346728515625,0.90503857421875,0.9398110932144732,-0.75048828125,-0.10498046875,4.20947265625,48.24764705882353,333.101809832648
-0.19138720703125,0.16223681640625,0.92164013671875,0.9551808149370536,-0.81005859375,-0.2490234375,4.169921875,47.68294117647059,333.101809832648
-0.20505908203125,0.15051806640625,0.92115185546875,0.95562840909618,-0.9267578125,0.22705078125,4.16259765625,47.63588235294118,333.101809832648
-0.20896533203125,0.14221728515625,0.92701123046875,0.9608548733306868,-1.029296875,0.82470703125,4.318359375,47.68294117647059,332.9186216143095
-0.20115283203125,0.12708056640625,0.94068310546875,0.9703074961612204,-1.08203125,1.58056640625,4.47607421875,48.24764705882353,332.9186216143095
-0.14353564453125,0.12463916015625,0.92261669921875,0.9419973328904696,-1.1923828125,2.24365234375,4.408203125,47.68294117647059,332.9186216143095
-0.07664111328125,0.13391650390625,0.8796479492187499,0.8930778268595714,-1.1259765625,2.42529296875,3.85009765625,47.58882352941177,332.9186216143095
-0.14597705078125,0.14221728515625,0.8405854492187499,0.864938698978311,-1.43359375,1.21484375,3.65673828125,48.34176470588236,332.9186216143095
-0.23044970703125,0.14417041015625,0.8132416992187499,0.8574696705911002,-1.61572265625,0.20263671875,4.12109375,47.58882352941177,333.13591406226993
-0.22263720703125,0.17590869140625,0.8357026367187499,0.8825588312886602,-1.7255859375,-0.24658203125,4.5947265625,47.49470588235295,333.13591406226993
-0.20261767578125,0.21008837890625,0.8752534179687499,0.9226373042297992,-1.638671875,-0.27294921875,4.80029296875,47.63588235294118,333.13591406226993
-0.19041064453125,0.23889697265625,0.8967377929687499,0.9473471625721964,-1.55615234375,0.03173828125,4.76611328125,47.49470588235295,333.13591406226993
-0.18503955078125,0.24719775390625,0.8991791992187499,0.9507205673578826,-1.51318359375,0.45703125,4.64013671875,47.63588235294118,332.7919814306848
-0.19675830078125,0.26428759765625,0.8928315429687499,0.95168793589138,-1.51806640625,0.8603515625,4.5537109375,47.49470588235295,332.7919814306848
-0.20603564453125,0.26184619140625,0.8942963867187499,0.9543480193669278,-1.52685546875,1.22216796875,4.63818359375,47.777058823529416,332.7919814306848
-0.17478564453125,0.26331103515625,0.90796826171875,0.9613995460045884,-1.4912109375,1.47607421875,4.671875,47.58882352941177,332.7919814306848
-0.14451220703125,0.26868212890625,0.92554638671875,0.9745306451532304,-1.45556640625,1.62158203125,4.5849609375,47.63588235294118,332.7919814306848
-0.13718798828125,0.26526416015625,0.94361279296875,0.9897427553896728,-1.38720703125,1.4130859375,4.3935546875,47.777058823529416,332.7452075808734
-0.14988330078125,0.25159228515625,0.96070263671875,1.00434717005704,-1.38720703125,1.28515625,4.25,47.68294117647059,332.7452075808734
-0.18308642578125,0.24817431640625,0.98706982421875,1.0341266694715383,-1.3798828125,1.16748046875,4.2666015625,47.49470588235295,332.7452075808734
-0.19919970703125,0.24817431640625,0.99537060546875,1.0450041420187153,-1.3720703125,1.10693359375,4.23779296875,47.49470588235295,332.7452075808734
-0.21482470703125,0.25549853515625,1.01929638671875,1.0725643478113338,-1.40234375,1.1513671875,4.12646484375,47.63588235294118,332.8728602313874
-0.22068408203125,0.26086962890625,1.02515576171875,1.080601111943168,-1.44091796875,1.28564453125,3.90576171875,47.49470588235295,332.8728602313874
-0.23435595703125,0.26428759765625,1.01587841796875,1.0755368933540288,-1.47021484375,1.40576171875,3.6376953125,47.63588235294118,332.8728602313874
-0.25388720703125,0.26868212890625,1.00025341796875,1.0663750280487116,-1.49755859375,1.62353515625,3.45068359375,47.777058823529416,332.8728602313874
-0.26902392578125,0.27893603515625,0.97632763671875,1.0504260271776702,-1.474609375,1.55859375,3.435546875,47.58882352941177,332.8728602313874
-0.24558642578125,0.27502978515625,0.96949169921875,1.0372406808957897,-1.41357421875,1.62841796875,3.447265625,47.49470588235295,332.8582331491701
-0.15574267578125,0.24719775390625,1.00464794921875,1.046269569692839,-1.21923828125,1.43603515625,3.6748046875,47.68294117647059,332.8582331491701
-0.07810595703125,0.20862353515625,1.04956982421875,1.0729497359408018,-0.85986328125,0.91064453125,3.92236328125,47.49470588235295,332.8582331491701
-0.10349658203125,0.19543994140625,1.01441357421875,1.0382404407208812,-0.76220703125,0.21435546875,3.64990234375,47.40058823529412,332.8582331491701
-0.24705126953125,0.16907275390625,0.97925732421875,1.0239945473128809,-1.04345703125,-0.43359375,3.47021484375,47.63588235294118,332.99464869355927
-0.31248095703125,0.10022509765625,1.01441357421875,1.0661727431643666,-1.28515625,0.27587890625,3.8876953125,47.777058823529416,332.99464869355927
-0.17478564453125,0.06165087890625,1.11744091796875,1.1327069601423665,-1.24072265625,2.34423828125,4.173828125,47.49470588235295,332.99464869355927
-0.05564501953125,0.06506884765625,1.18042919921875,1.1835300661589316,-1.02392578125,3.98291015625,4.12353515625,47.16529411764706,332.99464869355927
-0.04441455078125,0.05774462890625,1.16529248046875,1.1675674111269263,-0.92919921875,4.71435546875,3.70947265625,47.49470588235295,332.99464869355927
-0.06296923828125,0.04651416015625,1.09351513671875,1.0963138447989194,-1.05419921875,4.4013671875,3.587890625,47.49470588235295,333.0248411223876
-0.02048876953125,0.0206352539062499,1.02320263671875,1.023615767350661,-1.1259765625,3.26708984375,3.51904296875,47.49470588235295,333.0248411223876
0.00831982421875,0.00989306640625,0.96265576171875,0.9627425449247872,-1.37646484375,1.66845703125,3.5302734375,47.63588235294118,333.0248411223876
-0.0077934570312499,0.01526416015625,0.93921826171875,0.9393746194696574,-1.712890625,0.28466796875,3.5703125,47.63588235294118,333.0248411223876
-0.02976611328125,0.0181938476562499,0.94996044921875,0.950600806160136,-1.89306640625,-0.38037109375,3.5078125,47.63588235294118,333.0228858070342
-0.07859423828125,0.0181938476562499,0.96216748046875,0.9655435416671436,-2.0126953125,-0.66552734375,3.50537109375,47.63588235294118,333.0228858070342
-0.12253955078125,0.01233447265625,0.94507763671875,0.9530686334925076,-2.05078125,-0.42138671875,3.7939453125,48.43588235294118,333.0228858070342
-0.14939501953125,-0.00475537109375,0.91187451171875,0.9240436193910384,-2.03271484375,0.037109375,4.43408203125,47.777058823529416,333.0228858070342
-0.15134814453125,-0.03356396484375,0.8557221679687499,0.8696512113153307,-1.912109375,0.49072265625,5.3017578125,47.68294117647059,333.0228858070342
-0.11423876953125,-0.07409130859375,0.8098237304687499,0.8211908991845142,-1.7685546875,0.85595703125,6.18359375,47.49470588235295,332.7384010811983
-0.04880908203125,-0.11413037109375,0.7614838867187499,0.7715346899699483,-1.64013671875,1.08203125,6.83544921875,47.40058823529412,332.7384010811983
0.02247998046875,-0.14293896484375,0.7443940429687499,0.7583267029452669,-1.57861328125,1.0419921875,7.19091796875,47.58882352941177,332.7384010811983
0.06349560546875,-0.15856396484375,0.7556245117187499,0.7746887281812046,-1.5595703125,0.58984375,7.27392578125,47.58882352941177,332.7384010811983
0.06105419921875,-0.14147412109375,0.7990815429687499,0.8138020978682777,-1.6083984375,-0.154296875,7.224609375,47.63588235294118,332.6682402121419
0.02199169921875,-0.10729443359375,0.8733002929687499,0.8801415408978467,-1.73583984375,-1.03173828125,7.013671875,47.777058823529416,332.6682402121419
-0.03416064453125,-0.03991162109375,0.97290966796875,0.9743270031976864,-1.97998046875,-1.86572265625,6.65283203125,47.3064705882353,332.6682402121419
-0.12009814453125,0.04065478515625,1.09253857421875,1.0998713161237952,-2.21875,-2.17578125,6.349609375,47.777058823529416,332.6682402121419
-0.16404345703125,0.11096728515625,1.21412060546875,1.2301678092006458,-2.30322265625,-1.7275390625,6.025390625,47.58882352941177,332.6682402121419
-0.17625048828125,0.15637744140625,1.31128857421875,1.332289707112078,-2.28662109375,-0.62744140625,5.51953125,47.777058823529416,332.83680092680567
-0.18796923828125,0.17737353515625,1.32740185546875,1.3523274349859724,-2.20263671875,0.84326171875,5.009765625,47.447647058823534,332.83680092680567
-0.18845751953125,0.15881884765625,1.28931591796875,1.3126595900561315,-2.11181640625,2.2578125,4.70263671875,47.63588235294118,332.83680092680567
-0.17869189453125,0.12170947265625,1.21021435546875,1.2293749530098912,-2.125,3.380859375,4.59375,48.43588235294118,332.83680092680567
-0.18357470703125,0.07825244140625,1.10132763671875,1.1192612210954844,-1.76953125,3.76123046875,4.8173828125,47.68294117647059,332.9800210861546
-0.16013720703125,0.03430712890625,0.98511669921875,0.9986369787110853,-1.57861328125,3.18408203125,5.24462890625,47.40058823529412,332.9800210861546
-0.14597705078125,0.00842822265625,0.90210888671875,0.9138822559765988,-1.43896484375,2.0869140625,5.50634765625,47.58882352941177,332.9800210861546
-0.15281298828125,-0.00963818359375,0.8674409179687499,0.8808509806640961,-1.32177734375,1.0458984375,5.88232421875,47.777058823529416,332.9800210861546
-0.07908251953125,-0.01647412109375,0.8684174804687499,0.8721664760496781,-1.1962890625,0.61083984375,6.072265625,47.40058823529412,332.9800210861546
-0.22166064453125,-0.01305615234375,0.8913666992187499,0.9186068239046352,-1.0556640625,0.8369140625,6.11962890625,47.68294117647059,332.73449141759994
-0.16746142578125,-0.01159130859375,0.8596284179687499,0.8758645469129689,-0.92919921875,1.22509765625,5.56494140625,47.63588235294118,332.73449141759994
-0.23289111328125,-0.00817333984375,0.8464448242187499,0.877937306745927,-0.9658203125,0.94921875,5.43017578125,47.63588235294118,332.73449141759994
-0.27293017578125,-0.00768505859375,0.8547456054687499,0.8972959328146501,-1.01611328125,0.89501953125,5.701171875,47.49470588235295,332.73449141759994
-0.26169970703125,0.0157524414062499,0.8786713867187499,0.9169505340577268,-0.99267578125,0.86083984375,5.93310546875,48.53,333.03946915276475
-0.23826220703125,0.04211962890625,0.90845654296875,0.9401256474010984,-0.88623046875,0.92041015625,6.00439453125,47.68294117647059,333.03946915276475
-0.20847705078125,0.06506884765625,0.92164013671875,0.9471626984044064,-0.7744140625,1.0400390625,5.71875,47.49470588235295,333.03946915276475
-0.19529345703125,0.08313525390625,0.93238232421875,0.9562362696095726,-0.69140625,1.04296875,5.20849609375,47.777058823529416,333.03946915276475
-0.17820361328125,0.10120166015625,0.92359326171875,0.9460564554492262,-0.66015625,0.9912109375,4.6630859375,48.24764705882353,333.03946915276475
-0.15769580078125,0.10266650390625,0.91675732421875,0.9358698457141856,-0.607421875,0.82861328125,4.17041015625,47.49470588235295,333.0160808130988
-0.12888720703125,0.10950244140625,0.90113232421875,0.9168654004607936,-0.52294921875,0.49951171875,3.71044921875,47.82411764705883,333.0160808130988
-0.15818408203125,0.12170947265625,0.8942963867187499,0.9162976737068276,-0.458984375,-0.40625,3.3681640625,47.07117647058824,333.0160808130988
-0.22117236328125,0.12659228515625,0.91529248046875,0.9501069127962029,-0.41064453125,-1.046875,3.25,47.16529411764706,333.0160808130988
-0.27878955078125,0.12903369140625,0.93091748046875,0.9802962116549364,-0.32373046875,-1.17431640625,3.3662109375,47.777058823529416,333.00340885533274
-0.29978564453125,0.13196337890625,0.95191357421875,1.0066902298231004,-0.185546875,-0.84619140625,3.4775390625,47.63588235294118,333.00340885533274
-0.28709033203125,0.13049853515625,0.92945263671875,0.9814952523202428,-0.02001953125,-0.3173828125,3.349609375,47.777058823529416,333.00340885533274
-0.25779345703125,0.12854541015625,0.90503857421875,0.949776926327582,0.1005859375,0.01416015625,2.95263671875,47.21235294117647,333.00340885533274
-0.25535205078125,0.12268603515625,0.8679291992187499,0.9129937721129596,0.1494140625,-0.02880859375,2.556640625,47.49470588235295,333.00340885533274
-0.26951220703125,0.11633837890625,0.97486279296875,1.0181006400450898,0.1982421875,-0.34912109375,2.31201171875,47.777058823529416,332.9244850876296
-0.28269580078125,0.10754931640625,0.8552338867187499,0.9071431927931022,0.23486328125,-0.61181640625,2.25439453125,47.68294117647059,332.9244850876296
-0.29148486328125,0.10559619140625,0.8537690429687499,0.9083146810953622,0.30126953125,-0.69287109375,2.2548828125,47.68294117647059,332.9244850876296
-0.29978564453125,0.10266650390625,0.8723237304687499,0.9280951106596056,0.4189453125,-0.61376953125,2.263671875,47.68294117647059,332.9244850876296
-0.30125048828125,0.08557666015625,0.8972260742187499,0.9503103965079932,0.5478515625,-0.369140625,2.2568359375,47.68294117647059,332.6127053479614
-0.29783251953125,0.06897509765625,0.91382763671875,0.9636092171715654,0.73681640625,0.05224609375,2.18359375,47.777058823529416,332.6127053479614
-0.29294970703125,0.05286181640625,0.91773388671875,0.9648053634362564,0.884765625,0.3955078125,1.98828125,47.68294117647059,332.6127053479614
-0.29587939453125,0.04895556640625,0.91675732421875,0.9645648008812358,0.90234375,0.35009765625,1.71044921875,47.63588235294118,332.6127053479614
-0.29880908203125,0.05335009765625,0.92896435546875,0.9772962059456486,0.849609375,-0.04541015625,1.59912109375,48.388823529411766,332.6127053479614
-0.29343798828125,0.05920947265625,0.93238232421875,0.97925911439942,0.75244140625,-0.44921875,1.5302734375,47.35352941176471,332.5912731188775
-0.29002001953125,0.06946337890625,0.94312451171875,0.9891514632970576,0.6494140625,-0.6064453125,1.52001953125,47.777058823529416,332.5912731188775
-0.28318408203125,0.08020556640625,0.95874951171875,1.0029091601034317,0.61328125,-0.43017578125,1.5546875,47.3064705882353,332.5912731188775
-0.25828173828125,0.08704150390625,0.95728466796875,0.9953288980331504,0.61279296875,-0.3203125,1.43505859375,47.49470588235295,332.5912731188775
-0.26462939453125,0.09973681640625,0.96900341796875,1.0094274481268823,0.6044921875,-0.5126953125,1.462890625,47.447647058823534,332.86018845705127
-0.27537158203125,0.11389697265625,0.98609326171875,1.030136859537496,0.6171875,-1.107421875,1.56103515625,47.777058823529416,332.86018845705127
-0.26121142578125,0.13342822265625,1.04810498046875,1.0883742691019842,0.6005859375,-1.6357421875,1.58642578125,47.63588235294118,332.86018845705127
-0.25242236328125,0.13147509765625,1.11353466796875,1.1493312001144345,0.6171875,-1.6923828125,1.54638671875,47.58882352941177,332.86018845705127
-0.28660205078125,0.09241259765625,1.16431591796875,1.2026272824749185,0.58349609375,-0.7822265625,1.63330078125,47.58882352941177,332.86018845705127
-0.33543017578125,0.08411181640625,1.19263623046875,1.2417605963753675,0.64794921875,-0.1669921875,2.21728515625,47.49470588235295,332.8796654256745
-0.36375048828125,0.06897509765625,1.19410107421875,1.2501797299876167,0.63623046875,-0.060546875,2.84765625,47.40058823529412,332.8796654256745
-0.31687548828125,0.04114306640625,1.22876904296875,1.2696362423722505,0.5517578125,0.3125,2.8857421875,47.68294117647059,332.8796654256745
-0.27732470703125,0.0240532226562499,1.27662060546875,1.306616899078501,0.5458984375,0.77099609375,2.84716796875,47.777058823529416,332.8796654256745
-0.28171923828125,0.0201469726562499,1.30689404296875,1.3370653197477618,0.5458984375,1.06396484375,3.19482421875,47.63588235294118,332.9693049397685
-0.26853564453125,0.04016650390625,1.29761669921875,1.3257201207310798,0.42822265625,1.4697265625,3.30615234375,47.58882352941177,332.9693049397685
-0.21921923828125,0.07825244140625,1.26441357421875,1.2856602217099526,0.23291015625,1.8173828125,2.83154296875,47.07117647058824,332.9693049397685
-0.20945361328125,0.09338916015625,1.20289013671875,1.2245558510605037,0.02587890625,2.05126953125,2.36376953125,47.63588235294118,332.9693049397685
-0.23289111328125,0.09534228515625,1.13648388671875,1.1640120475130626,-0.15869140625,2.44970703125,2.3115234375,47.777058823529416,332.9693049397685
-0.22117236328125,0.10120166015625,1.05640576171875,1.0840443365888532,-0.1728515625,2.7783203125,2.712890625,47.63588235294118,333.1076786128575
-0.15378955078125,0.12512744140625,1.09839794921875,1.116147910167075,-0.11328125,2.771484375,3.041015625,47.777058823529416,333.1076786128575
-0.06931689453125,0.14465869140625,0.8855073242187499,0.8999189908607749,-0.11767578125,2.38232421875,3.03662109375,47.777058823529416,333.1076786128575
-0.01218798828125,0.15833056640625,0.8151948242187499,0.8305177401777197,-0.22216796875,1.7978515625,2.6494140625,47.07117647058824,333.1076786128575
0.00246044921875,0.15540087890625,0.7756440429687499,0.7910620508961992,-0.31103515625,1.14697265625,2.3720703125,47.63588235294118,332.7919814306848
-0.01755908203125,0.14172900390625,0.7566010742187499,0.7699614389169137,-0.263671875,0.68115234375,2.439453125,47.63588235294118,332.7919814306848
-0.02244189453125,0.13147509765625,0.7448823242187499,0.7567291568767514,-0.10888671875,0.42333984375,2.4794921875,47.777058823529416,332.7919814306848
-0.03269580078125,0.12317431640625,0.7370698242187499,0.7480059180145121,0.0654296875,0.267578125,2.31982421875,47.07117647058824,332.7919814306848
-0.05320361328125,0.10364306640625,0.7512299804687499,0.7602098350030401,0.19189453125,0.365234375,2.42138671875,48.388823529411766,332.7919814306848
-0.07615283203125,0.08752978515625,0.8054291992187499,0.8137425342637779,0.3701171875,1.0673828125,2.83056640625,47.447647058823534,332.7812653337164
-0.03806689453125,0.08460009765625,0.8322846679687499,0.8374389730114981,0.50634765625,2.0302734375,3.04638671875,47.49470588235295,332.7812653337164
-0.0014458007812499,0.09583056640625,0.8274018554687499,0.8329342220312309,0.4228515625,2.447265625,2.8544921875,47.49470588235295,332.7812653337164
-0.03171923828125,0.11780322265625,0.8542573242187499,0.8629248433825041,0.2646484375,1.95166015625,3.0986328125,47.49470588235295,332.7812653337164
-0.01755908203125,0.13489306640625,0.8581635742187499,0.8688781162177818,0.03076171875,1.60302734375,3.4716796875,47.68294117647059,332.94787268760894
0.02980419921875,0.16565478515625,0.8972260742187499,0.9128770050747383,-0.203125,1.4619140625,3.849609375,47.63588235294118,332.94787268760894
0.06593701171875,0.20471728515625,0.92066357421875,0.9454513595364848,-0.3037109375,1.65185546875,3.9912109375,47.777058823529416,332.94787268760894
0.08595654296875,0.23157275390625,0.94654248046875,0.9782418591344356,-0.32080078125,1.86669921875,3.771484375,47.49470588235295,332.94787268760894
