AccX,AccY,AccZ,Magnitude,GyroX,GyroY,GyroZ,Temperature,Altitude
0.86085888671875,0.67004931640625,-0.1393950195312501,1.0997613744486785,1.79931640625,-5.20703125,3.02392578125,45.7535294117647,310.6420609325148
0.87892529296875,0.63586962890625,-0.1530668945312501,1.0955680397798286,1.6123046875,-4.58349609375,3.1123046875,46.788823529411765,310.6420609325148
0.87208935546875,0.69153369140625,-0.1467192382812501,1.1226242582243111,1.62060546875,-4.1884765625,3.19873046875,46.03588235294118,310.376025427981
0.86427685546875,0.75110400390625,-0.1691801757812501,1.1574772738418344,2.03955078125,-3.9619140625,3.060546875,45.94176470588236,310.376025427981
0.81984326171875,0.75354541015625,-0.1921293945312501,1.1299944084800309,2.44921875,-3.5283203125,2.96484375,46.08294117647059,310.376025427981
0.81544873046875,0.70960009765625,-0.2355864257812501,1.1063407678600838,2.6474609375,-2.68310546875,2.7001953125,46.08294117647059,310.376025427981
0.86671826171875,0.72327197265625,-0.2590239257812501,1.158195270994475,2.67041015625,-2.060546875,2.603515625,46.08294117647059,310.376025427981
1.00099560546875,0.75842822265625,-0.3205473632812501,1.296131236872189,2.6591796875,-2.0712890625,2.3935546875,46.13,310.5775334874691
1.11964794921875,0.80335009765625,-0.3806059570312501,1.429630653043552,2.443359375,-2.74658203125,2.134765625,46.03588235294118,310.5775334874691
1.17482373046875,0.85852587890625,-0.3845122070312501,1.5050339264549162,2.068359375,-3.73583984375,2.46728515625,46.08294117647059,310.5775334874691
1.10548779296875,0.92249072265625,-0.3674223632812501,1.4859648672929475,2.09423828125,-4.1396484375,2.47119140625,45.7535294117647,310.5775334874691
1.02980419921875,0.89563525390625,-0.3019926757812501,1.397804983892175,2.353515625,-3.6357421875,2.12646484375,46.03588235294118,310.8682565385346
0.90871044921875,0.76184619140625,-0.1935942382812501,1.201516969907312,2.9345703125,-2.46728515625,1.61669921875,46.03588235294118,310.8682565385346
0.82716748046875,0.74915087890625,-0.1340239257812501,1.1240086711377475,3.93896484375,-0.8828125,1.49365234375,46.03588235294118,310.8682565385346
0.85402294921875,0.51379931640625,-0.1437895507812501,1.0069857845300971,4.49072265625,0.03515625,1.28564453125,46.224117647058826,310.8682565385346
0.80177685546875,0.54407275390625,-0.1535551757812501,0.98104050860181,4.8515625,0.623046875,1.00244140625,46.08294117647059,310.8682565385346
0.78908154296875,0.57825244140625,-0.1618559570312501,0.9915759770550786,5.15478515625,0.4736328125,1.38671875,46.224117647058826,310.376025427981
0.82472607421875,0.58801806640625,-0.2004301757812501,1.032526318928539,5.2001953125,-0.234375,1.4697265625,46.03588235294118,310.376025427981
0.83058544921875,0.48010791015625,-0.2585356445312501,0.99358767773242,4.2109375,-0.5078125,1.60986328125,46.03588235294118,310.376025427981
0.72560498046875,0.35266650390625,-0.1198637695312501,0.8156246525852151,1.62158203125,1.50732421875,2.6689453125,45.94176470588236,310.376025427981
0.74415966796875,0.30579150390625,-0.0021879882812501,0.8045413864962606,-0.220703125,4.29931640625,3.60302734375,46.224117647058826,310.60979714895524
0.84328076171875,0.42249072265625,0.0041596679687498,0.9432063171189884,-0.24462890625,5.55615234375,3.14453125,45.94176470588236,310.60979714895524
0.64503857421875,0.16028369140625,-0.1262114257812501,0.676531557252659,-0.74853515625,6.1806640625,2.76123046875,46.08294117647059,310.60979714895524
0.79347607421875,0.38879931640625,-0.1813872070312501,0.9020368660260866,0.0791015625,5.4169921875,1.9970703125,46.08294117647059,310.60979714895524
0.90968701171875,0.54309619140625,-0.3259184570312501,1.1084704655710922,1.7861328125,4.80078125,-0.2353515625,45.94176470588236,310.60979714895524
1.18605419921875,0.63684619140625,-0.5212309570312501,1.4435994408286494,3.802734375,1.126953125,-1.37353515625,46.08294117647059,310.43613936109404
1.38917919921875,0.64514697265625,-0.6403715820312501,1.6601533745238053,5.4638671875,-4.658203125,-1.99609375,45.7535294117647,310.43613936109404
1.19240185546875,0.36487353515625,-0.7907622070312501,1.4765702657346418,6.12158203125,-10.716796875,-1.79833984375,46.08294117647059,310.43613936109404
0.74025341796875,0.10510791015625,-0.4885161132812501,0.8931241730729554,2.53173828125,-10.91259765625,0.9453125,45.89470588235295,310.43613936109404
0.68800732421875,0.17883837890625,0.0007416992187498,0.7108711515219834,0.7529296875,-6.8818359375,3.7060546875,46.08294117647059,310.62372371422737
0.86085888671875,0.34338916015625,0.2004487304687499,0.9482477691521314,1.1611328125,-0.82275390625,3.0830078125,46.97705882352941,310.62372371422737
0.95949169921875,0.45862353515625,0.1755463867187499,1.077857319759396,1.24169921875,4.65380859375,1.6494140625,46.224117647058826,310.62372371422737
0.97462841796875,0.50256884765625,0.0676362304687498,1.0986585727234923,0.9921875,8.01953125,1.3388671875,46.08294117647059,310.62372371422737
1.04640576171875,0.49133837890625,-0.0939848632812501,1.1598325634635434,0.97607421875,9.23779296875,1.3984375,46.224117647058826,310.62372371422737
1.14503857421875,0.43225634765625,-0.2712309570312501,1.2536048494601943,0.91796875,8.33544921875,1.45556640625,46.03588235294118,310.4684026746984
1.23927685546875,0.34924853515625,-0.3903715820312501,1.3454261911628154,0.52294921875,6.0771484375,1.8369140625,46.08294117647059,310.4684026746984
1.23830029296875,0.30481494140625,-0.4387114257812501,1.3486168763522148,0.09716796875,4.1025390625,2.28955078125,46.03588235294118,310.4684026746984
1.16310498046875,0.29211962890625,-0.4074614257812501,1.2665590735071246,-0.18603515625,2.5771484375,2.3896484375,45.84764705882353,310.4684026746984
1.08156201171875,0.27161181640625,-0.3098051757812501,1.1573800633091378,-0.31494140625,1.95703125,2.73583984375,46.224117647058826,310.37919552732404
1.00929638671875,0.25793994140625,-0.2414458007812501,1.069349467821948,-0.47216796875,2.1279296875,3.294921875,46.08294117647059,310.37919552732404
0.99415966796875,0.27551806640625,-0.2048247070312501,1.0517684207763662,-0.59619140625,2.99462890625,3.60400390625,46.08294117647059,310.37919552732404
1.02296826171875,0.30383837890625,-0.1721098632812501,1.0809272084737942,-0.49169921875,3.41552734375,3.865234375,46.03588235294118,310.37919552732404
1.01369091796875,0.33606494140625,-0.1555083007812501,1.0792088554244657,-0.26708984375,3.369140625,4.13427734375,46.03588235294118,310.37919552732404
0.99806591796875,0.36145556640625,-0.1418364257812501,1.0709357005792954,0.02099609375,3.3740234375,4.1552734375,46.03588235294118,310.2792346568905
0.97609326171875,0.35217822265625,-0.1813872070312501,1.053417711527892,0.21337890625,3.42236328125,3.55908203125,45.89470588235295,310.2792346568905
0.94191357421875,0.32678759765625,-0.1994536132812501,1.0167463101139982,0.24365234375,3.8271484375,3.00927734375,45.84764705882353,310.2792346568905
0.97853466796875,0.26868212890625,-0.2433989257812501,1.0435340051391584,0.13818359375,3.8984375,2.908203125,46.03588235294118,310.2792346568905
1.00050732421875,0.22376025390625,-0.2741606445312501,1.0612481406595458,0.021484375,3.66650390625,3.20458984375,45.89470588235295,310.54844277743035
0.95997998046875,0.19836962890625,-0.3010161132812501,1.0254378445464822,0.09228515625,3.26708984375,3.43505859375,46.03588235294118,310.54844277743035
0.92335888671875,0.16223681640625,-0.3039458007812501,0.9855432350194891,0.2744140625,2.90380859375,3.55029296875,46.27117647058824,310.54844277743035
0.95900341796875,0.11389697265625,-0.3093168945312501,1.0140695327730047,0.28955078125,2.80322265625,3.51806640625,46.08294117647059,310.54844277743035
1.04689404296875,0.06897509765625,-0.2853911132812501,1.0872868935290518,0.0615234375,2.75732421875,3.40869140625,46.03588235294118,310.54844277743035
1.08790966796875,0.03479541015625,-0.2712309570312501,1.1217505953998443,-0.16650390625,3.08740234375,3.40625,46.08294117647059,310.24697131066733
1.00392529296875,0.03723681640625,-0.2731840820312501,1.0410965935174892,-0.3544921875,3.21484375,3.46923828125,46.224117647058826,310.24697131066733
0.99953076171875,0.04016650390625,-0.2350981445312501,1.0275924431505672,-0.47607421875,3.0029296875,3.9306640625,46.27117647058824,310.24697131066733
1.06251904296875,0.0308891601562499,-0.2443754882812501,1.0906971331029922,-0.70361328125,2.67333984375,4.048828125,46.03588235294118,310.24697131066733
1.13185498046875,0.05432666015625,-0.2307036132812501,1.1564044448187978,-1.11083984375,2.66748046875,3.7294921875,46.03588235294118,310.6575736685188
1.23683544921875,0.04700244140625,-0.2350981445312501,1.259858045775131,-1.45654296875,2.46826171875,3.28759765625,46.08294117647059,310.6575736685188
1.19923779296875,0.03137744140625,-0.2570708007812501,1.2268827264771782,-1.88134765625,2.2724609375,2.94873046875,46.08294117647059,310.6575736685188
1.09376904296875,0.04993212890625,-0.2336333007812501,1.1195572589590173,-1.98876953125,1.69384765625,3.24072265625,45.94176470588236,310.6575736685188
1.09767529296875,0.03528369140625,-0.2307036132812501,1.1222121657041093,-2.158203125,0.9697265625,3.75732421875,45.89470588235295,310.6575736685188
1.08742138671875,0.06604541015625,-0.2668364257812501,1.1216278110941031,-2.48193359375,0.85400390625,3.38916015625,45.89470588235295,310.60380160134685
1.08888623046875,0.06995166015625,-0.2189848632812501,1.1128885065492262,-2.50341796875,0.93212890625,3.02099609375,46.224117647058826,310.60380160134685
0.99074169921875,0.0167290039062499,-0.1867583007812501,1.008329131312416,-2.38720703125,0.8564453125,3.498046875,46.03588235294118,310.60380160134685
0.91310498046875,-0.01159130859375,-0.2004301757812501,0.9349156748902302,-2.18115234375,0.88818359375,4.6181640625,46.08294117647059,310.60380160134685
1.00197216796875,-0.01647412109375,-0.2399809570312501,1.030441886661952,-2.11474609375,0.6318359375,4.93701171875,46.08294117647059,310.6930110561336
1.06984326171875,0.0235649414062499,-0.2766020507812501,1.1052730909620876,-2.17626953125,0.31982421875,4.703125,46.03588235294118,310.6930110561336
1.03859326171875,0.08557666015625,-0.3088286132812501,1.0869105024942534,-2.21435546875,0.17626953125,4.859375,46.08294117647059,310.6930110561336
1.00392529296875,0.15247119140625,-0.3308012695312501,1.0679620489487065,-2.14990234375,0.06103515625,5.57666015625,45.89470588235295,310.6930110561336
1.08009716796875,0.24133837890625,-0.3415434570312501,1.1582340171261023,-2.12255859375,-0.212890625,5.5673828125,46.08294117647059,310.6930110561336
1.10304638671875,0.35608447265625,-0.3469145507812501,1.209899660494178,-1.80322265625,-0.4404296875,4.82080078125,45.84764705882353,310.53610171003504
1.12892529296875,0.42395556640625,-0.3254301757812501,1.2490458112897374,-1.56982421875,-0.5849609375,3.787109375,46.08294117647059,310.53610171003504
1.09669873046875,0.44397509765625,-0.2800200195312501,1.215842590177251,-1.17333984375,-0.69091796875,2.77685546875,46.03588235294118,310.53610171003504
1.01662060546875,0.41516650390625,-0.2189848632812501,1.1197477625678447,-0.689453125,-0.5703125,2.30859375,46.08294117647059,310.53610171003504
0.95460888671875,0.37952197265625,-0.1901762695312501,1.0447401915424357,-0.23779296875,-0.166015625,2.0791015625,45.94176470588236,310.514592899425
1.02199169921875,0.36096728515625,-0.1379301757812501,1.0926065840988457,0.0205078125,0.2041015625,1.1376953125,45.94176470588236,310.514592899425
0.92580029296875,0.38391650390625,-0.0822661132812501,1.0056171129346518,0.1962890625,0.552734375,0.0,46.224117647058826,310.514592899425
0.83644482421875,0.42835009765625,-0.0212309570312501,0.9399864380196754,0.4091796875,1.04443359375,-0.77978515625,46.03588235294118,310.514592899425
0.82423779296875,0.46350634765625,0.0651948242187498,0.947869420743462,0.78466796875,1.2294921875,-1.57275390625,46.13,310.514592899425
0.77394482421875,0.44397509765625,0.0510346679687498,0.8937052174003177,0.6416015625,1.4794921875,-2.60498046875,46.13,310.57312595300345
0.76759716796875,0.43225634765625,0.1135346679687498,0.8882235547391999,0.05224609375,1.62109375,-3.66357421875,45.61235294117647,310.57312595300345
0.76027294921875,0.38489306640625,0.1799409179687499,0.8709399312471661,-0.43896484375,1.42578125,-4.12451171875,46.08294117647059,310.57312595300345
0.65675732421875,0.32092822265625,0.2297456054687499,0.7662298286052784,-0.755859375,1.22705078125,-4.0732421875,46.08294117647059,310.57312595300345
0.66164013671875,0.24573291015625,0.3034760742187499,0.7682773335679571,-1.23193359375,1.2255859375,-4.166015625,46.03588235294118,310.8053179791105
0.72560498046875,0.12024462890625,0.3488862304687499,0.8140534136483616,-1.6044921875,1.8447265625,-4.6376953125,45.89470588235295,310.8053179791105
0.88136669921875,-0.00036083984375,0.3640229492187499,0.9535827684344258,-1.8662109375,2.79736328125,-5.04638671875,46.08294117647059,310.8053179791105
0.93068310546875,-0.08629833984375,0.3508393554687499,0.9983519918397876,-1.859375,3.669921875,-5.04296875,45.84764705882353,310.8053179791105
0.93019482421875,-0.17223583984375,0.3020112304687499,0.9930450034410734,-1.677734375,3.8583984375,-4.623046875,46.08294117647059,310.8053179791105
0.89601513671875,-0.20641552734375,0.2175385742187499,0.944866935833213,-1.72021484375,3.2890625,-3.34130859375,46.08294117647059,310.53768841213275
0.92775341796875,-0.13317333984375,0.1462495117187499,0.9486044816865508,-2.03466796875,2.24365234375,-1.91064453125,45.89470588235295,310.53768841213275
0.94142529296875,0.05286181640625,0.0827729492187498,0.946534370742782,-2.59521484375,1.15380859375,-0.81884765625,45.89470588235295,310.53768841213275
0.95265576171875,0.27161181640625,0.0866791992187498,0.9944039736066212,-3.03076171875,0.71923828125,-0.294921875,46.03588235294118,310.53768841213275
1.04152294921875,0.46936572265625,0.1301362304687499,1.1497867949470295,-3.26025390625,0.7001953125,-0.25439453125,46.224117647058826,310.6591606148323
1.03419873046875,0.64465869140625,0.1638276367187499,1.2296305693425338,-3.3056640625,1.0751953125,-0.611328125,46.08294117647059,310.6591606148323
1.03273388671875,0.77356494140625,0.2067963867187499,1.3067925408839776,-2.9638671875,1.8310546875,-1.96923828125,45.94176470588236,310.6591606148323
0.96046826171875,0.82239306640625,0.2722260742187499,1.2934205321266028,-2.419921875,2.5283203125,-3.4853515625,46.224117647058826,310.6591606148323
1.00441357421875,0.78088916015625,0.2927338867187499,1.305498999217496,-1.94677734375,3.02001953125,-3.7119140625,45.65941176470588,310.6591606148323
1.20460888671875,0.70667041015625,0.2605073242187499,1.4206793109367792,-1.5751953125,3.44091796875,-3.677734375,45.94176470588236,310.7499582595509
1.37648388671875,0.61975634765625,0.2483002929687499,1.529855828614232,-0.97900390625,3.8056640625,-4.0791015625,46.03588235294118,310.7499582595509
1.46193310546875,0.51282275390625,0.2717377929687499,1.5729198993963491,-0.64501953125,3.85693359375,-4.09423828125,45.84764705882353,310.7499582595509
1.52296826171875,0.43372119140625,0.3396088867187499,1.6195309796406605,-0.21337890625,3.8544921875,-3.6689453125,46.64764705882353,310.7499582595509
1.49171826171875,0.37268603515625,0.3723237304687499,1.582006072496519,0.37548828125,4.1572265625,-3.6220703125,46.224117647058826,310.7499582595509
1.44484326171875,0.31213916015625,0.4084565429687499,1.533570883177921,0.77880859375,4.21044921875,-3.197265625,46.03588235294118,310.7499582595509
1.44044873046875,0.23987353515625,0.4777924804687499,1.536462662211442,0.80029296875,4.0556640625,-2.89599609375,46.03588235294118,310.7499582595509
1.33400341796875,0.18616259765625,0.4909760742187499,1.4336244757165966,0.6533203125,4.47607421875,-2.9755859375,46.08294117647059,310.7499582595509
1.24025341796875,0.18372119140625,0.4895112304687499,1.345958120340276,0.08203125,5.41552734375,-1.96728515625,46.224117647058826,310.7499582595509
1.20265576171875,0.20667041015625,0.5417573242187499,1.3351383965619892,-0.67431640625,5.8544921875,-0.9521484375,45.94176470588236,310.6715023486387
1.19923779296875,0.27600634765625,0.6081635742187499,1.3726666459988115,-1.17578125,5.59814453125,-0.306640625,46.224117647058826,310.6715023486387
1.15871044921875,0.26526416015625,0.6560151367187499,1.3576932051815824,-1.31982421875,5.07763671875,0.29052734375,46.03588235294118,310.6715023486387
1.07814404296875,0.47620166015625,0.6984956054687499,1.370057921908313,-1.5205078125,4.7392578125,0.6728515625,46.224117647058826,310.6715023486387
1.00148388671875,0.51331103515625,0.7473237304687499,1.3509074551175606,-1.7060546875,5.11572265625,0.61865234375,46.08294117647059,310.7053530432808
0.95167919921875,0.49133837890625,0.7263276367187499,1.2940859850385935,-2.025390625,6.17822265625,0.7255859375,46.13,310.7053530432808
0.93361279296875,0.45227587890625,0.6814057617187499,1.2411688563361718,-2.56640625,7.00341796875,1.22314453125,46.03588235294118,310.7053530432808
1.00441357421875,0.47034228515625,0.6208588867187499,1.2710366833803552,-2.74853515625,7.10009765625,0.9697265625,46.224117647058826,310.7053530432808
1.00880810546875,0.45227587890625,0.5031831054687499,1.2146771183853942,-2.71728515625,6.810546875,-0.1376953125,45.89470588235295,310.7053530432808
0.98146435546875,0.39270556640625,0.4030854492187499,1.1313566291466297,-3.2919921875,6.82666015625,-1.71630859375,46.03588235294118,310.5161797222483
0.98146435546875,0.28333056640625,0.3752534179687499,1.0882847139480571,-4.17041015625,7.0751953125,-2.2724609375,46.03588235294118,310.5161797222483
1.03468701171875,0.23108447265625,0.3625581054687499,1.1204577750024245,-5.0556640625,7.05126953125,-2.162109375,46.03588235294118,310.5161797222483
1.00441357421875,0.21838916015625,0.3889252929687499,1.0990010631748564,-5.6806640625,6.74755859375,-1.67626953125,46.03588235294118,310.5161797222483
1.00880810546875,0.23987353515625,0.4860932617187499,1.1452160344739235,-5.98828125,5.677734375,-0.94482421875,46.03588235294118,310.58070595467603
1.09083935546875,0.20911181640625,0.5529877929687499,1.2407472548318004,-6.16064453125,4.671875,-0.35400390625,46.03588235294118,310.58070595467603
1.09279248046875,0.14954150390625,0.6394135742187499,1.2749148150581604,-6.47216796875,3.94677734375,0.5625,46.03588235294118,310.58070595467603
1.08351513671875,0.10315478515625,0.7751557617187499,1.3362306747433466,-6.66845703125,3.29052734375,2.23828125,45.65941176470588,310.58070595467603
1.09132763671875,0.07971728515625,0.8967377929687499,1.414740091167731,-6.42431640625,2.884765625,4.02392578125,46.03588235294118,310.58070595467603
1.10060498046875,0.08704150390625,0.98706982421875,1.480950500293009,-5.89111328125,2.80908203125,5.0791015625,46.03588235294118,310.7961521565161
1.03273388671875,0.09290087890625,1.05542919921875,1.4795609648278445,-5.32177734375,3.34619140625,5.58447265625,46.27117647058824,310.7961521565161
0.96828076171875,0.10071337890625,1.06910107421875,1.445921133776335,-4.93115234375,4.77587890625,5.89208984375,46.08294117647059,310.7961521565161
0.86671826171875,0.15735400390625,1.08765576171875,1.3996270516612968,-4.451171875,6.28271484375,6.19091796875,46.03588235294118,310.7961521565161
0.88283154296875,0.17297900390625,1.08570263671875,1.4099870511572183,-3.99658203125,7.66064453125,6.11669921875,45.94176470588236,310.7284496578766
1.03078076171875,0.14124072265625,1.05640576171875,1.4827174558419818,-3.828125,8.3466796875,5.267578125,46.03588235294118,310.7284496578766
1.09083935546875,0.07727587890625,0.98658154296875,1.4728357687898577,-3.60595703125,8.64501953125,4.1884765625,45.89470588235295,310.7284496578766
1.00246044921875,-0.03454052734375,0.8171479492187499,1.293773848549062,-3.6318359375,9.2998046875,3.458984375,46.13,310.7284496578766
0.94630810546875,-0.15416943359375,0.6784760742187499,1.1745624836583872,-4.14013671875,9.95556640625,3.14453125,46.224117647058826,310.7284496578766
0.85890576171875,-0.23766552734375,0.5739838867187499,1.0600290149868594,-4.072265625,9.42138671875,3.30859375,45.94176470588236,310.84992356571337
0.80128857421875,-0.30065380859375,0.4650971679687499,0.9740490066972995,-4.07763671875,7.31494140625,4.12451171875,46.03588235294118,310.84992356571337
0.85451123046875,-0.33043896484375,0.3996674804687499,0.999556625423725,-4.80712890625,4.2734375,4.80859375,45.89470588235295,310.84992356571337
0.85792919921875,-0.21520458984375,0.4304291992187499,0.9836792271376054,-5.87255859375,1.30322265625,5.02392578125,45.7535294117647,310.84992356571337
0.76759716796875,-0.04479443359375,0.5041596679687499,0.9194503381700344,-6.50634765625,-0.4658203125,4.998046875,45.7535294117647,310.83916925674976
0.63136669921875,0.13196337890625,0.6140229492187499,0.8905405237393891,-6.93017578125,-0.65478515625,5.20458984375,46.224117647058826,310.83916925674976
0.57228466796875,0.29993212890625,0.7595307617187499,0.9971740074527624,-6.53564453125,-0.07177734375,5.2578125,45.94176470588236,310.83916925674976
0.63820263671875,0.40442431640625,0.8894135742187499,1.1670124846033134,-5.650390625,0.92578125,5.1787109375,46.03588235294118,310.83916925674976
0.76124951171875,0.35999072265625,0.98121044921875,1.2930073801593962,-4.595703125,2.2578125,4.2373046875,46.27117647058824,310.83916925674976
0.93996044921875,0.23401416015625,1.02173779296875,1.4079191705598024,-3.4990234375,3.7890625,2.70556640625,46.08294117647059,310.7607125807337
1.12257763671875,0.06165087890625,0.97925732421875,1.4909481172619767,-2.220703125,4.46875,1.07666015625,46.08294117647059,310.7607125807337
1.13917919921875,-0.10192333984375,0.92066357421875,1.4682435193219212,-1.09912109375,3.54052734375,-0.056640625,46.64764705882353,310.7607125807337
1.04494091796875,-0.23034130859375,0.8669526367187499,1.3771584929860643,-0.15185546875,1.37060546875,-0.63037109375,45.94176470588236,310.7607125807337
0.89162060546875,-0.33288037109375,0.8147065429687499,1.2528141908168444,0.41015625,-1.04296875,-0.90234375,46.224117647058826,310.98374145488833
0.71486279296875,-0.34948193359375,0.8151948242187499,1.1391703279635346,0.29931640625,-2.5009765625,-0.8583984375,46.224117647058826,310.98374145488833
0.60060498046875,-0.30065380859375,0.8523041992187499,1.0851458442033075,-0.2705078125,-2.65576171875,-0.978515625,46.27117647058824,310.98374145488833
0.54445263671875,-0.18004833984375,0.8840424804687499,1.0537443644375184,-1.00048828125,-1.734375,-1.43701171875,46.08294117647059,310.98374145488833
0.58497998046875,-0.11168896484375,0.93140576171875,1.1055282426876178,-2.021484375,-0.28369140625,-2.21826171875,46.03588235294118,310.98374145488833
0.64162060546875,-0.12926708984375,0.96851513671875,1.1689347937041212,-3.22900390625,0.4853515625,-3.1220703125,46.03588235294118,311.0514457788792
0.68654248046875,-0.20006787109375,0.99097607421875,1.2220479983233778,-4.3857421875,0.71337890625,-3.591796875,46.03588235294118,311.0514457788792
0.68996044921875,-0.24254833984375,1.04664013671875,1.2768440368493492,-5.51318359375,0.75732421875,-3.5810546875,46.03588235294118,311.0514457788792
0.66945263671875,-0.24450146484375,1.07349560546875,1.2885420497916025,-6.03173828125,0.98876953125,-3.38427734375,46.13,311.0514457788792
0.65236279296875,-0.22252880859375,1.05933544921875,1.263838549133406,-6.20849609375,1.38818359375,-3.27783203125,46.27117647058824,311.03910209249767
0.58497998046875,-0.16198193359375,1.01929638671875,1.186340949448298,-5.994140625,2.396484375,-2.9658203125,45.65941176470588,311.03910209249767
0.56886669921875,-0.09313427734375,0.95581982421875,1.1161876416919962,-5.68701171875,3.10693359375,-2.7470703125,46.03588235294118,311.03910209249767
0.54933544921875,-0.01354443359375,0.8962495117187499,1.051292573314317,-5.45263671875,3.6826171875,-2.65185546875,46.03588235294118,311.03910209249767
0.57619091796875,0.04651416015625,0.8449799804687499,1.023792317043687,-5.00537109375,4.17626953125,-2.6533203125,46.08294117647059,311.03910209249767
0.64699169921875,0.06702197265625,0.7639252929687499,1.0033304824005354,-4.60791015625,4.2314453125,-2.90625,45.7535294117647,311.03910209249767
0.68312451171875,0.07190478515625,0.7033784179687499,0.9831432222741344,-4.427734375,3.8212890625,-3.17578125,46.03588235294118,311.03910209249767
0.66456982421875,0.08460009765625,0.6755463867187499,0.951405879945224,-4.2744140625,3.22509765625,-3.279296875,45.94176470588236,311.03910209249767
0.64162060546875,0.10022509765625,0.6296479492187499,0.9045322611812514,-4.123046875,2.74853515625,-3.35107421875,46.27117647058824,311.03910209249767
0.65089794921875,0.09583056640625,0.5959565429687499,0.8877025621581704,-4.0966796875,1.9794921875,-3.63720703125,46.03588235294118,311.1175610381374
0.69044873046875,0.04553759765625,0.5808198242187499,0.9034073225360256,-4.2978515625,1.5595703125,-4.27734375,46.224117647058826,311.1175610381374
0.69679638671875,-0.01647412109375,0.5778901367187499,0.9054024582068092,-4.4541015625,1.59228515625,-4.97119140625,46.08294117647059,311.1175610381374
0.63039013671875,-0.09655224609375,0.5793549804687499,0.8616067862383502,-4.1826171875,1.94775390625,-5.29150390625,46.03588235294118,311.1175610381374
0.53078076171875,-0.20250927734375,0.5642182617187499,0.8006750097748475,-3.79443359375,2.03564453125,-5.13330078125,46.03588235294118,311.1175610381374
0.44581982421875,-0.28405224609375,0.5559174804687499,0.7671279158445901,-3.38623046875,1.91552734375,-4.8720703125,46.64764705882353,311.10680676583127
0.41994091796875,-0.33971630859375,0.5622651367187499,0.7796791833044889,-2.98876953125,1.7880859375,-4.18994140625,46.27117647058824,311.10680676583127
0.49806591796875,-0.39586865234375,0.5671479492187499,0.8523135836378205,-2.646484375,1.921875,-3.88623046875,46.03588235294118,311.10680676583127
0.61574169921875,-0.42370068359375,0.5588471679687499,0.9332578778565424,-2.38037109375,2.24169921875,-3.912109375,46.08294117647059,311.10680676583127
0.68800732421875,-0.42956005859375,0.5407807617187499,0.9748434512078448,-2.14892578125,2.6005859375,-4.0322265625,45.94176470588236,311.006839238907
0.65626904296875,-0.40856396484375,0.5363862304687499,0.9409164460059346,-1.98291015625,2.611328125,-3.779296875,46.03588235294118,311.006839238907
0.59474560546875,-0.37682568359375,0.5363862304687499,0.8851158790106309,-1.7763671875,2.36572265625,-3.29443359375,46.03588235294118,311.006839238907
0.54982373046875,-0.32604443359375,0.5398041992187499,0.83665983575061,-1.61083984375,2.2783203125,-2.8857421875,46.13,311.006839238907
0.47072216796875,-0.25622021484375,0.5544526367187499,0.7711328577334463,-1.455078125,2.46533203125,-2.51318359375,45.94176470588236,311.006839238907
0.39406201171875,-0.19127880859375,0.5793549804687499,0.7263089184987461,-1.16259765625,2.90380859375,-1.97900390625,46.08294117647059,310.99290699078034
0.37208935546875,-0.15123974609375,0.5925385742187499,0.7158393054232498,-0.80517578125,3.38916015625,-1.47412109375,46.13,310.99290699078034
0.37257763671875,-0.12584912109375,0.5998627929687499,0.7172778172028377,-0.54345703125,3.923828125,-1.244140625,46.03588235294118,310.99290699078034
0.38087841796875,-0.10485302734375,0.5964448242187499,0.7154082435608793,-0.34130859375,4.4375,-1.2783203125,46.13,310.99290699078034
0.41505810546875,-0.09508740234375,0.6047456054687499,0.7396161790642192,0.0732421875,4.7998046875,-1.39404296875,46.13,311.239037896486
0.45021435546875,-0.09166943359375,0.6052338867187499,0.7598712447238845,0.5498046875,4.76806640625,-1.55078125,45.7535294117647,311.239037896486
0.46681591796875,-0.07799755859375,0.6115815429687499,0.7733257425662416,0.95703125,4.44287109375,-1.76806640625,46.03588235294118,311.239037896486
0.45753857421875,-0.05504833984375,0.5993745117187499,0.7560566591967625,1.2587890625,4.1044921875,-2.04833984375,46.03588235294118,311.239037896486
0.42384716796875,-0.02282177734375,0.6027924804687499,0.7372421785451004,1.47509765625,3.8017578125,-2.21337890625,46.03588235294118,311.239037896486
0.38820263671875,-0.00426708984375,0.6159760742187499,0.7281112684343426,1.51318359375,3.66015625,-2.177734375,45.89470588235295,311.2621365830788
0.41505810546875,-0.00231396484375,0.6286713867187499,0.7533301386692837,1.427734375,3.8125,-2.220703125,46.224117647058826,311.2621365830788
0.45363232421875,-0.01061474609375,0.6472260742187499,0.7904407312122488,1.30615234375,4.22705078125,-2.50830078125,46.08294117647059,311.2621365830788
0.44630810546875,-0.02623974609375,0.6482026367187499,0.7874300651685259,1.2734375,4.72705078125,-2.9619140625,45.7535294117647,311.2621365830788
0.39455029296875,-0.05553662109375,0.6345307617187499,0.7492553219908512,1.23583984375,4.9384765625,-3.36083984375,46.03588235294118,311.44056756389455
0.34865185546875,-0.08434521484375,0.6457612304687499,0.7387014270768363,1.2158203125,4.69873046875,-3.51171875,45.89470588235295,311.44056756389455
0.32619091796875,-0.09899365234375,0.6496674804687499,0.7336675632384633,1.25341796875,4.58984375,-3.4140625,45.94176470588236,311.44056756389455
0.33351513671875,-0.10582958984375,0.6755463867187499,0.7607858891408158,1.3046875,4.63671875,-3.26123046875,45.89470588235295,311.44056756389455
0.34328076171875,-0.10485302734375,0.6897065429687499,0.7775158867336786,1.322265625,4.62646484375,-3.1787109375,46.08294117647059,311.44056756389455
0.35744091796875,-0.09313427734375,0.7185151367187499,0.8078997494421254,1.318359375,4.40087890625,-3.22998046875,45.89470588235295,311.2175293084868
0.35792919921875,-0.09459912109375,0.7478120117187499,0.834437001957565,1.3408203125,4.0283203125,-3.30029296875,46.27117647058824,311.2175293084868
0.33253857421875,-0.08873974609375,0.7839448242187499,0.85616945361277,1.35888671875,3.73193359375,-3.22998046875,46.08294117647059,311.2175293084868
0.29787060546875,-0.08239208984375,0.8195893554687499,0.8759235501279898,1.45556640625,3.69677734375,-2.9130859375,46.64764705882353,311.2175293084868
0.23830029296875,-0.06920849609375,0.8542573242187499,0.8895686716279576,1.54833984375,3.93798828125,-2.66259765625,46.03588235294118,311.1621679423622
0.13624951171875,-0.04821240234375,0.8698823242187499,0.8818070215027594,1.64990234375,4.52294921875,-2.5341796875,46.224117647058826,311.1621679423622
0.09865185546875,-0.03698193359375,0.8664643554687499,0.8728461097453754,1.73486328125,4.93896484375,-2.1923828125,46.224117647058826,311.1621679423622
0.18703076171875,-0.05260693359375,0.8493745117187499,0.8713122611605427,1.77197265625,4.4404296875,-1.869140625,46.03588235294118,311.1621679423622
0.27199169921875,-0.06530224609375,0.8342377929687499,0.879884403206559,1.76416015625,3.58642578125,-1.84814453125,46.13,311.1621679423622
0.25636669921875,-0.06920849609375,0.8288666992187499,0.8703641223497561,1.7373046875,3.23193359375,-1.98046875,46.13,311.2175293084868
0.20656201171875,-0.06188427734375,0.8317963867187499,0.8592920094042673,1.66748046875,3.26416015625,-2.0947265625,46.08294117647059,311.2175293084868
0.15578076171875,-0.04821240234375,0.8635346679687499,0.8787970210721749,1.61767578125,3.40283203125,-2.26025390625,46.08294117647059,311.2175293084868
0.13087841796875,-0.03307568359375,0.8718354492187499,0.8822245811864778,1.58349609375,3.61474609375,-2.52490234375,45.94176470588236,311.2175293084868
0.11281201171875,-0.02038037109375,0.8635346679687499,0.8711108036856444,1.4951171875,3.96044921875,-2.8671875,45.7535294117647,311.44973098587343
0.12257763671875,0.0006157226562499,0.8728120117187499,0.8813775944159656,1.10400390625,4.10009765625,-3.078125,46.03588235294118,311.44973098587343
0.14992138671875,0.0221000976562499,0.8806245117187499,0.8935683337898537,0.9619140625,3.986328125,-3.18701171875,46.224117647058826,311.44973098587343
0.14650341796875,0.04163134765625,0.8942963867187499,0.9071727773045296,0.89453125,3.927734375,-3.4169921875,46.224117647058826,311.44973098587343
0.12941357421875,0.04456103515625,0.92408154296875,0.9341628643345732,0.88623046875,4.20751953125,-3.78271484375,46.08294117647059,311.44973098587343
0.13722607421875,0.0304008789062499,0.94800732421875,0.9583700202198294,0.98876953125,4.46728515625,-4.16455078125,46.27117647058824,311.3421884258372
0.14357373046875,0.0015922851562499,0.95289013671875,0.9636470121930591,1.0107421875,4.4921875,-4.41943359375,46.03588235294118,311.3421884258372
0.11574169921875,-0.00377880859375,0.96851513671875,0.9754137534327524,1.0244140625,4.048828125,-4.4638671875,46.69470588235294,311.3421884258372
0.06251904296875,-0.00817333984375,0.98462841796875,0.9866451011835882,1.0625,4.0595703125,-4.3349609375,46.03588235294118,311.3421884258372
0.00978466796875,0.0020805664062499,1.02808544921875,1.028134115463128,1.16455078125,4.33203125,-4.04541015625,46.08294117647059,310.9745765073849
-0.02097705078125,0.00501025390625,1.06031201171875,1.0605313298053702,1.3583984375,4.58642578125,-3.64990234375,46.64764705882353,310.9745765073849
-0.04929736328125,0.0196586914062499,1.09009716796875,1.0913883496665058,1.572265625,4.73828125,-3.0986328125,46.69470588235294,310.9745765073849
-0.08884814453125,0.0260063476562499,1.16382763671875,1.1675037862445734,1.73046875,4.97216796875,-2.18408203125,45.94176470588236,310.9745765073849
-0.04441455078125,0.04407275390625,1.31861279296875,1.320096495616449,2.3076171875,4.8427734375,-1.08740234375,46.13,310.9745765073849
0.03908154296875,-0.04235302734375,1.37720654296875,1.3784117700897416,2.88525390625,5.00146484375,-0.40771484375,46.03588235294118,311.35135169699515
0.05812451171875,-0.05358349609375,1.44556591796875,1.4477259661652155,2.94482421875,6.44384765625,0.14501953125,46.08294117647059,311.35135169699515
0.20705029296875,-0.01305615234375,1.48560498046875,1.5000208148309222,3.0341796875,5.9208984375,2.06982421875,45.94176470588236,311.35135169699515
0.63966748046875,-0.00036083984375,1.34742138671875,1.491549197700737,2.8623046875,3.9365234375,3.2080078125,46.08294117647059,311.35135169699515
0.87111279296875,0.08899462890625,1.22046826171875,1.5020986385423445,2.33203125,2.74072265625,2.31787109375,46.08294117647059,311.6512642941069
0.85451123046875,0.18518603515625,1.11744091796875,1.4188578208421565,1.68408203125,3.3251953125,0.34619140625,46.03588235294118,311.6512642941069
0.74318310546875,0.25745166015625,1.00806591796875,1.2785927344317125,0.89306640625,3.98095703125,-1.3720703125,46.224117647058826,311.6512642941069
0.68214794921875,0.29651416015625,0.90992138671875,1.1752461026545398,0.25927734375,3.9755859375,-2.27734375,46.08294117647059,311.6512642941069
0.67872998046875,0.31653369140625,0.8337495117187499,1.1207168297449766,-0.39306640625,3.38037109375,-3.03173828125,46.08294117647059,311.6512642941069
0.61037060546875,0.33655322265625,0.8191010742187499,1.0755216954980062,-0.55224609375,2.876953125,-3.41259765625,45.89470588235295,311.30833475704685
0.48097607421875,0.31262744140625,0.8483979492187499,1.0241352358598348,-0.0576171875,2.22216796875,-3.2802734375,46.08294117647059,311.30833475704685
0.39796826171875,0.25891650390625,0.8532807617187499,0.976475576576193,0.73681640625,1.8818359375,-3.2646484375,46.27117647058824,311.30833475704685
0.31349560546875,0.22083056640625,0.8630463867187499,0.9444017679652096,1.4990234375,1.873046875,-3.3388671875,45.94176470588236,311.30833475704685
0.22853466796875,0.18616259765625,0.8625581054687499,0.9115322772889332,2.1806640625,1.92919921875,-3.42138671875,46.08294117647059,311.5389471681784
0.12550732421875,0.13391650390625,0.8786713867187499,0.89763529581299,2.5888671875,1.69384765625,-3.5166015625,46.08294117647059,311.5389471681784
0.01710888671875,0.07141650390625,0.90650341796875,0.9094731869736308,2.7099609375,1.11328125,-3.341796875,46.03588235294118,311.5389471681784
-0.04148486328125,0.00501025390625,0.92896435546875,0.9299036886996088,2.54541015625,0.5625,-2.93017578125,45.84764705882353,311.5389471681784
-0.04636767578125,-0.04186474609375,0.95972607421875,0.9617571189537318,1.955078125,0.2861328125,-2.51708984375,45.7535294117647,311.5389471681784
-0.02488330078125,-0.04381787109375,0.98951123046875,0.9907934495689492,1.3662109375,0.314453125,-2.0927734375,46.08294117647059,311.2298738211219
0.03224560546875,0.0196586914062499,1.00367138671875,1.0043816484473376,0.44873046875,0.68701171875,-1.81982421875,45.94176470588236,311.2298738211219
0.09425732421875,0.10608447265625,1.00611279296875,1.01607150864642,-0.1455078125,1.30712890625,-2.02587890625,46.03588235294118,311.2298738211219
0.15724560546875,0.15833056640625,0.97193310546875,0.9972204922703332,-0.58349609375,2.21875,-2.7197265625,46.08294117647059,311.2298738211219
0.18507763671875,0.18323291015625,0.92017529296875,0.956321389893508,-0.7685546875,2.91748046875,-3.43310546875,46.03588235294118,311.5512926862716
0.16847607421875,0.17297900390625,0.8440034179687499,0.8778654184551824,-0.74755859375,3.09326171875,-3.55712890625,45.89470588235295,311.5512926862716
0.13820263671875,0.17004931640625,0.7795502929687499,0.8097625566015704,-0.64208984375,2.77099609375,-3.28076171875,45.94176470588236,311.5512926862716
0.12355419921875,0.18274462890625,0.7180268554687499,0.7511483240432683,-0.5322265625,2.2080078125,-2.96240234375,46.03588235294118,311.5512926862716
0.12306591796875,0.21204150390625,0.6911713867187499,0.7333653287162102,-0.37353515625,1.5751953125,-2.72705078125,45.89470588235295,311.5512926862716
0.09425732421875,0.24475634765625,0.6877534179687499,0.736067168684084,-0.21484375,0.87890625,-2.5693359375,46.08294117647059,311.60824733802383
0.05910107421875,0.27161181640625,0.7014252929687499,0.7544954323265378,-0.0517578125,0.36669921875,-2.4130859375,45.89470588235295,311.60824733802383
0.03517529296875,0.27991259765625,0.7316987304687499,0.7842011194404707,0.04345703125,-0.0908203125,-2.35546875,46.03588235294118,311.60824733802383
0.00880810546875,0.27991259765625,0.7692963867187499,0.8186852726580237,0.13134765625,-0.17822265625,-2.40673828125,46.13,311.60824733802383
-0.02341845703125,0.27063525390625,0.8137299804687499,0.8578743182426531,0.22607421875,-0.15185546875,-2.43603515625,46.03588235294118,311.5281928633568
-0.05906298828125,0.24915087890625,0.8449799804687499,0.8829245519507524,0.30615234375,-0.0966796875,-2.30810546875,45.94176470588236,311.5281928633568
-0.09128955078125,0.22766650390625,0.8791596679687499,0.91273629316778,0.33056640625,0.123046875,-1.9296875,46.08294117647059,311.5281928633568
-0.09275439453125,0.21545947265625,0.90210888671875,0.9321086876320328,0.44921875,0.669921875,-1.6220703125,45.84764705882353,311.5281928633568
-0.05906298828125,0.20667041015625,0.8825776367187499,0.9083745812465898,0.55078125,1.3994140625,-1.4267578125,46.08294117647059,311.5281928633568
-0.03660205078125,0.20911181640625,0.8459565429687499,0.8721868690101638,0.44091796875,1.71630859375,-1.5009765625,46.03588235294118,311.442158913077
-0.13474658203125,0.24866259765625,0.8479096679687499,0.8938347352151483,-0.140625,0.7138671875,-1.29248046875,46.03588235294118,311.442158913077
-0.12693408203125,0.25208056640625,0.8581635742187499,0.9033834143134972,-0.1865234375,0.681640625,-1.2158203125,46.08294117647059,311.442158913077
-0.10789111328125,0.24963916015625,0.8630463867187499,0.9048808033309556,-0.24560546875,0.70703125,-1.1796875,45.94176470588236,311.442158913077
-0.09373095703125,0.26184619140625,0.8742768554687499,0.9174469686408464,-0.28076171875,0.744140625,-1.154296875,46.224117647058826,311.442158913077
-0.07761767578125,0.27307666015625,0.91724560546875,0.9601743938824387,-0.36181640625,0.99560546875,-1.2109375,46.03588235294118,311.3621059658874
-0.09080126953125,0.28967822265625,0.95972607421875,1.0065944966892597,-0.3896484375,1.2236328125,-1.41748046875,46.08294117647059,311.3621059658874
-0.12791064453125,0.29846728515625,0.98316357421875,1.0354006311392363,-0.4130859375,1.54931640625,-1.42724609375,45.89470588235295,311.3621059658874
-0.13084033203125,0.30237353515625,1.00415966796875,1.056828077798866,-0.451171875,1.8857421875,-1.18701171875,46.03588235294118,311.3621059658874
-0.10398486328125,0.30774462890625,1.00269482421875,1.0540002461704343,-0.38525390625,2.11572265625,-1.123046875,46.03588235294118,311.4911582505154
-0.09421923828125,0.30530322265625,1.00318310546875,1.0528360108414396,-0.287109375,2.08349609375,-1.15673828125,46.08294117647059,311.4911582505154
-0.09128955078125,0.28772509765625,0.98218701171875,1.0275265640810212,-0.1640625,1.87109375,-1.20556640625,46.03588235294118,311.4911582505154
-0.07224658203125,0.28918994140625,0.96607373046875,1.0110137701968036,-0.13427734375,1.43359375,-1.35888671875,46.08294117647059,311.4911582505154
-0.06296923828125,0.30188525390625,0.96314404296875,1.0113091906049063,-0.197265625,0.923828125,-1.671875,45.94176470588236,311.4911582505154
-0.07371142578125,0.30090869140625,0.98169873046875,1.0294230482452205,-0.283203125,0.69677734375,-2.09765625,45.84764705882353,311.4357962410948
-0.09666064453125,0.28479541015625,1.01783154296875,1.0613353643921464,-0.3583984375,0.841796875,-2.47265625,45.7535294117647,311.4357962410948
-0.12693408203125,0.25598681640625,1.04468701171875,1.0830569993351111,-0.404296875,1.0478515625,-2.72802734375,46.224117647058826,311.4357962410948
-0.18503955078125,0.23938525390625,1.08130810546875,1.1228411081241656,-0.42236328125,1.0087890625,-2.5283203125,46.08294117647059,311.4357962410948
-0.24656298828125,0.21008837890625,0.97828076171875,1.0305162215562904,-0.46240234375,0.9501953125,-1.98291015625,46.08294117647059,311.2159394768255
-0.25974658203125,0.18079150390625,1.22437451171875,1.2646133004630815,-0.474609375,0.853515625,-1.0869140625,46.08294117647059,311.2159394768255
-0.22459033203125,0.14710009765625,1.38843701171875,1.414155787557679,-0.20166015625,0.82373046875,-0.11572265625,46.08294117647059,311.2159394768255
-0.13621142578125,0.15393603515625,1.48462841796875,1.4987899769058308,0.30419921875,1.3642578125,1.0703125,46.224117647058826,311.2159394768255
-0.03611376953125,0.18665087890625,1.49195263671875,1.5040164311463695,0.462890625,2.14697265625,1.44091796875,45.94176470588236,311.2159394768255
0.05275341796875,0.20667041015625,1.42994091796875,1.4457616022093165,0.23583984375,2.7666015625,0.8818359375,46.03588235294118,311.17133260314364
0.20997998046875,0.18079150390625,1.30005810546875,1.329258529285156,-0.07373046875,3.53369140625,-0.41796875,46.224117647058826,311.17133260314364
0.32521435546875,0.12903369140625,1.12427685546875,1.1774601981653472,-0.1650390625,4.0283203125,-2.27734375,46.03588235294118,311.17133260314364
0.32228466796875,0.06555712890625,0.92505810546875,0.9817828898751448,-0.1865234375,4.00732421875,-3.85693359375,46.08294117647059,311.17133260314364
0.28956982421875,0.0274711914062499,0.7483002929687499,0.8028441180655641,-0.10986328125,3.17529296875,-4.46484375,45.84764705882353,311.2728908641853
0.24122998046875,0.03723681640625,0.6149995117187499,0.6616667464723667,0.0439453125,1.87255859375,-4.48388671875,46.03588235294118,311.2728908641853
0.11818310546875,0.07092822265625,0.5651948242187499,0.5817587545633292,0.04931640625,-0.6787109375,-3.84521484375,46.08294117647059,311.2728908641853
-0.0019340820312499,0.11438525390625,0.6272065429687499,0.6375545267091366,0.1689453125,-3.14794921875,-2.2138671875,46.88294117647059,311.2728908641853
-0.0024223632812499,0.16418994140625,0.7448823242187499,0.7627672525983146,0.4228515625,-4.1943359375,-1.10009765625,46.08294117647059,311.2728908641853
0.01027294921875,0.22278369140625,0.8728120117187499,0.9008545467736604,0.7744140625,-3.4697265625,-1.314453125,46.03588235294118,311.34059744166007
-0.01414111328125,0.25305712890625,0.95972607421875,0.9926288425743234,1.123046875,-1.80419921875,-1.94970703125,45.84764705882353,311.34059744166007
-0.06394580078125,0.24377978515625,0.99732373046875,1.028675008175316,1.30712890625,-0.26513671875,-2.4912109375,46.08294117647059,311.34059744166007
-0.06882861328125,0.24524462890625,0.98169873046875,1.0142064402366706,1.306640625,0.86962890625,-2.75732421875,46.83588235294118,311.34059744166007
0.00685498046875,0.25012744140625,0.93970654296875,0.9724500576378938,1.16455078125,0.90234375,-3.46435546875,45.94176470588236,311.4943389829006
0.07814404296875,0.25793994140625,0.8933198242187499,0.9330915352559896,0.92626953125,-0.01220703125,-4.04150390625,45.94176470588236,311.4943389829006
0.10939404296875,0.25696337890625,0.8996674804687499,0.9420184765432972,0.64306640625,-1.57861328125,-4.36767578125,46.08294117647059,311.4943389829006
0.12599560546875,0.23254931640625,0.94605419921875,0.9823302016215736,0.46337890625,-2.76171875,-4.72802734375,45.84764705882353,311.4943389829006
0.12746044921875,0.20813525390625,1.03687451171875,1.0652113419813278,0.3994140625,-3.35498046875,-5.240234375,45.94176470588236,311.4943389829006
0.10646435546875,0.18567431640625,1.12037060546875,1.1406313621660236,0.60595703125,-3.03759765625,-5.57470703125,46.13,311.3605155565564
0.07863232421875,0.16321337890625,1.14185498046875,1.1561377279058611,0.8955078125,-2.0947265625,-5.6318359375,46.03588235294118,311.3605155565564
0.05763623046875,0.15979541015625,1.08863232421875,1.101806174199241,1.13623046875,-0.8310546875,-5.720703125,46.224117647058826,311.3605155565564
0.03078076171875,0.16565478515625,0.99781201171875,1.0119376333882284,1.25390625,-0.14111328125,-5.9697265625,46.224117647058826,311.3605155565564
0.00441357421875,0.16809619140625,0.90845654296875,0.9238880341607436,1.3408203125,-0.08203125,-6.17041015625,46.08294117647059,311.34059744166007
-0.02390673828125,0.15784228515625,0.8689057617187499,0.8834494563169055,1.4638671875,-0.5830078125,-6.3310546875,46.03588235294118,311.34059744166007
-0.04197314453125,0.15295947265625,0.8620698242187499,0.8765402027093029,1.5283203125,-1.14697265625,-6.4921875,46.08294117647059,311.34059744166007
-0.05125048828125,0.15149462890625,0.8899018554687499,0.9041584747726654,1.6201171875,-1.427734375,-6.67236328125,46.03588235294118,311.34059744166007
-0.03074267578125,0.14368212890625,0.92554638671875,0.9371370125277078,1.7734375,-1.4384765625,-6.74462890625,46.08294117647059,311.34059744166007
-0.01365283203125,0.13098681640625,0.95679638671875,0.9658174110735288,1.95166015625,-1.27587890625,-6.90625,46.27117647058824,311.47442154270897
1.904296875000072e-05,0.11975634765625,0.96314404296875,0.970560678511544,2.0234375,-1.12109375,-7.17578125,45.89470588235295,311.47442154270897
-0.02488330078125,0.09436572265625,0.95923779296875,0.9641894065637544,1.94482421875,-1.2265625,-7.2998046875,46.224117647058826,311.47442154270897
-0.07322314453125,0.08655322265625,0.96265576171875,0.9693086220691184,1.81103515625,-1.27734375,-7.16748046875,45.94176470588236,311.47442154270897
-0.19675830078125,0.08069384765625,0.97535107421875,0.99826601863209,1.70263671875,-1.03173828125,-7.1181640625,46.03588235294118,311.3867964839601
-0.03367236328125,0.06555712890625,0.98072216796875,0.983487435580496,1.65771484375,-0.609375,-7.25146484375,45.84764705882353,311.3867964839601
-0.01023486328125,0.03967822265625,0.97144482421875,0.9723086754117454,1.70361328125,-0.29736328125,-7.8056640625,45.94176470588236,311.3867964839601
-0.0053520507812499,0.0172172851562499,0.95728466796875,0.9574544453308242,1.78271484375,-0.33203125,-8.158203125,46.224117647058826,311.3867964839601
-0.04587939453125,-0.00817333984375,0.94214794921875,0.943299782966079,1.86669921875,-0.71875,-8.1494140625,46.08294117647059,311.3867964839601
-0.09959033203125,-0.02233349609375,0.95093701171875,0.9563985673025917,1.91162109375,-1.1025390625,-7.7744140625,46.08294117647059,311.39914226344666
-0.11960986328125,-0.01549755859375,0.95874951171875,0.9663060177487602,2.0166015625,-1.22607421875,-7.39404296875,45.94176470588236,311.39914226344666
-0.11814501953125,-0.00524365234375,0.95630810546875,0.9635927221161288,2.1513671875,-1.166015625,-7.0947265625,46.03588235294118,311.39914226344666
-0.09470751953125,0.0167290039062499,0.96753857421875,0.9723066730351636,2.2763671875,-1.1650390625,-6.8984375,46.13,311.39914226344666
-0.08787158203125,0.03821337890625,0.97632763671875,0.98101851739757,2.40625,-1.38232421875,-6.82177734375,45.94176470588236,311.4190590912296
-0.10056689453125,0.05139697265625,0.98658154296875,0.9930249191236272,2.490234375,-1.51904296875,-6.716796875,46.27117647058824,311.4190590912296
-0.07761767578125,0.06555712890625,1.02173779296875,1.026776683765641,2.5458984375,-1.2763671875,-6.82421875,46.08294117647059,311.4190590912296
-0.05662158203125,0.07874072265625,1.02027294921875,1.0248721851351397,2.62158203125,-0.830078125,-7.2021484375,45.7535294117647,311.4190590912296
-0.06785205078125,0.06702197265625,1.01099560546875,1.0154841012497835,2.65283203125,-0.4423828125,-7.36767578125,46.08294117647059,311.4190590912296
-0.07029345703125,0.0284477539062499,0.97095654296875,0.9739132677695383,2.5419921875,-0.35693359375,-7.212890625,46.224117647058826,311.27448130228345
-0.07127001953125,0.01038134765625,0.93531201171875,0.9380808852804324,2.40576171875,-0.63623046875,-6.98095703125,45.94176470588236,311.27448130228345
-0.09910205078125,-0.00280224609375,0.90210888671875,0.9075403641431944,2.2744140625,-1.1083984375,-6.75146484375,45.84764705882353,311.27448130228345
-0.12302783203125,-0.00866162109375,0.8723237304687499,0.8809991838096092,2.08544921875,-1.525390625,-6.52099609375,46.27117647058824,311.27448130228345
-0.11472705078125,-0.00036083984375,0.8474213867187499,0.8551522864698927,1.7646484375,-1.896484375,-6.431640625,46.03588235294118,311.47442154270897
-0.13230517578125,0.00452197265625,0.8293549804687499,0.8398540298191894,1.50048828125,-2.083984375,-6.35546875,46.03588235294118,311.47442154270897
-0.20164111328125,0.0191704101562499,0.8737885742187499,0.8969577000205174,1.1328125,-2.2822265625,-6.3408203125,45.94176470588236,311.47442154270897
-0.29294970703125,0.05042041015625,1.02124951171875,1.0636316626519753,0.72802734375,-2.7314453125,-6.2861328125,46.224117647058826,311.47442154270897
-0.29880908203125,0.09045947265625,1.30884716796875,1.3455670525088754,0.513671875,-3.44384765625,-6.4443359375,46.08294117647059,311.47442154270897
-0.17478564453125,0.15833056640625,1.49488232421875,1.5133709898945404,0.6201171875,-3.01708984375,-6.80224609375,45.84764705882353,311.44056756389455
0.01076123046875,0.31067431640625,1.42994091796875,1.4633404811721038,0.2802734375,-0.3857421875,-6.640625,45.89470588235295,311.44056756389455
0.21535107421875,0.56018603515625,1.30640576171875,1.4376649447639729,-0.0283203125,0.91552734375,-4.72216796875,45.94176470588236,311.44056756389455
0.37550732421875,0.62219775390625,1.13404248046875,1.3469180164418408,-0.1953125,-0.94580078125,-3.4619140625,45.84764705882353,311.44056756389455
0.29396435546875,0.54260791015625,0.99634716796875,1.171983816257562,-0.2138671875,-2.267578125,-4.1328125,46.03588235294118,311.48517577971535
0.10011669921875,0.43176806640625,0.95435498046875,1.0522549336430584,0.09033203125,-2.55859375,-5.08837890625,46.08294117647059,311.48517577971535
0.06740185546875,0.32629931640625,0.95240185546875,1.009001262788176,0.63037109375,-3.5634765625,-4.65234375,46.03588235294118,311.48517577971535
0.04054638671875,0.24622119140625,0.99244091796875,1.0233317449547408,1.2841796875,-4.83056640625,-4.080078125,46.03588235294118,311.48517577971535
-0.08250048828125,0.22327197265625,0.98121044921875,1.009668584237679,1.513671875,-5.18896484375,-3.85791015625,46.08294117647059,311.48517577971535
-0.12205126953125,0.24133837890625,1.19996044921875,1.2300592689852594,1.595703125,-3.95068359375,-3.88037109375,46.13,311.7436677260465
-0.04099658203125,0.28186572265625,1.20191357421875,1.2352025118328032,1.6015625,-1.69775390625,-4.2568359375,46.13,311.7436677260465
0.04054638671875,0.28284228515625,1.10718701171875,1.143462656437477,1.685546875,0.22119140625,-4.36572265625,46.08294117647059,311.7436677260465
0.06789013671875,0.25696337890625,0.95044873046875,0.9869103495314384,1.64453125,0.8486328125,-4.36572265625,46.03588235294118,311.7436677260465
0.04445263671875,0.22571337890625,0.8088471679687499,0.8409258632362265,1.39404296875,0.20263671875,-4.20458984375,46.224117647058826,311.49752153179736
0.05324169921875,0.19739306640625,0.6999604492187499,0.7292073310598819,0.95361328125,-1.111328125,-4.09912109375,46.224117647058826,311.49752153179736
0.07960888671875,0.21155322265625,0.6496674804687499,0.6878663940326327,0.41259765625,-2.4169921875,-4.20947265625,46.08294117647059,311.49752153179736
0.08595654296875,0.21985400390625,0.6687104492187499,0.7091529984475072,-0.16845703125,-3.41015625,-4.32080078125,46.03588235294118,311.49752153179736
0.06593701171875,0.23743212890625,0.7346284179687499,0.7748552237925618,-0.646484375,-3.93994140625,-4.3876953125,46.08294117647059,311.49752153179736
0.04835888671875,0.26233447265625,0.8254487304687499,0.8674811606605533,-0.9267578125,-3.95458984375,-4.30419921875,46.08294117647059,311.6190015567064
0.03419873046875,0.27991259765625,0.8903901367187499,0.9339781641228976,-0.849609375,-3.6259765625,-4.06396484375,46.224117647058826,311.6190015567064
0.02687451171875,0.28528369140625,0.93482373046875,0.9777547908397112,-0.50439453125,-3.18701171875,-3.728515625,46.27117647058824,311.6190015567064
0.00929638671875,0.29114306640625,0.94214794921875,0.9861508333614868,-0.0009765625,-2.57421875,-3.2861328125,46.03588235294118,311.6190015567064
0.00197216796875,0.30530322265625,0.93482373046875,0.9834171822061574,0.43212890625,-1.8193359375,-2.8330078125,45.89470588235295,311.4190590912296
0.03908154296875,0.32483447265625,0.91431591796875,0.9710913445591616,0.82373046875,-1.2900390625,-2.51220703125,46.224117647058826,311.4190590912296
0.08693310546875,0.34973681640625,0.8928315429687499,0.9628194896741435,1.04638671875,-1.21875,-2.36474609375,45.94176470588236,311.4190590912296
0.11134716796875,0.37170947265625,0.8918549804687499,0.972610626131528,1.21337890625,-1.5126953125,-2.4150390625,46.08294117647059,311.4190590912296
0.09035107421875,0.37317431640625,0.92408154296875,1.000674315196138,1.2587890625,-1.88232421875,-2.5146484375,46.03588235294118,311.4190590912296
0.05714794921875,0.37024462890625,0.95874951171875,1.0293432855732711,1.296875,-2.0166015625,-2.537109375,45.61235294117647,311.3314342444319
0.06056591796875,0.35608447265625,0.98706982421875,1.051080976884993,1.279296875,-2.04541015625,-2.44873046875,45.94176470588236,311.3314342444319
0.07912060546875,0.33557666015625,0.99976513671875,1.0575453151754894,1.21826171875,-1.9482421875,-2.51806640625,45.7535294117647,311.3314342444319
0.07619091796875,0.30432666015625,1.01490185546875,1.0622831770750631,1.056640625,-1.6962890625,-2.65234375,46.224117647058826,311.3314342444319
0.06886669921875,0.28626025390625,1.00513623046875,1.0473711839785764,0.77392578125,-1.4248046875,-2.6650390625,46.08294117647059,311.24062806154217
0.07960888671875,0.27551806640625,0.99390576171875,1.0344546596823692,0.42138671875,-1.43115234375,-2.548828125,45.70647058823529,311.24062806154217
0.08156201171875,0.27014697265625,0.97925732421875,1.0191058117914018,0.1083984375,-1.6474609375,-2.41650390625,46.03588235294118,311.24062806154217
0.08205029296875,0.27307666015625,0.97828076171875,1.0189879104520168,-0.158203125,-1.85205078125,-2.3310546875,46.08294117647059,311.24062806154217
0.07179638671875,0.28088916015625,0.96705029296875,1.0095740243142632,-0.3193359375,-1.88037109375,-2.31640625,46.224117647058826,311.24062806154217
0.04054638671875,0.29016650390625,0.97535107421875,1.0184057774015187,-0.3857421875,-1.97998046875,-2.2900390625,46.13,311.30833475704685
0.01466748046875,0.28918994140625,0.98169873046875,1.023512752533063,-0.3154296875,-1.73095703125,-2.1728515625,46.03588235294118,311.30833475704685
0.00490185546875,0.28772509765625,0.98511669921875,1.0262868366533695,-0.17431640625,-1.38818359375,-1.97119140625,45.89470588235295,311.30833475704685
0.00539013671875,0.28577197265625,0.97535107421875,1.016368236373688,-0.01708984375,-1.02001953125,-1.7861328125,45.89470588235295,311.30833475704685
0.01515576171875,0.27942431640625,0.95874951171875,0.9987533589096544,0.17626953125,-0.751953125,-1.62109375,46.08294117647059,311.4529131093922
0.02003857421875,0.27258837890625,0.94019482421875,0.9791181114958416,0.3134765625,-0.697265625,-1.5048828125,45.89470588235295,311.4529131093922
0.01857373046875,0.25598681640625,0.92359326171875,0.9585920648167352,0.38037109375,-0.77197265625,-1.34765625,46.03588235294118,311.4529131093922
0.00734326171875,0.24133837890625,0.92652294921875,0.9574669247837112,0.37744140625,-0.95361328125,-1.14501953125,46.788823529411765,311.4529131093922
0.01417919921875,0.22766650390625,0.93531201171875,0.9627261531488353,0.33349609375,-1.11181640625,-0.892578125,46.03588235294118,311.4529131093922
0.03517529296875,0.23450244140625,0.94751904296875,0.9767400027895576,0.22900390625,-1.09130859375,-0.7333984375,46.03588235294118,311.32227163560697
0.04689404296875,0.24085009765625,1.09986279296875,1.1269010534044237,0.05712890625,-0.91455078125,-0.6572265625,45.84764705882353,311.32227163560697
0.04982373046875,0.24475634765625,0.98999951171875,1.0210225791035246,-0.0732421875,-0.7490234375,-0.58251953125,46.08294117647059,311.32227163560697
0.04787060546875,0.24475634765625,0.99585888671875,1.0266119943010017,-0.24951171875,-0.369140625,-0.625,45.94176470588236,311.32227163560697
0.04640576171875,0.25354541015625,0.98511669921875,1.0182797654925897,-0.37939453125,0.00390625,-0.4638671875,46.08294117647059,311.3421884258372
0.03175732421875,0.26770556640625,0.98072216796875,1.017099193132976,-0.44580078125,0.32666015625,-0.41455078125,46.08294117647059,311.3421884258372
0.01320263671875,0.26819384765625,0.97583935546875,1.0121090342540453,-0.5390625,0.2705078125,-0.2431640625,46.08294117647059,311.3421884258372
0.02882763671875,0.26135791015625,0.97046826171875,1.0054589185259846,-0.5537109375,0.04541015625,-0.06396484375,45.89470588235295,311.3421884258372
0.04787060546875,0.26086962890625,0.97535107421875,1.0107691507625758,-0.5537109375,-0.13427734375,0.0078125,46.27117647058824,311.3421884258372
0.04103466796875,0.27210009765625,0.99781201171875,1.0350609247044664,-0.49853515625,-0.11865234375,0.0,46.08294117647059,311.4776052413078
0.02150341796875,0.27210009765625,1.01636669921875,1.052379269754824,-0.40185546875,0.14697265625,0.3876953125,46.08294117647059,311.4776052413078
0.01515576171875,0.26965869140625,1.02613232421875,1.061081077849747,-0.29296875,0.48486328125,0.689453125,46.03588235294118,311.4776052413078
0.02101513671875,0.26575244140625,1.01978466796875,1.054052543808336,-0.17236328125,0.77880859375,0.89599609375,46.08294117647059,311.4776052413078
0.02687451171875,0.25842822265625,1.01587841796875,1.048578249698171,-0.17578125,0.93408203125,1.02001953125,46.27117647058824,311.1761028224517
0.01759716796875,0.25940478515625,1.02027294921875,1.0528805220869113,-0.19384765625,1.1650390625,1.27783203125,45.61235294117647,311.1761028224517
0.02589794921875,0.25354541015625,1.02515576171875,1.0563618293795876,-0.134765625,1.6064453125,1.4150390625,46.08294117647059,311.1761028224517
0.06447216796875,0.25452197265625,1.02662060546875,1.0596640800652075,-0.08984375,2.154296875,1.31591796875,46.03588235294118,311.1761028224517
0.06349560546875,0.25354541015625,1.01050732421875,1.0437633923571388,-0.07470703125,2.51708984375,1.36572265625,46.03588235294118,311.1761028224517
0.04640576171875,0.23694384765625,0.97730419921875,1.0066873295484788,-0.09326171875,2.296875,1.68798828125,46.224117647058826,311.44375071638984
0.05617138671875,0.23157275390625,0.95777294921875,0.9869702058789892,-0.115234375,1.8330078125,1.89892578125,46.08294117647059,311.44375071638984
0.04884716796875,0.24524462890625,0.95581982421875,0.9879891245330048,-0.103515625,1.4375,1.92138671875,45.89470588235295,311.44375071638984
0.03126904296875,0.26086962890625,0.95240185546875,0.9879777379243844,-0.06982421875,1.2099609375,1.78564453125,46.13,311.44375071638984
0.03371044921875,0.26428759765625,0.94849560546875,0.9852046702360744,-0.14453125,0.9052734375,1.6162109375,46.13,311.3867964839601
0.04298779296875,0.26672900390625,0.95093701171875,0.9885714501874564,-0.232421875,0.48193359375,1.51025390625,46.08294117647059,311.3867964839601
0.04835888671875,0.25598681640625,0.94703076171875,0.982209293246648,-0.3466796875,-0.02099609375,1.3623046875,45.94176470588236,311.3867964839601
0.01320263671875,0.24573291015625,0.97632763671875,1.0068637578992532,-0.40576171875,-0.33740234375,1.2861328125,46.224117647058826,311.3867964839601
-0.01316455078125,0.22961962890625,0.99927685546875,1.0254036830691748,-0.39306640625,-0.265625,1.23974609375,45.84764705882353,311.3867964839601
-0.01804736328125,0.22913134765625,1.02564404296875,1.0510816260773748,-0.37841796875,0.119140625,1.263671875,45.7535294117647,311.2653180341065
0.01027294921875,0.22034228515625,1.02955029296875,1.052915030696005,-0.32373046875,0.51123046875,1.19970703125,45.7535294117647,311.2653180341065
0.02540966796875,0.22131884765625,1.02027294921875,1.0443105737574905,-0.3076171875,0.79833984375,0.99853515625,46.03588235294118,311.2653180341065
0.02394482421875,0.22571337890625,1.01539013671875,1.0404503898648243,-0.34326171875,0.9833984375,0.8447265625,46.08294117647059,311.2653180341065
0.00929638671875,0.22913134765625,0.99976513671875,1.0257279980009586,-0.25146484375,1.09765625,0.8046875,46.03588235294118,311.1868569950616
0.00685498046875,0.24573291015625,0.99634716796875,1.0262257709736369,-0.390625,1.291015625,0.79248046875,45.94176470588236,311.1868569950616
0.01320263671875,0.25256884765625,0.98999951171875,1.0217946788010284,-0.337890625,1.59814453125,0.7314453125,45.89470588235295,311.1868569950616
0.02247998046875,0.24963916015625,0.97290966796875,1.0046781981472757,-0.3349609375,1.87255859375,0.64208984375,46.08294117647059,311.1868569950616
0.02687451171875,0.25110400390625,0.98072216796875,1.0127148813477544,-0.29638671875,2.00146484375,0.59912109375,45.7535294117647,311.1868569950616
0.03078076171875,0.24426806640625,0.96558544921875,0.9964786015268012,-0.21044921875,2.21630859375,0.4833984375,46.08294117647059,311.32227163560697
0.04201123046875,0.23889697265625,0.95044873046875,0.9809125834035762,-0.13134765625,2.06298828125,0.29931640625,46.03588235294118,311.32227163560697
0.03078076171875,0.24182666015625,0.94165966796875,0.9727026879439212,-0.1171875,1.66845703125,0.24951171875,46.03588235294118,311.32227163560697
0.02638623046875,0.23938525390625,0.93091748046875,0.9615658523410632,-0.15234375,1.2099609375,0.12451171875,45.94176470588236,311.32227163560697
0.02296826171875,0.24622119140625,0.93677685546875,0.9688670151707164,-0.19921875,0.94287109375,0.1435546875,45.94176470588236,311.5652305989487
0.03566357421875,0.26184619140625,0.95044873046875,0.9865029689411344,-0.21337890625,0.87109375,0.1396484375,46.224117647058826,311.5652305989487
0.03908154296875,0.26526416015625,0.96314404296875,0.9997694180011748,-0.19921875,0.94921875,0.00341796875,46.13,311.5652305989487
0.04201123046875,0.26331103515625,0.96656201171875,1.0026663289541298,-0.18359375,1.03125,-0.16015625,46.27117647058824,311.5652305989487
0.03029248046875,0.25403369140625,0.97876904296875,1.0116519115863905,-0.16064453125,0.95458984375,-0.29443359375,46.03588235294118,311.5652305989487
0.02003857421875,0.23792041015625,0.97876904296875,1.0074703496875732,-0.1396484375,0.8486328125,-0.37841796875,45.89470588235295,311.4991134874364
0.00294873046875,0.22131884765625,0.97876904296875,1.0034837152705718,-0.1435546875,0.703125,-0.3857421875,45.84764705882353,311.4991134874364
-0.01267626953125,0.20862353515625,0.98169873046875,1.0037015814644683,-0.154296875,0.64111328125,-0.31494140625,46.03588235294118,311.4991134874364
-0.01707080078125,0.19592822265625,0.98121044921875,1.0007263493726,-0.134765625,0.75244140625,-0.22216796875,46.03588235294118,311.4991134874364
-0.0073051757812499,0.19055712890625,0.97339794921875,0.9919016849030232,-0.15380859375,0.79736328125,-0.2265625,45.89470588235295,311.2836451588637
-0.00877001953125,0.18567431640625,0.96705029296875,0.9847528289608778,-0.1484375,0.76123046875,-0.31396484375,46.03588235294118,311.2836451588637
-0.02439501953125,0.18518603515625,0.95435498046875,0.9724620369661378,-0.1689453125,0.6806640625,-0.4755859375,45.84764705882353,311.2836451588637
-0.04294970703125,0.17981494140625,0.96167919921875,0.9792879927258474,-0.25732421875,0.6396484375,-0.52587890625,45.94176470588236,311.2836451588637
-0.05515673828125,0.18762744140625,0.96607373046875,0.9856697090041312,-0.2802734375,0.7470703125,-0.54541015625,46.03588235294118,311.2836451588637
-0.05613330078125,0.18420947265625,0.96509716796875,0.9841222591193604,-0.26708984375,0.93408203125,-0.60791015625,46.03588235294118,311.6205937566448
-0.04978564453125,0.17932666015625,0.96021435546875,0.9780839789570496,-0.29150390625,1.0986328125,-0.68359375,46.27117647058824,311.6205937566448
-0.04539111328125,0.17883837890625,0.96265576171875,0.9801783687192006,-0.275390625,1.197265625,-0.6279296875,46.08294117647059,311.6205937566448
-0.03660205078125,0.17444384765625,0.94800732421875,0.9646181902073504,-0.29052734375,1.18896484375,-0.78515625,46.13,311.6205937566448
-0.03953173828125,0.16565478515625,0.93433544921875,0.9497299604853496,-0.31298828125,1.1357421875,-0.73681640625,46.08294117647059,311.2298738211219
-0.04148486328125,0.17151416015625,0.93384716796875,0.9503728921527708,-0.29443359375,1.0576171875,-0.63671875,46.03588235294118,311.2298738211219
-0.02781298828125,0.17444384765625,0.93189404296875,0.94848865339702,-0.28173828125,1.001953125,-0.6298828125,46.224117647058826,311.2298738211219
-0.01902392578125,0.18323291015625,0.92701123046875,0.9451381013014154,-0.26416015625,0.93505859375,-0.76806640625,46.27117647058824,311.2298738211219
-0.03367236328125,0.18079150390625,0.92212841796875,0.940287304582582,-0.30126953125,0.74267578125,-0.8623046875,46.27117647058824,311.2298738211219
-0.05515673828125,0.18567431640625,0.92896435546875,0.9489425647963234,-0.29345703125,0.5048828125,-0.87890625,46.08294117647059,311.5974931329082
-0.05808642578125,0.19299853515625,0.93140576171875,0.952963357320408,-0.373046875,0.2705078125,-1.03857421875,45.84764705882353,311.5974931329082
-0.06541064453125,0.19739306640625,0.93775341796875,0.9605332102511234,-0.3193359375,-0.07421875,-1.27490234375,45.94176470588236,311.5974931329082
-0.10252001953125,0.19934619140625,0.97486279296875,1.0003033157736192,-0.40576171875,-0.1259765625,-1.18212890625,46.08294117647059,311.5974931329082
-0.13425830078125,0.19251025390625,1.01831982421875,1.045017106838268,-0.341796875,0.42431640625,-0.77978515625,45.94176470588236,311.2653180341065
-0.07908251953125,0.19690478515625,1.02857373046875,1.0502330495291228,-0.173828125,1.5517578125,-0.76513671875,46.83588235294118,311.2653180341065
0.00831982421875,0.20374072265625,0.98951123046875,1.0103029133716783,-0.08544921875,2.41357421875,-1.4677734375,46.08294117647059,311.2653180341065
-0.03904345703125,0.19397509765625,0.95093701171875,0.9713042418852544,-0.177734375,1.90380859375,-1.64892578125,45.94176470588236,311.2653180341065
-0.05418017578125,0.16467822265625,0.91382763671875,0.9301265280035208,-0.32421875,1.22021484375,-1.33837890625,46.224117647058826,311.2653180341065
-0.04783251953125,0.16663134765625,0.91822216796875,0.9344441693839588,-0.392578125,0.416015625,-0.90234375,46.03588235294118,311.30992592230746
-0.04978564453125,0.17151416015625,0.92994091796875,0.9469349652685009,-0.31689453125,-0.26025390625,-0.69970703125,46.224117647058826,311.30992592230746
-0.05759814453125,0.17053759765625,0.94556591796875,0.9625463748266326,-0.3271484375,-0.7099609375,-0.689453125,46.224117647058826,311.30992592230746
-0.07371142578125,0.16467822265625,0.96167919921875,0.9784575481429648,-0.30859375,-0.91943359375,-0.74365234375,46.03588235294118,311.30992592230746
-0.06199267578125,0.16467822265625,0.97437451171875,0.990135191756607,-0.28125,-0.8955078125,-0.81494140625,46.13,311.5007058972057
-0.06541064453125,0.16321337890625,0.98121044921875,0.9968405615383285,-0.2783203125,-0.8125,-1.0126953125,46.08294117647059,311.5007058972057
-0.07615283203125,0.16858447265625,0.98169873046875,0.998975663192613,-0.322265625,-0.7626953125,-1.150390625,46.03588235294118,311.5007058972057
-0.08054736328125,0.17444384765625,0.97583935546875,0.9945757796157836,-0.3603515625,-0.736328125,-1.22021484375,46.03588235294118,311.5007058972057
-0.08152392578125,0.16760791015625,0.98365185546875,1.0011541014193803,-0.404296875,-0.6630859375,-1.2158203125,46.08294117647059,311.5007058972057
-0.07322314453125,0.16418994140625,0.99195263671875,1.0081120965682897,-0.4052734375,-0.5205078125,-1.22216796875,46.08294117647059,311.3883881349418
-0.07127001953125,0.15979541015625,0.99927685546875,1.0144792864649834,-0.4140625,-0.22607421875,-1.1875,46.03588235294118,311.3883881349418
-0.06492236328125,0.14758837890625,1.00611279296875,1.018950536099558,-0.337890625,0.146484375,-1.125,46.03588235294118,311.3883881349418
-0.05759814453125,0.14319384765625,0.99195263671875,1.0038884687819285,-0.31689453125,0.4521484375,-1.15673828125,46.03588235294118,311.3883881349418
-0.05222705078125,0.13684619140625,0.97974560546875,0.9906341385047412,-0.27978515625,0.5205078125,-1.13134765625,46.224117647058826,311.1852665282012
-0.05613330078125,0.14124072265625,0.96900341796875,0.980850403083048,-0.28369140625,0.26806640625,-1.08447265625,46.03588235294118,311.1852665282012
-0.06736376953125,0.13635791015625,0.95581982421875,0.9678444572746188,-0.27197265625,-0.00634765625,-0.99462890625,45.89470588235295,311.1852665282012
-0.08201220703125,0.13977587890625,0.95923779296875,0.9728311476745128,-0.2822265625,-0.45556640625,-0.89306640625,46.03588235294118,311.1852665282012
-0.08787158203125,0.14270556640625,0.97730419921875,0.991569357847753,-0.26513671875,-0.5361328125,-0.82177734375,45.89470588235295,311.1852665282012
-0.08298876953125,0.14465869140625,0.98414013671875,0.9981708679221606,-0.21875,-0.37939453125,-0.87109375,45.89470588235295,311.27607219449726
-0.07957080078125,0.15540087890625,0.97876904296875,0.9942181777536392,-0.2177734375,-0.1943359375,-0.9453125,45.94176470588236,311.27607219449726
-0.08445361328125,0.16467822265625,0.97339794921875,0.9908354542287776,-0.2197265625,-0.173828125,-0.97509765625,46.03588235294118,311.27607219449726
-0.08591845703125,0.16516650390625,0.98414013671875,1.0015956090019784,-0.21435546875,-0.14013671875,-0.873046875,45.84764705882353,311.27607219449726
-0.06736376953125,0.15930712890625,0.99585888671875,1.0107678076702482,-0.17529296875,0.08837890625,-0.86669921875,46.03588235294118,311.6313479285266
-0.05418017578125,0.15540087890625,0.97974560546875,0.9934718798475624,-0.24755859375,0.18115234375,-0.89892578125,45.94176470588236,311.6313479285266
-0.05466845703125,0.14563525390625,0.97535107421875,0.9876780777936628,-0.07958984375,0.09375,-0.91552734375,46.08294117647059,311.6313479285266
-0.05955126953125,0.15393603515625,0.97779248046875,0.9916253281777552,-0.10986328125,-0.08203125,-0.95751953125,45.84764705882353,311.6313479285266
-0.06980517578125,0.15686572265625,0.96265576171875,0.9778474999101984,-0.1259765625,-0.39501953125,-0.9248046875,46.08294117647059,311.6313479285266
-0.07273486328125,0.16028369140625,0.97193310546875,0.987742468244372,-0.0009765625,-0.6953125,-0.83154296875,46.08294117647059,311.2975805559699
-0.08591845703125,0.15588916015625,0.97681591796875,0.9929011779175122,-0.1259765625,-0.796875,-0.8671875,46.13,311.2975805559699
-0.09275439453125,0.14465869140625,0.99195263671875,1.0067271468464072,-0.1162109375,-0.87255859375,-0.9375,46.97705882352941,311.2975805559699
-0.09519580078125,0.13635791015625,1.00074169921875,1.014465213156072,-0.1015625,-0.5615234375,-0.9599609375,45.61235294117647,311.2975805559699
-0.09177783203125,0.14075244140625,1.00611279296875,1.020047730446745,-0.09326171875,-0.33837890625,-0.96435546875,45.94176470588236,311.5899241575436
-0.08982470703125,0.14417041015625,1.00074169921875,1.015055433812904,-0.08447265625,-0.15869140625,-1.072265625,46.13,311.5899241575436
-0.09861376953125,0.15051806640625,1.00025341796875,1.0163106139433975,-0.06787109375,-0.0419921875,-1.138671875,45.94176470588236,311.5899241575436
-0.09910205078125,0.14514697265625,0.99341748046875,1.0088444630572162,-0.0615234375,-0.0517578125,-1.0537109375,46.03588235294118,311.5899241575436
-0.08787158203125,0.13440478515625,0.98218701171875,0.995227304283087,-0.033203125,-0.150390625,-0.90625,45.89470588235295,311.5899241575436
-0.07224658203125,0.12561572265625,0.97290966796875,0.983642262421005,-0.04296875,-0.26806640625,-0.87451171875,46.08294117647059,311.5421301424532
-0.06931689453125,0.12268603515625,0.96997998046875,0.9801621588288202,-0.0595703125,-0.197265625,-0.9912109375,46.08294117647059,311.5421301424532
-0.08591845703125,0.12170947265625,0.97290966796875,0.9842501709524648,-0.04296875,0.0341796875,-1.1142578125,46.03588235294118,311.5421301424532
-0.09128955078125,0.11682666015625,0.98121044921875,0.9923488279134346,-0.01171875,0.20458984375,-1.24755859375,46.03588235294118,311.5421301424532
-0.08103564453125,0.10706103515625,0.97925732421875,0.98841982374363,0.0029296875,0.205078125,-1.13671875,46.224117647058826,311.4636673192696
-0.07175830078125,0.09631884765625,0.97144482421875,0.978841979405378,0.01904296875,0.0302734375,-1.15380859375,46.97705882352941,311.4636673192696
-0.09031298828125,0.09436572265625,0.97632763671875,0.9850263852737878,-0.00634765625,-0.18994140625,-1.158203125,46.03588235294118,311.4636673192696
-0.11912158203125,0.09583056640625,0.99146435546875,1.0031824444877582,0.00244140625,-0.341796875,-1.04248046875,46.08294117647059,311.4636673192696
-0.11960986328125,0.09631884765625,0.98755810546875,0.9994272617279428,-0.04248046875,-0.41015625,-0.9833984375,46.08294117647059,311.4636673192696
-0.10789111328125,0.10608447265625,0.97876904296875,0.9903955003622466,-0.20166015625,-0.51416015625,-0.90234375,46.08294117647059,311.2868263684501
-0.10398486328125,0.10803759765625,0.99732373046875,1.0085333894596935,-0.29736328125,-0.25341796875,-0.78125,46.08294117647059,311.2868263684501
-0.10349658203125,0.12708056640625,1.01343701171875,1.0266039107522018,-0.21484375,0.38720703125,-0.72119140625,45.94176470588236,311.2868263684501
-0.05076220703125,0.13440478515625,0.99244091796875,1.0027863299797402,-0.08642578125,1.09619140625,-1.138671875,46.08294117647059,311.2868263684501
-0.08005908203125,0.25501025390625,0.96216748046875,0.998601996134896,-0.15966796875,0.72705078125,-1.4013671875,46.27117647058824,311.36528814692576
-0.12205126953125,0.11438525390625,0.94458935546875,0.9592859579761686,-0.20703125,0.20703125,-1.060546875,46.08294117647059,311.36528814692576
-0.09812548828125,0.10754931640625,0.96216748046875,0.9731195853447138,-0.2470703125,0.0419921875,-0.75830078125,46.03588235294118,311.36528814692576
-0.07273486328125,0.12415087890625,0.98121044921875,0.9917044654158804,-0.1181640625,0.2861328125,-0.734375,46.224117647058826,311.36528814692576
-0.06003955078125,0.12317431640625,0.8537690429687499,0.8646954600389298,-0.01611328125,0.56494140625,-0.98828125,46.08294117647059,311.36528814692576
-0.08250048828125,0.12366259765625,0.95826123046875,0.9697233391257626,0.01611328125,0.337890625,-1.091796875,45.94176470588236,311.2298738211219
-0.10496142578125,0.11633837890625,0.94263623046875,0.9555702916588088,0.02734375,-0.2001953125,-0.95263671875,46.08294117647059,311.2298738211219
-0.10252001953125,0.11731494140625,0.94165966796875,0.9544611464909696,-0.021484375,-0.68310546875,-0.94287109375,46.08294117647059,311.2298738211219
-0.10984423828125,0.13196337890625,0.97046826171875,0.9855398201287224,-0.05126953125,-0.95458984375,-1.03955078125,46.27117647058824,311.2298738211219
-0.12449267578125,0.12610400390625,0.99097607421875,1.0066947033725608,-0.05615234375,-0.884765625,-1.05224609375,46.03588235294118,311.4206505611328
-0.12839892578125,0.11829150390625,1.00660107421875,1.021628546320297,-0.0615234375,-0.66796875,-0.99658203125,46.08294117647059,311.4206505611328
-0.12058642578125,0.11682666015625,1.01734326171875,1.0311046827410426,-0.0126953125,-0.33056640625,-1.0068359375,46.27117647058824,311.4206505611328
-0.10496142578125,0.11682666015625,1.01392529296875,1.026016505299531,-0.02294921875,0.0107421875,-1.0888671875,46.224117647058826,311.4206505611328
-0.08933642578125,0.11731494140625,0.99341748046875,1.00430178878134,-0.04345703125,0.17822265625,-1.18994140625,46.08294117647059,311.4206505611328
-0.09031298828125,0.11047900390625,0.97876904296875,0.9891162144209188,-0.04296875,0.08740234375,-1.2666015625,46.08294117647059,311.4206505611328
-0.09128955078125,0.11340869140625,0.96656201171875,0.9774648003207672,-0.07275390625,-0.06689453125,-1.2568359375,46.224117647058826,311.4206505611328
-0.09568408203125,0.11243212890625,0.96900341796875,0.9801857228095472,-0.08642578125,-0.10498046875,-1.271484375,45.61235294117647,311.4206505611328
-0.09031298828125,0.11829150390625,0.96656201171875,0.9779526768952004,-0.08349609375,-0.0791015625,-1.3642578125,46.08294117647059,311.4206505611328
-0.09763720703125,0.12268603515625,0.96705029296875,0.9796791089689364,-0.0908203125,-0.08056640625,-1.435546875,46.97705882352941,311.3545339987493
-0.10496142578125,0.12366259765625,0.96363232421875,0.9771881063747933,-0.0712890625,-0.04052734375,-1.484375,46.224117647058826,311.3545339987493
-0.10105517578125,0.12317431640625,0.95337841796875,0.9665994354555162,-0.046875,-0.087890625,-1.46435546875,46.08294117647059,311.3545339987493
-0.10984423828125,0.12073291015625,0.96314404296875,0.9768769829331504,-0.013671875,-0.220703125,-1.48046875,45.89470588235295,311.3545339987493
-0.11472705078125,0.11975634765625,0.95630810546875,0.9705818211620068,0.0078125,-0.50439453125,-1.46435546875,46.224117647058826,311.3545339987493
-0.11472705078125,0.12415087890625,0.96949169921875,0.984118840266874,0.0234375,-0.6484375,-1.36767578125,46.08294117647059,311.52062178781813
-0.10496142578125,0.11829150390625,0.98365185546875,0.9962834704869642,0.09716796875,-0.4921875,-1.39111328125,46.83588235294118,311.52062178781813
-0.10740283203125,0.11194384765625,0.99537060546875,1.0073874307274455,0.17236328125,-0.4033203125,-1.4130859375,46.03588235294118,311.52062178781813
-0.10398486328125,0.10217822265625,0.98218701171875,0.9929474139982531,0.189453125,-0.3310546875,-1.462890625,46.03588235294118,311.52062178781813
-0.10300830078125,0.08850634765625,0.98511669921875,0.994434007204568,0.189453125,-0.2666015625,-1.45947265625,46.13,311.5652305989487
-0.10349658203125,0.08801806640625,0.97681591796875,0.9862190730781766,0.14404296875,-0.27783203125,-1.39501953125,46.08294117647059,311.5652305989487
-0.11228564453125,0.09729541015625,0.97583935546875,0.987085057371925,0.11328125,-0.30859375,-1.33935546875,46.03588235294118,311.5652305989487
-0.12302783203125,0.11096728515625,0.98267529296875,0.9965441872995278,0.083984375,-0.3447265625,-1.32568359375,46.83588235294118,311.5652305989487
-0.10740283203125,0.11047900390625,0.98560498046875,0.9975761405312652,0.08642578125,-0.38427734375,-1.2861328125,46.08294117647059,311.5652305989487
-0.09324267578125,0.11194384765625,0.97925732421875,0.9900356198900112,0.0771484375,-0.3251953125,-1.3359375,46.13,311.4190590912296
-0.07712939453125,0.11145556640625,0.97974560546875,0.9890767099770486,0.08935546875,-0.2626953125,-1.37060546875,46.03588235294118,311.4190590912296
-0.08738330078125,0.10315478515625,0.97730419921875,0.9866104848250198,0.08203125,-0.27734375,-1.3671875,46.03588235294118,311.4190590912296
-0.10056689453125,0.10559619140625,1.09693310546875,1.1065832520820478,0.08984375,-0.5,-1.29345703125,46.03588235294118,311.4190590912296
-0.09812548828125,0.10022509765625,0.97828076171875,0.9882848427450742,0.12939453125,-0.474609375,-1.2294921875,45.89470588235295,311.4545048523472
-0.09470751953125,0.10413134765625,0.98267529296875,0.9927051844488812,0.14453125,-0.52099609375,-1.19482421875,45.89470588235295,311.4545048523472
-0.10496142578125,0.10510791015625,0.98218701171875,0.9933558776533488,0.1484375,-0.55859375,-1.2353515625,46.03588235294118,311.4545048523472
-0.10740283203125,0.09827197265625,0.97193310546875,0.982775004995656,0.24755859375,-0.51220703125,-1.27197265625,46.08294117647059,311.4545048523472
-0.10447314453125,0.10803759765625,0.98560498046875,0.9969974613610538,0.09716796875,-0.3984375,-1.29150390625,46.03588235294118,311.4545048523472
-0.09714892578125,0.10950244140625,0.98853466796875,0.999314509166392,0.09765625,-0.283203125,-1.23388671875,46.08294117647059,311.64051003474793
-0.07615283203125,0.11194384765625,0.98755810546875,0.9967957115334576,0.08935546875,-0.24072265625,-1.248046875,45.89470588235295,311.64051003474793
-0.08494189453125,0.10657275390625,0.98658154296875,0.9959498070928672,0.0908203125,-0.2607421875,-1.2841796875,45.94176470588236,311.64051003474793
-0.10252001953125,0.10168994140625,0.98072216796875,0.9912957022670982,0.0595703125,-0.34423828125,-1.15234375,46.03588235294118,311.64051003474793
-0.09861376953125,0.09924853515625,0.97632763671875,0.986301475965966,0.0703125,-0.29443359375,-1.06640625,46.224117647058826,311.52062178781813
-0.10056689453125,0.09973681640625,0.97437451171875,0.984615062808642,0.0869140625,-0.15673828125,-1.13720703125,46.224117647058826,311.52062178781813
-0.09812548828125,0.09387744140625,0.96656201171875,0.9760551766950548,0.04736328125,-0.169921875,-1.14501953125,45.94176470588236,311.52062178781813
-0.09763720703125,0.09290087890625,0.97730419921875,0.9865531386139416,0.0478515625,-0.2392578125,-1.0224609375,45.7535294117647,311.52062178781813
-0.08982470703125,0.09290087890625,0.98072216796875,0.9891991821873533,0.06787109375,-0.0595703125,-0.96728515625,45.94176470588236,311.52062178781813
-0.08689501953125,0.09241259765625,0.97876904296875,0.9869547467330378,0.08251953125,0.0517578125,-1.1923828125,46.08294117647059,311.67595710395415
-0.11130908203125,0.09680712890625,1.09937451171875,1.1092275009963244,0.0595703125,-0.1845703125,-1.13916015625,46.27117647058824,311.67595710395415
-0.10935595703125,0.07629931640625,0.97193310546875,0.9810373451242362,0.07470703125,-0.26123046875,-0.896484375,46.08294117647059,311.67595710395415
-0.09714892578125,0.08020556640625,0.97730419921875,0.9853904528021368,0.013671875,-0.24462890625,-0.724609375,46.03588235294118,311.67595710395415
-0.09177783203125,0.08411181640625,0.99292919921875,1.0007029343280167,0.01220703125,-0.11767578125,-0.60205078125,46.13,311.55288434011135
-0.08005908203125,0.08752978515625,0.98706982421875,0.9941718954931384,0.04052734375,0.1484375,-0.54638671875,46.03588235294118,311.55288434011135
-0.06150439453125,0.09631884765625,0.96802685546875,0.9747492517920696,-0.00244140625,0.1982421875,-0.63232421875,46.03588235294118,311.55288434011135
-0.07371142578125,0.09534228515625,0.96119091796875,0.9687164220839496,-0.0341796875,-0.09375,-0.68701171875,46.13,311.55288434011135
-0.09373095703125,0.09778369140625,0.94751904296875,0.9571517535894936,-0.0712890625,-0.49267578125,-0.626953125,46.03588235294118,311.55288434011135
-0.10349658203125,0.10022509765625,0.95581982421875,0.9666168574269322,-0.10888671875,-0.7666015625,-0.57275390625,45.89470588235295,311.27607219449726
-0.09861376953125,0.10706103515625,0.97486279296875,0.9856694201935668,-0.099609375,-0.833984375,-0.60595703125,46.13,311.27607219449726
-0.09568408203125,0.10510791015625,0.98853466796875,0.9987011094955608,-0.0712890625,-0.7841796875,-0.63916015625,46.08294117647059,311.27607219449726
-0.09568408203125,0.10168994140625,0.99341748046875,1.0031822258384806,-0.06640625,-0.67333984375,-0.62744140625,46.03588235294118,311.27607219449726
-0.09666064453125,0.09583056640625,0.99439404296875,1.0036664238434378,-0.0869140625,-0.501953125,-0.556640625,46.03588235294118,311.4760131649432
-0.08591845703125,0.08997119140625,1.00318310546875,1.0108675183423474,-0.07080078125,-0.35302734375,-0.52734375,45.89470588235295,311.4760131649432
-0.07029345703125,0.08704150390625,0.99830029296875,1.0045500825967602,-0.03466796875,-0.2666015625,-0.55029296875,46.08294117647059,311.4760131649432
-0.06882861328125,0.08313525390625,1.00367138671875,1.0094578252538418,-0.03662109375,-0.2109375,-0.48779296875,45.94176470588236,311.4760131649432
-0.06345751953125,0.08899462890625,1.00415966796875,1.0100908570689722,0.1240234375,-0.13427734375,-0.46728515625,46.03588235294118,311.4760131649432
-0.07322314453125,0.09778369140625,0.99732373046875,1.0047775388394091,-0.00341796875,-0.20263671875,-0.55224609375,46.03588235294118,311.5544764480814
-0.10154345703125,0.09778369140625,1.00708935546875,1.016907908253915,-0.04052734375,-0.24072265625,-0.61865234375,45.84764705882353,311.5544764480814
-0.12986376953125,0.10559619140625,1.01294873046875,1.026684121253769,-0.0380859375,-0.248046875,-0.56689453125,46.08294117647059,311.5544764480814
-0.13230517578125,0.10950244140625,1.01246044921875,1.0269233688278157,-0.01513671875,0.15576171875,-0.4296875,46.27117647058824,311.5544764480814
-0.12253955078125,0.10657275390625,1.01783154296875,1.0307059441193591,-0.00537109375,0.47509765625,-0.3759765625,46.03588235294118,311.51145998025765
-0.11570361328125,0.10706103515625,1.01001904296875,1.0222464764109362,-0.0126953125,0.63623046875,-0.361328125,46.224117647058826,311.51145998025765
-0.09959033203125,0.10852587890625,0.99390576171875,1.0047610481125338,-0.00732421875,0.7900390625,-0.3310546875,46.08294117647059,311.51145998025765
-0.07517626953125,0.11438525390625,0.98121044921875,0.990711564214274,-0.01318359375,0.875,-0.3369140625,45.94176470588236,311.51145998025765
-0.05955126953125,0.10901416015625,0.96167919921875,0.9696686666214248,0.02685546875,0.65283203125,-0.39599609375,46.224117647058826,311.51145998025765
-0.06736376953125,0.09924853515625,0.96070263671875,0.968162024340182,0.01611328125,0.22802734375,-0.4658203125,46.224117647058826,311.44375071638984
-0.10300830078125,0.09436572265625,0.97339794921875,0.9833713272134512,0.02490234375,-0.103515625,-0.3984375,45.61235294117647,311.44375071638984
-0.11228564453125,0.08997119140625,0.98218701171875,0.9926702409359646,0.05224609375,-0.06005859375,-0.287109375,46.97705882352941,311.44375071638984
-0.11619189453125,0.10022509765625,0.98706982421875,0.9989256551106293,0.0810546875,0.18603515625,-0.25390625,46.08294117647059,311.44375071638984
-0.11179736328125,0.10657275390625,0.99097607421875,1.0029406672310217,0.10791015625,0.48779296875,-0.23779296875,46.13,311.2991717815884
-0.11179736328125,0.10803759765625,0.99097607421875,1.0030973794293248,0.134765625,0.62890625,-0.25146484375,46.03588235294118,311.2991717815884
-0.11912158203125,0.10510791015625,0.98072216796875,0.9935057095096972,0.24853515625,0.86865234375,-0.2763671875,46.08294117647059,311.2991717815884
-0.11130908203125,0.10315478515625,0.97144482421875,0.9832271700602409,0.1435546875,0.76123046875,-0.26953125,45.89470588235295,311.2991717815884
-0.11082080078125,0.09973681640625,0.97290966796875,0.9842671915997784,0.14453125,0.70361328125,-0.23828125,46.27117647058824,311.2991717815884
-0.11326220703125,0.09680712890625,0.97632763671875,0.9876313087227846,0.169921875,0.84912109375,-0.2412109375,46.27117647058824,311.0761341924982
-0.12400439453125,0.09827197265625,0.97828076171875,0.9909932992820032,0.19580078125,1.0595703125,-0.15869140625,45.89470588235295,311.0761341924982
-0.10642626953125,0.09827197265625,0.97388623046875,0.9846005897584664,0.22216796875,0.9970703125,-0.064453125,45.89470588235295,311.0761341924982
-0.09617236328125,0.10022509765625,0.95337841796875,0.963444135125593,0.19775390625,0.81396484375,-0.1630859375,46.03588235294118,311.0761341924982
-0.09324267578125,0.10461962890625,0.95679638671875,0.9670050615055664,0.162109375,0.57421875,-0.3310546875,45.89470588235295,311.3744510514354
-0.09519580078125,0.10510791015625,0.95923779296875,0.969663372889456,0.15087890625,0.39453125,-0.41796875,46.13,311.3744510514354
-0.11668017578125,0.11096728515625,0.97339794921875,0.9866263575125894,0.173828125,0.27294921875,-0.3623046875,46.03588235294118,311.3744510514354
-0.13328173828125,0.10608447265625,0.98511669921875,0.9997363893435464,0.17724609375,0.291015625,-0.25439453125,46.08294117647059,311.3744510514354
-0.13181689453125,0.10364306640625,0.99048779296875,1.0045813291705443,0.2109375,0.4326171875,-0.24755859375,45.94176470588236,311.3744510514354
-0.12888720703125,0.10120166015625,0.98511669921875,0.9986533929418868,0.21923828125,0.521484375,-0.2626953125,45.94176470588236,311.7205664676422
-0.13279345703125,0.10266650390625,0.97925732421875,0.9935388368306034,0.2216796875,0.6181640625,-0.18505859375,46.03588235294118,311.7205664676422
-0.13816455078125,0.10901416015625,0.97876904296875,0.9944658715517188,0.23974609375,0.798828125,-0.08935546875,46.03588235294118,311.7205664676422
-0.13377001953125,0.10413134765625,0.97681591796875,0.9914167102118208,0.28076171875,0.916015625,-0.12451171875,46.08294117647059,311.7205664676422
-0.14451220703125,0.10706103515625,0.96509716796875,0.981711967356552,0.244140625,0.86328125,-0.154296875,46.03588235294118,311.69905816187884
-0.16306689453125,0.09876025390625,0.95630810546875,0.9751254239475672,0.259765625,0.8046875,-0.01513671875,45.89470588235295,311.69905816187884
-0.14793017578125,0.09680712890625,0.97046826171875,0.9864398634063584,0.26953125,0.75048828125,0.03125,46.03588235294118,311.69905816187884
-0.11912158203125,0.10706103515625,1.09595654296875,1.1075977431497277,0.27880859375,1.2421875,-0.2080078125,46.03588235294118,311.69905816187884
-0.09959033203125,0.11438525390625,0.96997998046875,0.981765441974532,0.265625,1.27783203125,-0.373046875,45.89470588235295,311.69905816187884
-0.10300830078125,0.09729541015625,0.94996044921875,0.9604696569633016,0.197265625,0.84375,-0.36083984375,46.03588235294118,311.3636968293439
-0.11375048828125,0.08997119140625,0.94849560546875,0.9595196206752696,0.10986328125,0.36328125,-0.2607421875,45.94176470588236,311.3636968293439
-0.13279345703125,0.10364306640625,0.96070263671875,0.9753591869884444,0.11767578125,0.24951171875,-0.212890625,46.08294117647059,311.3636968293439
-0.16013720703125,0.10754931640625,0.97339794921875,0.992327742269906,0.13232421875,0.25927734375,-0.19970703125,46.03588235294118,311.3636968293439
-0.18162158203125,0.10901416015625,0.96997998046875,0.9928401929234448,0.10888671875,0.24755859375,-0.17822265625,46.08294117647059,311.52062178781813
-0.18064501953125,0.09924853515625,0.95826123046875,0.9801772700035384,0.10498046875,0.31494140625,-0.0654296875,46.224117647058826,311.52062178781813
-0.16111376953125,0.11633837890625,0.95240185546875,0.97291395274167,0.08251953125,0.322265625,-0.10400390625,46.03588235294118,311.52062178781813
-0.15037158203125,0.11682666015625,0.94947216796875,0.968378788983486,0.05810546875,0.06982421875,-0.19189453125,46.03588235294118,311.52062178781813
-0.15818408203125,0.11926806640625,0.96021435546875,0.9804380061587892,0.06005859375,-0.205078125,-0.20849609375,46.08294117647059,311.52062178781813
-0.15964892578125,0.10901416015625,0.96949169921875,0.988577777148434,0.076171875,-0.21337890625,-0.1904296875,46.03588235294118,311.47283037460505
-0.16794970703125,0.10315478515625,0.98755810546875,1.007034768749094,0.10400390625,-0.05224609375,-0.22265625,45.94176470588236,311.47283037460505
-0.16892626953125,0.09876025390625,0.98755810546875,1.006757510012415,0.12744140625,0.15380859375,-0.18115234375,46.08294117647059,311.47283037460505
-0.15964892578125,0.09534228515625,0.98755810546875,1.004912405396087,0.115234375,0.44091796875,-0.13623046875,45.94176470588236,311.47283037460505
-0.15769580078125,0.09143603515625,0.98267529296875,0.9994394656608038,0.0927734375,0.59619140625,-0.0859375,46.224117647058826,311.6022714573109
-0.15427783203125,0.09241259765625,0.96753857421875,0.9841100701969724,0.07421875,0.66552734375,-0.05322265625,46.224117647058826,311.6022714573109
-0.14939501953125,0.09485400390625,0.96363232421875,0.9797466050959396,0.0595703125,0.62548828125,-0.0732421875,46.224117647058826,311.6022714573109
-0.15330126953125,0.09827197265625,0.95581982421875,0.9730108921380096,0.0390625,0.50732421875,-0.072265625,45.89470588235295,311.6022714573109
-0.15281298828125,0.09778369140625,0.95191357421875,0.9690474252968188,0.06201171875,0.35546875,-0.04833984375,46.08294117647059,311.6022714573109
-0.16209033203125,0.09631884765625,0.95240185546875,0.970886136708186,0.0576171875,0.27294921875,-0.00830078125,46.03588235294118,311.2023851254445
-0.16453173828125,0.10413134765625,0.95386669921875,0.9735377292868672,0.03759765625,0.1953125,-0.03271484375,46.03588235294118,311.2023851254445
-0.18015673828125,0.10803759765625,0.95874951171875,0.9814933515192112,0.00537109375,0.21533203125,-0.0126953125,46.03588235294118,311.2023851254445
-0.17527392578125,0.11340869140625,0.97144482421875,0.9936234331207406,0.0224609375,0.4248046875,-0.0185546875,46.03588235294118,311.2023851254445
-0.16648486328125,0.10559619140625,0.96802685546875,0.9878986578845008,0.044921875,0.6171875,-0.0478515625,45.94176470588236,311.3330257430923
-0.17234423828125,0.10217822265625,0.96705029296875,0.9875875630975106,0.0498046875,0.60205078125,-0.0068359375,45.61235294117647,311.3330257430923
-0.18308642578125,0.09192431640625,0.95289013671875,0.9746642149519944,0.0556640625,0.4619140625,0.07470703125,46.08294117647059,311.3330257430923
-0.18406298828125,0.10217822265625,0.95337841796875,0.9763452159399412,0.0439453125,0.35546875,0.09375,45.94176470588236,311.3330257430923
-0.18455126953125,0.11389697265625,0.94849560546875,0.9729725613085836,0.03955078125,0.27294921875,0.04541015625,45.94176470588236,311.3330257430923
-0.19334033203125,0.11682666015625,0.96070263671875,0.9869034951359612,0.01220703125,0.1904296875,-0.0146484375,46.03588235294118,311.2438097540162
-0.19187548828125,0.11585009765625,0.97339794921875,0.9988698692389308,0.00439453125,0.0986328125,0.02978515625,46.08294117647059,311.2438097540162
-0.17283251953125,0.11389697265625,0.97242138671875,0.9942066955798452,0.0146484375,0.02978515625,0.10400390625,46.224117647058826,311.2438097540162
-0.16160205078125,0.10901416015625,0.96607373046875,0.9855443991181144,0.01171875,0.05712890625,0.09375,45.89470588235295,311.2438097540162
-0.16160205078125,0.11194384765625,0.96607373046875,0.9858727608300162,-0.00390625,0.08984375,0.0185546875,45.89470588235295,311.1330862676477
-0.17722705078125,0.11194384765625,0.96119091796875,0.9837829198264796,0.00390625,0.00341796875,0.00732421875,45.94176470588236,311.1330862676477
-0.18748095703125,0.10999072265625,0.96460888671875,0.9887959206310388,0.02001953125,0.240234375,0.0927734375,46.03588235294118,311.1330862676477
-0.18796923828125,0.10901416015625,0.96021435546875,0.9844938446241666,0.037109375,0.322265625,0.16064453125,46.788823529411765,311.1330862676477
-0.18552783203125,0.11145556640625,0.95533154296875,0.97954136039894,0.0576171875,0.396484375,0.1875,46.83588235294118,311.1330862676477
-0.17966845703125,0.11047900390625,0.95044873046875,0.9735703128206846,0.0703125,0.4404296875,0.158203125,46.224117647058826,311.56682310069124
-0.17527392578125,0.11438525390625,0.94214794921875,0.965115378380774,0.04296875,0.3427734375,0.10302734375,46.03588235294118,311.56682310069124
-0.17478564453125,0.11145556640625,0.93433544921875,0.9570554302045132,0.017578125,0.158203125,0.111328125,46.224117647058826,311.56682310069124
-0.17283251953125,0.10413134765625,0.94263623046875,0.9639903943321017,0.05859375,0.13134765625,0.1455078125,46.27117647058824,311.56682310069124
-0.16599658203125,0.10364306640625,0.95874951171875,0.9785179490847826,0.06591796875,0.21484375,0.15380859375,46.08294117647059,311.24540128143394
-0.16550830078125,0.10266650390625,0.95728466796875,0.976896793003165,0.078125,0.1552734375,0.07470703125,46.224117647058826,311.24540128143394
-0.17087939453125,0.09680712890625,0.95630810546875,0.9762666542844058,0.0546875,0.013671875,0.0478515625,46.08294117647059,311.24540128143394
-0.18455126953125,0.09778369140625,0.95533154296875,0.9778952798647108,0.04736328125,-0.11767578125,0.09375,46.13,311.24540128143394
-0.19138720703125,0.10266650390625,0.95826123046875,0.982565041032418,0.05224609375,-0.1630859375,0.10498046875,46.27117647058824,311.24540128143394
-0.19675830078125,0.11243212890625,0.95581982421875,0.9823168271521558,0.0263671875,-0.2158203125,0.0322265625,46.27117647058824,311.3867964839601
-0.21433642578125,0.12268603515625,0.97242138671875,1.0032922405695452,-0.0234375,-0.1953125,0.208984375,46.224117647058826,311.3867964839601
-0.22507861328125,0.12463916015625,0.98023388671875,1.0134366162088346,0.0751953125,0.00390625,0.49267578125,46.08294117647059,311.3867964839601
-0.20115283203125,0.13001025390625,0.99048779296875,1.019034442977795,0.1630859375,0.826171875,0.55419921875,45.94176470588236,311.3867964839601
-0.11814501953125,0.14026416015625,0.97388623046875,0.9910028608238266,0.2666015625,1.52880859375,0.06591796875,46.08294117647059,311.7237529600043
-0.11814501953125,0.12805712890625,0.94068310546875,0.956682590422802,0.20458984375,1.34716796875,-0.3486328125,45.7535294117647,311.7237529600043
-0.15867236328125,0.10120166015625,0.91236279296875,0.9315710176263408,0.1376953125,0.62646484375,-0.13134765625,46.13,311.7237529600043
-0.16160205078125,0.09338916015625,0.91773388671875,0.9365213531379296,0.07958984375,0.12158203125,0.177734375,46.08294117647059,311.7237529600043
-0.16209033203125,0.10706103515625,0.92749951171875,0.9476237044445692,0.1044921875,-0.51513671875,0.26171875,45.7535294117647,311.7237529600043
-0.19382861328125,0.11194384765625,0.93531201171875,0.9617221613439056,0.072265625,-0.8603515625,0.15966796875,46.08294117647059,311.2561553543377
-0.22996142578125,0.11096728515625,0.95777294921875,0.9912239998998592,0.05859375,-0.994140625,0.15771484375,45.94176470588236,311.2561553543377
-0.22752001953125,0.11194384765625,0.96265576171875,0.9954912856905844,0.0517578125,-0.8984375,0.2568359375,46.224117647058826,311.2561553543377
-0.21091845703125,0.11536181640625,0.98218701171875,1.0111806318309309,0.0625,-0.7548828125,0.22900390625,46.03588235294118,311.2561553543377
-0.21189501953125,0.12317431640625,0.98316357421875,1.0132531890869545,0.052734375,-0.6318359375,0.21337890625,46.08294117647059,311.58076344993293
-0.20798876953125,0.12463916015625,0.98755810546875,1.0168899941353564,0.05712890625,-0.47265625,0.2470703125,46.03588235294118,311.58076344993293
-0.18943408203125,0.12756884765625,0.98218701171875,1.008390008040725,0.03271484375,-0.29638671875,0.30859375,46.27117647058824,311.58076344993293
-0.16697314453125,0.11829150390625,0.98072216796875,1.0018427429673686,0.021484375,-0.1259765625,0.27734375,46.13,311.58076344993293
-0.15623095703125,0.11340869140625,0.97632763671875,0.9952312783680975,0.041015625,-0.02490234375,0.2177734375,45.94176470588236,311.58076344993293
-0.15964892578125,0.10803759765625,0.97193310546875,0.990865209560094,0.0576171875,0.04052734375,0.13720703125,45.84764705882353,311.3421884258372
-0.15623095703125,0.10217822265625,0.96119091796875,0.9791508984348116,0.0703125,0.021484375,0.119140625,45.94176470588236,311.3421884258372
-0.16550830078125,0.09583056640625,0.95484326171875,0.9738080660658652,0.05078125,-0.01806640625,0.138671875,46.08294117647059,311.3421884258372
-0.16648486328125,0.09778369140625,0.96070263671875,0.979912453337117,0.0576171875,0.00244140625,0.22021484375,47.02411764705882,311.3421884258372
-0.17087939453125,0.10315478515625,0.95533154296875,0.9759605699858224,0.05810546875,0.0478515625,0.36767578125,46.27117647058824,311.07772480884154
-0.16697314453125,0.11633837890625,0.94800732421875,0.9696043193868218,0.0673828125,0.0703125,0.361328125,46.03588235294118,311.07772480884154
-0.17380908203125,0.12854541015625,0.94800732421875,0.9723432553585069,0.0361328125,-0.0859375,0.2783203125,45.94176470588236,311.07772480884154
-0.18406298828125,0.00891650390625,0.94312451171875,0.9609591730670268,0.03076171875,-0.2744140625,0.26171875,46.03588235294118,311.07772480884154
-0.18845751953125,0.13147509765625,0.96314404296875,0.9901759366283251,0.00146484375,-0.298828125,0.2763671875,46.13,311.07772480884154
-0.17918017578125,0.13001025390625,0.97242138671875,0.9973021382017506,-0.00927734375,0.009765625,0.27490234375,46.08294117647059,311.52380682005565
-0.17673876953125,0.11536181640625,0.99244091796875,1.014634868806816,0.033203125,0.3447265625,0.32373046875,45.94176470588236,311.52380682005565
-0.17283251953125,0.10559619140625,0.98023388671875,1.000939612623445,0.0732421875,0.45068359375,0.42431640625,46.08294117647059,311.52380682005565
-0.16502001953125,0.09924853515625,0.96363232421875,0.9826846568742108,0.07666015625,0.33154296875,0.52099609375,46.08294117647059,311.52380682005565
-0.15964892578125,0.08850634765625,0.95874951171875,0.9759722226065132,0.091796875,0.0439453125,0.61328125,46.788823529411765,311.35771811701005
-0.15134814453125,0.09631884765625,0.96021435546875,0.976829150729618,0.1083984375,-0.21337890625,0.63427734375,46.08294117647059,311.35771811701005
-0.16160205078125,0.09924853515625,0.96607373046875,0.9845120350961556,0.0771484375,-0.3603515625,0.5908203125,46.03588235294118,311.35771811701005
-0.17380908203125,0.11047900390625,0.97437451171875,0.995902051603377,0.0517578125,-0.31591796875,0.65185546875,45.94176470588236,311.35771811701005
-0.17234423828125,0.11877978515625,0.97876904296875,1.0008996020103471,0.0439453125,-0.05712890625,0.64892578125,46.224117647058826,311.35771811701005
-0.16550830078125,0.13489306640625,0.96802685546875,0.9912946735964506,0.02392578125,0.177734375,0.56494140625,45.94176470588236,311.44534297383296
-0.17185595703125,0.14417041015625,0.95826123046875,0.98416673534073,-0.017578125,0.16357421875,0.51708984375,46.03588235294118,311.44534297383296
-0.17380908203125,0.14954150390625,0.94605419921875,0.9734427596148214,-0.037109375,0.03857421875,0.5087890625,46.224117647058826,311.44534297383296
-0.17429736328125,0.14465869140625,0.94068310546875,0.9675693322757268,-0.07763671875,-0.1337890625,0.53125,45.7535294117647,311.44534297383296
-0.17673876953125,0.14026416015625,0.95484326171875,0.9811402966596876,-0.056640625,-0.232421875,0.55810546875,46.03588235294118,311.3668799186282
-0.17478564453125,0.13147509765625,0.95923779296875,0.983856120729796,0.0009765625,-0.2060546875,0.57763671875,46.224117647058826,311.3668799186282
-0.18308642578125,0.12512744140625,0.96558544921875,0.9907233597938442,0.04296875,-0.2158203125,0.587890625,45.94176470588236,311.3668799186282
-0.18259814453125,0.11536181640625,0.96900341796875,0.9927829848994816,0.0654296875,-0.2197265625,0.67724609375,45.94176470588236,311.3668799186282
-0.17527392578125,0.12024462890625,0.97730419921875,1.0001515973342117,0.0556640625,-0.13916015625,0.72265625,46.08294117647059,311.3668799186282
-0.16160205078125,0.12366259765625,0.97583935546875,0.9968300299235886,0.03076171875,-0.04296875,0.724609375,45.70647058823529,311.5990854535771
-0.15183642578125,0.13147509765625,0.97144482421875,0.9919904475342206,0.01220703125,-0.03857421875,0.673828125,46.03588235294118,311.5990854535771
-0.15183642578125,0.13831103515625,0.95679638671875,0.9785926467525056,-0.02392578125,-0.11328125,0.65234375,46.08294117647059,311.5990854535771
-0.16209033203125,0.14612353515625,0.95728466796875,0.9818448445618078,-0.04833984375,-0.24755859375,0.7119140625,45.61235294117647,311.5990854535771
-0.15476611328125,0.15247119140625,0.94800732421875,0.9725831074008124,-0.001953125,-0.3701171875,0.66162109375,46.08294117647059,311.4883593575935
-0.14939501953125,0.15051806640625,0.94849560546875,0.9719148490320276,-0.00634765625,-0.55029296875,0.43115234375,46.03588235294118,311.4883593575935
-0.16941455078125,0.14807666015625,0.93775341796875,0.9643699809780036,-0.11181640625,-0.78564453125,0.4814453125,45.7535294117647,311.4883593575935
-0.21238330078125,0.13782275390625,0.96753857421875,1.0001163285069856,-0.10302734375,-0.783203125,0.74658203125,46.224117647058826,311.4883593575935
-0.20701220703125,0.13489306640625,0.98999951171875,1.0203672017601275,0.0361328125,-0.19189453125,0.93359375,46.08294117647059,311.4883593575935
-0.11619189453125,0.13879931640625,0.97486279296875,0.9915257292195876,0.2158203125,0.7890625,0.41943359375,45.94176470588236,311.5453149332444
-0.10544970703125,0.13782275390625,0.94751904296875,0.96327934110293,0.1455078125,0.97314453125,0.0810546875,46.224117647058826,311.5453149332444
-0.13669970703125,0.11926806640625,0.92896435546875,0.9465127866532944,0.10546875,0.42236328125,0.44970703125,46.224117647058826,311.5453149332444
-0.12351611328125,0.10803759765625,0.8967377929687499,0.9116287742748715,0.037109375,-0.001953125,0.75244140625,46.08294117647059,311.5453149332444
-0.12400439453125,0.13147509765625,0.91626904296875,0.9339227753244116,0.06298828125,-0.5546875,1.0400390625,46.60058823529412,311.23305563431165
-0.16111376953125,0.14514697265625,0.91529248046875,0.940630434977776,0.0830078125,-1.087890625,0.94384765625,45.89470588235295,311.23305563431165
-0.19089892578125,0.15002978515625,0.94214794921875,0.9729306730263784,0.009765625,-1.5322265625,0.99072265625,46.03588235294118,311.23305563431165
-0.20603564453125,0.14368212890625,0.96363232421875,0.9958325648740703,0.025390625,-1.60888671875,0.97900390625,45.94176470588236,311.23305563431165
-0.19968798828125,0.14417041015625,0.99097607421875,1.0211238805857197,0.005859375,-1.39453125,0.80517578125,46.224117647058826,311.23305563431165
-0.19871142578125,0.14563525390625,1.00660107421875,1.0363115267788432,0.06689453125,-1.080078125,0.6806640625,46.03588235294118,311.3330257430923
-0.19480517578125,0.14954150390625,1.01783154296875,1.047040002943466,0.111328125,-0.7900390625,0.7109375,46.13,311.3330257430923
-0.17185595703125,0.14514697265625,1.01685498046875,1.041439467728443,0.08544921875,-0.474609375,0.74365234375,46.13,311.3330257430923
-0.14939501953125,0.15100634765625,1.02222607421875,1.0440631856865277,0.05615234375,-0.197265625,0.765625,46.03588235294118,311.3330257430923
-0.11472705078125,0.15295947265625,1.01539013671875,1.0332357069913736,0.103515625,0.14453125,0.7548828125,45.94176470588236,311.3453717565628
-0.09861376953125,0.15344775390625,1.00806591796875,1.024435348711774,0.12841796875,0.37841796875,0.71044921875,46.224117647058826,311.3453717565628
-0.09128955078125,0.14661181640625,0.98755810546875,1.002546666479326,0.111328125,0.38330078125,0.67236328125,46.27117647058824,311.3453717565628
-0.08884814453125,0.14465869140625,0.97242138671875,0.9871289090762316,0.0673828125,0.3740234375,0.72021484375,45.70647058823529,311.3453717565628
-0.09714892578125,0.13342822265625,0.95484326171875,0.9690029199292216,0.083984375,0.08349609375,0.845703125,46.27117647058824,311.3453717565628
-0.10154345703125,0.13196337890625,0.95679638671875,0.9711769831890928,0.11328125,-0.01806640625,0.8671875,45.94176470588236,311.1685312009227
-0.11960986328125,0.12512744140625,0.93824169921875,0.9540759310138376,0.1220703125,-0.06689453125,0.8193359375,45.94176470588236,311.1685312009227
-0.14451220703125,0.12366259765625,0.92652294921875,0.9458440629771616,0.1318359375,-0.19580078125,0.794921875,45.84764705882353,311.1685312009227
-0.15427783203125,0.12708056640625,0.92359326171875,0.9449738794838062,0.123046875,-0.3369140625,0.91796875,45.94176470588236,311.1685312009227
-0.14597705078125,0.13147509765625,0.93580029296875,0.9561993458368974,0.09375,-0.27294921875,1.0390625,45.84764705882353,311.2007933565854
-0.12888720703125,0.14612353515625,0.94361279296875,0.9635191242093544,0.1328125,0.05126953125,1.00390625,45.94176470588236,311.2007933565854
-0.12498095703125,0.15051806640625,0.94263623046875,0.9627247742358443,0.1142578125,0.275390625,0.9912109375,46.03588235294118,311.2007933565854
-0.12302783203125,0.15637744140625,0.94263623046875,0.963406879063778,0.078125,0.23876953125,1.09619140625,46.03588235294118,311.2007933565854
-0.11521533203125,0.15735400390625,0.94117138671875,0.9611651442174202,0.0498046875,0.07275390625,1.17529296875,46.03588235294118,311.2007933565854
-0.10935595703125,0.16321337890625,0.94605419921875,0.966238003936735,0.0634765625,-0.1796875,1.18212890625,46.03588235294118,311.5867389413596
-0.11668017578125,0.16370166015625,0.94507763671875,0.966221629019012,0.04150390625,-0.423828125,1.11376953125,46.08294117647059,311.5867389413596
-0.12888720703125,0.16711962890625,0.95826123046875,0.9812265122394328,0.037109375,-0.638671875,1.0654296875,46.08294117647059,311.5867389413596
-0.14500048828125,0.17737353515625,0.97046826171875,0.9971434999933751,0.05078125,-0.7802734375,0.998046875,45.89470588235295,311.5867389413596
-0.15281298828125,0.17590869140625,0.99097607421875,1.0180025819091572,0.029296875,-0.7939453125,0.97509765625,45.89470588235295,311.3115175416886
-0.16453173828125,0.17395556640625,0.99683544921875,1.0251888337300188,0.03173828125,-0.66162109375,0.91064453125,46.08294117647059,311.3115175416886
-0.16599658203125,0.16614306640625,1.00562451171875,1.0326853549511117,0.02197265625,-0.5322265625,0.94384765625,45.7535294117647,311.3115175416886
-0.15574267578125,0.16418994140625,1.00611279296875,1.0312502461060895,0.0263671875,-0.39794921875,0.99609375,46.27117647058824,311.3115175416886
-0.13865283203125,0.16077197265625,0.99195263671875,1.0144172063383723,0.0234375,-0.30078125,1.02880859375,46.08294117647059,311.3115175416886
-0.12107470703125,0.16809619140625,0.98706982421875,1.00857436618785,0.03564453125,-0.212890625,0.9658203125,46.03588235294118,311.3437798641398
-0.11912158203125,0.16907275390625,0.96460888671875,0.9865322355381284,0.03125,-0.20654296875,0.87158203125,46.224117647058826,311.3437798641398
-0.11960986328125,0.16711962890625,0.95533154296875,0.9771867000481406,0.05126953125,-0.19775390625,0.8232421875,46.08294117647059,311.3437798641398
-0.12400439453125,0.16028369140625,0.94800732421875,0.96942551976223,0.0791015625,-0.2744140625,0.7890625,46.08294117647059,311.3437798641398
-0.12742236328125,0.15881884765625,0.93335888671875,0.9553107852693292,0.1064453125,-0.42626953125,0.78173828125,46.03588235294118,311.37922618547884
-0.12449267578125,0.15686572265625,0.93433544921875,0.9555563891966012,0.0849609375,-0.58544921875,0.7451171875,46.08294117647059,311.37922618547884
-0.12595751953125,0.15442431640625,0.94263623046875,0.9634704091026028,0.025390625,-0.72998046875,0.62646484375,46.08294117647059,311.37922618547884
-0.12595751953125,0.15393603515625,0.95484326171875,0.9753395583568796,-0.02392578125,-0.79833984375,0.82666015625,46.224117647058826,311.37922618547884
-0.12449267578125,0.15393603515625,0.96119091796875,0.9813677751120676,-0.029296875,-0.81298828125,0.9169921875,46.03588235294118,311.37922618547884
-0.11619189453125,0.16321337890625,0.96216748046875,0.9828048757919032,0.00439453125,-0.9072265625,0.80615234375,46.13,311.468443729437
-0.12546923828125,0.16663134765625,0.96509716796875,0.987380919097547,-0.046875,-1.021484375,0.62548828125,46.224117647058826,311.468443729437
-0.14402392578125,0.18030322265625,0.98560498046875,1.0122595125868057,-0.021484375,-0.92431640625,0.90234375,45.7535294117647,311.468443729437
-0.17039111328125,0.18616259765625,1.01587841796875,1.046756229666696,0.12158203125,-0.4091796875,1.16015625,46.08294117647059,311.468443729437
-0.12888720703125,0.19153369140625,1.02710888671875,1.0527344072731029,0.330078125,0.30029296875,1.0205078125,45.7535294117647,311.4991134874364
-0.06589892578125,0.18176806640625,0.98267529296875,1.0015153667295416,0.38671875,0.75048828125,0.30859375,46.03588235294118,311.4991134874364
-0.08640673828125,0.17493212890625,0.97388623046875,0.9932380198324612,0.330078125,0.669921875,0.27001953125,46.13,311.4991134874364
-0.08689501953125,0.15198291015625,0.95289013671875,0.968839079545606,0.2333984375,-0.029296875,0.64453125,45.89470588235295,311.4991134874364
-0.06834033203125,0.16418994140625,0.95581982421875,0.9722243949884672,0.13134765625,-0.62109375,0.75,46.08294117647059,311.4991134874364
-0.05906298828125,0.17542041015625,0.95972607421875,0.977412346156642,0.0986328125,-0.8271484375,0.7685546875,45.94176470588236,311.27925534129616
-0.08201220703125,0.18567431640625,0.97046826171875,0.9914684063945138,0.0517578125,-0.78564453125,0.515625,45.61235294117647,311.27925534129616
-0.11765673828125,0.18762744140625,0.96363232421875,0.9887539740050952,0.04638671875,-0.8017578125,0.37744140625,46.08294117647059,311.27925534129616
-0.12888720703125,0.18030322265625,0.96265576171875,0.9878397034979168,0.04443359375,-0.91259765625,0.53466796875,46.224117647058826,311.27925534129616
-0.14158251953125,0.18323291015625,0.96997998046875,0.9972367179919228,0.06103515625,-0.93896484375,0.54833984375,45.89470588235295,311.27766354083644
-0.14744189453125,0.18323291015625,0.98023388671875,1.0080535126167856,0.10107421875,-0.845703125,0.5810546875,46.13,311.27766354083644
-0.13523486328125,0.18616259765625,0.98658154296875,1.0130587949074925,0.1630859375,-0.68994140625,0.56982421875,45.61235294117647,311.27766354083644
-0.11765673828125,0.17737353515625,1.00220654296875,1.0245596292096333,0.1904296875,-0.5810546875,0.482421875,45.7535294117647,311.27766354083644
-0.10300830078125,0.17053759765625,1.00464794921875,1.024212519018219,0.1552734375,-0.544921875,0.41357421875,46.03588235294118,311.27766354083644
-0.10154345703125,0.16467822265625,1.00415966796875,1.022627316991967,0.1513671875,-0.45166015625,0.3984375,46.788823529411765,311.56682310069124
-0.09568408203125,0.16467822265625,0.99488232421875,1.0129487645553876,0.12744140625,-0.31103515625,0.35595703125,46.03588235294118,311.56682310069124
-0.09031298828125,0.16614306640625,0.99585888671875,1.0136542194574385,0.111328125,-0.10546875,0.30810546875,46.224117647058826,311.56682310069124
-0.08494189453125,0.17053759765625,0.99097607421875,1.0091242625836168,0.001953125,0.02587890625,0.27587890625,46.08294117647059,311.56682310069124
-0.07517626953125,0.17493212890625,0.98072216796875,0.9990338792902036,0.14404296875,0.1328125,0.2216796875,46.224117647058826,311.1884479160376
-0.07322314453125,0.18274462890625,0.97876904296875,0.9983717082144756,0.15380859375,0.1142578125,0.1640625,46.08294117647059,311.1884479160376
-0.08982470703125,0.18518603515625,0.96900341796875,0.9906210020210864,0.2119140625,-0.025390625,0.14404296875,46.224117647058826,311.1884479160376
-0.10496142578125,0.18274462890625,0.96607373046875,0.9887926744256972,0.236328125,-0.15771484375,0.2158203125,46.224117647058826,311.1884479160376
-0.10447314453125,0.18860400390625,0.96851513671875,0.9922236029600662,0.2646484375,-0.1728515625,0.33251953125,46.27117647058824,311.1884479160376
-0.07615283203125,0.19495166015625,0.98023388671875,1.0023292255021825,0.314453125,-0.0302734375,0.287109375,46.224117647058826,311.35771811701005
-0.06150439453125,0.20276416015625,0.98267529296875,1.0052595817010368,0.3408203125,0.2158203125,0.05029296875,46.224117647058826,311.35771811701005
-0.06541064453125,0.19983447265625,0.96997998046875,0.9925087059517168,0.35693359375,0.240234375,-0.07470703125,46.97705882352941,311.35771811701005
-0.06931689453125,0.19299853515625,0.95679638671875,0.978525723769166,0.3623046875,0.03076171875,-0.0791015625,45.94176470588236,311.35771811701005
-0.07957080078125,0.18616259765625,0.94947216796875,0.9708168843043316,0.32568359375,-0.24755859375,-0.06396484375,45.89470588235295,311.56841605656905
-0.09324267578125,0.18665087890625,0.95923779296875,0.9816668939323976,0.32373046875,-0.44775390625,-0.0244140625,46.08294117647059,311.56841605656905
-0.09714892578125,0.18762744140625,0.96851513671875,0.9912938719685728,0.3173828125,-0.5166015625,0.0009765625,46.13,311.56841605656905
-0.09861376953125,0.19153369140625,0.97486279296875,0.99838233938692,0.3349609375,-0.51025390625,-0.0205078125,46.13,311.56841605656905
-0.09714892578125,0.19934619140625,0.98267529296875,1.0073864944597215,0.36181640625,-0.43212890625,-0.07373046875,45.89470588235295,311.56841605656905
-0.10007861328125,0.19641650390625,0.97974560546875,1.004239325698003,0.33984375,-0.33935546875,-0.11669921875,45.89470588235295,311.50229876111524
-0.09714892578125,0.19543994140625,0.98316357421875,1.0070974620898996,0.32763671875,-0.2265625,-0.13134765625,46.08294117647059,311.50229876111524
-0.09959033203125,0.19495166015625,0.98902294921875,1.012961390238111,0.32861328125,-0.18603515625,-0.1064453125,46.224117647058826,311.50229876111524
-0.09226611328125,0.19348681640625,0.97095654296875,0.99433736333142,0.32275390625,-0.17724609375,-0.119140625,46.03588235294118,311.50229876111524
-0.09666064453125,0.19104541015625,0.97583935546875,0.9990515885701958,0.31884765625,-0.20751953125,-0.083984375,45.94176470588236,311.4345889118005
-0.10593798828125,0.19788134765625,0.98169873046875,1.0070314208182816,0.31103515625,-0.25,-0.056640625,45.94176470588236,311.4345889118005
-0.10740283203125,0.19495166015625,0.98218701171875,1.0070912789390138,0.2822265625,-0.24462890625,-0.02880859375,46.224117647058826,311.4345889118005
-0.10837939453125,0.19836962890625,0.99488232421875,1.0202389141148585,0.28857421875,-0.06298828125,0.02734375,45.84764705882353,311.4345889118005
-0.09177783203125,0.20032275390625,0.99732373046875,1.021375053318341,0.3203125,0.3466796875,-0.0185546875,46.13,311.4345889118005
-0.06882861328125,0.20471728515625,0.98462841796875,1.0080375321978885,0.333984375,0.7412109375,-0.1533203125,46.27117647058824,311.4130808284218
-0.06248095703125,0.20325244140625,0.96705029296875,0.9901523590135444,0.34619140625,0.7890625,-0.24169921875,46.27117647058824,311.4130808284218
-0.06589892578125,0.19983447265625,0.95874951171875,0.9815686991249596,0.34228515625,0.61328125,-0.23583984375,46.08294117647059,311.4130808284218
-0.06687548828125,0.19397509765625,0.94165966796875,0.9637539103539988,0.3115234375,0.3505859375,-0.216796875,45.94176470588236,311.4130808284218
-0.06834033203125,0.20032275390625,0.94312451171875,0.966583390773634,0.318359375,0.091796875,-0.19384765625,46.08294117647059,311.51145998025765
