AccX,AccY,AccZ,Magnitude,GyroX,GyroY,GyroZ,Temperature,Altitude
0.79005810546875,-0.61266552734375,-0.0319731445312501,1.0002865291422665,-0.041015625,0.56005859375,-0.53662109375,45.00058823529412,295.59855162605464
0.80910107421875,-0.62291943359375,-0.0427153320312501,1.022006736103649,-0.12109375,0.76904296875,-0.5751953125,45.09470588235294,295.59855162605464
0.83351513671875,-0.62047802734375,-0.0412504882812501,1.039924068544963,-0.13720703125,0.91259765625,-0.55126953125,44.81235294117647,295.59855162605464
0.87306591796875,-0.63463818359375,-0.0490629882812501,1.0804706835508664,-0.1337890625,1.09814453125,-0.5322265625,44.81235294117647,295.59855162605464
0.87990185546875,-0.63268505859375,-0.0368559570312501,1.084378172130837,-0.0712890625,1.2666015625,-0.43505859375,45.18882352941176,295.59855162605464
0.88673779296875,-0.63805615234375,-0.0285551757812501,1.0928105806070412,-0.0693359375,1.42578125,-0.33935546875,44.906470588235294,295.4652557328125
0.89747998046875,-0.64489208984375,-0.0212309570312501,1.1053537336172932,0.1552734375,1.39453125,-0.49853515625,44.81235294117647,295.4652557328125
0.82814404296875,-0.57018505859375,-0.0036528320312501,1.0054585521691253,0.09033203125,1.72412109375,-0.48974609375,45.00058823529412,295.4652557328125
0.67531201171875,-0.57262646484375,0.0002534179687498,0.8854080672953814,0.18896484375,2.26708984375,-0.3662109375,45.00058823529412,295.4652557328125
0.66554638671875,-0.50622021484375,0.0031831054687498,0.8361943739055301,0.33740234375,1.82861328125,0.2724609375,44.85941176470588,295.75342591238297
0.62013623046875,-0.52184521484375,0.0393159179687498,0.8114413805081891,0.19970703125,1.72607421875,0.62451171875,45.00058823529412,295.75342591238297
0.62306591796875,-0.45250927734375,0.0647065429687498,0.7727630431894182,0.75634765625,1.6689453125,0.35205078125,45.00058823529412,295.75342591238297
0.60988232421875,-0.47448193359375,0.0529877929687498,0.7745303486016719,1.04248046875,1.02294921875,0.78466796875,45.47117647058823,295.75342591238297
0.63087841796875,-0.46129833984375,0.1442963867187499,0.7947485035037435,0.82080078125,0.6787109375,1.12841796875,45.00058823529412,295.75342591238297
0.69044873046875,-0.63122021484375,-0.0056059570312501,0.9355158126870624,1.75537109375,0.84521484375,2.2490234375,45.04764705882353,295.5446099890624
0.75050732421875,-0.60680615234375,0.0730073242187498,0.967886883689306,1.68603515625,0.982421875,2.345703125,45.04764705882353,295.5446099890624
0.85744091796875,-0.66881787109375,0.1638276367187499,1.0997098558503144,2.4658203125,1.4091796875,2.19775390625,45.04764705882353,295.5446099890624
0.98390576171875,-0.69372021484375,0.1355073242187499,1.2114786499741288,2.30419921875,0.75732421875,1.76416015625,45.09470588235294,295.5446099890624
1.07912060546875,-0.82457958984375,0.1154877929687498,1.363000444408923,2.47509765625,0.23681640625,1.2548828125,44.906470588235294,295.43416922806426
1.01173779296875,-0.76598583984375,0.3059174804687499,1.3053479127875298,3.02099609375,0.1796875,1.03857421875,45.00058823529412,295.43416922806426
1.01369091796875,-0.85094677734375,0.2121674804687499,1.3404084208973392,3.3603515625,0.91015625,1.0693359375,45.04764705882353,295.43416922806426
1.14650341796875,-0.88073193359375,0.0441987304687498,1.4464136178980276,2.4404296875,2.625,0.9677734375,45.04764705882353,295.43416922806426
1.11281201171875,-0.71764599609375,0.1760346679687499,1.3357973474527451,2.91064453125,3.75146484375,0.98681640625,44.906470588235294,295.43416922806426
1.14747998046875,-0.78551708984375,-0.0031645507812501,1.390596065863414,3.033203125,3.78515625,1.1533203125,45.04764705882353,295.75598544166235
1.17335888671875,-0.83483349609375,-0.0012114257812501,1.4400414962057175,2.7236328125,2.57861328125,3.02685546875,44.906470588235294,295.75598544166235
1.23146435546875,-0.54577099609375,0.5329682617187499,1.4485943555622236,4.01806640625,4.92578125,-1.03564453125,45.04764705882353,295.75598544166235
1.31544873046875,-0.65758740234375,0.5910737304687499,1.5849904444706573,3.82421875,13.3818359375,-4.60205078125,45.00058823529412,295.75598544166235
1.24269482421875,-0.27233349609375,1.38062451171875,1.877386481679612,7.57275390625,15.99951171875,-10.32568359375,45.00058823529412,295.8340640139057
0.89308544921875,-0.67956005859375,0.7790620117187499,1.3661409557382662,5.5986328125,15.99951171875,-13.1953125,45.09470588235294,295.8340640139057
0.38869091796875,-0.92858349609375,0.6413666992187499,1.193607633100524,5.3359375,15.99951171875,-10.19677734375,44.906470588235294,295.8340640139057
1.14894482421875,-1.32750927734375,0.0774018554687498,1.7573690954841517,5.17578125,15.99951171875,-3.8330078125,45.09470588235294,295.8340640139057
1.09340283203125,-1.12487255859375,0.1445405273437499,2.3136615049255957,3.94873046875,15.99951171875,-0.126953125,44.85941176470588,295.8340640139057
1.03786083984375,-0.92223583984375,0.2116791992187499,2.282679499799648,3.0947265625,-1.291015625,0.228515625,44.906470588235294,295.5135246792674
0.98231884765625,-0.71959912109375,0.2788178710937499,1.6873672829469255,2.376953125,16.0,-1.0205078125,44.906470588235294,295.5135246792674
0.92677685546875,-0.51696240234375,0.3459565429687499,1.116177134191726,2.18798828125,16.0,-0.88427734375,45.00058823529412,295.5135246792674
0.62941357421875,-0.54039990234375,0.7067963867187499,1.0898415637800922,2.099609375,16.0,-0.94091796875,45.235882352941175,295.5135246792674
0.42384716796875,-0.52233349609375,0.94458935546875,1.1596239706911535,2.2568359375,-12.9296875,-1.84228515625,45.04764705882353,295.6817488979413
0.39747998046875,-0.50573193359375,1.12378857421875,1.2948574759696614,2.72705078125,1.67626953125,-3.09765625,45.04764705882353,295.6817488979413
0.47999951171875,-0.55993115234375,1.00513623046875,1.2466841093140502,3.189453125,14.65576171875,-4.18701171875,45.00058823529412,295.6817488979413
0.58302685546875,-0.58678662109375,0.7795502929687499,1.136634291300444,3.5546875,15.99951171875,-4.1826171875,45.18882352941176,295.6817488979413
0.82277294921875,-0.60436474609375,0.5388276367187499,1.1543601233492933,3.9189453125,15.99951171875,-3.462890625,44.906470588235294,295.6817488979413
0.92970654296875,-0.65123974609375,0.2858979492187499,1.1705576022984272,3.9921875,15.2978515625,-2.9921875,45.09470588235294,295.4018044536702
1.13185498046875,-0.67760693359375,0.1340424804687499,1.3259767116493617,3.685546875,5.33935546875,-1.9482421875,45.04764705882353,295.4018044536702
1.07033154296875,-0.69860302734375,0.1853120117187499,1.2915093276376164,3.3525390625,-3.43310546875,-1.14501953125,45.04764705882353,295.4018044536702
0.88380810546875,-0.68834912109375,0.3752534179687499,1.1814213505350362,3.15283203125,-8.29443359375,-0.82958984375,45.09470588235294,295.4018044536702
0.69581982421875,-0.64586865234375,0.5793549804687499,1.1121887147647604,3.142578125,-7.64404296875,-1.19384765625,45.235882352941175,295.81376864256384
0.66017529296875,-0.60241162109375,0.7014252929687499,1.136102381078163,3.27294921875,-3.48974609375,-2.0205078125,45.42411764705882,295.81376864256384
0.66066357421875,-0.59752880859375,0.7287690429687499,1.1509219579921777,3.3056640625,2.43359375,-2.72802734375,45.00058823529412,295.81376864256384
0.69728466796875,-0.59118115234375,0.6716401367187499,1.134372750167402,3.44287109375,7.1357421875,-2.86328125,45.18882352941176,295.81376864256384
0.75734326171875,-0.58141552734375,0.5505463867187499,1.1021407148981828,3.48583984375,9.0126953125,-2.6767578125,45.18882352941176,295.81376864256384
0.85206982421875,-0.56090771484375,0.4187104492187499,1.1027052598951257,3.525390625,7.82421875,-2.6337890625,45.18882352941176,295.959141133444
0.95705029296875,-0.51842724609375,0.3391206054687499,1.1400503751227011,3.41796875,4.69970703125,-2.7421875,45.00058823529412,295.959141133444
1.01613232421875,-0.48131787109375,0.3244721679687499,1.170245265379339,3.21142578125,1.29931640625,-2.84130859375,44.906470588235294,295.959141133444
0.93605419921875,-0.42565380859375,0.3737885742187499,1.0941190642987195,3.06884765625,-1.0263671875,-2.59765625,45.04764705882353,295.959141133444
0.76759716796875,-0.37194287109375,0.4406831054687499,0.9600773464032408,2.919921875,-2.18017578125,-2.18994140625,45.09470588235294,296.0480106719265
0.65285107421875,-0.30163037109375,0.4777924804687499,0.8634124508409697,2.75830078125,-1.37744140625,-2.1943359375,45.00058823529412,296.0480106719265
0.65919873046875,-0.24840771484375,0.4997651367187499,0.8637213386995926,2.60400390625,0.4189453125,-2.71142578125,45.09470588235294,296.0480106719265
0.71388623046875,-0.23424755859375,0.4851166992187499,0.894339801541287,2.44580078125,2.501953125,-3.18994140625,45.18882352941176,296.0480106719265
0.76857373046875,-0.36608349609375,0.4318940429687499,0.9545968623616808,2.23388671875,4.01904296875,-3.0029296875,45.04764705882353,296.0480106719265
0.80910107421875,-0.25670849609375,0.3776948242187499,0.9290840545990888,1.86279296875,3.66162109375,-2.93017578125,45.09470588235294,295.5363809322987
0.74806591796875,-0.24938427734375,0.3440034179687499,0.860310110940744,1.42919921875,1.79296875,-2.857421875,45.18882352941176,295.5363809322987
0.73390576171875,-0.26793896484375,0.3410737304687499,0.8524906131925374,0.90576171875,-0.84423828125,-2.97265625,45.00058823529412,295.5363809322987
0.76173779296875,-0.28942333984375,0.3884370117187499,0.9027145988385284,0.357421875,-2.900390625,-3.24609375,45.04764705882353,295.5363809322987
0.72511669921875,-0.29870068359375,0.4748627929687499,0.9167938688774868,0.02392578125,-3.85302734375,-3.11181640625,44.85941176470588,295.8594842658283
0.69044873046875,-0.27575146484375,0.5593354492187499,0.9303840414162978,-0.34228515625,-3.5087890625,-2.97509765625,44.906470588235294,295.8594842658283
0.65773388671875,-0.21569287109375,0.5900971679687499,0.9095888895669064,-0.58056640625,-2.1796875,-2.9794921875,45.00058823529412,295.8594842658283
0.65919873046875,-0.17956005859375,0.5983979492187499,0.9082207256625496,-0.80224609375,-0.94970703125,-3.1474609375,45.04764705882353,295.8594842658283
0.71779248046875,-0.19811474609375,0.5857026367187499,0.9473769452000445,-0.916015625,-0.15673828125,-3.2060546875,45.00058823529412,295.8594842658283
0.81251904296875,-0.24791943359375,0.5422456054687499,1.0078102685478405,-0.9853515625,-0.0087890625,-3.43408203125,45.04764705882353,295.6493846783184
0.79835888671875,-0.27282177734375,0.5119721679687499,0.9868759471029914,-0.97119140625,-0.46142578125,-3.29638671875,45.04764705882353,295.6493846783184
0.72121044921875,-0.30602490234375,0.4724213867187499,0.914864864089817,-1.0126953125,-1.337890625,-2.84326171875,45.04764705882353,295.6493846783184
0.69191357421875,-0.33434521484375,0.4416596679687499,0.8863376214441907,-1.09912109375,-1.9521484375,-2.51318359375,45.09470588235294,295.6493846783184
0.72462841796875,-0.24498974609375,0.4162690429687499,0.8708537397020768,-1.41845703125,-2.51708984375,-2.5009765625,44.906470588235294,295.670960811147
0.72706982421875,-0.38170849609375,0.4201752929687499,0.9224311259389566,-1.6865234375,-3.24267578125,-2.43994140625,45.09470588235294,295.670960811147
0.72560498046875,-0.37975537109375,0.4177338867187499,0.9193575635566176,-1.8642578125,-3.77587890625,-1.7548828125,44.906470588235294,295.670960811147
0.74953076171875,-0.35582958984375,0.4323823242187499,0.9356097124698252,-2.02099609375,-4.05859375,-1.09423828125,45.04764705882353,295.670960811147
0.79201123046875,-0.31872021484375,0.4480073242187499,0.9641446608742454,-2.1845703125,-4.16650390625,-0.93701171875,45.00058823529412,295.670960811147
0.81935498046875,-0.29332958984375,0.4660737304687499,0.9872231533599204,-2.3046875,-4.13818359375,-1.02392578125,45.04764705882353,295.80554409031834
0.78371044921875,-0.28698193359375,0.4597260742187499,0.9528424642827616,-2.36572265625,-4.103515625,-0.85009765625,45.04764705882353,295.80554409031834
0.78126904296875,-0.28356396484375,0.4406831054687499,0.94073983603587,-2.42431640625,-4.17236328125,-0.67333984375,45.09470588235294,295.80554409031834
0.81056591796875,-0.25524365234375,0.4299409179687499,0.9523736779112024,-2.509765625,-4.14453125,-0.61767578125,45.00058823529412,295.80554409031834
0.83742138671875,-0.22887646484375,0.4143159179687499,0.9619338308717572,-2.59375,-4.28564453125,-0.8427734375,45.04764705882353,295.6938182586643
0.88185498046875,-0.21081005859375,0.3991791992187499,0.9906831584673084,-2.75,-4.41943359375,-1.22802734375,45.09470588235294,295.6938182586643
0.86622998046875,-0.20055615234375,0.3830659179687499,0.9681511487443796,-2.8369140625,-4.39404296875,-1.17529296875,45.09470588235294,295.6938182586643
0.87794873046875,-0.19274365234375,0.3703706054687499,0.9721720394280976,-2.82666015625,-4.4072265625,-1.0244140625,44.15352941176471,295.6938182586643
0.89064404296875,-0.19909130859375,0.3527924804687499,0.9784409510586656,-2.849609375,-4.7412109375,-1.29345703125,44.906470588235294,295.6938182586643
0.87404248046875,-0.21276318359375,0.3337495117187499,0.9594827598917122,-2.84326171875,-5.0771484375,-1.73046875,45.18882352941176,295.3948553873325
0.86232373046875,-0.22594677734375,0.3332612304687499,0.95169176210321,-2.75634765625,-5.22265625,-1.87353515625,45.04764705882353,295.3948553873325
0.87648388671875,-0.23620068359375,0.3264252929687499,0.9646596490459708,-2.61181640625,-5.22705078125,-1.42431640625,45.09470588235294,295.3948553873325
0.89210888671875,-0.22252880859375,0.3044526367187499,0.9685394903780228,-2.458984375,-4.9833984375,-1.140625,45.04764705882353,295.3948553873325
0.90724560546875,-0.21081005859375,0.2941987304687499,0.9767744685730084,-2.34326171875,-4.9306640625,-1.212890625,44.85941176470588,295.88362497356513
0.94435498046875,-0.21129833984375,0.2824799804687499,1.0080913931397706,-2.345703125,-4.88623046875,-1.73779296875,44.906470588235294,295.88362497356513
0.91456982421875,-0.23278271484375,0.2683198242187499,0.9811326535032472,-2.38427734375,-4.6630859375,-2.017578125,45.235882352941175,295.88362497356513
0.87990185546875,-0.23522412109375,0.2732026367187499,0.9508929188461512,-2.29638671875,-4.34716796875,-1.66064453125,45.00058823529412,295.88362497356513
0.87062451171875,-0.22692333984375,0.2566010742187499,0.9355882394844274,-2.22216796875,-4.21337890625,-1.21337890625,45.00058823529412,295.88362497356513
0.86378857421875,-0.21666943359375,0.2463471679687499,0.9239931122962556,-2.2529296875,-4.1845703125,-1.18994140625,45.47117647058823,295.76110993768424
0.87257763671875,-0.22106396484375,0.2385346679687499,0.9312141517809314,-2.2568359375,-4.20458984375,-1.3896484375,45.09470588235294,295.76110993768424
0.91066357421875,-0.24157177734375,0.2292573242187499,0.9696514784838044,-2.19580078125,-4.0859375,-1.4599609375,44.81235294117647,295.76110993768424
0.92628857421875,-0.25280224609375,0.2199799804687499,0.9850434965854458,-2.14111328125,-3.78173828125,-1.25390625,45.09470588235294,295.76110993768424
0.91554638671875,-0.25817333984375,0.2072846679687499,0.9735736198227386,-2.015625,-3.67236328125,-0.91796875,45.04764705882353,295.6830302187592
0.90529248046875,-0.25963818359375,0.1887299804687499,0.9605131269799796,-1.927734375,-3.9462890625,-0.86572265625,45.04764705882353,295.6830302187592
0.89601513671875,-0.25719677734375,0.1652924804687499,0.946739093734194,-1.90966796875,-4.47216796875,-1.2294921875,45.00058823529412,295.6830302187592
0.82912060546875,-0.24889599609375,0.1750581054687499,0.8831962044612027,-1.8759765625,-4.7509765625,-1.263671875,44.906470588235294,295.6830302187592
0.82716748046875,-0.23131787109375,0.1789643554687499,0.8773495533484414,-1.73388671875,-5.02880859375,-1.0205078125,45.00058823529412,295.6830302187592
0.86720654296875,-0.22497021484375,0.1916596679687499,0.9161835045778464,-1.5537109375,-4.90478515625,-0.69189453125,45.37705882352941,295.7395339503442
0.90285107421875,-0.22106396484375,0.2097260742187499,0.9528873831558472,-1.33837890625,-4.61962890625,-0.55517578125,45.33,295.7395339503442
0.88624951171875,-0.20983349609375,0.2033784179687499,0.9331833013937402,-1.09912109375,-4.2509765625,-0.69384765625,45.09470588235294,295.7395339503442
0.90285107421875,-0.20836865234375,0.2146088867187499,0.9511122603332176,-0.86181640625,-3.9677734375,-0.86474609375,45.00058823529412,295.7395339503442
0.87599560546875,-0.20543896484375,0.2214448242187499,0.926612798988826,-0.65478515625,-3.880859375,-0.9560546875,44.906470588235294,295.7865337463194
0.96730419921875,-0.22204052734375,0.2302338867187499,1.0188164958435548,-0.55322265625,-3.57421875,-1.23388671875,44.906470588235294,295.7865337463194
0.99708935546875,-0.21911083984375,0.2263276367187499,1.0456677015518914,-0.47314453125,-3.11279296875,-1.39404296875,44.906470588235294,295.7865337463194
0.96046826171875,-0.21422802734375,0.2326752929687499,1.011202611461583,-0.31396484375,-2.71533203125,-1.3701171875,45.18882352941176,295.7865337463194
0.99074169921875,-0.21276318359375,0.2375581054687499,1.0408031227555503,-0.13525390625,-2.453125,-1.451171875,45.00058823529412,295.7865337463194
1.00636669921875,-0.22594677734375,0.2043549804687499,1.0514688951799056,-0.078125,-2.52587890625,-1.7939453125,44.85941176470588,295.9819997079812
0.97951123046875,-0.21959912109375,0.1916596679687499,1.021958635623499,-0.06640625,-2.646484375,-2.3330078125,45.235882352941175,295.9819997079812
0.97267529296875,-0.22008740234375,0.2058198242187499,1.0182816360239937,0.00439453125,-2.7265625,-2.5400390625,45.00058823529412,295.9819997079812
0.94093701171875,-0.21276318359375,0.1989838867187499,0.9850001114156582,0.38232421875,-2.74755859375,-2.3388671875,45.47117647058823,295.9819997079812
0.90578076171875,-0.21178662109375,0.2024018554687499,0.951976298166766,0.68896484375,-2.6259765625,-1.83740234375,45.00058823529412,295.9522021932799
0.93947216796875,-0.18590771484375,0.1945893554687499,0.977258742651132,1.06005859375,-2.78564453125,-1.70263671875,44.906470588235294,295.9522021932799
0.95900341796875,-0.14879833984375,0.1906831054687499,0.9890341492219606,1.5615234375,-2.56884765625,-1.6943359375,45.04764705882353,295.9522021932799
0.96779248046875,-0.12389599609375,0.1823823242187499,0.9925904569797916,2.19287109375,-2.3076171875,-1.41357421875,44.906470588235294,295.9522021932799
1.02247998046875,-0.10534130859375,0.1731049804687499,1.0423662676903478,2.818359375,-2.07177734375,-1.232421875,45.00058823529412,295.9522021932799
1.06447216796875,-0.05748974609375,0.1623627929687499,1.0783170887204876,3.51806640625,-1.85546875,-1.3369140625,45.09470588235294,296.0074253849658
0.98634716796875,0.00647509765625,0.1438081054687499,0.9967965859934224,3.9130859375,-1.6103515625,-1.09375,45.04764705882353,296.0074253849658
0.88722607421875,0.09973681640625,0.1584565429687499,0.9067667921412188,4.05859375,-1.64404296875,-0.302734375,45.00058823529412,296.0074253849658
1.00539013671875,0.15442431640625,0.1662690429687499,1.030680159486263,4.01220703125,-1.74169921875,-0.08837890625,44.906470588235294,296.0074253849658
1.14601513671875,0.20325244140625,0.1628510742187499,1.1752373040796047,3.70849609375,-1.7470703125,-0.84716796875,45.00058823529412,296.0410730112757
1.30031201171875,0.20276416015625,0.1770112304687499,1.3278771058256833,3.150390625,-1.73828125,-2.31298828125,44.906470588235294,296.0410730112757
1.35695263671875,0.16272509765625,0.1960541992187499,1.38066547893996,2.70703125,-1.9462890625,-3.609375,45.04764705882353,296.0410730112757
1.30958935546875,0.07874072265625,0.2199799804687499,1.3302689852689629,2.4541015625,-2.19384765625,-4.11181640625,45.04764705882353,296.0410730112757
1.25441357421875,0.00793994140625,0.2673432617187499,1.282610181403615,2.49365234375,-2.404296875,-3.9423828125,45.04764705882353,296.0410730112757
1.24269482421875,-0.07360302734375,0.3259370117187499,1.2868343978081964,2.93310546875,-2.6513671875,-3.52587890625,45.00058823529412,296.0626487646663
1.22316357421875,-0.15612255859375,0.3542573242187499,1.2829659521437329,3.521484375,-2.66650390625,-3.0634765625,45.235882352941175,296.0626487646663
1.10548779296875,-0.21911083984375,0.3645112304687499,1.1844750979559653,4.2216796875,-2.30419921875,-2.5244140625,45.00058823529412,296.0626487646663
0.96046826171875,-0.28747021484375,0.3874604492187499,1.0748320826529811,4.6416015625,-2.10400390625,-1.958984375,45.04764705882353,296.0626487646663
0.87404248046875,-0.33043896484375,0.4284760742187499,1.027974665703823,4.99169921875,-1.8984375,-1.22998046875,45.09470588235294,295.6855942197559
0.81691357421875,-0.39147412109375,0.4636323242187499,1.017622084709966,5.2802734375,-1.4033203125,-0.28369140625,45.00058823529412,295.6855942197559
0.76076123046875,-0.40661083984375,0.5114838867187499,1.0028488376797795,5.45703125,-0.75146484375,0.955078125,45.00058823529412,295.6855942197559
0.74953076171875,-0.38170849609375,0.5637299804687499,1.012565666824695,5.75927734375,-0.20458984375,2.4423828125,45.09470588235294,295.6855942197559
0.75246044921875,-0.32799755859375,0.5710541992187499,0.9999410105237764,6.46923828125,0.447265625,3.76953125,45.00058823529412,295.6855942197559
0.73439404296875,-0.23620068359375,0.5407807617187499,0.9421089138328184,7.30908203125,1.818359375,4.75439453125,45.18882352941176,295.80554409031834
0.87111279296875,-0.17614208984375,0.5017182617187499,1.020580593598773,8.05810546875,3.447265625,5.7041015625,44.85941176470588,295.80554409031834
1.02003857421875,-0.11022412109375,0.4431245117187499,1.117581040753238,8.5576171875,4.8642578125,5.96875,45.09470588235294,295.80554409031834
1.12941357421875,-0.03795849609375,0.3474213867187499,1.1822510262227943,8.48095703125,5.33349609375,5.759765625,44.85941176470588,295.80554409031834
1.13576123046875,0.05920947265625,0.2956635742187499,1.1751069242447372,8.009765625,4.97509765625,5.33642578125,45.00058823529412,295.6963821386993
1.09376904296875,0.13489306640625,0.2800385742187499,1.1370789162462414,7.5185546875,4.09619140625,4.8505859375,45.04764705882353,295.6963821386993
1.12550732421875,0.10706103515625,0.3088471679687499,1.1720133852823933,7.2724609375,3.16064453125,3.78759765625,45.09470588235294,295.6963821386993
1.19777294921875,-0.00182568359375,0.3376557617187499,1.2444576266079277,7.08056640625,2.6220703125,2.17236328125,44.906470588235294,295.6963821386993
1.23732373046875,-0.09997021484375,0.3776948242187499,1.297542846336352,6.97314453125,2.3603515625,0.68798828125,45.18882352941176,295.6963821386993
1.22218701171875,-0.17125927734375,0.4172456054687499,1.3027527497469715,6.99609375,2.376953125,-0.09326171875,44.85941176470588,296.0518608811752
1.19093701171875,-0.20104443359375,0.4729096679687499,1.2970710790927886,7.134765625,1.9130859375,0.01171875,45.00058823529412,296.0518608811752
1.18410107421875,-0.23522412109375,0.5163666992187499,1.3130347707400565,7.31689453125,0.90185546875,0.2958984375,45.00058823529412,296.0518608811752
1.20509716796875,-0.25768505859375,0.5471284179687499,1.3483361151499849,7.2744140625,-0.037109375,-0.07666015625,45.18882352941176,296.0518608811752
1.18312451171875,-0.28698193359375,0.5642182617187499,1.341821332106427,6.78515625,-0.2744140625,-1.025390625,45.18882352941176,295.6963821386993
1.11964794921875,-0.30993115234375,0.5681245117187499,1.2932263182438508,5.95556640625,0.46240234375,-2.01318359375,45.00058823529412,295.6963821386993
0.95851513671875,-0.31432568359375,0.4797456054687499,1.1170083923821787,4.8837890625,1.10498046875,-1.76611328125,45.09470588235294,295.6963821386993
0.83449169921875,-0.32946240234375,0.6340424804687499,1.0986044500465473,4.1005859375,1.4794921875,-0.775390625,44.906470588235294,295.6963821386993
0.81837841796875,-0.32604443359375,0.6306245117187499,1.083390733971366,3.05078125,1.68798828125,-0.033203125,44.85941176470588,295.6963821386993
0.85011669921875,-0.29430615234375,0.6311127929687499,1.0989166806663648,2.23876953125,1.7734375,0.2119140625,45.235882352941175,295.6855942197559
0.81251904296875,-0.22204052734375,0.6237885742187499,1.0481418684013175,1.99169921875,2.42041015625,0.44873046875,44.906470588235294,295.6855942197559
0.75294873046875,-0.16344677734375,0.5896088867187499,0.9701985771151612,2.40283203125,3.2626953125,0.759765625,45.235882352941175,295.6855942197559
0.71876904296875,-0.14342724609375,0.4973237304687499,0.8857376614661948,2.8876953125,3.88427734375,0.4306640625,45.235882352941175,295.6855942197559
0.60158154296875,-0.13073193359375,0.3635346679687499,0.7149466036823812,2.89892578125,3.69970703125,-0.1513671875,45.00058823529412,295.74209915902
0.43703076171875,-0.07848583984375,0.2566010742187499,0.5128352806064205,2.7841796875,2.7021484375,-0.484375,45.18882352941176,295.74209915902
0.34279248046875,-0.02331005859375,0.1721284179687499,0.3842892605446931,2.84912109375,1.80078125,-0.4189453125,45.09470588235294,295.74209915902
0.40040966796875,0.05627978515625,0.0798432617187498,0.4121532031441307,2.6787109375,1.0859375,-0.16748046875,45.04764705882353,295.74209915902
0.47560498046875,0.18811572265625,0.0061127929687498,0.5114929019986906,2.2119140625,1.49462890625,0.3974609375,44.906470588235294,295.74209915902
0.66798779296875,0.32776416015625,-0.0314848632812501,0.7447337328562689,1.8359375,2.50830078125,1.1220703125,45.04764705882353,295.7973216061051
0.96486279296875,0.42639697265625,-0.0656645507812501,1.056923091229998,1.71044921875,3.5859375,0.71630859375,45.04764705882353,295.7973216061051
1.06544873046875,0.38733447265625,-0.1384184570312501,1.1420896025322524,1.53759765625,2.91748046875,-0.8037109375,44.906470588235294,295.7973216061051
0.89357373046875,0.25598681640625,-0.1686918945312501,0.944701125879602,1.265625,0.466796875,-1.4365234375,45.18882352941176,295.7973216061051
0.81740185546875,0.09583056640625,-0.0412504882812501,0.8240333085288115,1.36376953125,-3.19091796875,-0.73388671875,44.85941176470588,296.0772905863328
0.89894482421875,-0.09557568359375,0.1110932617187498,0.9108118472458528,1.75927734375,-6.1708984375,-0.3984375,45.00058823529412,296.0772905863328
1.00587841796875,-0.20495068359375,0.2888276367187499,1.06640404077132,2.01611328125,-8.37646484375,-0.67578125,45.09470588235294,296.0772905863328
1.10109326171875,-0.32555615234375,0.4631440429687499,1.238101604824395,2.3583984375,-10.4228515625,-0.83154296875,45.04764705882353,296.0772905863328
1.13576123046875,-0.48717724609375,0.5539643554687499,1.3543159708418442,2.31884765625,-10.42578125,-0.677734375,44.85941176470588,296.0772905863328
0.99953076171875,-0.65954052734375,0.5441987304687499,1.3153736005693346,1.7470703125,-7.74072265625,0.30908203125,45.09470588235294,295.97763080993934
0.87257763671875,-0.76012646484375,0.4865815429687499,1.2553667084224374,0.56396484375,-3.400390625,1.5712890625,45.04764705882353,295.97763080993934
0.86330029296875,-0.71715771484375,0.4123627929687499,1.1956779068063552,-0.1455078125,-0.30322265625,2.53564453125,45.00058823529412,295.97763080993934
0.92970654296875,-0.58483349609375,0.3000581054687499,1.138604119459278,-0.80810546875,0.97412109375,3.185546875,44.81235294117647,295.97763080993934
1.08546826171875,-0.37829052734375,0.2287690429687499,1.1720411022219208,-1.52001953125,0.736328125,3.65380859375,45.235882352941175,295.80939285375223
1.23195263671875,-0.07164990234375,0.2224213867187499,1.2539187696553715,-1.75537109375,-1.0400390625,3.73388671875,45.04764705882353,295.80939285375223
1.27150341796875,0.16663134765625,0.2190034179687499,1.3009417531196188,-1.44677734375,-2.21923828125,3.96044921875,45.00058823529412,295.80939285375223
1.33595654296875,0.34729541015625,0.2053315429687499,1.3955482897967162,-1.1181640625,-2.181640625,3.51806640625,44.906470588235294,295.80939285375223
1.39406201171875,0.50745166015625,0.1999604492187499,1.4969636806430633,-0.98486328125,-1.3984375,1.7724609375,45.235882352941175,295.80939285375223
1.39699169921875,0.57581103515625,0.2058198242187499,1.5249609686596048,-0.93359375,-0.7177734375,-0.5,45.235882352941175,295.8538278266829
1.42042919921875,0.52551806640625,0.2028901367187499,1.5280552201050643,-0.7978515625,-0.69189453125,-2.390625,44.906470588235294,295.8538278266829
1.47316357421875,0.38879931640625,0.1984956054687499,1.5364818027667415,-0.78271484375,-1.1005859375,-4.26220703125,45.04764705882353,295.8538278266829
1.37062451171875,0.24866259765625,0.1828706054687499,1.4049506389698976,-0.80810546875,-1.2509765625,-5.90234375,45.04764705882353,295.8538278266829
1.19533154296875,0.10022509765625,0.1662690429687499,1.210994617026022,-0.77392578125,-1.39208984375,-6.58154296875,44.85941176470588,295.90905080051965
1.12746044921875,-0.01745068359375,0.1735932617187499,1.1408795779680647,-0.71728515625,-1.72216796875,-6.615234375,45.04764705882353,295.90905080051965
1.12941357421875,-0.12145458984375,0.1706635742187499,1.1486741463917451,-0.56103515625,-2.34521484375,-6.39208984375,45.00058823529412,295.90905080051965
1.17189404296875,-0.23473583984375,0.1716401367187499,1.2074340143401727,-0.49658203125,-2.75732421875,-6.0693359375,45.09470588235294,295.90905080051965
1.20119091796875,-0.33239208984375,0.1721284179687499,1.2581622769236602,-0.060546875,-3.076171875,-5.6240234375,44.906470588235294,295.90905080051965
1.16749951171875,-0.44323193359375,0.1774995117187499,1.2613547215122196,0.486328125,-2.958984375,-4.490234375,45.04764705882353,295.68944361968266
1.11037060546875,-0.49889599609375,0.1560151367187499,1.2272574380678178,0.8798828125,-2.560546875,-3.8076171875,45.04764705882353,295.68944361968266
0.98488232421875,-0.46373974609375,0.1530854492187499,1.0993101925426367,1.23828125,-2.15576171875,-2.90185546875,45.00058823529412,295.68944361968266
0.93410107421875,-0.40075146484375,0.1218354492187498,1.0237140372767035,1.4599609375,-1.94580078125,-1.80322265625,44.906470588235294,295.68944361968266
0.94728466796875,-0.30651318359375,0.0974213867187498,1.0003946723546888,1.34423828125,-1.89794921875,-0.8818359375,45.09470588235294,295.5319990868269
0.99415966796875,-0.16832958984375,0.0861909179687498,1.0119867442674315,1.1005859375,-1.83935546875,-0.3232421875,45.04764705882353,295.5319990868269
1.01173779296875,-0.03258740234375,0.0954682617187498,1.0167543899626843,0.8369140625,-1.69482421875,-0.1162109375,45.00058823529412,295.5319990868269
0.99806591796875,0.07043994140625,0.0783784179687498,1.0036137396226714,0.529296875,-1.28466796875,0.0029296875,45.04764705882353,295.5319990868269
1.00539013671875,0.13440478515625,0.0686127929687498,1.0166521964975128,0.18798828125,-0.34130859375,-0.20166015625,45.00058823529412,295.5319990868269
1.03273388671875,0.15247119140625,0.0627534179687498,1.0458129548121011,-0.046875,0.599609375,-0.5087890625,44.85941176470588,295.76624168370125
1.08888623046875,0.13049853515625,0.0500581054687498,1.0978200692761504,-0.0927734375,0.98681640625,-1.03076171875,45.09470588235294,295.76624168370125
1.09230419921875,0.10852587890625,0.0197846679687498,1.0978605390075384,-0.080078125,0.544921875,-1.8740234375,45.09470588235294,295.76624168370125
1.06203076171875,0.06702197265625,0.0222260742187498,1.0643755361858054,-0.17919921875,-0.3740234375,-2.31396484375,44.906470588235294,295.76624168370125
1.03175732421875,0.01428759765625,0.0334565429687498,1.032398494668237,-0.23193359375,-0.67919921875,-2.17431640625,45.04764705882353,295.654513406087
0.98341748046875,-0.00866162109375,0.0393159179687498,0.9842411828292909,-0.3544921875,-0.2802734375,-1.8662109375,44.906470588235294,295.654513406087
0.99953076171875,-0.03014599609375,0.0622651367187498,1.001921889147629,-0.4443359375,0.2470703125,-1.361328125,45.00058823529412,295.654513406087
1.01124951171875,-0.05260693359375,0.0793549804687498,1.015721555023198,-0.3759765625,0.61328125,-0.86279296875,45.09470588235294,295.654513406087
1.04298779296875,-0.07018505859375,0.0705659179687498,1.047725645152587,-0.228515625,0.69140625,-0.23974609375,45.235882352941175,295.654513406087
1.15480419921875,-0.07995068359375,0.0608002929687498,1.1591641497067844,-0.142578125,0.68310546875,0.5068359375,45.00058823529412,295.56692800819815
1.21046826171875,-0.05309521484375,0.0285737304687498,1.211969047682579,-0.01416015625,0.78076171875,0.83349609375,45.00058823529412,295.56692800819815
1.17726513671875,-0.00622021484375,-0.0114653320312501,1.177337397284528,0.06494140625,0.662109375,0.84423828125,45.04764705882353,295.56692800819815
1.09572216796875,0.0274711914062499,-0.0368559570312501,1.0966859611138031,0.20361328125,0.4306640625,0.78759765625,44.906470588235294,295.56692800819815
1.05910107421875,0.0308891601562499,-0.0622465820312501,1.0613782844024284,0.46826171875,0.38623046875,0.85400390625,45.04764705882353,295.75417024848224
1.05275341796875,0.0230766601562499,-0.0832426757812501,1.0562914533215135,0.5537109375,0.34619140625,1.0498046875,45.37705882352941,295.75417024848224
1.07960888671875,0.0304008789062499,-0.0803129882812501,1.0830188076885072,0.5810546875,-0.05029296875,1.189453125,45.33,295.75417024848224
1.13087841796875,0.03723681640625,-0.0778715820312501,1.1341677830072698,0.33984375,-0.744140625,1.1103515625,45.00058823529412,295.75417024848224
1.16212841796875,0.04895556640625,-0.0529692382812501,1.164364568138692,-0.013671875,-1.39208984375,0.90625,44.906470588235294,295.75417024848224
1.15626904296875,0.07532275390625,-0.0471098632812501,1.1596770913501175,-0.4287109375,-1.8310546875,0.8349609375,45.09470588235294,295.67737224885525
1.11964794921875,0.09729541015625,-0.0124418945312501,1.12393626499315,-0.8125,-1.82958984375,0.90869140625,45.04764705882353,295.67737224885525
1.13673779296875,0.10852587890625,0.0085541992187498,1.1419386370029316,-1.1044921875,-1.3095703125,0.615234375,45.00058823529412,295.67737224885525
1.14992138671875,0.10168994140625,0.0280854492187498,1.1547505498046748,-1.28515625,-0.44189453125,0.36181640625,45.04764705882353,295.67737224885525
1.22316357421875,0.06555712890625,0.0222260742187498,1.2251207551997458,-1.2353515625,0.5361328125,-0.30810546875,45.04764705882353,296.0207818030389
1.21828076171875,0.0186821289062499,-0.0183012695312501,1.218561435784402,-1.18115234375,1.3701171875,-0.9951171875,45.18882352941176,296.0207818030389
1.16066357421875,-0.04332958984375,-0.0451567382812501,1.1623495674221558,-0.93994140625,1.615234375,-1.08056640625,45.00058823529412,296.0207818030389
1.13185498046875,-0.13463818359375,-0.0905668945312501,1.143427085422754,-0.56591796875,1.6240234375,-0.59423828125,45.18882352941176,296.0207818030389
1.13527294921875,-0.18200146484375,-0.1276762695312501,1.1568363895705072,-0.22802734375,1.1923828125,0.5908203125,45.04764705882353,296.0207818030389
1.15187451171875,-0.19762646484375,-0.1320708007812501,1.176143616559197,0.203125,0.62744140625,1.85595703125,45.235882352941175,295.65579672083527
1.23048779296875,-0.21129833984375,-0.1271879882812501,1.2549597529119656,0.4755859375,0.00341796875,2.1181640625,45.09470588235294,295.65579672083527
1.29542919921875,-0.21178662109375,-0.1169340820312501,1.3178254674285708,0.42236328125,-0.30029296875,1.4423828125,44.85941176470588,295.65579672083527
1.22902294921875,-0.21666943359375,-0.0895903320312501,1.2511872284968626,0.21484375,-0.33740234375,1.03466796875,45.04764705882353,295.65579672083527
1.15626904296875,-0.23131787109375,-0.0573637695312501,1.1805747156660813,-0.01025390625,-0.12353515625,1.37353515625,45.235882352941175,295.7675257530263
1.11330029296875,-0.23180615234375,-0.0436918945312501,1.1380160878636332,-0.29052734375,0.5810546875,2.181640625,45.00058823529412,295.7675257530263
1.13624951171875,-0.18590771484375,-0.0100004882812501,1.151401164271335,-0.3896484375,1.00341796875,2.8701171875,44.906470588235294,295.7675257530263
1.19142529296875,-0.14098583984375,-0.0212309570312501,1.199925826582036,-0.41015625,1.69775390625,2.84228515625,45.04764705882353,295.7675257530263
1.25294873046875,-0.10729443359375,-0.0295317382812501,1.2578810517013794,-0.49365234375,2.16845703125,2.03662109375,45.04764705882353,295.7675257530263
1.19874951171875,-0.09850537109375,-0.0427153320312501,1.203548212399819,-0.58984375,2.548828125,1.46435546875,45.18882352941176,295.9224073391659
1.14162060546875,-0.12438427734375,-0.0651762695312501,1.150224761249371,-0.63525390625,2.76806640625,1.4638671875,44.906470588235294,295.9224073391659
1.08400341796875,-0.14586865234375,-0.0886137695312501,1.0973574960126038,-0.595703125,2.701171875,1.78173828125,45.235882352941175,295.9224073391659
1.05031201171875,-0.17858349609375,-0.1003325195312501,1.0700999960345965,-0.4921875,2.5380859375,1.98291015625,44.906470588235294,295.9224073391659
1.05714794921875,-0.20006787109375,-0.1140043945312501,1.0819362003158186,-0.4638671875,2.25927734375,2.05712890625,45.09470588235294,296.26711096064065
1.03419873046875,-0.21129833984375,-0.1149809570312501,1.061807243808273,-0.40087890625,1.98291015625,2.12939453125,45.00058823529412,296.26711096064065
0.96730419921875,-0.22448193359375,-0.1227934570312501,1.0005737281309666,-0.35205078125,1.82666015625,2.2138671875,45.09470588235294,296.26711096064065
0.91408154296875,-0.24352490234375,-0.1081450195312501,0.9521264572035998,-0.3330078125,1.7353515625,2.58642578125,45.04764705882353,296.26711096064065
0.90236279296875,-0.26696240234375,-0.0993559570312501,0.9462553252675016,-0.33935546875,1.8251953125,3.16162109375,44.85941176470588,296.26711096064065
0.89015576171875,-0.25524365234375,-0.0768950195312501,0.9292144242377948,-0.201171875,2.0068359375,3.91162109375,45.33,295.78910118990933
0.91261669921875,-0.23082958984375,-0.0788481445312501,0.9446526182340156,-0.0849609375,2.04931640625,4.26025390625,45.00058823529412,295.78910118990933
0.94972607421875,-0.18151318359375,-0.0661528320312501,0.9691763766492928,-0.03076171875,1.8134765625,4.10986328125,45.00058823529412,295.78910118990933
0.99367138671875,-0.15465771484375,-0.0466215820312501,1.0067151560671723,0.08349609375,1.5029296875,3.58251953125,44.906470588235294,295.78910118990933
0.97658154296875,-0.15368115234375,-0.0466215820312501,0.9896984280901048,0.09228515625,1.4814453125,2.92138671875,45.00058823529412,295.77831346467696
0.89796826171875,-0.15612255859375,-0.0373442382812501,0.9122038393302558,0.0234375,1.4287109375,2.76171875,45.33,295.77831346467696
0.84816357421875,-0.16100537109375,-0.0192778320312501,0.8635252242756932,-0.09423828125,1.322265625,3.2939453125,45.04764705882353,295.77831346467696
0.86720654296875,-0.13366162109375,0.0129487304687498,0.8775421851637515,-0.04541015625,1.015625,3.9150390625,45.00058823529412,295.77831346467696
0.91945263671875,-0.11510693359375,0.0334565429687498,0.9272335722987156,-0.03125,0.72705078125,3.904296875,44.81235294117647,295.77831346467696
0.95460888671875,-0.09459912109375,0.0730073242187498,0.9620588286085748,-0.05419921875,0.716796875,3.26953125,45.00058823529412,296.0652177155505
0.91994091796875,-0.07897412109375,0.0886323242187498,0.9275688078262088,-0.044921875,0.89697265625,2.60986328125,44.906470588235294,296.0652177155505
0.87550732421875,-0.06725537109375,0.1228120117187498,0.8866336052305032,-0.060546875,1.11083984375,2.0908203125,44.85941176470588,296.0652177155505
0.84865185546875,-0.04039990234375,0.1467377929687499,0.8621914542520567,-0.0849609375,1.32080078125,2.06591796875,44.85941176470588,296.0652177155505
0.86330029296875,-0.00573193359375,0.1755463867187499,0.8809862568693462,-0.015625,1.5654296875,2.17578125,45.00058823529412,296.0182132745812
0.91408154296875,0.04895556640625,0.2033784179687499,0.9377123735846504,-0.033203125,1.96240234375,1.94091796875,45.00058823529412,296.0182132745812
0.92531201171875,0.10754931640625,0.2292573242187499,0.9593373208618504,0.044921875,2.36474609375,1.54638671875,45.00058823529412,296.0182132745812
0.95997998046875,0.15442431640625,0.2512299804687499,1.0042534219432104,0.212890625,2.65185546875,0.943359375,45.33,296.0182132745812
0.98292919921875,0.17981494140625,0.2546479492187499,1.0311783559942778,0.28173828125,2.7763671875,0.3525390625,44.85941176470588,296.0182132745812
1.01076123046875,0.19495166015625,0.2800385742187499,1.0668017706522848,0.369140625,2.78662109375,0.26513671875,45.00058823529412,295.8995472361133
1.06691357421875,0.20081103515625,0.2873627929687499,1.123034737430483,0.5029296875,2.71533203125,0.234375,45.235882352941175,295.8995472361133
1.11134716796875,0.22571337890625,0.2946870117187499,1.1716994034500334,0.57275390625,2.662109375,-0.24365234375,45.00058823529412,295.8995472361133
1.18849560546875,0.24085009765625,0.3171479492187499,1.2534406230265616,0.6142578125,2.701171875,-1.1748046875,45.00058823529412,295.8995472361133
1.23878857421875,0.23889697265625,0.3278901367187499,1.3035263084865931,0.5498046875,2.8017578125,-2.423828125,45.09470588235294,296.0665028706976
1.21290966796875,0.20813525390625,0.3415620117187499,1.2771588602910924,0.45263671875,2.85302734375,-3.3466796875,45.04764705882353,296.0665028706976
1.13576123046875,0.14905322265625,0.3537690429687499,1.198884052601889,0.3134765625,2.85791015625,-3.84521484375,45.09470588235294,296.0665028706976
1.09279248046875,0.07043994140625,0.3713471679687499,1.1563113377774907,0.115234375,3.03759765625,-4.0732421875,44.906470588235294,296.0665028706976
1.10451123046875,0.01331103515625,0.3825776367187499,1.1689687292677369,-0.0947265625,3.4677734375,-3.9951171875,45.04764705882353,296.0665028706976
1.17531201171875,-0.01452099609375,0.4216401367187499,1.248739199797194,-0.150390625,3.91455078125,-3.90869140625,44.81235294117647,296.1338003122672
1.21242138671875,-0.01696240234375,0.4421479492187499,1.290638660146454,-0.10009765625,4.318359375,-4.07421875,45.09470588235294,296.1338003122672
1.22609326171875,-0.01891552734375,0.4758393554687499,1.3153271744397783,-0.0732421875,4.5869140625,-4.49560546875,44.906470588235294,296.1338003122672
1.20753857421875,-0.02379833984375,0.4870698242187499,1.3022875192790777,-0.0908203125,4.75244140625,-4.7978515625,45.00058823529412,296.1338003122672
1.18556591796875,-0.04039990234375,0.5232026367187499,1.2965105850041958,-0.11572265625,4.76025390625,-4.6630859375,45.09470588235294,295.988418537833
1.20607373046875,-0.04039990234375,0.5695893554687499,1.334420484442403,-0.107421875,4.62646484375,-4.25390625,44.81235294117647,295.988418537833
1.23878857421875,-0.02575146484375,0.6091401367187499,1.3806925710375428,-0.09228515625,4.5595703125,-3.990234375,45.09470588235294,295.988418537833
1.23927685546875,-0.01159130859375,0.6384370117187499,1.3941102183356222,-0.080078125,4.65576171875,-4.08251953125,45.00058823529412,295.988418537833
1.23048779296875,0.00940478515625,0.6560151367187499,1.3944692604116669,-0.17138671875,5.11865234375,-4.4677734375,45.09470588235294,295.988418537833
1.23781201171875,0.0264946289062499,0.6706635742187499,1.408073212407639,-0.1923828125,5.9912109375,-4.84619140625,45.04764705882353,296.25503692371655
1.25001904296875,0.03528369140625,0.6657807617187499,1.4167062396059955,-0.04150390625,6.751953125,-5.00634765625,44.906470588235294,296.25503692371655
1.22072216796875,0.0284477539062499,0.6086518554687499,1.3643419539243773,0.03662109375,7.515625,-5.35400390625,44.85941176470588,296.25503692371655
1.17872998046875,0.0006157226562499,0.5647065429687499,1.3070188314029627,0.05517578125,7.6201171875,-5.56591796875,45.33,296.25503692371655
1.12648388671875,-0.05407177734375,0.5139252929687499,1.239358265754947,0.05517578125,6.97607421875,-5.8173828125,45.00058823529412,296.07986213509014
1.06154248046875,-0.10973583984375,0.4851166992187499,1.1722852060172282,-0.083984375,6.365234375,-6.0546875,45.00058823529412,296.07986213509014
0.98537060546875,-0.14879833984375,0.4768159179687499,1.1047396053778866,-0.31298828125,5.71826171875,-6.20654296875,45.04764705882353,296.07986213509014
0.93312451171875,-0.16100537109375,0.5090424804687499,1.0750666634275148,-0.51416015625,5.27099609375,-6.29052734375,45.09470588235294,296.07986213509014
0.90675732421875,-0.15221630859375,0.5515229492187499,1.0721735928203058,-0.63037109375,4.96240234375,-6.1611328125,45.00058823529412,296.07986213509014
0.81642529296875,-0.13170849609375,0.6130463867187499,1.029428608117776,-0.64892578125,4.89404296875,-5.62109375,44.85941176470588,295.9909892417227
0.73292919921875,-0.11364208984375,0.6516206054687499,0.9872735938547902,-0.55615234375,4.9541015625,-4.70751953125,45.00058823529412,295.9909892417227
0.69044873046875,-0.08434521484375,0.7019135742187499,0.988188357726141,-0.49072265625,5.15283203125,-4.2626953125,45.18882352941176,295.9909892417227
0.71779248046875,-0.03112255859375,0.7277924804687499,1.022681061376301,-0.515625,5.607421875,-4.38232421875,44.81235294117647,295.9909892417227
0.76759716796875,0.0230766601562499,0.7658784179687499,1.0845771967121232,-0.56591796875,6.33154296875,-4.50048828125,45.00058823529412,295.9681283419706
0.82228466796875,0.06702197265625,0.7751557617187499,1.1320381949921072,-0.5234375,6.98583984375,-4.20166015625,45.04764705882353,295.9681283419706
0.86378857421875,0.09387744140625,0.7966401367187499,1.1788041323252618,-0.47412109375,7.18310546875,-3.8232421875,45.235882352941175,295.9681283419706
0.83546826171875,0.08557666015625,0.8161713867187499,1.1710962016850943,-0.48486328125,6.83251953125,-3.70703125,45.18882352941176,295.9681283419706
0.76222607421875,0.05920947265625,0.8596284179687499,1.1504153019021497,-0.51708984375,6.16259765625,-3.642578125,45.04764705882353,295.9681283419706
0.71339794921875,0.04114306640625,0.92310498046875,1.1673697746768323,-0.4091796875,5.50390625,-3.33349609375,45.235882352941175,296.16873577526707
0.69923779296875,0.0196586914062499,0.98365185546875,1.2070173685704482,-0.23095703125,5.16943359375,-2.9169921875,45.235882352941175,296.16873577526707
0.70460888671875,-0.00963818359375,1.05152294921875,1.265806893076397,-0.06591796875,5.2529296875,-2.59228515625,45.235882352941175,296.16873577526707
0.70753857421875,-0.01745068359375,1.10132763671875,1.3091363274181562,0.111328125,5.666015625,-2.30224609375,44.906470588235294,296.16873577526707
0.70216748046875,-0.01891552734375,1.10767529296875,1.3116179026133834,0.2080078125,6.53271484375,-2.1455078125,44.906470588235294,295.64757708704394
0.69386669921875,-0.04186474609375,1.09790966796875,1.2994650023257528,0.02490234375,7.806640625,-1.8759765625,44.81235294117647,295.64757708704394
0.72902294921875,-0.04772412109375,1.08570263671875,1.3086260992353091,-0.201171875,8.90478515625,-1.54150390625,45.04764705882353,295.64757708704394
0.76124951171875,-0.02233349609375,1.05298779296875,1.2995317988725803,-0.3828125,9.5849609375,-1.34619140625,44.85941176470588,295.64757708704394
0.78615185546875,0.01086962890625,1.02271435546875,1.2899990471203375,-0.4541015625,9.876953125,-1.333984375,45.00058823529412,295.64757708704394
0.78224560546875,0.03235400390625,1.00367138671875,1.272914459561944,-0.4296875,9.73291015625,-1.39990234375,45.18882352941176,296.12429886182804
0.79347607421875,0.04749072265625,0.98365185546875,1.2646859775703716,-0.49072265625,9.26416015625,-1.67919921875,45.04764705882353,296.12429886182804
0.80421826171875,0.06018603515625,0.98706982421875,1.2746357162707278,-0.57421875,8.99072265625,-1.98291015625,45.235882352941175,296.12429886182804
0.75490185546875,0.06262744140625,1.03296826171875,1.2809459151445508,-0.515625,8.39404296875,-2.08740234375,44.85941176470588,296.12429886182804
0.68263623046875,0.06848681640625,1.09009716796875,1.2880196049686268,-0.30126953125,7.888671875,-2.21240234375,45.00058823529412,296.17002265180923
0.61574169921875,0.05530322265625,1.12330029296875,1.2821855695556086,-0.0625,7.7412109375,-2.0751953125,45.18882352941176,296.17002265180923
0.61867138671875,0.03186572265625,1.16480419921875,1.3192947098895456,0.15283203125,7.86865234375,-2.11962890625,45.00058823529412,296.17002265180923
0.61085888671875,0.13098681640625,1.20972607421875,1.3615224200137963,0.30908203125,7.76025390625,-1.92578125,45.04764705882353,296.17002265180923
0.49562451171875,-0.00719677734375,1.27710888671875,1.3699279392568755,0.4423828125,7.3388671875,-0.8173828125,45.04764705882353,296.17002265180923
0.38283154296875,0.0294243164062499,1.34595654296875,1.3996516696121923,0.52294921875,7.71630859375,0.72802734375,45.00058823529412,296.05571516865405
0.31105419921875,0.09729541015625,1.39478466796875,1.4323565832884586,0.833984375,9.32421875,2.2841796875,45.00058823529412,296.05571516865405
0.18068310546875,0.11438525390625,1.32105419921875,1.3382505625578949,0.85693359375,11.53173828125,4.21435546875,45.235882352941175,296.05571516865405
0.52882763671875,0.15491259765625,1.25757763671875,1.373010595241443,0.70166015625,12.810546875,5.42529296875,45.00058823529412,296.05571516865405
0.77443310546875,0.18079150390625,1.13453076171875,1.3854935048627195,0.4072265625,12.431640625,4.76953125,45.04764705882353,295.86846894080446
0.79249951171875,0.23840869140625,1.02466748046875,1.317132349364586,-0.04833984375,10.83447265625,3.26806640625,45.09470588235294,295.86846894080446
0.67872998046875,0.22961962890625,0.8986909179687499,1.149367185196127,-0.34130859375,9.3525390625,2.505859375,44.906470588235294,295.86846894080446
0.63039013671875,0.18909228515625,0.8571870117187499,1.080702174439016,-0.33740234375,8.93603515625,2.40283203125,45.04764705882353,295.86846894080446
0.53371044921875,0.13879931640625,0.8591401367187499,1.0208985592904098,0.23681640625,8.54931640625,2.67529296875,45.00058823529412,295.86846894080446
0.41749951171875,0.0299125976562499,0.7756440429687499,0.881376359551836,0.56787109375,8.06201171875,2.9541015625,45.09470588235294,296.2347480687436
0.29494091796875,0.01135791015625,0.6662690429687499,0.7287205121539123,0.45947265625,8.10302734375,3.04248046875,44.906470588235294,296.2347480687436
0.26320263671875,0.03626025390625,0.5676362304687499,0.6267386410058181,0.2861328125,8.0634765625,3.3203125,45.09470588235294,296.2347480687436
0.23341748046875,0.12708056640625,0.4763276367187499,0.5454550467715759,-0.0537109375,7.33935546875,4.0244140625,45.09470588235294,296.2347480687436
0.19484326171875,0.24377978515625,0.4104096679687499,0.515585662960335,-0.31591796875,5.703125,4.11474609375,45.18882352941176,296.12429886182804
0.20558544921875,0.37122119140625,0.4182221679687499,0.5958022588577793,-0.26953125,3.28955078125,3.302734375,44.906470588235294,296.12429886182804
0.22511669921875,0.45422900390625,0.3586518554687499,0.6209932927882444,0.10009765625,0.79296875,2.10693359375,45.00058823529412,296.12429886182804
0.20460888671875,0.49036181640625,0.5524995117187499,0.7665345510562326,0.4384765625,-0.84521484375,0.87744140625,44.85941176470588,296.12429886182804
0.15089794921875,0.49182666015625,0.6364838867187499,0.8183980649851772,0.5390625,-1.32568359375,0.271484375,45.04764705882353,296.12429886182804
0.11867138671875,0.45813525390625,0.7019135742187499,0.8465538816696996,0.45751953125,-1.0615234375,-0.333984375,44.906470588235294,296.3369855201408
0.09083935546875,0.38635791015625,0.7580659179687499,0.8556799397134927,0.29345703125,-0.5888671875,-0.97705078125,45.04764705882353,296.3369855201408
0.06251904296875,0.29114306640625,0.7678315429687499,0.8235521806345568,0.15234375,-0.349609375,-1.27685546875,45.235882352941175,296.3369855201408
0.06496044921875,0.19934619140625,0.7609956054687499,0.7893497802201686,0.00390625,-0.5400390625,-1.2880859375,45.09470588235294,296.3369855201408
0.04884716796875,0.12659228515625,0.7468354492187499,0.7590618161187009,-0.197265625,-0.94482421875,-0.970703125,44.906470588235294,296.13637306879707
0.02101513671875,0.08069384765625,0.7487885742187499,0.7534171898101517,-0.39013671875,-1.23779296875,-0.74560546875,45.37705882352941,296.13637306879707
0.02785107421875,0.07385791015625,0.7639252929687499,0.7679925302144399,-0.52490234375,-1.44384765625,-0.49951171875,44.906470588235294,296.13637306879707
0.04542919921875,0.11536181640625,0.8010346679687499,0.8105730689543118,-0.564453125,-1.630859375,-0.12451171875,45.09470588235294,296.13637306879707
0.06007763671875,0.15540087890625,0.8723237304687499,0.8880920258269756,-0.46630859375,-1.890625,0.443359375,45.18882352941176,296.13637306879707
0.07960888671875,0.18713916015625,0.8542573242187499,0.8781310927703014,-0.2880859375,-1.953125,0.71533203125,45.235882352941175,296.2157475040941
0.11867138671875,0.21399462890625,1.07300732421875,1.1005550041018195,-0.07861328125,-1.7490234375,0.5888671875,45.235882352941175,296.2157475040941
0.11867138671875,0.22327197265625,1.14820263671875,1.1757136414822509,0.05908203125,-1.0537109375,0.328125,44.906470588235294,296.2157475040941
0.07472607421875,0.22864306640625,1.16871044921875,1.1932081763451388,0.0869140625,-0.56640625,0.021484375,45.09470588235294,296.2157475040941
0.01027294921875,0.21985400390625,1.15113232421875,1.171984191181998,-0.0849609375,-0.13916015625,-0.1259765625,45.18882352941176,296.1281602172002
-0.02293017578125,0.22131884765625,1.13257763671875,1.1542269830863765,-0.2490234375,0.2138671875,-0.1474609375,44.906470588235294,296.1281602172002
-0.02976611328125,0.24085009765625,1.10816357421875,1.1344255366775613,-0.40673828125,0.34423828125,0.00390625,44.906470588235294,296.1281602172002
-0.01609423828125,0.25159228515625,1.10083935546875,1.129338296970775,-0.54248046875,0.3740234375,0.15478515625,45.04764705882353,296.1281602172002
0.02345654296875,0.25061572265625,1.10328076171875,1.1316301909322075,-0.64794921875,0.25830078125,0.23046875,45.00058823529412,296.1281602172002
-0.07078173828125,0.25647509765625,1.12427685546875,1.1553302462649366,-0.5986328125,0.4599609375,0.25732421875,44.81235294117647,296.07164802270216
0.06642529296875,0.24524462890625,1.13306591796875,1.1612043842561544,-0.48974609375,0.89697265625,0.19189453125,45.04764705882353,296.07164802270216
0.06447216796875,0.23254931640625,1.13111279296875,1.156569062106181,-0.34375,1.51904296875,0.01220703125,45.00058823529412,296.07164802270216
0.04835888671875,0.21008837890625,1.09790966796875,1.1188750367647784,-0.25390625,2.07275390625,-0.39404296875,45.00058823529412,296.07164802270216
0.00880810546875,0.19788134765625,1.06080029296875,1.0791347793648338,-0.267578125,2.2998046875,-0.63427734375,44.85941176470588,296.34777301755287
-0.03269580078125,0.19153369140625,1.03199169921875,1.0501242962567978,-0.1953125,2.12890625,-0.61474609375,45.00058823529412,296.34777301755287
-0.03318408203125,0.18811572265625,1.01050732421875,1.0284035009229004,-0.09423828125,1.76318359375,-0.43115234375,45.09470588235294,296.34777301755287
-0.0004692382812499,0.18323291015625,1.00757763671875,1.024103126430456,-0.06201171875,1.35791015625,-0.37255859375,45.00058823529412,296.34777301755287
0.03419873046875,0.17151416015625,1.03052685546875,1.0452618141604946,-0.11181640625,0.95947265625,-0.10107421875,45.00058823529412,296.34777301755287
0.06935498046875,0.16370166015625,1.02271435546875,1.0380525033617491,-0.171875,0.8134765625,-0.09326171875,44.85941176470588,296.13894763789835
0.11085888671875,0.15881884765625,1.00904248046875,1.0274628200211957,-0.2958984375,0.73876953125,-0.3193359375,44.34176470588236,296.13894763789835
0.09572216796875,0.13831103515625,0.99683544921875,1.0109270936649082,-0.38623046875,0.32861328125,-0.4521484375,45.235882352941175,296.13894763789835
0.05372998046875,0.13684619140625,1.02369091796875,1.0341938340733183,-0.4638671875,-0.1455078125,-0.28857421875,45.04764705882353,296.13894763789835
0.02882763671875,0.13538134765625,1.03003857421875,1.0392971693941089,-0.49462890625,0.09130859375,0.02783203125,45.04764705882353,296.371924613596
0.04982373046875,0.15735400390625,1.04273388671875,1.0557161764294145,-0.40625,0.818359375,0.212890625,44.906470588235294,296.371924613596
0.06007763671875,0.16223681640625,1.03638623046875,1.0507266655684393,-0.29345703125,1.46337890625,0.1708984375,45.04764705882353,296.371924613596
0.04689404296875,0.16760791015625,1.01246044921875,1.0273108702068394,-0.20849609375,1.8359375,0.109375,45.09470588235294,296.371924613596
0.06251904296875,0.15295947265625,0.97779248046875,0.9916568791019588,-0.2548828125,2.14892578125,0.11083984375,45.04764705882353,296.371924613596
0.06007763671875,0.15540087890625,0.96314404296875,0.977448312242,-0.2763671875,2.8876953125,0.2744140625,44.906470588235294,296.22782290658705
0.08742138671875,0.14124072265625,0.95777294921875,0.9720701944034036,-0.158203125,3.7275390625,0.50439453125,45.235882352941175,296.22782290658705
0.09621044921875,0.14075244140625,0.92359326171875,0.9391976434132344,-0.24658203125,4.01513671875,0.5224609375,45.00058823529412,296.22782290658705
0.08595654296875,0.14319384765625,0.8801362304687499,0.8958419444687106,-0.1484375,4.06982421875,0.48779296875,45.00058823529412,296.22782290658705
0.08839794921875,0.14124072265625,0.8474213867187499,0.8636470030231503,-0.1943359375,4.02099609375,0.529296875,45.00058823529412,296.3274863318826
0.08107373046875,0.13928759765625,0.8361909179687499,0.8515804342082958,-0.2177734375,4.08251953125,0.486328125,45.235882352941175,296.3274863318826
0.06593701171875,0.14124072265625,0.8205659179687499,0.8352395207260942,-0.19677734375,4.1923828125,0.3740234375,45.09470588235294,296.3274863318826
0.04494091796875,0.13782275390625,0.7961518554687499,0.8092419752883001,-0.2021484375,3.904296875,-0.0498046875,45.33,296.3274863318826
0.01759716796875,0.13293994140625,0.7712495117187499,0.7828208592443278,-0.2626953125,3.251953125,-0.2353515625,45.04764705882353,296.3274863318826
-0.02732470703125,0.13489306640625,0.7751557617187499,0.7872796414899854,-0.2607421875,2.5380859375,-0.24072265625,44.906470588235294,296.5496796076431
-0.05759814453125,0.14465869140625,0.7951752929687499,0.8102761441636726,-0.23486328125,2.0498046875,-0.064453125,45.09470588235294,296.5496796076431
-0.07322314453125,0.15881884765625,0.8083588867187499,0.8270605449440085,-0.267578125,1.92138671875,0.00048828125,45.00058823529412,296.5496796076431
-0.06834033203125,0.16711962890625,0.8171479492187499,0.8368573010139261,-0.2900390625,2.154296875,0.07763671875,45.00058823529412,296.5496796076431
-0.05418017578125,0.17004931640625,0.8156831054687499,0.8349797542486068,-0.3349609375,2.3603515625,-0.130859375,44.85941176470588,296.7477222634267
-0.04050830078125,0.14954150390625,0.7976166992187499,0.8125244505215463,-0.408203125,2.2939453125,-0.63427734375,45.04764705882353,296.7477222634267
-0.03709033203125,0.12170947265625,0.7883393554687499,0.7985410620909453,-0.43896484375,2.08447265625,-0.73388671875,45.04764705882353,296.7477222634267
-0.02585986328125,0.08508837890625,0.7858979492187499,0.7909136181278302,-0.41064453125,1.99755859375,-0.47998046875,45.235882352941175,296.7477222634267
-0.01365283203125,0.06018603515625,0.7971284179687499,0.7995138981804287,-0.318359375,2.06396484375,-0.1142578125,45.09470588235294,296.7477222634267
-0.01316455078125,0.04797900390625,0.7966401367187499,0.798192205953163,-0.20654296875,2.12841796875,0.19287109375,45.00058823529412,296.3934994616134
-0.04294970703125,0.05286181640625,0.7873627929687499,0.7903032435207316,-0.1005859375,2.1845703125,0.3994140625,45.00058823529412,296.3934994616134
-0.07371142578125,0.06213916015625,0.7771088867187499,0.7830663262667369,0.0224609375,2.27587890625,0.44287109375,45.09470588235294,296.3934994616134
-0.09177783203125,0.07581103515625,0.7629487304687499,0.7721795444245436,0.048828125,2.3544921875,0.3466796875,45.18882352941176,296.3934994616134
-0.11521533203125,0.08704150390625,0.7453706054687499,0.7592286451617745,0.0380859375,2.45361328125,0.177734375,44.906470588235294,296.59411882296064
-0.14158251953125,0.08606494140625,0.7326752929687499,0.7511763234440509,-0.017578125,2.533203125,0.10498046875,45.235882352941175,296.59411882296064
-0.16697314453125,0.07483447265625,0.7170502929687499,0.7400279399718384,-0.1416015625,2.56298828125,0.171875,45.09470588235294,296.59411882296064
-0.18259814453125,0.06116259765625,0.7170502929687499,0.7424581256777285,-0.19921875,2.5,0.396484375,45.04764705882353,296.59411882296064
-0.17039111328125,0.05969775390625,0.7238862304687499,0.7460618124317389,-0.23486328125,2.7646484375,0.53759765625,45.09470588235294,296.59411882296064
-0.15525439453125,0.07532275390625,0.7233979492187499,0.7436948549043348,-0.2197265625,2.80126953125,0.4951171875,45.04764705882353,296.7032827114332
-0.15964892578125,0.10022509765625,0.7331635742187499,0.7570083726515343,-0.22216796875,2.69970703125,0.435546875,45.00058823529412,296.7032827114332
-0.19334033203125,0.12756884765625,0.7585541992187499,0.7931322512889616,-0.2099609375,2.38330078125,0.53076171875,44.906470588235294,296.7032827114332
-0.20408251953125,0.15979541015625,0.7858979492187499,0.8275384187283779,-0.19921875,1.91943359375,0.63037109375,45.235882352941175,296.7032827114332
-0.18796923828125,0.20374072265625,0.8151948242187499,0.8610373499689562,-0.216796875,1.5703125,0.45947265625,45.09470588235294,296.53889222853144
-0.14109423828125,0.23401416015625,0.8513276367187499,0.8941079108647529,-0.2939453125,1.5107421875,0.0126953125,45.00058823529412,296.53889222853144
-0.11277392578125,0.23694384765625,0.8723237304687499,0.9109385467841282,-0.4052734375,1.64697265625,-0.49853515625,45.09470588235294,296.53889222853144
-0.10642626953125,0.21643603515625,0.8689057617187499,0.901758465947804,-0.458984375,1.71728515625,-0.6826171875,44.906470588235294,296.53889222853144
-0.13474658203125,0.18079150390625,0.8606049804687499,0.8896533828752664,-0.39306640625,1.52392578125,-0.35009765625,44.906470588235294,296.53889222853144
-0.16111376953125,0.14124072265625,0.8435151367187499,0.8703013123870834,-0.2021484375,1.0634765625,0.2880859375,45.00058823529412,296.1941726070329
-0.17087939453125,0.12610400390625,0.8503510742187499,0.8764695868662734,0.03173828125,0.54248046875,0.82275390625,45.00058823529412,296.1941726070329
-0.15574267578125,0.13342822265625,0.8659760742187499,0.8899288919795937,0.21240234375,0.13720703125,0.9892578125,44.85941176470588,296.1941726070329
-0.14695361328125,0.16321337890625,0.8938081054687499,0.9203949700601618,0.29345703125,0.22021484375,0.80126953125,45.00058823529412,296.1941726070329
-0.15330126953125,0.19104541015625,0.91089794921875,0.9432574949994234,0.30078125,0.66357421875,0.43798828125,45.00058823529412,296.51731751107303
-0.17918017578125,0.20618212890625,0.91724560546875,0.9570559578337344,0.2109375,1.1650390625,0.07958984375,45.33,296.51731751107303
-0.20701220703125,0.20715869140625,0.90943310546875,0.9554252197883586,0.1591796875,1.48779296875,-0.10009765625,45.04764705882353,296.51731751107303
-0.21531298828125,0.18274462890625,0.8967377929687499,0.9401563442615006,0.11767578125,1.55078125,-0.0810546875,44.906470588235294,296.51731751107303
-0.21287158203125,0.15002978515625,0.8791596679687499,0.9169214626419432,0.0361328125,1.431640625,-0.03369140625,45.235882352941175,296.51731751107303
-0.21580126953125,0.12122119140625,0.8801362304687499,0.9142781575434198,-0.0830078125,1.04150390625,0.111328125,44.906470588235294,296.3624262303998
-0.22361376953125,0.08948291015625,0.8747651367187499,0.907317118516222,-0.2197265625,0.40185546875,0.45849609375,45.18882352941176,296.3624262303998
-0.21238330078125,0.07434619140625,0.8762299804687499,0.9046618159840834,-0.31689453125,-0.04736328125,0.74072265625,45.18882352941176,296.3624262303998
-0.18748095703125,0.06458056640625,0.8806245117187499,0.902673412395974,-0.337890625,-0.2529296875,0.7099609375,44.906470588235294,296.3624262303998
-0.17918017578125,0.07532275390625,0.8850190429687499,0.9061113392218106,-0.40478515625,-0.38037109375,0.45849609375,45.09470588235294,296.6829978137828
-0.18992236328125,0.09924853515625,0.8928315429687499,0.91818785655494,-0.4580078125,-0.42431640625,0.17626953125,45.00058823529412,296.6829978137828
-0.16550830078125,0.11975634765625,0.9001557617187499,0.9230465729240992,-0.5126953125,-0.244140625,-0.01416015625,45.00058823529412,296.6829978137828
-0.14207080078125,0.14368212890625,0.91626904296875,0.9382844055533092,-0.38671875,0.58837890625,-0.234375,45.09470588235294,296.6829978137828
-0.11033251953125,0.15491259765625,0.90845654296875,0.9281511020525984,-0.26904296875,1.4306640625,-0.5673828125,45.00058823529412,296.6829978137828
-0.14451220703125,0.18225634765625,0.8850190429687499,0.915073691381935,-0.2890625,1.04296875,-0.68994140625,45.00058823529412,296.2614734186925
-0.18406298828125,0.17542041015625,0.8615815429687499,0.8983174601101898,-0.2802734375,0.51806640625,-0.4052734375,44.29470588235294,296.2614734186925
-0.19138720703125,0.17786181640625,0.8659760742187499,0.9045321718268904,-0.27685546875,0.0302734375,-0.04638671875,45.04764705882353,296.2614734186925
-0.18796923828125,0.17835009765625,0.8913666992187499,0.9282649321988612,-0.20263671875,-0.470703125,0.15673828125,45.04764705882353,296.2614734186925
-0.19480517578125,0.16614306640625,0.90308544921875,0.9386777421547112,-0.1455078125,-0.93212890625,0.2041015625,45.00058823529412,296.56304694238634
-0.19578173828125,0.15930712890625,0.90845654296875,0.9428693126979544,-0.0849609375,-1.19384765625,0.14697265625,45.04764705882353,296.56304694238634
-0.19627001953125,0.15735400390625,0.90308544921875,0.9374676163488298,-0.03173828125,-1.1044921875,-0.16259765625,45.04764705882353,296.56304694238634
-0.22312548828125,0.16077197265625,0.90601513671875,0.9468347472901611,0.0009765625,-0.96923828125,-0.57470703125,45.09470588235294,296.56304694238634
-0.23777392578125,0.16126025390625,0.94263623046875,0.9854462807599762,-0.0283203125,-1.171875,-0.83984375,45.235882352941175,296.56304694238634
-0.26609423828125,0.13293994140625,0.99341748046875,1.0369944369033302,-0.0517578125,-1.2880859375,-0.57568359375,45.00058823529412,296.4970329552834
-0.25584033203125,0.08069384765625,1.04615185546875,1.079999757983371,0.021484375,-0.56982421875,0.04443359375,44.29470588235294,296.4970329552834
-0.20310595703125,0.07727587890625,1.08667919921875,1.1081946008066532,0.05029296875,0.380859375,0.3173828125,45.37705882352941,296.4970329552834
-0.18552783203125,0.08850634765625,1.06763623046875,1.0872447151599252,0.00390625,1.05419921875,0.09033203125,44.85941176470588,296.4970329552834
-0.20798876953125,0.09680712890625,1.01929638671875,1.0447947513440592,-0.13037109375,0.93212890625,-0.20947265625,45.09470588235294,296.5725440905874
-0.21970751953125,0.07776416015625,0.95777294921875,0.985721908551577,-0.28173828125,0.48779296875,-0.26220703125,44.85941176470588,296.5725440905874
-0.19578173828125,0.06458056640625,0.93775341796875,0.960147182214192,-0.38427734375,0.048828125,-0.14111328125,44.81235294117647,296.5725440905874
-0.15232470703125,0.05627978515625,0.92554638671875,0.9396841727716412,-0.36376953125,-0.11865234375,-0.11279296875,45.00058823529412,296.5725440905874
-0.14939501953125,0.07043994140625,0.91040966796875,0.9252709985388216,-0.3154296875,-0.1689453125,-0.19482421875,45.00058823529412,296.5725440905874
-0.17478564453125,0.07825244140625,0.90601513671875,0.9260328795910748,-0.28271484375,-0.19287109375,-0.29931640625,45.235882352941175,296.4728784640886
-0.20457080078125,0.08704150390625,0.91431591796875,0.940956446274524,-0.291015625,-0.2333984375,-0.35693359375,44.85941176470588,296.4728784640886
-0.22605517578125,0.09485400390625,0.92408154296875,0.956046506510036,-0.263671875,-0.224609375,-0.44189453125,45.09470588235294,296.4728784640886
-0.23582080078125,0.10364306640625,0.95142529296875,0.9856791685918254,-0.23291015625,-0.17822265625,-0.60009765625,45.04764705882353,296.4728784640886
-0.25095751953125,0.10120166015625,0.95874951171875,0.9962038339860976,-0.37451171875,-0.234375,-0.69140625,45.00058823529412,296.56304694238634
-0.25242236328125,0.11096728515625,0.96900341796875,1.0074712958166896,-0.25390625,-0.53125,-0.67236328125,45.00058823529412,296.56304694238634
-0.21580126953125,0.13098681640625,0.98267529296875,1.0145829021892503,-0.25341796875,-0.744140625,-0.68359375,45.18882352941176,296.56304694238634
-0.15427783203125,0.15051806640625,0.99732373046875,1.0203489408663309,-0.216796875,-0.552734375,-0.806640625,45.18882352941176,296.56304694238634
-0.11912158203125,0.16956103515625,1.01636669921875,1.0372763196129102,-0.1123046875,-0.08349609375,-0.91259765625,45.00058823529412,296.56304694238634
-0.11423876953125,0.18030322265625,1.02417919921875,1.046184869263843,0.0537109375,0.02490234375,-0.82421875,45.04764705882353,296.54018209393496
-0.11960986328125,0.17786181640625,1.00122998046875,1.0239154354334852,0.16259765625,-0.248046875,-0.650390625,45.00058823529412,296.54018209393496
-0.12058642578125,0.17395556640625,0.98169873046875,1.004257946232128,0.2685546875,-0.67626953125,-0.56689453125,44.81235294117647,296.54018209393496
-0.13767626953125,0.17200244140625,0.98706982421875,1.0113587063574356,0.3154296875,-0.970703125,-0.62158203125,45.00058823529412,296.54018209393496
-0.14793017578125,0.16272509765625,0.99537060546875,1.0193750225236704,0.36083984375,-0.978515625,-0.681640625,45.09470588235294,296.6963663976292
-0.15818408203125,0.14270556640625,0.99976513671875,1.022212018658389,0.3857421875,-0.75634765625,-0.78125,45.00058823529412,296.6963663976292
-0.14939501953125,0.12170947265625,0.98853466796875,1.0071409322289964,0.40234375,-0.66455078125,-0.93896484375,44.906470588235294,296.6963663976292
-0.13181689453125,0.10413134765625,0.97242138671875,0.9868243940015802,0.3203125,-0.716796875,-1.1435546875,45.04764705882353,296.6963663976292
-0.12156298828125,0.08655322265625,0.96021435546875,0.9717410297606645,0.2958984375,-0.80712890625,-1.2822265625,45.09470588235294,296.6963663976292
-0.13084033203125,0.08069384765625,0.95191357421875,0.964245893077867,0.26611328125,-0.7451171875,-1.419921875,45.04764705882353,296.87412828557467
-0.12156298828125,0.07190478515625,0.95093701171875,0.961368326139789,0.19140625,-0.5869140625,-1.6806640625,45.04764705882353,296.87412828557467
-0.10935595703125,0.07434619140625,0.95630810546875,0.9654073099474982,0.111328125,-0.4814453125,-1.99755859375,45.04764705882353,296.87412828557467
-0.10789111328125,0.07288134765625,0.95044873046875,0.9593252693486798,0.0419921875,-0.45166015625,-2.087890625,44.81235294117647,296.87412828557467
-0.12351611328125,0.06995166015625,0.94898388671875,0.9595414958460876,0.01220703125,-0.46728515625,-1.9501953125,45.09470588235294,296.4176522532197
-0.14353564453125,0.07288134765625,0.95972607421875,0.973133243509092,-0.009765625,-0.3798828125,-1.8173828125,45.00058823529412,296.4176522532197
-0.16599658203125,0.08167041015625,0.97144482421875,0.9889034167412636,-0.01904296875,-0.32373046875,-1.775390625,44.906470588235294,296.4176522532197
-0.18308642578125,0.09534228515625,0.98511669921875,1.0065116500685989,0.02783203125,-0.3916015625,-1.7451171875,45.04764705882353,296.4176522532197
-0.20164111328125,0.10120166015625,1.00953076171875,1.0344337936475794,0.1181640625,-0.4052734375,-1.580078125,45.18882352941176,296.4176522532197
-0.19138720703125,0.09924853515625,1.02222607421875,1.044713109690197,0.19140625,-0.15576171875,-1.494140625,45.00058823529412,296.4094447390208
-0.17136767578125,0.10071337890625,1.02564404296875,1.0447276046274765,0.28857421875,0.2177734375,-1.57861328125,44.85941176470588,296.4094447390208
-0.17332080078125,0.09778369140625,1.01001904296875,1.0294368448078768,0.33203125,0.46435546875,-1.63037109375,45.04764705882353,296.4094447390208
-0.18162158203125,0.09436572265625,0.99292919921875,1.0138045587455002,0.328125,0.5556640625,-1.5361328125,44.81235294117647,296.4094447390208
-0.15427783203125,0.08997119140625,0.97095654296875,0.9872451939985064,0.3046875,0.44970703125,-1.44091796875,44.906470588235294,296.61956465480995
-0.13084033203125,0.08899462890625,0.96900341796875,0.981838510395334,0.30810546875,0.2353515625,-1.46826171875,45.235882352941175,296.61956465480995
-0.13767626953125,0.08557666015625,0.95240185546875,0.966099070621568,0.310546875,0.13671875,-1.599609375,45.04764705882353,296.61956465480995
-0.15867236328125,0.09192431640625,0.95044873046875,0.967977162987677,0.32080078125,-0.14111328125,-1.634765625,45.04764705882353,296.61956465480995
-0.18845751953125,0.09876025390625,0.93970654296875,0.9634927147196172,0.39990234375,-0.22705078125,-1.46826171875,45.18882352941176,296.61956465480995
-0.14988330078125,0.09338916015625,0.93921826171875,0.955676452693987,0.42724609375,-0.12548828125,-1.4345703125,44.906470588235294,296.38658008870755
-0.12156298828125,0.08801806640625,0.94605419921875,0.957884798915398,0.39208984375,-0.20068359375,-1.6396484375,44.85941176470588,296.38658008870755
-0.10789111328125,0.08948291015625,0.94898388671875,0.9592799908196376,0.3583984375,0.07568359375,-1.99169921875,45.04764705882353,296.38658008870755
-0.13328173828125,0.09680712890625,0.94654248046875,0.9607696442427168,0.28125,0.19580078125,-2.03271484375,44.85941176470588,296.38658008870755
-0.15964892578125,0.09876025390625,0.93872998046875,0.9573167414631344,0.22705078125,0.07177734375,-1.85693359375,45.00058823529412,296.3745029866655
-0.15330126953125,0.09973681640625,0.93384716796875,0.9515877494535128,0.1103515625,-0.25634765625,-1.65673828125,44.906470588235294,296.3745029866655
-0.13474658203125,0.11047900390625,0.93921826171875,0.9552450967260768,0.05908203125,-0.73876953125,-1.63037109375,45.33,296.3745029866655
-0.13035205078125,0.11585009765625,0.96460888671875,0.9802465029810749,0.138671875,-1.01025390625,-1.6416015625,45.04764705882353,296.3745029866655
-0.12107470703125,0.10901416015625,1.00171826171875,1.0148806075879615,0.32275390625,-0.97216796875,-1.68310546875,45.00058823529412,296.3745029866655
-0.10349658203125,0.09729541015625,1.00855419921875,1.0185084742364192,0.39208984375,-0.87109375,-1.62548828125,45.00058823529412,296.5319760001385
-0.10349658203125,0.09192431640625,1.01783154296875,1.027201378650289,0.41064453125,-0.68310546875,-1.52587890625,45.00058823529412,296.5319760001385
-0.12253955078125,0.08069384765625,1.01831982421875,1.0288356054064938,0.41748046875,-0.29248046875,-1.33203125,44.906470588235294,296.5319760001385
-0.12546923828125,0.08655322265625,1.00660107421875,1.0180764768549568,0.46044921875,0.00390625,-1.1171875,45.09470588235294,296.5319760001385
-0.11814501953125,0.08508837890625,0.98316357421875,0.9938857537642444,0.4990234375,0.30810546875,-1.07373046875,44.906470588235294,296.39607759276925
-0.10789111328125,0.08899462890625,0.94751904296875,0.9577854003312248,0.49755859375,0.107421875,-1.0751953125,45.235882352941175,296.39607759276925
-0.12009814453125,0.09436572265625,0.91919873046875,0.9318018888302636,0.4384765625,-0.3369140625,-1.00927734375,44.85941176470588,296.39607759276925
-0.18210986328125,0.11633837890625,0.8884370117187499,0.9143407157633264,0.3955078125,-0.14208984375,-0.86279296875,45.00058823529412,296.39607759276925
-0.14304736328125,0.14319384765625,0.90503857421875,0.9273951946027252,0.65576171875,-0.04736328125,-0.92724609375,44.85941176470588,296.39607759276925
-0.44822314453125,0.20667041015625,0.7546479492187499,0.9017262184209236,0.6240234375,1.89794921875,-0.77099609375,45.00058823529412,296.3313539374981
-0.18943408203125,0.20520556640625,0.6960541992187499,0.7499906960550827,0.4912109375,2.61767578125,-1.013671875,45.00058823529412,296.3313539374981
-0.16306689453125,0.20813525390625,0.6106049804687499,0.6653942727315343,-0.5283203125,2.13623046875,-1.04248046875,45.04764705882353,296.3313539374981
-0.15427783203125,0.25598681640625,0.6140229492187499,0.6829019562114031,-1.00244140625,1.0419921875,-1.2646484375,45.235882352941175,296.3313539374981
-0.08982470703125,0.24817431640625,0.7771088867187499,0.8207053010272409,-0.64453125,-1.37939453125,-1.14501953125,45.09470588235294,296.4970329552834
0.13527294921875,0.08606494140625,0.98999951171875,1.00289828902684,-0.341796875,-5.6318359375,-1.716796875,45.235882352941175,296.4970329552834
0.10255810546875,-0.07311474609375,1.19458935546875,1.2012109137420193,-0.34130859375,-8.5263671875,-2.31787109375,45.04764705882353,296.4970329552834
-0.22117236328125,-0.15563427734375,1.20581982421875,1.2357753400366354,-0.9091796875,-5.62158203125,-1.86083984375,45.00058823529412,296.4970329552834
-0.19822314453125,-0.06432568359375,1.44312451171875,1.4580941550260536,-1.05712890625,-0.93994140625,-1.14990234375,45.18882352941176,296.4970329552834
-0.20798876953125,-0.07116162109375,1.31226513671875,1.3305499215043732,-0.24658203125,1.94287109375,-0.71923828125,45.00058823529412,296.46338095521105
-0.08884814453125,-0.06725537109375,1.16578076171875,1.1710943865125274,-0.33642578125,2.1689453125,-0.48193359375,45.04764705882353,296.46338095521105
-0.03123095703125,-0.04039990234375,1.05445263671875,1.055688347889469,-0.61376953125,0.6357421875,-0.4169921875,45.00058823529412,296.46338095521105
-0.08689501953125,-0.02184521484375,1.01929638671875,1.0232267988128565,-0.62841796875,-1.232421875,-0.287109375,44.906470588235294,296.46338095521105
-0.16160205078125,-0.00133740234375,1.04615185546875,1.0585606813794113,-0.5146484375,-2.05908203125,0.22607421875,45.235882352941175,296.65192639248426
-0.14353564453125,0.0240532226562499,1.09058544921875,1.1002534529910897,-0.193359375,-2.15869140625,0.59814453125,45.09470588235294,296.65192639248426
-0.11521533203125,0.05090869140625,1.10523388671875,1.1123885166376013,0.16845703125,-1.84423828125,0.61376953125,45.00058823529412,296.65192639248426
-0.10593798828125,0.06946337890625,1.10376904296875,1.1110149047543432,0.56103515625,-1.26611328125,0.287109375,45.04764705882353,296.65192639248426
-0.13230517578125,0.07141650390625,1.09302685546875,1.103318939991788,1.3115234375,-0.412109375,-0.041015625,45.18882352941176,296.65192639248426
-0.17185595703125,0.06360400390625,1.04468701171875,1.0606370216685277,2.28173828125,0.466796875,0.1162109375,44.906470588235294,296.68557914428527
-0.16550830078125,0.08460009765625,0.96216748046875,0.979957363675852,3.14208984375,1.072265625,0.3916015625,45.04764705882353,296.68557914428527
-0.18455126953125,0.17151416015625,0.91285107421875,0.9469811835100131,4.78857421875,1.9296875,0.38623046875,44.85941176470588,296.68557914428527
-0.22312548828125,0.22083056640625,0.8239838867187499,0.8817599265969106,7.32080078125,3.33349609375,-0.22314453125,45.09470588235294,296.68557914428527
-0.30955126953125,0.10950244140625,0.5925385742187499,0.6774324579465666,8.31298828125,3.1455078125,0.09130859375,45.09470588235294,296.6640046783426
-0.12644580078125,0.09290087890625,0.4587495117187499,0.4848404153316396,6.4921875,0.4697265625,1.4443359375,45.09470588235294,296.6640046783426
-0.0077934570312499,0.10852587890625,0.6228120117187499,0.6322447360840803,5.94775390625,-2.61767578125,0.8583984375,45.00058823529412,296.6640046783426
-0.17625048828125,0.20374072265625,0.7663666992187499,0.8123376356905495,7.615234375,-3.8310546875,0.31982421875,44.29470588235294,296.6640046783426
-0.46091845703125,0.29211962890625,0.6726166992187499,0.8661367823226997,11.37890625,0.43505859375,1.3955078125,45.47117647058823,296.6640046783426
-0.17136767578125,-0.12194287109375,0.3474213867187499,0.4061262907801386,11.046875,2.8603515625,2.27880859375,45.09470588235294,296.73260290798225
0.13576123046875,-0.14831005859375,0.6428315429687499,0.6735424098110336,6.61962890625,-1.80126953125,2.837890625,45.04764705882353,296.73260290798225
0.07081982421875,0.49915087890625,1.05787060546875,1.1718605997856897,5.21875,-8.6318359375,3.529296875,45.00058823529412,296.73260290798225
0.04249951171875,0.73840869140625,1.16236279296875,1.3777303315666445,4.64453125,-10.74169921875,3.03515625,45.33,296.73260290798225
0.00587841796875,0.86047900390625,1.38599560546875,1.631392806880058,0.30078125,-10.0869140625,1.783203125,45.04764705882353,296.610068751275
-0.0826632486979166,0.7239230143229166,1.3724864908854169,2.0568147503501684,-0.73095703125,-5.61474609375,-0.109375,44.81235294117647,296.610068751275
-0.1712049153645833,0.5873670247395832,1.3589773763020834,1.773658631709078,-0.755859375,3.43115234375,-1.57861328125,44.906470588235294,296.610068751275
-0.25974658203125,0.45081103515625,1.34546826171875,1.4425615132770049,-1.04443359375,9.087890625,-1.3212890625,45.00058823529412,296.610068751275
-0.06003955078125,0.30139697265625,1.05933544921875,1.1030124553947058,-1.8251953125,8.25341796875,-0.62744140625,45.47117647058823,296.610068751275
0.07814404296875,0.21545947265625,0.8737885742187499,0.9033469700198518,-2.70263671875,3.79296875,-0.54833984375,44.906470588235294,296.08066948472583
0.03761669921875,0.17102587890625,0.8547456054687499,0.8724992363228228,-3.2333984375,-0.87255859375,-0.79052734375,44.906470588235294,296.08066948472583
-0.07859423828125,0.14026416015625,0.91138623046875,0.9254598586666984,-3.38623046875,-3.3271484375,-0.671875,45.235882352941175,296.08066948472583
-0.16355517578125,0.12854541015625,0.95728466796875,0.9796265377811658,-3.22802734375,-3.3251953125,-0.50341796875,45.09470588235294,296.08066948472583
-0.19578173828125,0.14563525390625,1.00513623046875,1.034330197773271,-2.9521484375,-1.927734375,-0.365234375,45.00058823529412,296.5777073580784
-0.18845751953125,0.17688525390625,0.98902294921875,1.0222382421914689,-2.65673828125,-0.20068359375,-0.25439453125,45.09470588235294,296.5777073580784
-0.16404345703125,0.20764697265625,0.93628857421875,0.9729665026405836,-2.29248046875,1.0859375,-0.37451171875,45.09470588235294,296.5777073580784
-0.13474658203125,0.22815478515625,0.8689057617187499,0.9084098579973908,-2.02880859375,1.6845703125,-0.28515625,45.00058823529412,296.5777073580784
-0.11277392578125,0.25305712890625,0.8283784179687499,0.873479634669749,-1.76904296875,1.697265625,-0.2314453125,45.00058823529412,296.5777073580784
-0.08250048828125,0.27014697265625,0.8117768554687499,0.8595157825640626,-1.5205078125,1.21875,-0.1943359375,45.00058823529412,296.4456790165798
-0.09128955078125,0.27649462890625,0.8303315429687499,0.8799054114759791,-1.21533203125,0.8857421875,-0.240234375,45.235882352941175,296.4456790165798
-0.08152392578125,0.30286181640625,0.8816010742187499,0.9357306687158082,-0.6796875,0.5703125,-0.29443359375,45.235882352941175,296.4456790165798
-0.09421923828125,0.27502978515625,0.92408154296875,0.9687338879387348,-0.04638671875,0.5107421875,-0.548828125,45.18882352941176,296.4456790165798
-0.10837939453125,0.23401416015625,0.91529248046875,0.9509306205582152,0.35595703125,0.57666015625,-0.39501953125,45.09470588235294,296.4927033409902
-0.06931689453125,0.20374072265625,0.90894482421875,0.9340748403688012,0.23876953125,0.1103515625,0.35498046875,44.24764705882353,296.4927033409902
-0.02146533203125,0.20374072265625,0.94068310546875,0.96273347685745,0.1005859375,-0.7578125,0.9248046875,44.85941176470588,296.4927033409902
1.904296875000072e-05,0.21790087890625,0.97681591796875,1.000824725407942,-0.0810546875,-1.55224609375,0.9052734375,45.00058823529412,296.4927033409902
-0.04880908203125,0.26331103515625,0.98414013671875,1.0199249170525195,-0.2470703125,-1.0537109375,0.4306640625,45.00058823529412,296.4927033409902
-0.13669970703125,0.30188525390625,0.95142529296875,1.00748776892285,-0.5458984375,0.73876953125,-0.025390625,45.09470588235294,296.54663821838164
-0.06980517578125,0.37415087890625,0.97046826171875,1.0424347892101369,-0.1640625,1.61474609375,-0.30810546875,45.04764705882353,296.54663821838164
-0.01218798828125,0.35461962890625,0.8952729492187499,0.9630250681403828,-0.2841796875,1.35205078125,-0.50390625,45.09470588235294,296.54663821838164
-0.05125048828125,0.31946337890625,0.8523041992187499,0.9116501033933904,-0.59912109375,1.06201171875,-0.60302734375,45.33,296.54663821838164
-0.01853564453125,0.30627978515625,0.90210888671875,0.9528647965007888,-0.73779296875,0.31005859375,-0.626953125,44.906470588235294,296.60057343545463
0.02003857421875,0.24182666015625,0.96851513671875,0.9984504234424388,-0.47314453125,-1.1005859375,-1.09521484375,45.235882352941175,296.60057343545463
-0.07078173828125,0.19934619140625,1.02124951171875,1.0429283406294405,-0.365234375,-1.3828125,-0.9892578125,45.04764705882353,296.60057343545463
-0.11570361328125,0.12170947265625,1.07740185546875,1.0904106015754365,-0.12548828125,-1.2666015625,-0.693359375,45.235882352941175,296.60057343545463
-0.12253955078125,0.06604541015625,1.12769482421875,1.1362541767923828,0.06494140625,-0.73876953125,-0.3935546875,45.235882352941175,296.60057343545463
-0.10447314453125,0.06311572265625,1.12915966796875,1.1357375524926372,0.125,0.1748046875,-0.18896484375,45.00058823529412,296.26792124242496
-0.12205126953125,0.07092822265625,1.09107373046875,1.1001678101464154,0.30078125,0.99462890625,0.20947265625,45.00058823529412,296.26792124242496
-0.11423876953125,0.08752978515625,1.03199169921875,1.0419783236756497,0.318359375,1.29931640625,0.54833984375,44.906470588235294,296.26792124242496
-0.07224658203125,0.11292041015625,0.98121044921875,0.990325468369422,0.14404296875,0.5546875,0.48876953125,45.04764705882353,296.26792124242496
-0.04539111328125,0.15198291015625,0.97583935546875,0.9886463502315372,-0.15771484375,-0.81787109375,0.29248046875,45.235882352941175,296.3244385746234
-0.11668017578125,0.17297900390625,0.95630810546875,0.978806003147698,-0.45751953125,-1.4638671875,0.28564453125,45.235882352941175,296.3244385746234
-0.23240283203125,0.21399462890625,0.95093701171875,1.0020409062475717,-0.6611328125,-0.275390625,0.529296875,45.00058823529412,296.3244385746234
-0.19187548828125,0.13635791015625,0.96265576171875,0.991017556976492,-0.5458984375,0.70947265625,0.60986328125,45.00058823529412,296.3244385746234
-0.11960986328125,0.27844775390625,0.93482373046875,0.982718208896683,-0.48193359375,0.88720703125,0.33935546875,45.00058823529412,296.3244385746234
-0.09568408203125,0.29407275390625,0.90894482421875,0.9601119318174434,-0.48486328125,0.7353515625,0.07958984375,45.04764705882353,296.53585121573195
-0.10007861328125,0.30188525390625,0.8733002929687499,0.9294104782396438,-0.5888671875,0.1435546875,-0.07080078125,45.04764705882353,296.53585121573195
-0.12839892578125,0.31555712890625,0.8728120117187499,0.9369436448078752,-0.69287109375,0.1533203125,-0.1435546875,45.18882352941176,296.53585121573195
-0.14402392578125,0.31360400390625,0.8698823242187499,0.9358341842718124,-0.55859375,0.59326171875,-0.2998046875,44.85941176470588,296.53585121573195
-0.14988330078125,0.30823291015625,0.8718354492187499,0.9367868387583874,-0.37841796875,0.93115234375,-0.3935546875,45.09470588235294,296.7028273519412
-0.09275439453125,0.29163134765625,0.92261669921875,0.9720461893953192,-0.26171875,0.4736328125,-0.44091796875,45.04764705882353,296.7028273519412
-0.08543017578125,0.28088916015625,0.94996044921875,0.9942946697570032,-0.1875,-0.02294921875,-0.5087890625,45.235882352941175,296.7028273519412
-0.11179736328125,0.27356494140625,0.96802685546875,1.0121326101415569,-0.15771484375,-0.1396484375,-0.5498046875,45.00058823529412,296.7028273519412
-0.14451220703125,0.26184619140625,0.99097607421875,1.0351235605515927,-0.10888671875,0.00537109375,-0.49755859375,45.18882352941176,296.7028273519412
-0.13621142578125,0.24085009765625,0.99830029296875,1.0359371588064008,-0.0546875,0.4873046875,-0.1884765625,44.85941176470588,296.59366475178234
-0.07566455078125,0.22522509765625,0.99878857421875,1.0266596733334366,-0.0654296875,1.02783203125,-0.2099609375,45.235882352941175,296.59366475178234
-0.0043754882812499,0.22473681640625,1.00806591796875,1.0328226742845523,-0.0380859375,1.890625,-0.3984375,44.906470588235294,296.59366475178234
0.03956982421875,0.21057666015625,1.00318310546875,1.0258092629183988,0.005859375,2.3828125,-0.79638671875,44.906470588235294,296.59366475178234
0.00099560546875,0.19104541015625,0.93384716796875,0.9531893165029042,-0.083984375,1.83251953125,-0.97900390625,45.235882352941175,296.8577255626045
-0.01462939453125,0.19348681640625,0.8977143554687499,0.9184455516371396,-0.2568359375,0.767578125,-0.95166015625,44.85941176470588,296.8577255626045
0.01906201171875,0.19592822265625,0.90210888671875,0.9233372472834316,-0.357421875,-0.25146484375,-0.892578125,45.00058823529412,296.8577255626045
0.02345654296875,0.19251025390625,0.93091748046875,0.9509036558502544,-0.36279296875,-1.23583984375,-0.88720703125,45.33,296.8577255626045
-0.03611376953125,0.20715869140625,0.94068310546875,0.9639002192598762,-0.40234375,-1.47412109375,-0.73486328125,45.235882352941175,296.8577255626045
-0.07175830078125,0.23059619140625,0.94361279296875,0.9740271866207664,-0.36328125,-1.58740234375,-0.69970703125,45.09470588235294,296.3675868436984
-0.11130908203125,0.23499072265625,0.94263623046875,0.9778412010492707,-0.3818359375,-1.40673828125,-0.74560546875,45.47117647058823,296.3675868436984
-0.14500048828125,0.23059619140625,0.95728466796875,0.995285728130826,-0.35791015625,-1.09228515625,-0.7890625,45.00058823529412,296.3675868436984
-0.17869189453125,0.22766650390625,0.96314404296875,1.005688459553082,-0.37109375,-0.6982421875,-0.74560546875,44.85941176470588,296.3675868436984
-0.19285205078125,0.21692431640625,0.97095654296875,1.0134123942762288,-0.2998046875,-0.5107421875,-0.748046875,45.33,296.5802917108088
-0.19138720703125,0.20764697265625,0.98023388671875,1.0201003876777397,-0.23583984375,-0.2822265625,-0.75146484375,44.906470588235294,296.5802917108088
-0.16599658203125,0.19055712890625,1.00025341796875,1.0316849251497366,-0.16162109375,0.05224609375,-0.6748046875,45.00058823529412,296.5802917108088
-0.15037158203125,0.17297900390625,1.00855419921875,1.0342702360779574,-0.0615234375,0.47412109375,-0.484375,44.906470588235294,296.5802917108088
-0.12644580078125,0.16077197265625,1.01294873046875,1.0333930995924283,0.0341796875,0.82470703125,-0.232421875,45.00058823529412,296.5802917108088
-0.09714892578125,0.17102587890625,1.00660107421875,1.0256380880478493,0.06005859375,1.04345703125,-0.123046875,45.00058823529412,296.645013893756
-0.07810595703125,0.18811572265625,0.99537060546875,1.0159973955997508,0.06103515625,1.17138671875,-0.140625,45.00058823529412,296.645013893756
-0.09031298828125,0.19788134765625,0.98804638671875,1.0117060471849124,0.0927734375,1.31005859375,-0.12744140625,45.00058823529412,296.645013893756
-0.10544970703125,0.19690478515625,0.97388623046875,0.9991724200692472,0.1162109375,1.29541015625,0.03466796875,45.47117647058823,296.645013893756
-0.11179736328125,0.18225634765625,0.96216748046875,0.985638010209234,0.08544921875,1.06640625,0.15673828125,45.09470588235294,296.53455902403624
-0.11228564453125,0.17346728515625,0.94214794921875,0.96454223505473,-0.0146484375,0.7666015625,0.07470703125,45.04764705882353,296.53455902403624
-0.09714892578125,0.16370166015625,0.93580029296875,0.9549650965552412,-0.1015625,0.4736328125,-0.099609375,45.04764705882353,296.53455902403624
-0.09714892578125,0.16467822265625,0.92505810546875,0.9446106760412488,-0.1845703125,0.19189453125,-0.255859375,45.235882352941175,296.53455902403624
-0.09324267578125,0.16809619140625,0.91773388671875,0.9376491950532656,-0.26806640625,-0.08837890625,-0.26171875,45.00058823529412,296.53455902403624
-0.07029345703125,0.17053759765625,0.92603466796875,0.9442269052488188,-0.29150390625,-0.1396484375,-0.1826171875,44.906470588235294,296.50090599620245
-0.05515673828125,0.17102587890625,0.93433544921875,0.951459325825484,-0.27783203125,-0.07080078125,-0.1865234375,45.04764705882353,296.50090599620245
-0.05710986328125,0.18469775390625,0.93580029296875,0.955561083920026,-0.25537109375,0.02197265625,-0.23291015625,45.18882352941176,296.50090599620245
-0.07664111328125,0.18713916015625,0.93677685546875,0.958355780725976,-0.22900390625,0.00146484375,-0.23681640625,45.04764705882353,296.50090599620245
-0.09763720703125,0.18469775390625,0.93628857421875,0.9593135976871464,-0.14892578125,-0.09130859375,-0.11474609375,45.18882352941176,296.2717953745083
-0.10935595703125,0.17346728515625,0.94703076171875,0.9689772381223906,-0.09814453125,-0.26416015625,0.0703125,45.235882352941175,296.2717953745083
-0.11179736328125,0.16565478515625,0.94605419921875,0.9669326275088836,-0.05078125,-0.546875,0.2451171875,45.00058823529412,296.2717953745083
-0.12009814453125,0.16516650390625,0.96314404296875,0.984555730184255,-0.068359375,-0.88623046875,0.3369140625,45.09470588235294,296.2717953745083
-0.12498095703125,0.17004931640625,0.95972607421875,0.9826551517017624,-0.05908203125,-1.12451171875,0.4189453125,45.00058823529412,296.2717953745083
-0.12400439453125,0.17493212890625,0.96656201171875,0.9900608375673344,-0.0673828125,-1.0625,0.37841796875,45.00058823529412,296.41331787193275
-0.12449267578125,0.18176806640625,0.96656201171875,0.9913527015074096,-0.05029296875,-0.85498046875,0.3134765625,45.00058823529412,296.41331787193275
-0.12937548828125,0.18274462890625,0.94947216796875,0.9755157682525551,-0.01025390625,-0.68017578125,0.3681640625,45.235882352941175,296.41331787193275
-0.12156298828125,0.17932666015625,0.93677685546875,0.9615022039000128,-0.0341796875,-0.48828125,0.49072265625,45.00058823529412,296.41331787193275
-0.10740283203125,0.17493212890625,0.92017529296875,0.942793290091805,-0.04052734375,-0.35888671875,0.4921875,45.00058823529412,296.8603141422117
-0.10740283203125,0.18323291015625,0.90162060546875,0.9262987552072476,-0.03173828125,-0.63671875,0.21337890625,45.00058823529412,296.8603141422117
-0.14158251953125,0.20667041015625,0.8703706054687499,0.9057059451803372,-0.09814453125,-1.72216796875,-0.21240234375,45.00058823529412,296.8603141422117
-0.17527392578125,0.21350634765625,0.8728120117187499,0.915481685971278,-0.158203125,-2.92626953125,-0.36083984375,44.85941176470588,296.8603141422117
-0.18699267578125,0.21838916015625,0.92017529296875,0.9640449449375836,-0.146484375,-3.5341796875,-0.18896484375,45.09470588235294,296.8603141422117
-0.16648486328125,0.22620166015625,0.98804638671875,1.027190373332615,-0.01513671875,-3.306640625,0.1494140625,44.906470588235294,296.5600107355993
-0.13816455078125,0.21643603515625,1.06763623046875,1.0980806532383058,0.20654296875,-2.47900390625,0.37890625,45.235882352941175,296.5600107355993
-0.09714892578125,0.18469775390625,1.10621044921875,1.1257232040067455,0.32373046875,-1.2919921875,0.3544921875,45.04764705882353,296.5600107355993
-0.05808642578125,0.14954150390625,1.11841748046875,1.1298647506974675,0.27587890625,-0.4365234375,0.28076171875,45.04764705882353,296.5600107355993
-0.04050830078125,0.12317431640625,1.12769482421875,1.1351248615126397,0.1953125,0.35693359375,0.29052734375,44.85941176470588,296.50349028929315
-0.02195361328125,0.09973681640625,1.12915966796875,1.1337684725949362,0.21337890625,1.15673828125,0.46337890625,45.18882352941176,296.50349028929315
0.02443310546875,0.08167041015625,1.12134716796875,1.1245828131576052,0.240234375,1.78466796875,0.7001953125,45.235882352941175,296.50349028929315
0.04298779296875,0.07434619140625,1.10376904296875,1.1071049664494732,0.23388671875,2.201171875,0.7822265625,45.00058823529412,296.50349028929315
0.00880810546875,0.09241259765625,1.05298779296875,1.057071881694298,0.1142578125,1.94970703125,0.83837890625,45.00058823529412,296.50349028929315
-0.01267626953125,0.11389697265625,0.98951123046875,0.99612533519295,-0.142578125,1.19580078125,0.775390625,45.235882352941175,296.4819164062739
-0.03367236328125,0.13489306640625,0.96412060546875,0.974093686101524,-0.37744140625,0.396484375,0.60400390625,45.235882352941175,296.4819164062739
-0.04685595703125,0.14368212890625,0.96119091796875,0.9729994941735348,-0.74658203125,0.0107421875,0.443359375,44.906470588235294,296.4819164062739
-0.05759814453125,0.15247119140625,0.95581982421875,0.9696167009864496,-0.93896484375,0.10302734375,0.32177734375,45.00058823529412,296.4819164062739
-0.08396533203125,0.16174853515625,0.94458935546875,0.9620092598687288,-0.98779296875,0.28857421875,0.28515625,44.81235294117647,296.5047831155878
-0.09812548828125,0.16614306640625,0.92261669921875,0.9425782214981452,-0.9638671875,0.35400390625,0.30859375,45.235882352941175,296.5047831155878
-0.10154345703125,0.17102587890625,0.90455029296875,0.9261598984146118,-0.93994140625,0.24072265625,0.35791015625,45.04764705882353,296.5047831155878
-0.08298876953125,0.17737353515625,0.8855073242187499,0.906902270416822,-0.896484375,-0.001953125,0.38037109375,44.85941176470588,296.5047831155878
-0.09080126953125,0.19641650390625,0.8806245117187499,0.906820734321358,-0.8212890625,-0.0830078125,0.44287109375,45.18882352941176,296.5047831155878
-0.10056689453125,0.19202197265625,0.90455029296875,0.930159863017271,-0.73779296875,0.0234375,0.5224609375,44.24764705882353,296.4616356457948
-0.09226611328125,0.18909228515625,0.91285107421875,0.9367849335188768,-0.603515625,0.24755859375,0.580078125,45.09470588235294,296.4616356457948
-0.08005908203125,0.18811572265625,0.91675732421875,0.9392768352487416,-0.4638671875,0.43896484375,0.52001953125,45.04764705882353,296.4616356457948
-0.08494189453125,0.19641650390625,0.92456982421875,0.9490120801703222,-0.359375,0.59130859375,0.41650390625,45.00058823529412,296.4616356457948
-0.09812548828125,0.21252978515625,0.93970654296875,0.9684244461635996,-0.2646484375,0.64453125,0.41015625,45.18882352941176,296.4939962277608
-0.10886767578125,0.22864306640625,0.95679638671875,0.9897419604541984,-0.1103515625,0.67431640625,0.47802734375,44.906470588235294,296.4939962277608
-0.10203173828125,0.22620166015625,0.97632763671875,1.0073695056407834,-0.03125,0.75634765625,0.48291015625,45.00058823529412,296.4939962277608
-0.10740283203125,0.22815478515625,0.99048779296875,1.0220841659756463,-0.01953125,0.93212890625,0.4970703125,45.09470588235294,296.4939962277608
-0.11960986328125,0.22180712890625,0.99976513671875,1.0310360083072043,-0.0146484375,1.09716796875,0.26953125,45.04764705882353,296.4939962277608
-0.14451220703125,0.20227587890625,0.98169873046875,1.012685393679742,-0.0126953125,1.248046875,0.11083984375,45.09470588235294,296.75805555853094
-0.15623095703125,0.17932666015625,0.97290966796875,1.0015584780754234,0.01416015625,0.99609375,-0.0751953125,45.04764705882353,296.75805555853094
-0.15525439453125,0.16760791015625,0.96070263671875,0.987494756829913,-0.0146484375,0.66650390625,-0.2099609375,45.04764705882353,296.75805555853094
-0.15281298828125,0.16321337890625,0.95630810546875,0.9820975557584236,-0.05322265625,0.21484375,-0.07470703125,44.906470588235294,296.75805555853094
-0.12888720703125,0.17053759765625,0.95044873046875,0.9741908301766856,-0.103515625,0.00830078125,0.10302734375,44.906470588235294,296.66097342190545
-0.10007861328125,0.18079150390625,0.95093701171875,0.973130256942804,-0.16796875,0.0439453125,0.04345703125,45.09470588235294,296.66097342190545
-0.08103564453125,0.18762744140625,0.94507763671875,0.966924284460344,-0.2490234375,0.13671875,-0.13232421875,45.09470588235294,296.66097342190545
-0.09568408203125,0.19006884765625,0.94507763671875,0.9687380191927202,-0.29345703125,0.23095703125,-0.27880859375,45.235882352941175,296.66097342190545
-0.11619189453125,0.18713916015625,0.94165966796875,0.9670804267990144,-0.2998046875,0.2099609375,-0.21923828125,45.00058823529412,296.66097342190545
-0.12156298828125,0.17004931640625,0.93531201171875,0.9583855640583676,-0.294921875,0.0517578125,-0.0888671875,45.00058823529412,296.44135563474714
-0.12351611328125,0.15930712890625,0.94117138671875,0.9625167898476128,-0.28076171875,-0.119140625,0.01611328125,45.18882352941176,296.44135563474714
-0.13621142578125,0.14563525390625,0.96021435546875,0.9807011716837936,-0.24560546875,-0.26025390625,0.13818359375,44.81235294117647,296.44135563474714
-0.14890673828125,0.14172900390625,0.98023388671875,1.0015581859909914,-0.15576171875,-0.28076171875,0.34521484375,45.04764705882353,296.44135563474714
-0.14353564453125,0.13440478515625,1.00464794921875,1.0237112040968093,-0.04931640625,-0.08642578125,0.576171875,45.00058823529412,296.66097342190545
-0.11423876953125,0.13196337890625,1.00855419921875,1.023545994373552,-0.04443359375,0.08349609375,0.6591796875,45.09470588235294,296.66097342190545
-0.10007861328125,0.13782275390625,1.01001904296875,1.0242798970448022,-0.02734375,0.11181640625,0.7373046875,45.04764705882353,296.66097342190545
-0.09812548828125,0.14465869140625,1.00367138671875,1.0187791718364394,-0.0869140625,0.08154296875,0.81201171875,44.906470588235294,296.66097342190545
-0.0029106445312499,0.16809619140625,0.99781201171875,1.0118762830243095,-0.20751953125,0.26904296875,0.697265625,44.906470588235294,296.4724224928618
-0.12058642578125,0.17200244140625,1.02808544921875,1.0493262680538054,-0.22021484375,0.26318359375,0.6640625,44.906470588235294,296.4724224928618
-0.09812548828125,0.17151416015625,1.00904248046875,1.0282083670030435,-0.22900390625,0.27392578125,0.58984375,45.00058823529412,296.4724224928618
-0.09910205078125,0.16321337890625,1.00318310546875,1.021193501066752,-0.24462890625,0.302734375,0.55517578125,45.235882352941175,296.4724224928618
-0.09031298828125,0.15149462890625,0.99732373046875,1.012798934535298,-0.28759765625,0.4140625,0.41015625,45.18882352941176,296.4724224928618
-0.09519580078125,0.14124072265625,0.98658154296875,1.0011764695344385,-0.25146484375,0.50830078125,0.41162109375,44.906470588235294,296.8171668685646
-0.10154345703125,0.13977587890625,0.96509716796875,0.9804391432471335,-0.2509765625,0.4248046875,0.28955078125,45.235882352941175,296.8171668685646
-0.10398486328125,0.14368212890625,0.94312451171875,0.9596568400023952,-0.34033203125,0.16015625,0.12109375,44.81235294117647,296.8171668685646
-0.11423876953125,0.15540087890625,0.93140576171875,0.9511659280019096,-0.42626953125,0.0498046875,0.05712890625,44.906470588235294,296.8171668685646
-0.12839892578125,0.16516650390625,0.93042919921875,0.953658614449236,-0.48828125,-0.0068359375,0.07861328125,45.09470588235294,296.8171668685646
-0.14255908203125,0.17737353515625,0.93970654296875,0.9668675450865528,-0.54541015625,0.01708984375,0.31201171875,45.235882352941175,296.49787760705993
-0.14011767578125,0.16907275390625,0.94312451171875,0.968350351775902,-0.42822265625,0.09130859375,0.68798828125,45.235882352941175,296.49787760705993
-0.12253955078125,0.16858447265625,0.95386669921875,0.9763699840761848,-0.36767578125,0.06689453125,0.73828125,45.09470588235294,296.49787760705993
-0.12888720703125,0.15979541015625,0.96119091796875,0.982870523532438,-0.32666015625,0.07275390625,0.6318359375,45.18882352941176,296.49787760705993
-0.14744189453125,0.13538134765625,0.96705029296875,0.9875492345635896,-0.251953125,0.0400390625,0.64794921875,44.85941176470588,296.2959540036369
-0.16257861328125,0.12659228515625,0.95972607421875,0.9815964291361644,-0.2099609375,-0.07861328125,0.759765625,45.09470588235294,296.2959540036369
-0.14500048828125,0.12756884765625,0.96656201171875,0.9856678319758342,-0.2158203125,-0.16943359375,0.86376953125,45.00058823529412,296.2959540036369
-0.10593798828125,0.14124072265625,0.96851513671875,0.9844761902407172,-0.26513671875,-0.09814453125,0.7744140625,45.04764705882353,296.2959540036369
-0.07957080078125,0.15344775390625,0.97535107421875,0.9905490616297165,-0.3115234375,0.23095703125,0.61962890625,45.04764705882353,296.2959540036369
-0.07908251953125,0.15540087890625,0.97876904296875,0.9941792180156492,-0.275390625,0.6171875,0.58984375,45.04764705882353,296.4845027539332
-0.08787158203125,0.16760791015625,0.97095654296875,0.9892271906945572,-0.23486328125,0.66552734375,0.64208984375,45.18882352941176,296.4845027539332
-0.07957080078125,0.16418994140625,0.96607373046875,0.9831522272251454,-0.21435546875,0.46826171875,0.5849609375,45.235882352941175,296.4845027539332
-0.06882861328125,0.16321337890625,0.95972607421875,0.9759355114942526,-0.24560546875,0.02294921875,0.26708984375,44.906470588235294,296.4845027539332
-0.08054736328125,0.15833056640625,0.96997998046875,0.986112371132338,-0.31884765625,-0.52392578125,0.04931640625,45.235882352941175,296.60703937709866
-0.10691455078125,0.15051806640625,0.98999951171875,1.0070677448348726,-0.3359375,-0.82958984375,0.1015625,45.04764705882353,296.60703937709866
-0.11765673828125,0.16272509765625,1.00757763671875,1.0273924564089227,-0.30419921875,-0.74658203125,0.248046875,45.09470588235294,296.60703937709866
-0.10593798828125,0.17395556640625,1.02515576171875,1.0451926770839663,-0.2568359375,-0.46630859375,0.17236328125,45.235882352941175,296.60703937709866
-0.11912158203125,0.17102587890625,1.02466748046875,1.0456496775170256,-0.25634765625,-0.19775390625,-0.05029296875,44.906470588235294,296.60703937709866
-0.13767626953125,0.16907275390625,1.01148388671875,1.0347173548352004,-0.22998046875,-0.1865234375,-0.1044921875,45.33,296.44135563474714
-0.13621142578125,0.15637744140625,0.98121044921875,1.0028865351325578,-0.27197265625,-0.361328125,-0.1005859375,45.00058823529412,296.44135563474714
-0.11082080078125,0.15686572265625,0.98658154296875,1.005102604591623,-0.28955078125,-0.64404296875,-0.0986328125,45.09470588235294,296.44135563474714
-0.09421923828125,0.16272509765625,0.98706982421875,1.004820163090276,-0.259765625,-0.802734375,0.01513671875,45.235882352941175,296.44135563474714
-0.09470751953125,0.17151416015625,0.98560498046875,1.0048899436827252,-0.224609375,-0.85986328125,0.11572265625,45.04764705882353,296.662267667363
-0.11619189453125,0.19446337890625,0.98365185546875,1.0093995912707272,-0.1904296875,-1.04052734375,0.04443359375,45.00058823529412,296.662267667363
-0.15623095703125,0.22229541015625,0.96949169921875,1.0068453288194243,-0.23095703125,-1.28369140625,-0.1806640625,45.00058823529412,296.662267667363
-0.17771533203125,0.24085009765625,0.96607373046875,1.011380225969348,-0.341796875,-1.06884765625,-0.25244140625,45.04764705882353,296.662267667363
-0.17771533203125,0.23352587890625,0.97144482421875,1.0148015184553636,-0.43310546875,-0.35400390625,-0.24853515625,45.00058823529412,296.662267667363
-0.16648486328125,0.20422900390625,0.97583935546875,1.010786398513544,-0.4697265625,0.54833984375,-0.18798828125,45.00058823529412,296.69721756341835
-0.16697314453125,0.15100634765625,0.96607373046875,0.9919583664292272,-0.5263671875,1.30615234375,-0.16064453125,45.235882352941175,296.69721756341835
-0.16355517578125,0.10315478515625,0.96412060546875,0.9833207752889678,-0.46142578125,1.53466796875,-0.0771484375,45.18882352941176,296.69721756341835
-0.13328173828125,0.0299125976562499,0.96900341796875,0.9785838795386608,-0.3515625,1.48974609375,-0.048828125,45.18882352941176,296.69721756341835
-0.11472705078125,-0.01549755859375,0.98414013671875,0.990925970597264,-0.12890625,1.236328125,0.01416015625,45.00058823529412,296.5436138823914
-0.07224658203125,-0.05358349609375,0.99781201171875,1.0018580590078845,0.07275390625,1.15966796875,0.0244140625,45.47117647058823,296.5436138823914
-0.02488330078125,-0.05114208984375,1.00806591796875,1.009669048243797,0.134765625,1.2646484375,-0.11669921875,45.04764705882353,296.5436138823914
-0.03318408203125,0.0035454101562499,0.98658154296875,0.9871458322659484,-0.03466796875,1.453125,-0.23046875,45.09470588235294,296.5436138823914
-0.03464892578125,0.07727587890625,0.96851513671875,0.9722107176800032,-0.333984375,1.42529296875,-0.1923828125,45.37705882352941,296.5436138823914
-0.04587939453125,0.14954150390625,0.93677685546875,0.9497465225916946,-0.53857421875,1.39013671875,-0.3212890625,45.18882352941176,296.65148089170225
-0.07078173828125,0.21399462890625,0.92749951171875,0.954494159182422,-0.705078125,1.07763671875,-0.5068359375,45.235882352941175,296.65148089170225
-0.09177783203125,0.24475634765625,0.90894482421875,0.9457851413743174,-0.720703125,0.64599609375,-0.7685546875,45.00058823529412,296.65148089170225
-0.14207080078125,0.26965869140625,0.8913666992187499,0.9420374274739228,-0.7275390625,0.34521484375,-0.8828125,45.00058823529412,296.65148089170225
-0.19431689453125,0.27551806640625,0.8952729492187499,0.9566519293971796,-0.611328125,0.11962890625,-0.427734375,45.00058823529412,296.4508488123194
-0.18552783203125,0.24768603515625,0.91236279296875,0.963418296724417,-0.263671875,-0.10595703125,0.23681640625,44.906470588235294,296.4508488123194
-0.14451220703125,0.22424853515625,0.92847607421875,0.966042961724492,0.00634765625,-0.4501953125,0.27001953125,45.00058823529412,296.4508488123194
-0.11179736328125,0.21106494140625,0.95240185546875,0.9818942683546844,0.19677734375,-0.56005859375,-0.0732421875,44.906470588235294,296.4508488123194
-0.10056689453125,0.18469775390625,0.96997998046875,0.9925160568392986,0.341796875,-0.287109375,-0.44677734375,45.235882352941175,296.4508488123194
-0.13328173828125,0.15393603515625,0.96558544921875,0.9868209485118732,0.3720703125,-0.16650390625,-0.638671875,45.09470588235294,296.5410245141669
-0.18113330078125,0.14417041015625,0.97193310546875,0.9991237867865324,0.4345703125,-0.20068359375,-0.37109375,45.00058823529412,296.5410245141669
-0.17429736328125,0.12268603515625,0.97290966796875,0.9959842649842516,0.44921875,-0.1396484375,0.248046875,45.00058823529412,296.5410245141669
-0.13767626953125,0.10413134765625,0.98218701171875,0.9972409030649294,0.43408203125,-0.05224609375,0.40283203125,44.906470588235294,296.5410245141669
-0.13181689453125,0.09876025390625,0.99390576171875,1.0074611380163594,0.4130859375,-0.0029296875,0.31103515625,45.00058823529412,296.62990738114576
-0.17332080078125,0.10413134765625,1.00122998046875,1.0214425638955988,0.31298828125,-0.033203125,0.33056640625,45.09470588235294,296.62990738114576
-0.18455126953125,0.12317431640625,1.02271435546875,1.0465064434534572,0.32080078125,0.12939453125,0.52880859375,44.906470588235294,296.62990738114576
-0.14597705078125,0.13831103515625,1.02515576171875,1.0446930542441333,0.3359375,0.51708984375,0.4912109375,45.04764705882353,296.62990738114576
-0.11326220703125,0.16321337890625,1.02076123046875,1.039913661908363,0.37158203125,1.037109375,0.1826171875,45.00058823529412,296.62990738114576
-0.09666064453125,0.18274462890625,1.00122998046875,1.0223504063601352,0.4375,1.162109375,-0.1142578125,45.00058823529412,296.37534135839365
-0.09128955078125,0.19251025390625,0.95533154296875,0.9788014798374304,0.39306640625,0.62841796875,-0.3974609375,45.04764705882353,296.37534135839365
-0.09421923828125,0.17493212890625,0.93580029296875,0.9566612268229386,0.19580078125,-0.05224609375,-0.60888671875,45.00058823529412,296.37534135839365
-0.11277392578125,0.14465869140625,0.94507763671875,0.962712747792082,0.01806640625,-0.31201171875,-0.74755859375,44.906470588235294,296.37534135839365
-0.12253955078125,0.11438525390625,0.96997998046875,0.9843582124039116,-0.05712890625,-0.2119140625,-0.55615234375,45.04764705882353,296.4521423941599
-0.12205126953125,0.08801806640625,0.99683544921875,1.0081292601780945,0.015625,0.14794921875,-0.55810546875,45.00058823529412,296.4521423941599
-0.11375048828125,0.06458056640625,1.00220654296875,1.0107065735963867,0.0654296875,0.56884765625,-0.6943359375,45.00058823529412,296.4521423941599
-0.12888720703125,0.05920947265625,0.98609326171875,0.9962417350200052,0.1044921875,0.9384765625,-0.873046875,45.18882352941176,296.4521423941599
-0.15671923828125,0.07532275390625,0.96412060546875,0.9796749352682784,0.15087890625,0.88427734375,-0.95849609375,45.09470588235294,296.4521423941599
-0.18308642578125,0.10315478515625,0.92701123046875,0.9505321511769976,0.0927734375,0.10693359375,-1.10107421875,45.09470588235294,296.85341375309974
-0.21335986328125,0.14124072265625,0.92066357421875,0.9555588887604451,-0.05029296875,-1.0751953125,-1.05908203125,45.09470588235294,296.85341375309974
-0.22556689453125,0.15735400390625,0.94214794921875,0.981470052865036,-0.173828125,-1.9580078125,-0.8720703125,45.04764705882353,296.85341375309974
-0.20408251953125,0.16516650390625,0.98169873046875,1.0161998062363482,-0.16552734375,-2.14306640625,-0.38525390625,45.00058823529412,296.85341375309974
-0.17625048828125,0.16126025390625,1.03736279296875,1.0645142875251663,-0.07177734375,-1.54736328125,-0.12158203125,45.18882352941176,296.4184883934033
-0.14402392578125,0.16711962890625,1.05103466796875,1.0739393534252233,0.0654296875,-0.68310546875,-0.16552734375,44.85941176470588,296.4184883934033
-0.15867236328125,0.17883837890625,1.05054638671875,1.0774079057102257,0.19873046875,-0.06787109375,-0.29443359375,44.906470588235294,296.4184883934033
-0.16111376953125,0.18958056640625,1.03492138671875,1.064406273271322,0.34814453125,0.14306640625,-0.43896484375,45.09470588235294,296.4184883934033
-0.15525439453125,0.20129931640625,1.01392529296875,1.045308491082252,0.33154296875,-0.06689453125,-0.63720703125,45.09470588235294,296.4184883934033
-0.16013720703125,0.20422900390625,1.00464794921875,1.0376275405856132,0.2978515625,-0.5791015625,-0.7255859375,45.00058823529412,296.34039421106195
-0.17673876953125,0.17883837890625,1.01880810546875,1.0493758688830517,0.26953125,-0.90966796875,-0.46142578125,45.00058823529412,296.34039421106195
-0.17136767578125,0.14661181640625,1.03052685546875,1.054915875724182,0.2919921875,-0.77001953125,-0.0068359375,45.04764705882353,296.34039421106195
-0.15818408203125,0.11975634765625,1.04126904296875,1.0600023615337328,0.36962890625,-0.171875,0.26220703125,45.04764705882353,296.34039421106195
-0.12888720703125,0.10803759765625,1.04419873046875,1.05765543697189,0.43994140625,0.45263671875,0.16796875,45.00058823529412,296.40770161426474
-0.10007861328125,0.10120166015625,1.03785107421875,1.0475649655805088,0.4658203125,0.85107421875,-0.181640625,45.04764705882353,296.40770161426474
-0.10007861328125,0.11194384765625,1.01392529296875,1.0249837333275829,0.427734375,0.810546875,-0.51318359375,45.235882352941175,296.40770161426474
-0.12205126953125,0.13001025390625,0.99146435546875,1.0073731913645614,0.39794921875,0.5390625,-0.57958984375,44.24764705882353,296.40770161426474
-0.14890673828125,0.13489306640625,0.98804638671875,1.008268326576819,0.41943359375,0.4345703125,-0.4599609375,45.00058823529412,296.40770161426474
-0.15378955078125,0.12463916015625,0.98365185546875,1.003372871339996,0.51318359375,0.76953125,-0.4375,45.09470588235294,296.69721756341835
-0.15769580078125,0.11487353515625,0.97193310546875,0.9913212678892056,0.57373046875,1.34375,-0.65576171875,45.04764705882353,296.69721756341835
-0.16892626953125,0.10217822265625,0.94117138671875,0.9616548512335544,0.58837890625,1.7626953125,-0.90625,45.00058823529412,296.69721756341835
-0.18601611328125,0.09192431640625,0.8991791992187499,0.9228083802473248,0.56005859375,1.75830078125,-0.96630859375,45.04764705882353,296.69721756341835
-0.19041064453125,0.08997119140625,0.8679291992187499,0.8931137238282516,0.53515625,1.5,-0.77197265625,45.09470588235294,296.49658336079074
-0.17185595703125,0.08264697265625,0.8513276367187499,0.872424058068954,0.53759765625,0.97802734375,-0.52001953125,45.04764705882353,296.49658336079074
-0.15378955078125,0.10901416015625,0.8400971679687499,0.8609869712563514,0.5126953125,0.2998046875,-0.2890625,45.04764705882353,296.49658336079074
-0.13377001953125,0.12756884765625,0.8444916992187499,0.8644850831952545,0.43994140625,-0.35693359375,-0.31591796875,45.09470588235294,296.49658336079074
-0.13914111328125,0.15247119140625,0.8689057617187499,0.8930873061252342,0.357421875,-0.71484375,-0.3681640625,45.00058823529412,296.49658336079074
-0.13718798828125,0.17151416015625,0.8918549804687499,0.918500385111337,0.37353515625,-0.7216796875,-0.5244140625,45.00058823529412,296.6312022612022
-0.14353564453125,0.18079150390625,0.91138623046875,0.9401664268754348,0.16845703125,-0.5048828125,-0.7080078125,45.235882352941175,296.6312022612022
-0.15769580078125,0.19739306640625,0.93921826171875,0.9726062571232472,0.08203125,-0.2744140625,-0.80712890625,45.235882352941175,296.6312022612022
-0.16111376953125,0.21106494140625,0.94703076171875,0.9835513814056632,-0.0556640625,-0.677734375,-0.9296875,45.00058823529412,296.6312022612022
-0.24509814453125,0.19348681640625,0.96363232421875,1.0129647105674102,-0.40966796875,-1.4306640625,-0.552734375,45.09470588235294,296.5207456119236
-0.22752001953125,0.24622119140625,0.95728466796875,1.0142899831473509,-0.296875,-0.640625,-0.52490234375,45.09470588235294,296.5207456119236
-0.15623095703125,0.22620166015625,0.96997998046875,1.008184737784946,-0.1728515625,1.18017578125,-0.689453125,45.09470588235294,296.5207456119236
-0.07029345703125,0.13977587890625,0.97095654296875,0.9834811003569132,0.13037109375,3.0029296875,-0.77880859375,45.00058823529412,296.5207456119236
-0.02732470703125,0.10657275390625,0.91333935546875,0.919941938242614,0.68212890625,3.59912109375,-1.033203125,45.00058823529412,296.5207456119236
-0.04490283203125,0.13147509765625,0.8386323242187499,0.8500624335027925,0.88916015625,2.0927734375,-1.3515625,45.00058823529412,296.4763042350264
-0.11912158203125,0.14026416015625,0.8059174804687499,0.8266601304375721,0.84375,-0.28466796875,-1.47607421875,45.00058823529412,296.4763042350264
-0.19285205078125,0.15784228515625,0.8566987304687499,0.8922100735032353,0.70703125,-2.33935546875,-1.42138671875,44.906470588235294,296.4763042350264
-0.23923876953125,0.18713916015625,0.93482373046875,0.982930140527964,0.642578125,-2.892578125,-1.33447265625,45.235882352941175,296.4763042350264
-0.24656298828125,0.21497119140625,1.03052685546875,1.081199112174586,0.6513671875,-2.09765625,-1.1474609375,44.906470588235294,296.6001377933532
-0.22556689453125,0.22815478515625,1.05201123046875,1.0998466524613968,0.72998046875,-0.669921875,-0.97216796875,44.906470588235294,296.6001377933532
-0.18992236328125,0.21790087890625,1.04419873046875,1.0834677133237522,0.73828125,0.56787109375,-0.9443359375,45.09470588235294,296.6001377933532
-0.15427783203125,0.20276416015625,1.01392529296875,1.045447011484512,0.7275390625,1.1884765625,-1.033203125,45.18882352941176,296.6001377933532
-0.13132861328125,0.18225634765625,0.96753857421875,0.9932751247910236,0.69482421875,1.1005859375,-1.1953125,45.235882352941175,296.6001377933532
-0.12546923828125,0.15247119140625,0.93384716796875,0.9544949067894354,0.6513671875,0.619140625,-1.23876953125,45.00058823529412,296.5651871755563
-0.12009814453125,0.15491259765625,0.93677685546875,0.9570644461970028,0.62744140625,-0.40576171875,-1.00537109375,45.33,296.5651871755563
-0.11082080078125,0.16077197265625,0.92896435546875,0.9492647948855204,0.67236328125,-1.1484375,-0.99560546875,45.04764705882353,296.5651871755563
-0.10203173828125,0.17004931640625,0.96119091796875,0.9814352889582352,0.73974609375,-1.57470703125,-1.1591796875,45.09470588235294,296.5651871755563
-0.10398486328125,0.17493212890625,0.98755810546875,1.0083080447920267,0.82763671875,-1.744140625,-1.48974609375,45.00058823529412,296.3684381900693
-0.12156298828125,0.18811572265625,0.98853466796875,1.0135905854961544,0.794921875,-1.6640625,-1.92529296875,44.85941176470588,296.3684381900693
-0.13035205078125,0.20471728515625,0.99585888671875,1.0250052420555376,0.75830078125,-1.41162109375,-2.263671875,45.00058823529412,296.3684381900693
-0.13718798828125,0.22424853515625,0.98755810546875,1.0219486099239077,0.7958984375,-1.07275390625,-2.3359375,45.09470588235294,296.3684381900693
-0.12400439453125,0.23157275390625,0.97974560546875,1.0143492897666533,0.845703125,-0.82080078125,-2.2783203125,44.906470588235294,296.3684381900693
-0.12351611328125,0.23499072265625,0.97828076171875,1.0136617378216617,0.9384765625,-0.703125,-2.138671875,44.906470588235294,296.3550620485452
-0.12693408203125,0.22717822265625,0.96412060546875,0.9986244278605434,1.08203125,-0.62841796875,-1.95556640625,45.235882352941175,296.3550620485452
-0.12107470703125,0.21350634765625,0.94507763671875,0.9764301227420792,1.1748046875,-0.6669921875,-1.9638671875,45.04764705882353,296.3550620485452
