AccX,AccY,AccZ,Magnitude,GyroX,GyroY,GyroZ,Temperature,Altitude
-0.29441455078125,-0.93786083984375,-0.0754301757812501,0.9858765612603536,-0.193359375,-0.80615234375,0.20654296875,45.70647058823529,313.74948494390907
-0.29490283203125,-0.92858349609375,-0.0690825195312501,0.976733015753296,-0.17724609375,-0.7841796875,0.1103515625,45.70647058823529,313.74948494390907
-0.30418017578125,-0.92125927734375,-0.0725004882812501,0.9728826014639488,-0.16552734375,-0.90869140625,0.046875,46.13,313.75098790711303
-0.31882861328125,-0.92272412109375,-0.0749418945312501,0.9791260265415332,-0.1552734375,-1.10791015625,0.06005859375,46.13,313.75098790711303
-0.32908251953125,-0.92565380859375,-0.0778715820312501,0.9854918879996932,-0.14013671875,-1.26953125,0.10107421875,45.84764705882353,313.75098790711303
-0.33005908203125,-0.91295849609375,-0.0734770507812501,0.9735661714606684,-0.146484375,-1.3251953125,0.1708984375,45.61235294117647,313.75098790711303
-0.33152392578125,-0.91539990234375,-0.0646879882812501,0.9757303061831348,-0.17431640625,-1.2529296875,0.16015625,45.00058823529412,313.8709313477211
-0.33298876953125,-0.91002880859375,-0.0510161132812501,0.97037961485123,-0.16064453125,-1.052734375,0.09423828125,45.7535294117647,313.8709313477211
-0.34226611328125,-0.90319287109375,-0.0485747070312501,0.9670899424864248,-0.14794921875,-0.748046875,0.05859375,44.95352941176471,313.8709313477211
-0.33298876953125,-0.90368115234375,-0.0451567382812501,0.9641370632578468,-0.15087890625,-0.3896484375,-0.0078125,45.565294117647056,313.8709313477211
-0.32419970703125,-0.90661083984375,-0.0510161132812501,0.9641842711720948,-0.12451171875,-0.03857421875,-0.03173828125,45.70647058823529,313.8709313477211
-0.31541064453125,-0.90954052734375,-0.0598051757812501,0.964533309230216,-0.10009765625,0.18798828125,-0.03857421875,45.518235294117645,313.8739382154611
-0.30320361328125,-0.90905224609375,-0.0690825195312501,0.9607709465526544,-0.07861328125,0.2939453125,-0.04541015625,45.565294117647056,313.8739382154611
-0.29490283203125,-0.91149365234375,-0.0725004882812501,0.96075214254459,-0.0732421875,0.26318359375,-0.0078125,45.61235294117647,313.8739382154611
-0.29539111328125,-0.91442333984375,-0.0739653320312501,0.9637929365787176,-0.08349609375,0.17236328125,0.044921875,45.70647058823529,313.8739382154611
-0.29490283203125,-0.91930615234375,-0.0856840820312501,0.9692436453186886,-0.0771484375,0.06591796875,0.10302734375,45.7535294117647,313.75098790711303
-0.29099658203125,-0.91979443359375,-0.0812895507812501,0.968147097237881,-0.0732421875,-0.00830078125,0.1279296875,45.61235294117647,313.75098790711303
-0.29685595703125,-0.91881787109375,-0.0847075195312501,0.9692910312859226,-0.03759765625,-0.03076171875,0.14990234375,46.03588235294118,313.75098790711303
-0.30271533203125,-0.91979443359375,-0.0905668945312501,0.9725537181574456,-0.02197265625,-0.125,0.130859375,45.00058823529412,313.75098790711303
-0.30906298828125,-0.91735302734375,-0.0886137695312501,0.9720642507841838,-0.017578125,-0.2080078125,0.11083984375,45.14176470588235,313.75098790711303
-0.31345751953125,-0.91539990234375,-0.0871489257812501,0.9714975723214428,-0.01904296875,-0.26318359375,0.1171875,45.565294117647056,313.7079189732265
-0.31296923828125,-0.91930615234375,-0.0812895507812501,0.9745160526710852,-0.00830078125,-0.2099609375,0.17626953125,46.27117647058824,313.7079189732265
-0.30710986328125,-0.91198193359375,-0.0749418945312501,0.9652169719197627,0.01806640625,-0.091796875,0.18798828125,46.17705882352941,313.7079189732265
-0.30271533203125,-0.91393505859375,-0.0754301757812501,0.9657140234002722,0.03076171875,0.0341796875,0.1630859375,45.61235294117647,313.7079189732265
-0.30271533203125,-0.91051708984375,-0.0759184570312501,0.9625183402212796,0.0419921875,0.02197265625,0.1103515625,44.81235294117647,313.5757060691128
-0.31003955078125,-0.91198193359375,-0.0817778320312501,0.9667073931970136,0.03466796875,-0.029296875,0.07470703125,45.61235294117647,313.5757060691128
-0.31345751953125,-0.91100537109375,-0.0851958007812501,0.967183915903849,0.041015625,-0.15283203125,0.05615234375,45.61235294117647,313.5757060691128
-0.31931689453125,-0.91247021484375,-0.0832426757812501,0.9703064027312728,0.0546875,-0.2216796875,0.0439453125,45.84764705882353,313.5757060691128
-0.20164111328125,-0.91539990234375,-0.0793364257812501,0.9406967567882824,0.08349609375,-0.28662109375,0.0693359375,45.565294117647056,313.5757060691128
-0.32566455078125,-0.91344677734375,-0.0773833007812501,0.9728466425470343,0.0986328125,-0.27685546875,0.10009765625,46.27117647058824,313.60800762303194
-0.32615283203125,-0.91784130859375,-0.0739653320312501,0.9768721553742769,0.12109375,-0.24267578125,0.11474609375,46.27117647058824,313.60800762303194
-0.32322314453125,-0.91344677734375,-0.0641997070312501,0.9710714796467096,0.13916015625,-0.16455078125,0.14013671875,45.61235294117647,313.60800762303194
-0.32224658203125,-0.91149365234375,-0.0627348632812501,0.9688132952043388,0.15087890625,-0.0546875,0.11669921875,45.7535294117647,313.60800762303194
-0.32371142578125,-0.91539990234375,-0.0661528320312501,0.97320206821504,0.1630859375,0.03759765625,0.0595703125,46.27117647058824,313.5203670937362
-0.31834033203125,-0.91247021484375,-0.0681059570312501,0.9688038404950242,0.1572265625,0.15625,0.05322265625,46.27117647058824,313.5203670937362
-0.30759814453125,-0.91979443359375,-0.0685942382812501,0.9722878113575734,0.15380859375,0.24169921875,0.0341796875,46.13,313.5203670937362
-0.30710986328125,-0.92125927734375,-0.0759184570312501,0.9740630042941588,0.158203125,0.30126953125,0.02978515625,45.61235294117647,313.5203670937362
-0.30857470703125,-0.92809521484375,-0.0720122070312501,0.9806960974719946,0.15966796875,0.2724609375,0.01171875,46.17705882352941,313.5203670937362
-0.30857470703125,-0.92370068359375,-0.0803129882812501,0.977185488419495,0.13134765625,0.13916015625,0.04052734375,45.70647058823529,313.55417176768646
-0.31003955078125,-0.92565380859375,-0.0803129882812501,0.979494600546332,0.119140625,0.01220703125,0.0546875,46.17705882352941,313.55417176768646
-0.30662158203125,-0.92809521484375,-0.0861723632812501,0.9812253556531694,0.10009765625,-0.095703125,0.07177734375,45.7535294117647,313.55417176768646
-0.30759814453125,-0.93346630859375,-0.0759184570312501,0.9857685224821878,0.07763671875,-0.1328125,0.07568359375,45.7535294117647,313.55417176768646
-0.31052783203125,-0.94469677734375,-0.0695708007812501,0.996854870034269,0.076171875,-0.1162109375,0.06396484375,45.61235294117647,313.8754423303889
-0.30857470703125,-0.95983349609375,-0.0744536132812501,1.0109609441385985,0.0751953125,-0.1005859375,0.06298828125,46.17705882352941,313.8754423303889
-0.31736376953125,-0.96520458984375,-0.0749418945312501,1.0188012318516595,0.05712890625,-0.033203125,0.08837890625,44.85941176470588,313.8754423303889
-0.31882861328125,-0.97545849609375,-0.0881254882812501,1.030017992043408,0.0732421875,0.01904296875,0.19287109375,45.7535294117647,313.8754423303889
-0.32566455078125,-0.97936474609375,-0.0925200195312501,1.0362300225050862,0.1083984375,0.017578125,0.26513671875,45.7535294117647,313.8754423303889
-0.34519580078125,-0.99303662109375,-0.0939848632812501,1.0555164736925216,0.14306640625,0.08203125,0.34326171875,45.70647058823529,313.5218704173313
-0.34666064453125,-1.01354443359375,-0.1003325195312501,1.0758775654372508,0.1767578125,0.3271484375,0.47705078125,44.81235294117647,313.5218704173313
-0.31980517578125,-1.01354443359375,-0.0934965820312501,1.0669064064747564,0.23583984375,0.662109375,0.5380859375,45.89470588235295,313.5218704173313
-0.27488330078125,-0.99840771484375,-0.0988676757812501,1.0402661252882843,0.3837890625,0.78515625,0.525390625,44.95352941176471,313.5218704173313
-0.24460986328125,-0.96862255859375,-0.0974028320312501,1.0037683786207263,0.4873046875,0.43017578125,0.5087890625,45.61235294117647,313.7432280626052
-0.26121142578125,-0.93883740234375,-0.0920317382812501,0.9788344690749824,0.54833984375,-0.2392578125,0.697265625,45.00058823529412,313.7432280626052
-0.28562548828125,-0.90563427734375,-0.0749418945312501,0.9525605762426722,0.55615234375,-0.8896484375,0.99169921875,46.13,313.7432280626052
-0.29539111328125,-0.98864208984375,-0.0495512695312501,1.033017144063114,0.56005859375,-1.22509765625,1.11376953125,45.61235294117647,313.7432280626052
-0.30222705078125,-0.82653271484375,-0.0275786132812501,0.880487421171608,0.56591796875,-1.20556640625,0.96630859375,46.17705882352941,313.7432280626052
-0.30173876953125,-0.78258740234375,-0.0060942382812501,0.8387648461193399,0.51904296875,-0.966796875,0.6298828125,45.70647058823529,313.6555870720709
-0.31052783203125,-0.73473583984375,-0.0090239257812501,0.7977128054967116,0.34033203125,-0.5869140625,0.26416015625,45.61235294117647,313.6555870720709
-0.33347705078125,-0.69127880859375,-0.0119536132812501,0.7676042101754215,0.03759765625,-0.259765625,-0.08349609375,46.17705882352941,313.6555870720709
-0.35740283203125,-0.65563427734375,-0.0212309570312501,0.7470233219307694,-0.31982421875,-0.0205078125,-0.35009765625,45.565294117647056,313.6555870720709
-0.37888720703125,-0.66588818359375,-0.0290434570312501,0.7666851446963422,-0.66064453125,0.048828125,-0.599609375,44.85941176470588,313.64482000078465
-0.40818408203125,-0.69616162109375,-0.0344145507812501,0.8077373389989145,-1.01416015625,0.02978515625,-0.791015625,46.17705882352941,313.64482000078465
-0.42185595703125,-0.74596630859375,-0.0285551757812501,0.8574634570077234,-1.33837890625,0.08203125,-0.87158203125,45.70647058823529,313.64482000078465
-0.40330126953125,-0.81725537109375,-0.0060942382812501,0.9113700649721438,-1.4951171875,0.49462890625,-0.9775390625,44.85941176470588,313.64482000078465
-0.37107470703125,-0.88073193359375,0.0041596679687498,0.9557209215496562,-1.466796875,1.1220703125,-1.02734375,46.17705882352941,313.64482000078465
-0.33445361328125,-0.93639599609375,0.0056245117187498,0.994348186536972,-1.2890625,1.8173828125,-0.95556640625,44.85941176470588,313.58797665539805
-0.29294970703125,-0.98717724609375,-0.0016997070312501,1.0297287677145508,-1.0283203125,2.41552734375,-0.8017578125,45.7535294117647,313.58797665539805
-0.25144580078125,-1.02282177734375,-0.0280668945312501,1.053649433876268,-0.76318359375,2.681640625,-0.61279296875,45.61235294117647,313.58797665539805
-0.22996142578125,-1.05260693359375,-0.0583403320312501,1.079012144666824,-0.52001953125,2.6005859375,-0.4150390625,45.61235294117647,313.58797665539805
-0.22947314453125,-1.07653271484375,-0.0969145507812501,1.1049764885928777,-0.2880859375,2.1943359375,-0.16650390625,45.89470588235295,313.8123444963351
-0.24412158203125,-1.10143505859375,-0.1276762695312501,1.1353659167485497,-0.10400390625,1.5869140625,0.15478515625,45.70647058823529,313.8123444963351
-0.27048876953125,-1.11120068359375,-0.0261137695312501,1.14394626736612,0.07958984375,0.9052734375,0.51171875,45.42411764705882,313.8123444963351
-0.29294970703125,-1.11461865234375,-0.1725981445312501,1.1653258730921248,0.22900390625,0.33837890625,0.79248046875,45.7535294117647,313.8123444963351
-0.31052783203125,-1.09313427734375,-0.1891997070312501,1.1520271749878914,0.36328125,-0.033203125,0.939453125,45.61235294117647,313.8123444963351
-0.31199267578125,-1.05553662109375,-0.1823637695312501,1.1156852300935072,0.48779296875,-0.1923828125,0.978515625,45.70647058823529,313.76777132608686
-0.32224658203125,-1.01891552734375,-0.1808989257812501,1.0838616760647208,0.572265625,-0.259765625,0.90185546875,45.61235294117647,313.76777132608686
-0.32273486328125,-0.99254833984375,-0.1808989257812501,1.0592612615651351,0.6796875,-0.14453125,0.73193359375,45.61235294117647,313.76777132608686
-0.33543017578125,-0.97838818359375,-0.1667387695312501,1.0476443374949884,0.693359375,0.078125,0.52392578125,46.17705882352941,313.76777132608686
-0.32761767578125,-0.96959912109375,-0.1584379882812501,1.0356439509989377,0.72607421875,0.29541015625,0.3193359375,45.61235294117647,313.7247033043521
-0.30906298828125,-0.95592724609375,-0.1403715820312501,1.0144067288773635,0.7626953125,0.466796875,0.13427734375,44.95352941176471,313.7247033043521
-0.29685595703125,-0.94664990234375,-0.1301176757812501,1.000599873267574,0.79541015625,0.46142578125,-0.02783203125,45.61235294117647,313.7247033043521
-0.29685595703125,-0.93541943359375,-0.1135161132812501,0.9879366801289812,0.83740234375,0.37255859375,0.09765625,44.81235294117647,313.7247033043521
-0.30613330078125,-0.92028271484375,-0.0900786132812501,0.9740390288166482,0.849609375,-0.08544921875,0.3486328125,45.565294117647056,313.7247033043521
-0.30759814453125,-0.91393505859375,-0.0754301757812501,0.9672557165838924,0.81787109375,-0.39892578125,0.5849609375,45.61235294117647,314.0474865568896
-0.31199267578125,-0.89098583984375,-0.0539458007812501,0.9455714388480372,0.7412109375,-0.576171875,0.6630859375,45.61235294117647,314.0474865568896
-0.31248095703125,-0.88170849609375,-0.0417387695312501,0.936374041434859,0.60986328125,-0.58203125,0.6123046875,46.13,314.0474865568896
-0.31492236328125,-0.86608349609375,-0.0270903320312501,0.921960196098608,0.44189453125,-0.4462890625,0.47900390625,45.7535294117647,314.0474865568896
-0.31443408203125,-0.85534130859375,-0.0222075195312501,0.9115759540781198,0.29248046875,-0.203125,0.38134765625,45.7535294117647,313.62178175685136
-0.30906298828125,-0.84557568359375,-0.0153715820312501,0.9004190429708365,0.24951171875,0.04736328125,0.32275390625,45.518235294117645,313.62178175685136
-0.30076220703125,-0.82750927734375,-0.0124418945312501,0.880559089447046,-0.02001953125,0.19775390625,0.32470703125,45.518235294117645,313.62178175685136
-0.29636767578125,-0.80993115234375,-0.0168364257812501,0.8626156363166289,-0.14501953125,0.23095703125,0.32080078125,45.565294117647056,313.62178175685136
-0.30125048828125,-0.79870068359375,-0.0231840820312501,0.8539391900612402,-0.26025390625,0.2314453125,0.34814453125,45.565294117647056,313.62178175685136
-0.30759814453125,-0.79479443359375,-0.0368559570312501,0.8530376145044057,-0.359375,0.193359375,0.36279296875,45.70647058823529,313.7109267449574
-0.32175830078125,-0.79479443359375,-0.0417387695312501,0.8584688233565795,-0.4013671875,0.1650390625,0.3623046875,45.14176470588235,313.7109267449574
-0.33445361328125,-0.79967724609375,-0.0490629882812501,0.8681878219464115,-0.46240234375,0.19970703125,0.35791015625,45.70647058823529,313.7109267449574
-0.34714892578125,-0.81237255859375,-0.0568754882812501,0.8852662716914399,-0.46923828125,0.2607421875,0.3671875,45.00058823529412,313.7109267449574
-0.35984423828125,-0.82164990234375,-0.0612700195312501,0.8990831180369625,-0.43505859375,0.30126953125,0.431640625,46.27117647058824,313.678625549452
-0.37351611328125,-0.84411083984375,-0.0749418945312501,0.9260959369192728,-0.38134765625,0.291015625,0.53515625,45.7535294117647,313.678625549452
-0.38718798828125,-0.86510693359375,-0.0891020507812501,0.9519788444470216,-0.31396484375,0.22509765625,0.685546875,45.565294117647056,313.678625549452
-0.39207080078125,-0.88366162109375,-0.0900786132812501,0.9709230298998772,-0.259765625,0.048828125,0.84912109375,45.7535294117647,313.678625549452
-0.40037158203125,-0.90123974609375,-0.0954497070312501,0.9907780428580784,-0.162109375,-0.1533203125,1.04443359375,45.70647058823529,313.678625549452
-0.41550830078125,-0.91539990234375,-0.0876372070312501,1.0091007924312154,-0.0390625,-0.31787109375,1.18701171875,45.518235294117645,313.5371500342938
-0.42918017578125,-0.91979443359375,-0.0812895507812501,1.0182462444909333,0.06298828125,-0.384765625,1.2578125,45.565294117647056,313.5371500342938
-0.44529345703125,-0.91881787109375,-0.0646879882812501,1.0230821467233058,0.14794921875,-0.1669921875,1.326171875,45.61235294117647,313.5371500342938
-0.44919970703125,-0.92125927734375,-0.0529692382812501,1.0263063738927989,0.279296875,0.28076171875,1.2998046875,45.61235294117647,313.5371500342938
-0.41209033203125,-0.93444287109375,-0.0339262695312501,1.0218380071497946,0.33837890625,0.99658203125,1.1396484375,45.565294117647056,313.9568321497456
-0.36521533203125,-0.95055615234375,-0.0246489257812501,1.0186004157918944,0.41650390625,1.7890625,0.8251953125,45.7535294117647,313.9568321497456
-0.34666064453125,-0.97448193359375,-0.0515043945312501,1.0355874391008546,0.41650390625,2.2490234375,0.62255859375,45.37705882352941,313.9568321497456
-0.34910205078125,-0.99059521484375,-0.0939848632812501,1.0545066505513396,0.3623046875,2.15966796875,0.33984375,45.61235294117647,313.9568321497456
-0.35447314453125,-1.00036083984375,-0.1325590820312501,1.0695536126420842,0.26025390625,1.5859375,0.45458984375,45.565294117647056,313.9568321497456
-0.35496142578125,-1.00524365234375,-0.1345122070312501,1.0745259178868036,0.16162109375,0.7578125,0.6015625,45.00058823529412,313.8676848816758
-0.34959033203125,-0.99254833984375,-0.1354887695312501,1.0610008547807095,0.04736328125,0.017578125,0.69287109375,44.95352941176471,313.8676848816758
-0.35007861328125,-0.97789990234375,-0.1174223632812501,1.0452900391180395,-0.06640625,-0.45166015625,0.681640625,45.84764705882353,313.8676848816758
-0.36179736328125,-0.95397412109375,-0.0930083007812501,1.0245069544947332,-0.14013671875,-0.640625,0.5791015625,45.7535294117647,313.8676848816758
-0.37888720703125,-0.93346630859375,-0.0725004882812501,1.010035239846909,-0.16943359375,-0.5322265625,0.4345703125,45.7535294117647,313.89998604447885
-0.40623095703125,-0.91686474609375,-0.0764067382812501,1.005734827245662,-0.18603515625,-0.31494140625,0.251953125,45.61235294117647,313.89998604447885
-0.41550830078125,-0.89342724609375,-0.0651762695312501,0.9874752342164304,-0.19287109375,-0.10693359375,0.06005859375,45.89470588235295,313.89998604447885
-0.42869189453125,-0.88170849609375,-0.0676176757812501,0.9827302593279365,-0.21435546875,0.04736328125,-0.0478515625,45.70647058823529,313.89998604447885
-0.42869189453125,-0.86168896484375,-0.0676176757812501,0.964809184579181,-0.2333984375,0.1142578125,-0.1103515625,45.61235294117647,313.89998604447885
-0.41843798828125,-0.84752880859375,-0.0710356445312501,0.9478615374764244,-0.21533203125,0.19970703125,-0.130859375,45.61235294117647,313.79081047056764
-0.41062548828125,-0.83434521484375,-0.0788481445312501,0.933253587753564,-0.20654296875,0.36767578125,-0.18212890625,45.70647058823529,313.79081047056764
-0.40037158203125,-0.82360302734375,-0.0720122070312501,0.918588650218098,-0.21533203125,0.53466796875,-0.26953125,45.09470588235294,313.79081047056764
-0.39060595703125,-0.81627880859375,-0.0808012695312501,0.908522400486302,-0.17724609375,0.70361328125,-0.34765625,45.89470588235295,313.79081047056764
-0.38084033203125,-0.81774365234375,-0.0944731445312501,0.9070111435301064,-0.16845703125,0.76513671875,-0.36376953125,44.85941176470588,313.88146333051816
-0.37986376953125,-0.82946240234375,-0.1110747070312501,0.9190440418426278,-0.12158203125,0.78662109375,-0.3203125,45.7535294117647,313.88146333051816
-0.36912158203125,-0.83825146484375,-0.1188872070312501,0.9236072913471596,-0.24951171875,0.671875,-0.24169921875,45.84764705882353,313.88146333051816
-0.35935595703125,-0.83727490234375,-0.1281645507812501,0.9201044060461516,-0.08935546875,0.46044921875,-0.154296875,45.70647058823529,313.88146333051816
-0.35300830078125,-0.84362255859375,-0.1379301757812501,0.9248451844388752,-0.08349609375,0.20263671875,-0.04931640625,44.95352941176471,313.88146333051816
-0.35837939453125,-0.84020458984375,-0.1467192382812501,0.9251519216328308,-0.0849609375,-0.11376953125,0.0185546875,45.09470588235294,313.434230273352
-0.36912158203125,-0.83776318359375,-0.1403715820312501,0.9261760497596254,-0.10009765625,-0.427734375,0.0302734375,45.7535294117647,313.434230273352
-0.37888720703125,-0.83727490234375,-0.1320708007812501,0.9284543468397776,-0.095703125,-0.6123046875,0.0302734375,46.08294117647059,313.434230273352
-0.38962939453125,-0.84264599609375,-0.1227934570312501,0.9364515859911297,-0.107421875,-0.666015625,0.017578125,46.03588235294118,313.434230273352
-0.38181689453125,-0.84655224609375,-0.1047270507812501,0.9345601112187484,-0.06884765625,-0.4697265625,0.01904296875,45.70647058823529,313.726208718942
-0.37595751953125,-0.85973583984375,-0.1003325195312501,0.9436929507416156,-0.06005859375,-0.1552734375,0.05419921875,45.61235294117647,313.726208718942
-0.36375048828125,-0.87389599609375,-0.0876372070312501,0.9506255360391777,0.0029296875,0.18115234375,0.0830078125,45.7535294117647,313.726208718942
-0.35252001953125,-0.88219677734375,-0.0895903320312501,0.9542368394269216,0.05810546875,0.37255859375,0.09228515625,46.27117647058824,313.726208718942
-0.34910205078125,-0.89196240234375,-0.0974028320312501,0.9627857917222378,0.080078125,0.3115234375,0.08837890625,46.27117647058824,313.726208718942
-0.35252001953125,-0.90026318359375,-0.1183989257812501,0.9740443878647528,0.0791015625,0.06005859375,0.14013671875,45.70647058823529,313.9906390569621
-0.36082080078125,-0.90807568359375,-0.1164458007812501,0.9840491460949832,0.0947265625,-0.294921875,0.15576171875,45.61235294117647,313.9906390569621
-0.36668017578125,-0.91588818359375,-0.1042387695312501,0.9920540495512412,0.0771484375,-0.58544921875,0.158203125,45.7535294117647,313.9906390569621
-0.37302783203125,-0.91344677734375,-0.0944731445312501,0.9911911791108916,0.076171875,-0.73974609375,0.1474609375,45.7535294117647,313.9906390569621
-0.37449267578125,-0.91588818359375,-0.0871489257812501,0.9933231419459052,0.1005859375,-0.70947265625,0.1181640625,45.7535294117647,313.8000724848856
-0.37644580078125,-0.91686474609375,-0.0793364257812501,0.9943071316304318,0.06591796875,-0.48876953125,0.078125,45.70647058823529,313.8000724848856
-0.37498095703125,-0.91735302734375,-0.0710356445312501,0.9935760452561168,0.06396484375,-0.2275390625,0.025390625,45.89470588235295,313.8000724848856
-0.36863330078125,-0.91686474609375,-0.0798247070312501,0.9914148762889636,0.0615234375,-0.048828125,0.1220703125,45.70647058823529,313.8000724848856
-0.36326220703125,-0.91198193359375,-0.0891020507812501,0.9857026193087012,0.0380859375,-0.041015625,-0.05517578125,45.61235294117647,313.8000724848856
-0.35984423828125,-0.90856396484375,-0.1013090820312501,0.9824662254443268,-0.0009765625,-0.1767578125,-0.0556640625,45.61235294117647,313.86143601024673
-0.35935595703125,-0.90465771484375,-0.0974028320312501,0.9782788950845608,-0.0400390625,-0.26025390625,-0.02099609375,45.70647058823529,313.86143601024673
-0.36082080078125,-0.90026318359375,-0.0934965820312501,0.974375215644519,-0.0830078125,-0.57861328125,-0.0283203125,45.89470588235295,313.86143601024673
-0.36326220703125,-0.90221630859375,-0.0900786132812501,0.9767639710392786,-0.1201171875,-0.7333984375,-0.068359375,45.00058823529412,313.86143601024673
-0.37253955078125,-0.89489208984375,-0.0783598632812501,0.9725008162128534,-0.14404296875,-0.81494140625,-0.0966796875,45.565294117647056,313.580217858038
-0.38474658203125,-0.88366162109375,-0.0710356445312501,0.9664025329916792,-0.1640625,-0.85498046875,-0.08544921875,45.7535294117647,313.580217858038
-0.39011767578125,-0.87877880859375,-0.0768950195312501,0.9645500709756476,-0.169921875,-0.8974609375,-0.05615234375,44.85941176470588,313.580217858038
-0.39402392578125,-0.87633740234375,-0.0744536132812501,0.9637247726219834,-0.181640625,-0.83740234375,0.12353515625,45.565294117647056,313.580217858038
-0.39939501953125,-0.87389599609375,-0.0759184570312501,0.96383307980846,-0.14990234375,-0.71484375,0.12353515625,44.95352941176471,313.580217858038
-0.38865283203125,-0.88219677734375,-0.0822661132812501,0.9675173854748104,-0.00390625,-0.5498046875,-0.0244140625,45.7535294117647,313.8599295043105
-0.38425830078125,-0.88414990234375,-0.0803129882812501,0.9673808286401072,-0.138671875,-0.4443359375,-0.029296875,46.27117647058824,313.8599295043105
-0.38279345703125,-0.88707958984375,-0.0920317382812501,0.970520927293358,-0.10400390625,-0.41650390625,-0.12451171875,45.84764705882353,313.8599295043105
-0.38084033203125,-0.88561474609375,-0.0939848632812501,0.968600016274192,-0.10986328125,-0.533203125,0.0107421875,45.7535294117647,313.8599295043105
-0.38523486328125,-0.88707958984375,-0.1017973632812501,0.972460180046306,-0.10205078125,-0.68115234375,-0.01611328125,46.17705882352941,313.96910508013525
-0.38523486328125,-0.88414990234375,-0.1066801757812501,0.9703131502801065,-0.1162109375,-0.8271484375,-0.072265625,45.7535294117647,313.96910508013525
-0.40037158203125,-0.88707958984375,-0.0930083007812501,0.9776799816042964,-0.15087890625,-0.86181640625,-0.04833984375,45.7535294117647,313.96910508013525
-0.38621142578125,-0.89196240234375,-0.0832426757812501,0.9755437128443,-0.17236328125,-0.7412109375,-0.09375,45.7535294117647,313.96910508013525
-0.36814501953125,-0.90514599609375,-0.0676176757812501,0.9794856710173302,-0.1455078125,-0.42626953125,-0.15380859375,44.81235294117647,313.96910508013525
-0.35691455078125,-0.90368115234375,-0.0759184570312501,0.9745723337847814,-0.0927734375,-0.1142578125,-0.2294921875,45.89470588235295,313.5709557798547
-0.35349658203125,-0.90856396484375,-0.0832426757812501,0.978456772060776,-0.09716796875,-0.0029296875,-0.3232421875,44.85941176470588,313.5709557798547
-0.35544970703125,-0.90416943359375,-0.1086333007812501,0.9775827601346464,-0.1103515625,-0.1650390625,-0.26513671875,45.7535294117647,313.5709557798547
-0.36326220703125,-0.90221630859375,-0.1149809570312501,0.9793744529185808,-0.091796875,-0.4462890625,-0.1181640625,45.61235294117647,313.5709557798547
-0.36521533203125,-0.91051708984375,-0.1115629882812501,0.9873550070782392,-0.11328125,-0.64111328125,0.07275390625,45.61235294117647,314.0121730880718
-0.35349658203125,-0.91198193359375,-0.1052153320312501,0.9837383528172609,-0.13232421875,-0.7216796875,0.1396484375,44.95352941176471,314.0121730880718
-0.35789111328125,-0.90661083984375,-0.1057036132812501,0.9804093623321812,-0.13330078125,-0.78515625,0.083984375,45.7535294117647,314.0121730880718
-0.36326220703125,-0.90172802734375,-0.1047270507812501,0.9777732976103428,-0.0009765625,-0.916015625,-0.04296875,46.17705882352941,314.0121730880718
-0.37937548828125,-0.90416943359375,-0.1071684570312501,0.986373764825656,-0.11474609375,-1.03564453125,-0.19189453125,45.7535294117647,314.0121730880718
-0.39793017578125,-0.91393505859375,-0.0905668945312501,1.0009136219020562,-0.07177734375,-1.0673828125,-0.2314453125,45.70647058823529,313.65709148696806
-0.40720751953125,-0.92516552734375,-0.0808012695312501,1.0140404637419034,-0.01904296875,-1.0146484375,-0.12646484375,46.27117647058824,313.65709148696806
-0.40281298828125,-0.92516552734375,-0.0744536132812501,1.0117968655041107,0.078125,-0.8603515625,0.01416015625,46.17705882352941,313.65709148696806
-0.39158251953125,-0.92467724609375,-0.0705473632812501,1.0066488014754202,0.1728515625,-0.693359375,0.08544921875,45.7535294117647,313.65709148696806
-0.36960986328125,-0.92370068359375,-0.0788481445312501,0.99802376414711,0.26416015625,-0.59912109375,0.01904296875,45.518235294117645,313.6478294054152
-0.35691455078125,-0.91539990234375,-0.0690825195312501,0.9849453651219006,0.330078125,-0.630859375,-0.033203125,45.89470588235295,313.6478294054152
-0.35398486328125,-0.90075146484375,-0.0583403320312501,0.9695679858534538,0.40380859375,-0.81787109375,0.0673828125,45.61235294117647,313.6478294054152
-0.35642626953125,-0.87487255859375,-0.0471098632812501,0.9458652222228682,0.40576171875,-0.97119140625,0.25146484375,45.61235294117647,313.6478294054152
-0.36423876953125,-0.84948193359375,-0.0412504882812501,0.9251978380407386,0.35595703125,-1.09228515625,0.46533203125,44.85941176470588,313.6478294054152
-0.38328173828125,-0.82506787109375,-0.0212309570312501,0.9099959540281112,0.287109375,-1.12109375,0.5615234375,45.84764705882353,313.4818106326685
-0.40769580078125,-0.82067333984375,-0.0114653320312501,0.9164344223912296,0.19921875,-0.66650390625,0.56640625,45.61235294117647,313.4818106326685
-0.42185595703125,-0.83483349609375,-0.0075590820312501,0.9353964690996116,0.13134765625,-0.0947265625,0.4326171875,46.27117647058824,313.4818106326685
-0.42283251953125,-0.86559521484375,-0.0129301757812501,0.9634363523239492,0.06005859375,0.70361328125,0.19140625,45.61235294117647,313.4818106326685
-0.40281298828125,-0.88952099609375,-0.0202543945312501,0.9766863091686682,-0.00439453125,1.54345703125,-0.0625,45.7535294117647,313.94455956617526
-0.37253955078125,-0.91198193359375,-0.0505278320312501,0.986432879575427,-0.03466796875,2.23095703125,-0.2626953125,45.7535294117647,313.94455956617526
-0.33884814453125,-0.91881787109375,-0.0851958007812501,0.9830069530599874,-0.02490234375,2.48193359375,-0.31396484375,46.13,313.94455956617526
-0.31199267578125,-0.92223583984375,-0.1218168945312501,0.9811716107932846,-0.00048828125,2.21826171875,-0.169921875,46.13,313.94455956617526
-0.29050830078125,-0.92711865234375,-0.1442778320312501,0.9822220528791532,0.0078125,1.61962890625,0.00927734375,45.70647058823529,313.94455956617526
-0.28464892578125,-0.91588818359375,-0.1599028320312501,0.9723400081693094,0.06396484375,0.56005859375,0.435546875,45.7535294117647,313.63706246850023
-0.29636767578125,-0.90221630859375,-0.1559965820312501,0.962373628247338,0.099609375,-0.46337890625,0.734375,45.7535294117647,313.63706246850023
-0.32371142578125,-0.89245068359375,-0.1389067382812501,0.9594542155664424,0.05712890625,-1.330078125,0.923828125,45.61235294117647,313.63706246850023
-0.36521533203125,-0.87438427734375,-0.1135161132812501,0.954366811656362,-0.00732421875,-1.89599609375,1.02490234375,45.565294117647056,313.63706246850023
-0.40525439453125,-0.85924755859375,-0.0842192382812501,0.9537454436760806,-0.06787109375,-2.0556640625,1.0283203125,45.7535294117647,313.73848145185264
-0.43650439453125,-0.84704052734375,-0.0602934570312501,0.954803143254488,-0.15380859375,-1.86865234375,0.92333984375,46.27117647058824,313.73848145185264
-0.45359423828125,-0.83922802734375,-0.0388090820312501,0.9547552355076864,-0.2421875,-1.42529296875,0.7626953125,45.565294117647056,313.73848145185264
-0.45847705078125,-0.83776318359375,-0.0212309570312501,0.9552481936202084,-0.27099609375,-0.818359375,0.572265625,45.84764705882353,313.73848145185264
-0.45798876953125,-0.83629833984375,-0.0231840820312501,0.953774673548104,-0.31640625,-0.162109375,0.38623046875,45.61235294117647,313.73848145185264
-0.44773486328125,-0.84606396484375,-0.0363676757812501,0.9579213685090944,-0.2958984375,0.37255859375,0.23583984375,45.518235294117645,313.6062673641489
-0.43113330078125,-0.85338818359375,-0.0529692382812501,0.9575766575810376,-0.2451171875,0.689453125,0.13720703125,45.09470588235294,313.6062673641489
-0.41648486328125,-0.86315380859375,-0.0676176757812501,0.9607633885147558,-0.201171875,0.7509765625,0.10107421875,44.95352941176471,313.6062673641489
-0.40232470703125,-0.87243115234375,-0.0925200195312501,0.965174201624602,-0.16259765625,0.591796875,0.09912109375,45.7535294117647,313.6062673641489
-0.39744189453125,-0.88756787109375,-0.1032622070312501,0.9779569871561048,-0.12646484375,0.34765625,0.1318359375,45.7535294117647,313.9275438869144
-0.39158251953125,-0.89293896484375,-0.1022856445312501,0.9803770792995128,-0.083984375,0.1376953125,0.17138671875,45.565294117647056,313.9275438869144
-0.38621142578125,-0.89831005859375,-0.0983793945312501,0.9827505950357028,-0.01318359375,0.0634765625,0.16650390625,46.17705882352941,313.9275438869144
-0.37839892578125,-0.90075146484375,-0.1008208007812501,0.9821933528184448,0.0556640625,0.06494140625,0.15869140625,45.565294117647056,313.9275438869144
-0.38425830078125,-0.90465771484375,-0.0998442382812501,0.9879417465941868,0.1103515625,0.0732421875,0.16162109375,45.84764705882353,313.9275438869144
-0.38279345703125,-0.90612255859375,-0.0983793945312501,0.988568372550303,0.09423828125,0.01123046875,0.1416015625,44.95352941176471,313.5817226957502
-0.38669970703125,-0.90709912109375,-0.0900786132812501,0.9901917165265428,0.05029296875,-0.12109375,0.09033203125,45.61235294117647,313.5817226957502
-0.38132861328125,-0.90123974609375,-0.0793364257812501,0.9818038804679232,0.0087890625,-0.22802734375,-0.00732421875,45.7535294117647,313.5817226957502
-0.38328173828125,-0.89489208984375,-0.0681059570312501,0.9758971076645088,-0.01904296875,-0.2900390625,-0.06201171875,45.61235294117647,313.5817226957502
-0.38865283203125,-0.89049755859375,-0.0729887695312501,0.9743532655998164,-0.00634765625,-0.3291015625,-0.0546875,45.42411764705882,313.4940824276806
-0.40134814453125,-0.89000927734375,-0.0891020507812501,0.9803754496773396,0.01953125,-0.25048828125,0.00439453125,45.84764705882353,313.4940824276806
-0.40818408203125,-0.89049755859375,-0.0978911132812501,0.9844708308246446,0.05078125,-0.48291015625,0.119140625,44.85941176470588,313.4940824276806
-0.41111376953125,-0.88707958984375,-0.0978911132812501,0.9826023612199352,-0.0029296875,-0.671875,0.17822265625,45.7535294117647,313.4940824276806
-0.41599658203125,-0.88024365234375,-0.0920317382812501,0.977932454009077,-0.05859375,-0.91259765625,0.2216796875,46.13,313.4940824276806
-0.42283251953125,-0.87047802734375,-0.0681059570312501,0.970132855357736,-0.0673828125,-1.09130859375,0.2001953125,45.70647058823529,313.907517366166
-0.43748095703125,-0.86315380859375,-0.0607817382812501,0.969597083722597,-0.08935546875,-1.18505859375,0.18798828125,45.61235294117647,313.907517366166
-0.45212939453125,-0.85631787109375,-0.0441801757812501,0.9693570929671836,-0.03857421875,-1.09130859375,0.205078125,45.565294117647056,313.907517366166
-0.46189501953125,-0.85192333984375,-0.0427153320312501,0.9700231881913152,0.01171875,-0.8720703125,0.22900390625,45.18882352941176,313.907517366166
-0.46140673828125,-0.84118115234375,-0.0295317382812501,0.9598718835113432,0.09716796875,-0.23779296875,0.26123046875,45.61235294117647,313.793821937052
-0.43992236328125,-0.84362255859375,-0.0285551757812501,0.95186454138555,0.1708984375,0.404296875,0.2333984375,45.70647058823529,313.793821937052
-0.41111376953125,-0.84752880859375,-0.0422270507812501,0.9429224446963904,0.373046875,0.90478515625,0.13525390625,45.84764705882353,313.793821937052
-0.39255908203125,-0.85045849609375,-0.0637114257812501,0.93885112357516,0.29931640625,1.12939453125,0.00537109375,45.00058823529412,313.793821937052
-0.38035205078125,-0.85534130859375,-0.0822661132812501,0.9397042886540292,0.32666015625,0.9599609375,-0.04736328125,45.70647058823529,313.793821937052
-0.37156298828125,-0.86754833984375,-0.0881254882812501,0.947874083362842,0.26416015625,0.74560546875,-0.01123046875,45.61235294117647,313.4602768171206
-0.37351611328125,-0.87536083984375,-0.0783598632812501,0.9549403934205232,0.19287109375,0.259765625,0.140625,45.84764705882353,313.4602768171206
-0.37205126953125,-0.87731396484375,-0.0720122070312501,0.955660869781319,0.12109375,0.05908203125,0.26123046875,45.7535294117647,313.4602768171206
-0.37888720703125,-0.87194287109375,-0.0637114257812501,0.9528373585655808,0.091796875,-0.09521484375,0.2587890625,46.13,313.4602768171206
-0.38816455078125,-0.87536083984375,-0.0651762695312501,0.9597792790663774,0.03955078125,-0.2021484375,0.18310546875,45.61235294117647,313.6939080263353
-0.40232470703125,-0.86950146484375,-0.0690825195312501,0.960557318309529,0.12109375,-0.4326171875,0.12158203125,46.27117647058824,313.6939080263353
-0.41941455078125,-0.86852490234375,-0.0720122070312501,0.9671762142235354,-0.05224609375,-0.7236328125,0.14404296875,45.565294117647056,313.6939080263353
-0.43162158203125,-0.87340771484375,-0.0651762695312501,0.9764149591919158,-0.091796875,-0.93359375,0.16796875,45.61235294117647,313.6939080263353
-0.43992236328125,-0.86901318359375,-0.0583403320312501,0.9757659521197802,-0.09716796875,-1.01611328125,0.19677734375,45.7535294117647,313.6939080263353
-0.44675830078125,-0.87145458984375,-0.0510161132812501,0.9806267002743776,-0.1044921875,-0.89453125,0.14013671875,45.70647058823529,313.6170341999557
-0.44627001953125,-0.86950146484375,-0.0441801757812501,0.9783361465416228,-0.10009765625,-0.6181640625,0.06201171875,46.27117647058824,313.6170341999557
-0.44236376953125,-0.87731396484375,-0.0407622070312501,0.9833753378165512,-0.09423828125,-0.22021484375,-0.0712890625,45.61235294117647,313.6170341999557
-0.43015673828125,-0.87487255859375,-0.0417387695312501,0.9757965659660424,-0.080078125,0.18310546875,-0.2041015625,45.565294117647056,313.6170341999557
-0.41794970703125,-0.88317333984375,-0.0436918945312501,0.9780521905634696,-0.04833984375,0.51318359375,-0.3271484375,45.7535294117647,313.6062673641489
-0.41257861328125,-0.88414990234375,-0.0563872070312501,0.9773032687289688,-0.0634765625,0.6884765625,-0.3720703125,45.61235294117647,313.6062673641489
-0.40085986328125,-0.88805615234375,-0.0661528320312501,0.9765800309709404,-0.05322265625,0.69580078125,-0.3466796875,45.00058823529412,313.6062673641489
-0.39402392578125,-0.88903271484375,-0.0729887695312501,0.9751724886542906,-0.06591796875,0.57373046875,-0.33056640625,45.98882352941177,313.6062673641489
-0.39451220703125,-0.88805615234375,-0.0788481445312501,0.9749362241235446,-0.076171875,0.4130859375,-0.25927734375,45.565294117647056,313.6062673641489
-0.39988330078125,-0.88512646484375,-0.0773833007812501,0.974342695487734,-0.08251953125,0.37255859375,-0.2646484375,45.37705882352941,313.5278882520019
-0.40232470703125,-0.88366162109375,-0.0803129882812501,0.9742552060771754,-0.09912109375,0.1357421875,-0.2412109375,45.89470588235295,313.5278882520019
-0.40671923828125,-0.87975537109375,-0.0720122070312501,0.9718929003331044,-0.12451171875,0.138671875,-0.2236328125,45.70647058823529,313.5278882520019
-0.41013720703125,-0.87975537109375,-0.0749418945312501,0.9735493460095536,-0.1513671875,0.15380859375,-0.18701171875,45.61235294117647,313.5278882520019
-0.41160205078125,-0.87340771484375,-0.0729887695312501,0.96828954607266,-0.158203125,0.2080078125,-0.171875,45.61235294117647,313.72771458757376
-0.41257861328125,-0.87194287109375,-0.0788481445312501,0.9678442604491242,-0.13916015625,0.25927734375,-0.17333984375,45.7535294117647,313.72771458757376
-0.40916064453125,-0.87389599609375,-0.0729887695312501,0.967695202788358,-0.09619140625,0.29296875,-0.17724609375,45.61235294117647,313.72771458757376
-0.40916064453125,-0.87731396484375,-0.0817778320312501,0.9714833193394624,-0.06494140625,0.3232421875,-0.15478515625,45.61235294117647,313.72771458757376
-0.41062548828125,-0.87829052734375,-0.0851958007812501,0.97327584297502,-0.0498046875,0.3349609375,-0.1142578125,44.95352941176471,313.72771458757376
-0.40378955078125,-0.87584912109375,-0.0861723632812501,0.9682888827381496,-0.0380859375,0.314453125,-0.095703125,46.17705882352941,313.8153557212256
-0.40476611328125,-0.87340771484375,-0.0764067382812501,0.9656679721644342,-0.0107421875,0.25146484375,-0.09716796875,46.13,313.8153557212256
-0.40085986328125,-0.86852490234375,-0.0783598632812501,0.9597731003495248,0.0234375,0.2294921875,-0.12939453125,45.61235294117647,313.8153557212256
-0.40769580078125,-0.87047802734375,-0.0798247070312501,0.9645308942255588,0.06103515625,0.23779296875,-0.15185546875,45.61235294117647,313.8153557212256
-0.40330126953125,-0.86803662109375,-0.0783598632812501,0.9603539752293572,0.087890625,0.2587890625,-0.13671875,46.27117647058824,313.8829697156599
-0.40037158203125,-0.86998974609375,-0.0783598632812501,0.9608953273795902,0.09716796875,0.271484375,-0.1171875,46.13,313.8829697156599
-0.39939501953125,-0.87731396484375,-0.0812895507812501,0.967369715053374,0.00341796875,0.25927734375,-0.134765625,46.17705882352941,313.8829697156599
-0.39841845703125,-0.88366162109375,-0.0690825195312501,0.971785738731528,0.111328125,0.37353515625,-0.15869140625,45.7535294117647,313.8829697156599
-0.39548876953125,-0.87536083984375,-0.0783598632812501,0.9637469766130288,0.109375,0.2333984375,-0.166015625,45.00058823529412,313.8829697156599
-0.39451220703125,-0.87926708984375,-0.0856840820312501,0.9675186089644492,0.09814453125,0.2001953125,-0.171875,45.00058823529412,313.8829697156599
-0.40183642578125,-0.87731396484375,-0.0773833007812501,0.9680601640571272,0.0927734375,0.1728515625,-0.1435546875,46.17705882352941,313.8399023591212
-0.41257861328125,-0.87682568359375,-0.0822661132812501,0.9725287167693968,0.095703125,0.201171875,-0.09033203125,46.27117647058824,313.8399023591212
-0.43113330078125,-0.87584912109375,-0.0778715820312501,0.9793117936853818,0.1435546875,0.40869140625,-0.10546875,45.7535294117647,313.8399023591212
-0.43113330078125,-0.87438427734375,-0.0881254882812501,0.9788717429741736,0.23779296875,0.72802734375,-0.2607421875,45.70647058823529,313.8399023591212
-0.43796923828125,-0.87243115234375,-0.1057036132812501,0.9818993956211676,0.36328125,1.04052734375,-0.427734375,46.27117647058824,313.8399023591212
-0.42234423828125,-0.89098583984375,-0.1125395507812501,0.992419051057308,0.4521484375,0.89794921875,-0.34765625,45.7535294117647,313.5957375240419
-0.39255908203125,-0.89977490234375,-0.1301176757812501,0.9902666900000408,0.4521484375,0.37255859375,0.10791015625,46.17705882352941,313.5957375240419
-0.34519580078125,-0.89440380859375,-0.1232817382812501,0.9666005900565448,0.40478515625,-0.61279296875,0.609375,45.7535294117647,313.5957375240419
-0.29587939453125,-0.89147412109375,-0.1096098632812501,0.945666456429849,0.396484375,-1.21826171875,0.79541015625,45.70647058823529,313.5957375240419
-0.28806689453125,-0.89489208984375,-0.1081450195312501,0.9463137605673962,0.37353515625,-1.5185546875,0.58935546875,45.7535294117647,313.2499373970853
-0.31150439453125,-0.89586865234375,-0.1037504882812501,0.954138246735286,0.3544921875,-1.54443359375,0.2734375,45.7535294117647,313.2499373970853
-0.37400439453125,-0.87633740234375,-0.0988676757812501,0.9579255436565332,0.30859375,-1.541015625,0.06787109375,44.85941176470588,313.2499373970853
-0.43699267578125,-0.86413037109375,-0.0998442382812501,0.9734745856215468,0.275390625,-1.595703125,0.1611328125,44.85941176470588,313.2499373970853
-0.47800830078125,-0.84557568359375,-0.0993559570312501,0.9764024674786576,0.22900390625,-1.48193359375,0.41748046875,45.7535294117647,313.2499373970853
-0.45164111328125,-0.82311474609375,-0.0954497070312501,0.943720417822597,0.2265625,-1.2626953125,0.58251953125,45.61235294117647,313.8416365904703
-0.41453173828125,-0.80114208984375,-0.0983793945312501,0.907382893507488,0.29638671875,-0.8232421875,0.3974609375,45.00058823529412,313.8416365904703
-0.37546923828125,-0.80309521484375,-0.0959379882812501,0.8917080074754764,0.4296875,-0.3017578125,-0.05908203125,44.85941176470588,313.8416365904703
-0.36228564453125,-0.80163037109375,-0.1076567382812501,0.8862573629542855,0.61572265625,0.11962890625,-0.50634765625,44.81235294117647,313.8416365904703
-0.36912158203125,-0.81286083984375,-0.1066801757812501,0.8990962947190128,0.8408203125,0.45068359375,-0.736328125,45.70647058823529,313.623285898918
-0.38084033203125,-0.82799755859375,-0.1227934570312501,0.9196181537075966,1.04248046875,0.51904296875,-0.7490234375,45.61235294117647,313.623285898918
-0.39744189453125,-0.83629833984375,-0.1379301757812501,0.936151540160592,1.21337890625,0.29345703125,-0.54638671875,45.84764705882353,313.623285898918
-0.42478564453125,-0.83239208984375,-0.1603911132812501,0.9481797004017084,1.328125,-0.16162109375,-0.4306640625,45.70647058823529,313.623285898918
-0.42136767578125,-0.83581005859375,-0.1535551757812501,0.9485295800601008,1.32177734375,-0.63671875,-0.14892578125,45.565294117647056,313.623285898918
-0.41746142578125,-0.83141552734375,-0.1271879882812501,0.938990205213362,1.31884765625,-1.31396484375,0.11181640625,45.7535294117647,313.580217858038
-0.37546923828125,-0.82409130859375,-0.0983793945312501,0.9109237833450156,1.26708984375,-1.71875,0.31591796875,45.565294117647056,313.580217858038
-0.34714892578125,-0.81969677734375,-0.0851958007812501,0.8942446577584703,1.259765625,-1.97216796875,0.1396484375,45.84764705882353,313.580217858038
-0.36570361328125,-0.81090771484375,-0.0817778320312501,0.8933073763110915,1.1767578125,-2.15380859375,-0.19189453125,45.565294117647056,313.580217858038
-0.38767626953125,-0.82653271484375,-0.0627348632812501,0.9150873628979712,1.0888671875,-2.46484375,-0.4296875,45.7535294117647,313.7615213625785
-0.40623095703125,-0.84997021484375,-0.0353911132812501,0.9427223809114442,1.05810546875,-2.578125,-0.48486328125,45.61235294117647,313.7615213625785
-0.40232470703125,-0.87682568359375,-0.0129301757812501,0.9648086021295428,0.99755859375,-2.54248046875,-0.4072265625,45.70647058823529,313.7615213625785
-0.38914111328125,-0.89049755859375,-0.0134184570312501,0.9719036798450242,0.89404296875,-2.365234375,-0.47607421875,45.61235294117647,313.7615213625785
-0.38865283203125,-0.88073193359375,-0.0002348632812501,0.9626732664089398,0.7724609375,-2.20556640625,-0.650390625,45.89470588235295,313.7615213625785
-0.39304736328125,-0.87731396484375,0.0207612304687498,0.9615596972537797,0.6953125,-2.26220703125,-0.62939453125,45.565294117647056,313.4387430558653
-0.37888720703125,-0.88805615234375,0.0334565429687498,0.9660841503900924,0.6259765625,-2.310546875,-0.7138671875,45.61235294117647,313.4387430558653
-0.38816455078125,-0.88659130859375,0.0432221679687498,0.968805461772954,0.61474609375,-2.3837890625,-0.6650390625,45.70647058823529,313.4387430558653
-0.39597705078125,-0.88122021484375,0.0534760742187498,0.9675776879964372,0.67333984375,-2.40771484375,-0.46044921875,45.70647058823529,313.4387430558653
-0.37546923828125,-0.89147412109375,0.0495698242187498,0.96858681848787,0.74365234375,-2.34912109375,-0.435546875,45.7535294117647,314.02745964803063
-0.36179736328125,-0.90368115234375,0.0524995117187498,0.9748298086893424,0.76708984375,-2.12890625,-0.75732421875,46.03588235294118,314.02745964803063
-0.36326220703125,-0.90368115234375,0.0691010742187498,0.9764087333779476,0.77587890625,-1.6923828125,-1.15869140625,45.7535294117647,314.02745964803063
-0.36619189453125,-0.90856396484375,0.0608002929687498,0.9814691321982912,0.8896484375,-1.21630859375,-1.271484375,45.61235294117647,314.02745964803063
-0.36375048828125,-0.92858349609375,0.0612885742187498,0.9991686625751964,1.01953125,-0.6865234375,-1.201171875,45.7535294117647,314.02745964803063
-0.37205126953125,-0.94176708984375,0.0539643554687498,1.0140313359722857,1.1748046875,-0.392578125,-1.0107421875,45.70647058823529,313.8937365887244
-0.39060595703125,-0.93932568359375,0.0368745117187498,1.0179712585047087,1.23193359375,-0.451171875,-0.68505859375,46.27117647058824,313.8937365887244
-0.39255908203125,-0.93297802734375,0.0471284179687498,1.0132974490107485,1.2265625,-0.70166015625,-0.3193359375,45.42411764705882,313.8937365887244
-0.38914111328125,-0.92663037109375,0.0622651367187498,1.0069516363409496,1.30126953125,-1.06787109375,0.0419921875,45.565294117647056,313.8937365887244
-0.37791064453125,-0.92077099609375,0.0920502929687498,0.999554370173596,1.34521484375,-1.404296875,0.259765625,45.94176470588236,313.7477425818662
-0.38914111328125,-0.90758740234375,0.1164643554687498,0.99433879791226,1.361328125,-1.4697265625,0.31982421875,45.42411764705882,313.7477425818662
-0.39646533203125,-0.88610302734375,0.1511323242187499,0.9824481228004708,1.3828125,-1.376953125,0.353515625,45.61235294117647,313.7477425818662
-0.39548876953125,-0.87829052734375,0.1828706054687499,0.9804321881658168,1.37451171875,-1.1181640625,0.24169921875,45.565294117647056,313.7477425818662
-0.41843798828125,-0.98913037109375,0.2009370117187499,1.0926321081385904,1.3662109375,-0.74462890625,0.134765625,45.94176470588236,313.7477425818662
-0.40720751953125,-0.86998974609375,0.2102143554687499,0.9833057497626072,1.42919921875,0.00048828125,0.13232421875,45.70647058823529,313.7369756436181
-0.39060595703125,-0.86510693359375,0.2131440429687499,0.9728378093358336,1.375,0.44580078125,0.1396484375,45.61235294117647,313.7369756436181
-0.39353564453125,-0.86950146484375,0.2199799804687499,0.9794357011509665,1.322265625,0.50634765625,0.25830078125,45.70647058823529,313.7369756436181
-0.37546923828125,-0.87975537109375,0.2360932617187499,0.9852343325792104,1.27783203125,0.4814453125,0.50927734375,45.565294117647056,313.7369756436181
-0.37009814453125,-0.88756787109375,0.2326752929687499,0.9893872620675178,1.248046875,0.4609375,0.4892578125,45.7535294117647,313.50635456949226
-0.37644580078125,-0.89586865234375,0.2326752929687499,0.9992146291643936,1.13720703125,0.59716796875,0.36669921875,45.09470588235294,313.50635456949226
-0.38669970703125,-0.90954052734375,0.2365815429687499,1.0162536399798408,1.0361328125,0.92578125,-0.02783203125,44.85941176470588,313.50635456949226
-0.39695361328125,-0.91784130859375,0.2229096679687499,1.0245455377542112,0.85986328125,1.35205078125,-0.17041015625,46.13,313.50635456949226
-0.38474658203125,-0.91637646484375,0.2024018554687499,1.014269327546412,0.76416015625,1.89111328125,-0.21875,44.85941176470588,313.50635456949226
-0.36082080078125,-0.91784130859375,0.1848237304687499,1.0033863310718834,0.77783203125,2.365234375,-0.23828125,45.70647058823529,313.8629429702395
-0.34226611328125,-0.90514599609375,0.1721284179687499,0.982885323330054,0.8359375,2.57763671875,-0.28759765625,45.565294117647056,313.8629429702395
-0.36423876953125,-0.89342724609375,0.1457612304687499,0.9757707013433358,0.90283203125,2.53076171875,-0.4990234375,44.81235294117647,313.8629429702395
-0.39548876953125,-0.85778271484375,0.1340424804687499,0.9540282696441816,0.89501953125,2.31201171875,-0.60498046875,46.13,313.8629429702395
-0.39109423828125,-0.80602490234375,0.1374604492187499,0.90638083690823,0.8896484375,2.001953125,-0.62939453125,45.70647058823529,313.92905093854097
-0.37058642578125,-0.74743115234375,0.1428315429687499,0.8463973512092662,0.853515625,1.8154296875,-0.6435546875,45.7535294117647,313.92905093854097
-0.32957080078125,-0.69372021484375,0.1496674804687499,0.7824736442336679,0.85400390625,1.6689453125,-0.80029296875,46.17705882352941,313.92905093854097
-0.30662158203125,-0.66539990234375,0.1599213867187499,0.7498991095717255,0.95947265625,1.5322265625,-1.4248046875,45.7535294117647,313.92905093854097
-0.34128955078125,-0.68786083984375,0.1604096679687499,0.784450351546139,1.0810546875,1.3857421875,-2.2900390625,44.85941176470588,313.92905093854097
-0.41990283203125,-0.75622021484375,0.1540620117187499,0.8785912047937993,1.0009765625,1.4365234375,-2.93994140625,45.94176470588236,313.58473373326564
-0.48484423828125,-0.80163037109375,0.1584565429687499,0.9501545470417097,1.28662109375,1.5263671875,-3.28515625,45.00058823529412,313.58473373326564
-0.51365283203125,-0.82555615234375,0.1511323242187499,0.9839833189389452,1.31787109375,1.46435546875,-3.388671875,45.61235294117647,313.58473373326564
-0.50339892578125,-0.84069287109375,0.1613862304687499,0.9930863494029516,1.400390625,1.34521484375,-3.46484375,45.00058823529412,313.58473373326564
-0.46970751953125,-0.84459912109375,0.1662690429687499,0.9806213458345064,1.5830078125,1.294921875,-3.3544921875,45.61235294117647,313.80760198420745
-0.41892626953125,-0.84899365234375,0.1584565429687499,0.9598947426842992,1.81689453125,1.3232421875,-3.02978515625,45.98882352941177,313.80760198420745
-0.35496142578125,-0.85485302734375,0.1584565429687499,0.9390845479300782,1.9775390625,1.384765625,-2.89599609375,45.61235294117647,313.80760198420745
-0.29294970703125,-0.87340771484375,0.1638276367187499,0.9356816027640638,2.09326171875,1.18603515625,-2.99072265625,45.7535294117647,313.80760198420745
-0.23582080078125,-0.89147412109375,0.1433198242187499,0.9332085140391064,1.955078125,0.93408203125,-3.41015625,46.08294117647059,313.80760198420745
-0.18552783203125,-0.92028271484375,0.1486909179687499,0.9504997847368448,1.7333984375,0.716796875,-4.04833984375,45.61235294117647,313.7753017314312
-0.21043017578125,-0.93395458984375,0.1633393554687499,0.9712012045989656,1.65771484375,0.53369140625,-4.443359375,45.61235294117647,313.7753017314312
-0.26609423828125,-0.92956005859375,0.1506440429687499,0.978561022042706,1.7783203125,0.408203125,-4.34375,45.7535294117647,313.7753017314312
-0.32419970703125,-0.88854443359375,0.1174409179687498,0.9531049416108014,1.97412109375,0.58203125,-4.0732421875,45.37705882352941,313.7753017314312
-0.32224658203125,-0.84264599609375,0.0944916992187498,0.9070963651040048,2.39306640625,0.89990234375,-3.8916015625,46.17705882352941,313.7630279580972
-0.28025439453125,-0.79772412109375,0.0935151367187498,0.85067701263429,2.96044921875,1.07177734375,-3.998046875,45.61235294117647,313.7630279580972
-0.22996142578125,-0.80260693359375,0.0837495117187498,0.8390912512434131,3.53759765625,0.90478515625,-4.12646484375,45.89470588235295,313.7630279580972
-0.18650439453125,-0.81627880859375,0.0871674804687498,0.8418391486441873,4.021484375,0.591796875,-4.619140625,45.7535294117647,313.7630279580972
-0.15818408203125,-0.84899365234375,0.1193940429687498,0.8718184231962944,4.38525390625,0.06884765625,-4.65966796875,46.27117647058824,313.7630279580972
-0.08982470703125,-0.87389599609375,0.1599213867187499,0.8929375901550933,4.99462890625,-0.60009765625,-4.92919921875,45.70647058823529,313.74149443043234
-0.06394580078125,-0.87780224609375,0.1882416992187499,0.9000337693717665,5.4423828125,-1.1640625,-5.47900390625,45.7535294117647,313.74149443043234
-0.08738330078125,-0.87243115234375,0.2190034179687499,0.9037336188929042,5.791015625,-1.47900390625,-5.72509765625,45.565294117647056,313.74149443043234
-0.10252001953125,-0.87145458984375,0.2678315429687499,0.917429665954534,5.978515625,-1.6083984375,-5.58154296875,45.61235294117647,313.74149443043234
-0.11130908203125,-0.84264599609375,0.3342377929687499,0.9133218976484078,6.24169921875,-1.43505859375,-5.455078125,46.13,313.73072768696267
-0.11960986328125,-0.84118115234375,0.3825776367187499,0.9318035729539904,6.58203125,-0.8154296875,-5.5947265625,45.89470588235295,313.73072768696267
-0.11716845703125,-0.90709912109375,0.4104096679687499,1.0024935702409057,6.83056640625,0.3515625,-5.83837890625,45.84764705882353,313.73072768696267
-0.06589892578125,-0.99498974609375,0.4050385742187499,1.076291554299292,6.90869140625,1.51611328125,-6.1904296875,45.7535294117647,313.73072768696267
-0.03025439453125,-1.06725537109375,0.3899018554687499,1.1366498196079935,6.6787109375,2.4345703125,-6.359375,45.70647058823529,313.73072768696267
0.03224560546875,-1.19469677734375,0.3117768554687499,1.2351295383374044,5.8955078125,3.0693359375,-6.6318359375,45.70647058823529,313.8291355539113
0.03517529296875,-1.25475537109375,0.2609956054687499,1.2820947892406596,5.1259765625,3.29052734375,-6.55859375,45.7535294117647,313.8291355539113
0.08400341796875,-1.30504833984375,0.2038666992187499,1.3235442473184298,4.3232421875,2.9404296875,-6.62158203125,45.61235294117647,313.8291355539113
0.07521435546875,-1.26940380859375,0.3371674804687499,1.3155702711852917,3.84716796875,2.21533203125,-6.37744140625,45.84764705882353,313.8291355539113
0.18654248046875,-1.19127880859375,0.5417573242187499,1.3219093369700654,5.03662109375,2.2744140625,-6.18994140625,45.7535294117647,313.6170341999557
0.09962841796875,-1.20006787109375,0.4533784179687499,1.286717026691684,5.24853515625,3.51513671875,-6.2529296875,45.565294117647056,313.6170341999557
-0.03123095703125,-1.12243115234375,0.4318940429687499,1.2030625622887194,4.1337890625,4.9033203125,-5.189453125,45.7535294117647,313.6170341999557
0.15187451171875,-0.97350537109375,0.4665620117187499,1.0901645222796583,4.29931640625,3.34375,-4.05615234375,45.7535294117647,313.6170341999557
0.24757763671875,-1.04967724609375,0.2024018554687499,1.097307394610732,3.42822265625,0.369140625,-4.3642578125,45.00058823529412,313.6170341999557
0.17238232421875,-1.07067333984375,0.0490815429687498,1.085571768339349,1.64794921875,-2.82958984375,-4.59716796875,45.7535294117647,313.4387430558653
0.11574169921875,-1.07506787109375,0.0774018554687498,1.0840471002802865,-0.1494140625,-6.71826171875,-4.240234375,45.61235294117647,313.4387430558653
-0.02048876953125,-1.07262646484375,0.4094331054687499,1.1482956024534317,-0.0107421875,-8.64453125,-3.72802734375,45.70647058823529,313.4387430558653
-0.18406298828125,-1.09118115234375,0.6701752929687499,1.2937118744879046,1.4296875,-8.0146484375,-2.30126953125,45.7535294117647,313.4387430558653
-0.25242236328125,-1.11608349609375,0.7399995117187499,1.3627027177933295,2.181640625,-5.15234375,-0.51171875,45.7535294117647,313.49709352355177
-0.09421923828125,-1.14098583984375,0.7282807617187499,1.3568783362836512,2.05615234375,-0.3017578125,0.07421875,45.09470588235294,313.49709352355177
0.10597607421875,-1.09655224609375,0.6447846679687499,1.2764815019292826,1.787109375,3.94482421875,-0.47900390625,44.85941176470588,313.49709352355177
0.17726513671875,-0.98717724609375,0.5432221679687499,1.1406279707572606,1.88671875,5.349609375,-0.3583984375,44.81235294117647,313.49709352355177
0.23878857421875,-0.92321240234375,0.4714448242187499,1.0637675240866258,1.85302734375,4.09765625,-0.12841796875,44.85941176470588,313.49709352355177
0.10109326171875,-0.76793896484375,0.3767182617187499,0.8613168696842194,1.61474609375,1.4296875,0.65576171875,45.70647058823529,313.7860684687863
0.26417919921875,-0.52672802734375,0.4992768554687499,0.7723408849051442,2.1083984375,-0.837890625,0.2841796875,45.09470588235294,313.7860684687863
0.31300732421875,-0.46911083984375,0.5671479492187499,0.7998095781975382,2.916015625,-0.2822265625,-2.33740234375,45.7535294117647,313.7860684687863
-0.05466845703125,-0.39928662109375,1.03931591796875,1.1147179119947197,4.96240234375,5.177734375,-3.23046875,45.70647058823529,313.7860684687863
0.52052685546875,-0.80211865234375,0.6179291992187499,1.1384985880312124,3.1279296875,9.41552734375,-6.04833984375,45.84764705882353,313.66311368690083
0.51515576171875,-0.88219677734375,0.6389252929687499,1.2049407216883852,2.06689453125,10.4228515625,-7.7177734375,45.70647058823529,313.66311368690083
0.15040966796875,-1.09069287109375,0.7004487304687499,1.3049377116508207,3.2412109375,9.97021484375,-6.09423828125,45.565294117647056,313.66311368690083
0.1189969075520833,-1.03209912109375,0.5207612304687499,3.1295307884272345,15.99951171875,15.99951171875,-1.3994140625,46.17705882352941,313.66311368690083
0.0875841471354166,-0.97350537109375,0.3410737304687499,1.9584764952649725,10.9638671875,15.99951171875,-3.3974609375,45.61235294117647,313.66311368690083
0.05617138671875,-0.91491162109375,0.1613862304687499,0.9307330522137984,3.490234375,15.99951171875,-5.44921875,45.7535294117647,313.7199609570551
0.03761669921875,-0.51549755859375,0.3679291992187499,0.6344482994019144,8.5625,15.99951171875,-2.2158203125,44.85941176470588,313.7199609570551
0.35255810546875,-0.89000927734375,0.1374604492187499,0.9671138022947862,9.57177734375,12.94140625,-0.00048828125,45.565294117647056,313.7199609570551
0.35646435546875,-0.35192333984375,1.43775341796875,1.522514947291932,9.11962890625,7.01171875,0.94873046875,45.7535294117647,313.7199609570551
-0.01267626953125,-0.52379833984375,0.7800385742187499,0.9396731165152687,8.31103515625,8.921875,-0.87109375,45.518235294117645,313.94132519036486
-0.26169970703125,-0.68737255859375,1.05640576171875,1.2872299345340492,6.23681640625,15.58740234375,-4.27734375,44.85941176470588,313.94132519036486
-0.75925830078125,-0.36998974609375,1.28785107421875,1.540105830417552,10.7646484375,15.99951171875,-3.22998046875,45.7535294117647,313.94132519036486
0.02589794921875,-1.27721630859375,-0.2145903320312501,1.2953768615012635,2.984375,15.99951171875,-6.0322265625,45.09470588235294,313.94132519036486
0.71339794921875,-0.77623974609375,-0.1804106445312501,1.0695946793180062,-2.5859375,15.99951171875,-8.6455078125,45.61235294117647,313.94132519036486
0.38331982421875,-0.19225537109375,0.8596284179687499,0.9606545853390512,1.4970703125,9.9775390625,-5.75244140625,45.7535294117647,313.7184541199474
-0.15037158203125,-0.84557568359375,0.4709565429687499,0.9794947241984994,4.43359375,7.95947265625,-2.9521484375,45.70647058823529,313.7184541199474
-0.36228564453125,-0.12829052734375,1.15699169921875,1.2191550925541228,8.33935546875,7.26171875,-4.54345703125,45.37705882352941,313.7184541199474
-1.62156298828125,-0.32067333984375,0.8283784179687499,1.8489209607786297,12.037109375,15.99951171875,-3.56689453125,45.70647058823529,313.7184541199474
-0.05369189453125,-0.93102490234375,0.3034760742187499,0.9807078647312708,5.322265625,15.99951171875,-6.947265625,45.84764705882353,313.6753870944325
1.07570263671875,-0.85680615234375,0.3108002929687499,1.4099112622598748,1.57275390625,11.73388671875,-6.6201171875,45.61235294117647,313.6753870944325
2.545754720052084,-1.19274365234375,-0.2849028320312501,2.0420636912543726,-0.6435546875,-10.6064453125,-7.08447265625,45.61235294117647,313.6753870944325
4.015806803385416,-1.52868115234375,-0.8806059570312501,1.3898601960299426,-9.5302734375,16.0,3.08935546875,46.27117647058824,313.6753870944325
5.48585888671875,-1.86461865234375,-1.47630908203125,5.979208889924089,16.0,16.0,-9.95703125,46.27117647058824,313.6753870944325
2.35353466796875,-0.42516552734375,1.17359326171875,2.664059365502938,16.0,16.0,-12.35107421875,45.14176470588235,313.66311368690083
0.22999951171875,-0.34459912109375,3.49439404296875,3.5188688604699285,-7.10400390625,16.0,-9.87109375,44.85941176470588,313.66311368690083
-0.72996142578125,-1.14293896484375,3.20191357421875,3.477269575004646,4.03271484375,16.0,-5.38818359375,45.7535294117647,313.66311368690083
0.79542919921875,-0.26061474609375,5.55201123046875,5.614753454970433,9.77490234375,-12.95947265625,16.0,45.7535294117647,313.66311368690083
-0.22117236328125,-1.37243115234375,2.40162060546875,2.774935317230853,-2.732421875,14.3544921875,-3.009765625,45.61235294117647,313.6323202860536
0.68800732421875,-0.65270458984375,3.04468701171875,3.1889647785936104,-1.837890625,15.99951171875,-5.08349609375,45.61235294117647,313.6323202860536
2.19581982421875,-0.81188427734375,0.91382763671875,2.5131378254805328,-1.7548828125,15.99951171875,-11.31884765625,45.09470588235294,313.6323202860536
0.58107373046875,-0.42565380859375,0.3708588867187499,0.8101630446209608,-2.58544921875,15.99951171875,-11.04248046875,45.70647058823529,313.6323202860536
0.35499951171875,-0.68248974609375,0.3288666992187499,0.8366422250273399,2.58251953125,15.99951171875,-5.21484375,45.61235294117647,313.6323202860536
0.77150341796875,-0.95202099609375,-0.0222075195312501,1.22558340183952,3.11083984375,15.99951171875,-2.9033203125,45.7535294117647,313.75376829743163
0.84669873046875,-0.95885693359375,-0.0300200195312501,2.0404784033960834,-1.33837890625,4.2578125,-6.64794921875,45.37705882352941,313.75376829743163
0.92189404296875,-0.96569287109375,-0.0378325195312501,1.9366725769942228,-4.611328125,-12.1376953125,-8.94970703125,45.84764705882353,313.75376829743163
0.99708935546875,-0.97252880859375,-0.0456450195312501,1.3935863569014566,-3.49072265625,16.0,-6.837890625,44.85941176470588,313.75376829743163
0.59279248046875,-1.14782177734375,0.2478120117187499,1.315411931904585,-3.4326171875,16.0,-3.56494140625,45.61235294117647,313.8629429702395
0.43117138671875,-1.12047802734375,0.5979096679687499,1.341221736155365,-4.5615234375,16.0,-2.04736328125,45.00058823529412,313.8629429702395
0.32374951171875,-0.90221630859375,1.06372998046875,1.4318971629201271,-3.85009765625,-14.9013671875,-3.70361328125,46.13,313.8629429702395
0.30812451171875,-0.87047802734375,0.8537690429687499,1.2576145234299578,-4.4296875,-6.41796875,-3.01318359375,45.7535294117647,313.8629429702395
0.45802685546875,-0.73815380859375,0.94507763671875,1.2836788480371355,-3.79248046875,2.17578125,-3.59716796875,45.61235294117647,313.8629429702395
0.60109326171875,-0.68541943359375,0.7634370117187499,1.189095866654038,-3.150390625,8.10546875,-4.78564453125,44.85941176470588,313.88749159535564
0.70460888671875,-0.67321240234375,0.5564057617187499,1.122174671602555,-3.00341796875,9.8994140625,-5.9599609375,45.98882352941177,313.88749159535564
0.72951123046875,-0.68981396484375,0.3474213867187499,1.0624177904304235,-3.07958984375,8.5791015625,-6.42041015625,45.7535294117647,313.88749159535564
0.75734326171875,-0.71569287109375,0.1735932617187499,1.0563710154672763,-3.234375,5.59326171875,-6.08447265625,44.81235294117647,313.88749159535564
0.80324169921875,-0.72985302734375,0.0788666992187498,1.088164796863197,-3.4189453125,1.56494140625,-5.61376953125,45.00058823529412,313.8429169747424
0.78908154296875,-0.75573193359375,0.0476166992187498,1.093639697044589,-3.716796875,-2.36767578125,-5.17041015625,45.7535294117647,313.8429169747424
0.75197216796875,-0.78502880859375,0.0930268554687498,1.0910482883723105,-4.0419921875,-4.65869140625,-4.9052734375,45.7535294117647,313.8429169747424
0.74269482421875,-0.80163037109375,0.1823823242187499,1.1079125263163407,-4.2421875,-5.62451171875,-4.890625,45.7535294117647,313.8429169747424
0.72462841796875,-0.82409130859375,0.2639252929687499,1.128658225193213,-4.3125,-5.2021484375,-4.71240234375,44.85941176470588,313.8429169747424
0.69191357421875,-0.83776318359375,0.3161713867187499,1.1316164949986185,-4.2802734375,-3.9736328125,-4.30859375,45.7535294117647,313.83064269510567
0.62404248046875,-0.81920849609375,0.3288666992187499,1.081057298831477,-4.2578125,-2.01171875,-3.55810546875,45.565294117647056,313.83064269510567
0.60939404296875,-0.77868115234375,0.3059174804687499,1.0350318552960276,-4.16748046875,-0.6279296875,-2.90185546875,45.61235294117647,313.83064269510567
0.65773388671875,-0.73131787109375,0.2585541992187499,1.0170004760337614,-4.025390625,0.28173828125,-2.86474609375,45.37705882352941,313.83064269510567
0.68800732421875,-0.69518505859375,0.1872651367187499,0.9958436500279207,-3.99609375,0.5986328125,-3.12451171875,45.565294117647056,313.819875963865
0.74562451171875,-0.67760693359375,0.1501557617187499,1.0186529446811057,-3.91259765625,0.53955078125,-2.99169921875,45.565294117647056,313.819875963865
0.79640576171875,-0.66784130859375,0.1086518554687498,1.045026017121027,-3.7197265625,-0.0693359375,-2.45703125,45.7535294117647,313.819875963865
0.85402294921875,-0.66637646484375,0.0651948242187498,1.0852018963284478,-3.5458984375,-0.71826171875,-2.0439453125,45.7535294117647,313.819875963865
0.89210888671875,-0.64879833984375,0.0378510742187498,1.1037346852238028,-3.44384765625,-1.599609375,-1.89208984375,45.565294117647056,313.819875963865
0.82423779296875,-0.63854443359375,0.0388276367187498,1.0433669145630038,-3.2587890625,-2.78662109375,-1.82275390625,45.09470588235294,313.9090249926436
0.74806591796875,-0.62243115234375,0.0417573242187498,0.9740466267896558,-3.11376953125,-4.068359375,-1.67041015625,45.70647058823529,313.9090249926436
0.71046826171875,-0.59997021484375,0.0852143554687498,0.93380452771834,-3.02783203125,-5.1337890625,-0.9296875,45.61235294117647,313.9090249926436
0.66554638671875,-0.56676708984375,0.1472260742187499,0.8864831887487783,-3.00537109375,-5.8916015625,-0.22216796875,46.17705882352941,313.9090249926436
0.61818310546875,-0.50768505859375,0.1877534179687499,0.8216725726013222,-3.08837890625,-5.52978515625,-0.35107421875,46.17705882352941,313.83064269510567
0.51222607421875,-0.42907177734375,0.2375581054687499,0.7091628830504165,-3.0244140625,-4.05126953125,-0.79736328125,46.27117647058824,313.83064269510567
0.49757763671875,-0.37389599609375,0.2512299804687499,0.6711916444234703,-2.77587890625,-1.87255859375,-1.35693359375,46.08294117647059,313.83064269510567
0.42921826171875,-0.36364208984375,0.2209565429687499,0.6043886825375674,-2.53271484375,0.65478515625,-1.85009765625,46.13,313.83064269510567
0.64210888671875,-0.39684521484375,0.1530854492187499,0.7702110760759554,-2.4501953125,2.81396484375,-2.7099609375,45.7535294117647,313.83064269510567
0.72853466796875,-0.42614208984375,0.0456635742187498,0.8452484872386148,-2.54638671875,4.21875,-3.72900390625,45.84764705882353,314.177985945616
0.70460888671875,-0.45153271484375,-0.0275786132812501,0.8373267317646799,-2.62060546875,4.3447265625,-3.9248046875,46.27117647058824,314.177985945616
0.69728466796875,-0.50768505859375,-0.0851958007812501,0.8667227650029666,-2.50146484375,3.0693359375,-3.61669921875,45.61235294117647,314.177985945616
0.72755810546875,-0.60680615234375,-0.1369536132812501,0.957241242083882,-2.4443359375,1.3486328125,-3.23828125,45.70647058823529,314.177985945616
0.74074169921875,-0.66686474609375,-0.1433012695312501,1.0069469243179756,-2.59912109375,-0.43994140625,-3.17529296875,45.94176470588236,313.92129973177254
0.79542919921875,-0.69957958984375,-0.0832426757812501,1.0625669656859065,-2.8681640625,-1.560546875,-3.09033203125,45.565294117647056,313.92129973177254
0.80665966796875,-0.69909130859375,-0.0197661132812501,1.0676231436761865,-3.23828125,-1.92138671875,-2.853515625,46.17705882352941,313.92129973177254
0.75587841796875,-0.68297802734375,0.0422456054687498,1.0196057374135954,-3.4453125,-1.689453125,-2.267578125,45.70647058823529,313.92129973177254
0.74122998046875,-0.66686474609375,0.0749604492187498,0.9998747633956274,-3.43994140625,-1.2900390625,-1.8994140625,46.27117647058824,313.92129973177254
0.77736279296875,-0.64147412109375,0.0764252929687498,1.010753572999143,-3.42724609375,-0.84375,-1.9677734375,45.61235294117647,313.78757585157945
0.75929638671875,-0.58678662109375,0.0642182617187498,0.9617554401805832,-3.43994140625,-0.57763671875,-2.0068359375,45.84764705882353,313.78757585157945
0.74855419921875,-0.54870068359375,0.0700776367187498,0.9307613574447308,-3.37744140625,-0.49560546875,-2.0361328125,45.84764705882353,313.78757585157945
0.71388623046875,-0.53014599609375,0.0817963867187498,0.8929607920325275,-3.2919921875,-0.611328125,-1.86279296875,45.565294117647056,313.78757585157945
0.72951123046875,-0.51940380859375,0.0905854492187498,0.900095925650086,-3.1943359375,-0.82958984375,-2.0673828125,45.7535294117647,313.7567838794628
0.74025341796875,-0.48180615234375,0.1057221679687498,0.8895445284249227,-3.138671875,-1.033203125,-2.8095703125,45.00058823529412,313.7567838794628
0.78078076171875,-0.46032177734375,0.1433198242187499,0.917635716709585,-2.99267578125,-1.078125,-3.08935546875,45.565294117647056,313.7567838794628
0.80372998046875,-0.41881787109375,0.1858002929687499,0.9251551434862542,-2.72216796875,-1.10693359375,-2.6875,45.89470588235295,313.7567838794628
0.84718701171875,-0.36413037109375,0.2165620117187499,0.9472147934325612,-2.3857421875,-1.1923828125,-2.177734375,45.84764705882353,313.7567838794628
0.88380810546875,-0.29772412109375,0.2453706054687499,0.9643459719423356,-2.01123046875,-1.41357421875,-2.23583984375,46.17705882352941,314.15645274254564
0.96339794921875,-0.24401318359375,0.2839448242187499,1.033587299422292,-1.52783203125,-1.82373046875,-3.3154296875,46.08294117647059,314.15645274254564
1.04005810546875,-0.20788037109375,0.3234956054687499,1.1088663211563936,-1.013671875,-2.42724609375,-5.0234375,45.61235294117647,314.15645274254564
1.01662060546875,-0.19127880859375,0.3733002929687499,1.0997536755161346,-0.611328125,-2.90234375,-6.76953125,44.85941176470588,314.15645274254564
1.01955029296875,-0.19713818359375,0.4084565429687499,1.1158776863157045,-0.369140625,-2.2275390625,-8.10498046875,46.08294117647059,314.2025390340131
0.97511669921875,-0.21129833984375,0.4436127929687499,1.0919211856180508,0.17578125,-0.18994140625,-8.10302734375,45.61235294117647,314.2025390340131
0.96242138671875,-0.23278271484375,0.4445893554687499,1.0854042624477696,0.54931640625,2.27099609375,-7.3291015625,45.84764705882353,314.2025390340131
1.03175732421875,-0.24547802734375,0.4152924804687499,1.1389690436186142,0.7734375,4.72998046875,-7.16064453125,46.03588235294118,314.2025390340131
1.03078076171875,-0.26452099609375,0.3684174804687499,1.126149091381269,0.958984375,6.22705078125,-7.78076171875,45.84764705882353,314.2025390340131
1.01124951171875,-0.32702099609375,0.3210541992187499,1.110245065592976,1.13720703125,6.70849609375,-8.35791015625,44.85941176470588,313.5892536948006
0.96437451171875,-0.41881787109375,0.2800385742187499,1.0880478900539023,1.31787109375,6.1796875,-8.2919921875,45.7535294117647,313.5892536948006
1.03517529296875,-0.50914990234375,0.2439057617187499,1.1791147233535808,1.4140625,5.26904296875,-7.7578125,45.565294117647056,313.5892536948006
1.15529248046875,-0.56872021484375,0.2165620117187499,1.3057727609041438,1.5185546875,4.255859375,-7.4013671875,45.84764705882353,313.5892536948006
1.21437451171875,-0.62047802734375,0.1960541992187499,1.3777284515316686,1.55810546875,3.51513671875,-7.3134765625,45.61235294117647,314.0011922382102
1.15285107421875,-0.65465771484375,0.2126557617187499,1.342708008438152,1.69775390625,3.00634765625,-7.0302734375,44.85941176470588,314.0011922382102
1.08986279296875,-0.68200146484375,0.2194916992187499,1.3042635897596004,1.7685546875,2.55322265625,-6.03857421875,46.27117647058824,314.0011922382102
1.05226513671875,-0.67760693359375,0.2463471679687499,1.275578300840163,1.8896484375,2.3076171875,-4.44677734375,45.565294117647056,314.0011922382102
1.05128857421875,-0.62829052734375,0.2556245117187499,1.2511197161040302,2.09765625,2.3427734375,-3.03759765625,45.84764705882353,314.0011922382102
1.10744091796875,-0.57116162109375,0.2370698242187499,1.268405726002929,2.0419921875,2.51220703125,-2.44970703125,45.84764705882353,313.68916832112467
1.19679638671875,-0.52575146484375,0.2170502929687499,1.3250837798894926,1.5546875,3.10546875,-2.5732421875,45.7535294117647,313.68916832112467
1.22560498046875,-0.48131787109375,0.2082612304687499,1.3330968461819954,0.8955078125,3.90869140625,-3.11328125,45.42411764705882,313.68916832112467
1.15773388671875,-0.42028271484375,0.1833588867187499,1.2452332288338903,0.259765625,4.5224609375,-3.49853515625,44.95352941176471,313.68916832112467
1.00539013671875,-0.35045849609375,0.1667573242187499,1.0777005565908544,-0.12548828125,4.759765625,-3.31884765625,45.61235294117647,313.6999349499144
0.90626904296875,-0.29772412109375,0.1330659179687499,0.9631561498788273,-0.52197265625,4.69482421875,-2.88818359375,45.61235294117647,313.6999349499144
0.89064404296875,-0.22692333984375,0.1106049804687498,0.9257291586344546,-0.548828125,4.44287109375,-2.55517578125,46.17705882352941,313.6999349499144
0.95412060546875,-0.12291943359375,0.0769135742187498,0.9650756523890578,-0.3955078125,3.9609375,-2.60888671875,45.61235294117647,313.6999349499144
1.00392529296875,-0.03795849609375,0.0651948242187498,1.006755782895238,-0.35498046875,2.80322265625,-2.75439453125,46.17705882352941,313.6999349499144
1.08058544921875,0.04260791015625,0.0822846679687498,1.084551111591288,-0.39990234375,1.27734375,-2.93115234375,45.61235294117647,313.92129973177254
1.13478466796875,0.10999072265625,0.0998627929687498,1.14446790219163,-0.33203125,-0.22119140625,-3.357421875,45.70647058823529,313.92129973177254
1.12697216796875,0.16760791015625,0.1403901367187499,1.147984350682116,-0.29150390625,-1.29443359375,-3.77880859375,45.98882352941177,313.92129973177254
1.10402294921875,0.23254931640625,0.1887299804687499,1.1439251996920148,-0.1806640625,-1.6259765625,-3.74267578125,45.89470588235295,313.92129973177254
1.13722607421875,0.29114306640625,0.2463471679687499,1.1994725324765247,0.0947265625,-1.197265625,-3.40087890625,45.7535294117647,313.91053307317287
1.19337841796875,0.34241259765625,0.2824799804687499,1.2732609217567794,0.69482421875,-0.31982421875,-3.37890625,45.14176470588235,313.91053307317287
1.27589794921875,0.36047900390625,0.3103120117187499,1.3616733212098973,1.2548828125,0.44384765625,-4.43359375,45.61235294117647,313.91053307317287
1.33595654296875,0.30676806640625,0.2976166992187499,1.402662550623459,1.83642578125,0.7197265625,-5.7265625,45.61235294117647,313.91053307317287
1.34132763671875,0.19885791015625,0.2771088867187499,1.384013595509713,1.880859375,1.13818359375,-7.19970703125,45.09470588235294,313.91053307317287
1.31935498046875,0.08215869140625,0.2424409179687499,1.3439587842515162,1.6015625,1.89599609375,-8.31884765625,46.13,313.88125106439725
1.26906201171875,0.00598681640625,0.2522065429687499,1.293894266110864,1.40283203125,2.33642578125,-8.654296875,45.7535294117647,313.88125106439725
1.20314404296875,-0.07164990234375,0.2614838867187499,1.233313877182367,1.6337890625,1.97900390625,-8.30078125,45.7535294117647,313.88125106439725
1.13576123046875,-0.16295849609375,0.2282807617187499,1.1698808273734205,2.20751953125,1.26953125,-7.94775390625,45.7535294117647,313.88125106439725
1.08009716796875,-0.23424755859375,0.1926362304687499,1.1218692117401456,2.53515625,0.70556640625,-7.634765625,45.565294117647056,313.6799096927068
0.98292919921875,-0.29723583984375,0.1428315429687499,1.0367737481395187,2.74658203125,0.28955078125,-7.138671875,45.565294117647056,313.6799096927068
0.89747998046875,-0.35387646484375,0.2248627929687499,0.9905867672113357,2.80859375,-0.13232421875,-6.3623046875,45.7535294117647,313.6799096927068
0.85402294921875,-0.40856396484375,0.0608002929687498,0.9486708527124792,2.72802734375,-0.50048828125,-5.2548828125,45.7535294117647,313.6799096927068
0.83742138671875,-0.45153271484375,0.0456635742187498,0.9524922747815612,2.52099609375,-1.42431640625,-3.79931640625,45.565294117647056,313.6799096927068
0.85060498046875,-0.48913037109375,0.0251557617187498,0.9815345969817888,2.15234375,-2.35400390625,-2.2548828125,45.7535294117647,313.85669998372856
0.88820263671875,-0.51159130859375,-0.0222075195312501,1.0252427833574524,1.44482421875,-2.28125,-0.76904296875,46.27117647058824,313.85669998372856
0.94533154296875,-0.45446240234375,-0.0480864257812501,1.0500000502953064,0.5556640625,-0.9375,0.61962890625,45.565294117647056,313.85669998372856
0.95753857421875,-0.30895458984375,-0.0798247070312501,1.0093091912565848,-0.109375,0.54443359375,1.8291015625,44.85941176470588,313.85669998372856
0.93800732421875,-0.16100537109375,-0.1291411132812501,0.9604467173917436,-0.66162109375,1.212890625,2.7177734375,44.95352941176471,313.92129973177254
0.90089794921875,-0.01452099609375,-0.1462309570312501,0.912804177810542,-0.97119140625,0.369140625,3.41455078125,45.70647058823529,313.92129973177254
0.86134716796875,0.13391650390625,-0.1462309570312501,0.8838755945157294,-1.0634765625,-2.0517578125,3.85791015625,45.70647058823529,313.92129973177254
0.87648388671875,0.31360400390625,-0.0725004882812501,0.933717192593484,-0.85205078125,-4.470703125,4.154296875,45.98882352941177,313.92129973177254
0.96925732421875,0.52600634765625,0.0573823242187498,1.104280385345635,-0.26953125,-6.7265625,3.92041015625,46.17705882352941,313.92129973177254
1.02980419921875,0.73352587890625,0.2155854492187499,1.2825887843220083,0.53466796875,-9.45361328125,3.0693359375,46.17705882352941,313.72297599340567
1.06105419921875,0.88098681640625,0.3679291992187499,1.4273561853998158,1.40283203125,-11.5380859375,1.9443359375,45.565294117647056,313.72297599340567
1.01466748046875,0.95325244140625,0.5007416992187499,1.4795210584186556,2.5341796875,-10.8125,0.25927734375,45.61235294117647,313.72297599340567
0.93117138671875,0.92297900390625,0.5383393554687499,1.4173142399418706,3.6962890625,-6.60205078125,-1.73095703125,44.95352941176471,313.72297599340567
0.91212841796875,0.75891650390625,0.5300385742187499,1.2995666204267118,4.40625,-0.69091796875,-3.1298828125,45.61235294117647,314.013468177305
0.90382763671875,0.52014697265625,0.4665620117187499,1.1424260942569149,4.96240234375,4.8125,-4.296875,45.7535294117647,314.013468177305
0.89308544921875,0.32678759765625,0.3752534179687499,1.022353598949712,5.7109375,8.03466796875,-4.55517578125,45.61235294117647,314.013468177305
0.96828076171875,0.16126025390625,0.2297456054687499,1.008144605816424,6.08642578125,7.72216796875,-4.302734375,45.7535294117647,314.013468177305
1.00392529296875,0.04309619140625,0.1076752929687498,1.0106024165278948,5.75146484375,4.94140625,-4.34814453125,45.09470588235294,314.013468177305
0.96290966796875,-0.05114208984375,0.0544526367187498,0.9658031019141008,5.0107421875,1.3310546875,-4.3857421875,45.89470588235295,314.02121658503194
0.92726513671875,-0.12536083984375,0.0813081054687498,0.939226800062312,4.19189453125,-2.22509765625,-4.37255859375,45.61235294117647,314.02121658503194
0.89650341796875,-0.17272412109375,0.1594331054687499,0.9268068383199756,3.47900390625,-4.49072265625,-3.80810546875,46.13,314.02121658503194
0.84474560546875,-0.15661083984375,0.2688081054687499,0.900211025638449,2.83740234375,-5.173828125,-2.78076171875,45.70647058823529,314.02121658503194
0.84474560546875,-0.10436474609375,0.3942963867187499,0.9380601146863884,2.55517578125,-4.2802734375,-1.4208984375,45.00058823529412,313.710701592276
0.88917919921875,-0.05944287109375,0.4792573242187499,1.0118600130771458,2.83447265625,-1.8876953125,-0.29931640625,44.85941176470588,313.710701592276
0.96632763671875,-0.03649365234375,0.5002534179687499,1.0887489932657792,3.4814453125,1.537109375,0.02197265625,45.7535294117647,313.710701592276
0.99855419921875,-0.02965771484375,0.4489838867187499,1.0952518428928697,4.02783203125,5.09423828125,0.08544921875,45.61235294117647,313.710701592276
0.98390576171875,-0.02575146484375,0.3654877929687499,1.049911907111316,4.3564453125,6.94189453125,0.12548828125,45.84764705882353,313.710701592276
0.97609326171875,-0.03112255859375,0.2775971679687499,1.01527673906696,4.37939453125,6.8408203125,0.71728515625,45.84764705882353,313.7783170718635
0.96583935546875,-0.04039990234375,0.1853120117187499,0.9842857076931092,4.18603515625,5.45458984375,1.7431640625,45.7535294117647,313.7783170718635
0.99318310546875,-0.01696240234375,0.1286713867187499,1.0016270412892951,3.9072265625,3.919921875,2.8359375,45.61235294117647,313.7783170718635
1.04054638671875,0.00647509765625,0.1057221679687498,1.045923461159141,3.6982421875,3.181640625,3.3603515625,45.70647058823529,313.7783170718635
1.09669873046875,0.0191704101562499,0.1213471679687498,1.1035582201276757,3.51904296875,3.21044921875,3.384765625,46.17705882352941,314.10111019432173
1.12404248046875,0.0245415039062499,0.1501557617187499,1.1342929674866449,3.44921875,3.5205078125,3.470703125,45.61235294117647,314.10111019432173
1.15236279296875,0.0308891601562499,0.1731049804687499,1.1657012829610265,3.50830078125,3.8330078125,3.45556640625,45.565294117647056,314.10111019432173
1.12892529296875,0.04749072265625,0.1955659179687499,1.1467230328697295,3.47900390625,3.77685546875,3.31787109375,45.61235294117647,314.10111019432173
1.08644482421875,0.06018603515625,0.2224213867187499,1.1106106375185825,3.43603515625,3.27685546875,3.251953125,45.84764705882353,314.10111019432173
1.04005810546875,0.07288134765625,0.2570893554687499,1.0738377392710567,3.333984375,2.6240234375,3.337890625,46.27117647058824,313.8244002929152
0.98878857421875,0.08460009765625,0.2902924804687499,1.0339873041994738,3.21240234375,1.94775390625,3.55029296875,45.61235294117647,313.8244002929152
0.96242138671875,0.11829150390625,0.3366791992187499,1.026450529103387,3.12060546875,1.87548828125,3.85791015625,44.81235294117647,313.8244002929152
0.97218701171875,0.14270556640625,0.3723237304687499,1.050779436755463,3.09912109375,2.6396484375,4.0,46.27117647058824,313.8244002929152
1.01906201171875,0.15393603515625,0.4089448242187499,1.1087919353527047,3.1572265625,3.8603515625,4.2138671875,46.17705882352941,314.10111019432173
1.05372998046875,0.16418994140625,0.4182221679687499,1.145519528588728,3.20263671875,4.98779296875,4.08154296875,45.61235294117647,314.10111019432173
1.07081982421875,0.14612353515625,0.3977143554687499,1.151600578331028,3.15283203125,5.7744140625,3.8271484375,45.61235294117647,314.10111019432173
1.04884716796875,0.12756884765625,0.3703706054687499,1.1196109047538343,3.03466796875,5.9931640625,3.73193359375,45.61235294117647,314.10111019432173
1.04787060546875,0.09534228515625,0.3166596679687499,1.098815863765326,2.71484375,5.7880859375,3.6396484375,45.565294117647056,314.10111019432173
1.07179638671875,0.08460009765625,0.2849213867187499,1.1122431693278907,2.29541015625,5.36669921875,3.33056640625,45.61235294117647,314.2133055622457
1.06105419921875,0.06506884765625,0.2766206054687499,1.0984484184452874,1.9052734375,4.32177734375,2.92822265625,45.7535294117647,314.2133055622457
1.04152294921875,0.0206352539062499,0.2775971679687499,1.0780797999764993,1.62109375,3.39404296875,2.55810546875,45.565294117647056,314.2133055622457
1.03322216796875,-0.02184521484375,0.2863862304687499,1.072400267994984,0.9619140625,2.92041015625,2.3212890625,45.61235294117647,314.2133055622457
1.00685498046875,-0.04577099609375,0.3156831054687499,1.0561760075179398,0.5146484375,3.19970703125,2.43408203125,45.98882352941177,313.8920175614867
0.98195263671875,-0.05163037109375,0.3562104492187499,1.0458405997621278,0.28564453125,3.8681640625,2.7333984375,45.7535294117647,313.8920175614867
0.95851513671875,-0.05700146484375,0.3830659179687499,1.0337987869128782,0.255859375,4.7216796875,2.9306640625,45.61235294117647,313.8920175614867
0.94044873046875,-0.07995068359375,0.4079682617187499,1.0282383133385034,0.2861328125,5.689453125,3.09619140625,44.85941176470588,313.8920175614867
0.93068310546875,-0.12487255859375,0.4118745117187499,1.025380325585714,0.279296875,6.55810546875,3.23388671875,45.7535294117647,313.8920175614867
0.89845654296875,-0.14733349609375,0.4177338867187499,1.0017149888005656,0.28173828125,7.06640625,3.56103515625,45.7535294117647,313.958126030065
0.90724560546875,-0.15123974609375,0.4392182617187499,1.0192549881497277,0.201171875,7.06884765625,3.625,45.89470588235295,313.958126030065
0.93605419921875,-0.16881787109375,0.4577729492187499,1.0555818350616466,0.1455078125,6.802734375,3.52490234375,45.565294117647056,313.958126030065
0.94581982421875,-0.17663037109375,0.4724213867187499,1.0718933690004662,-0.1015625,6.49658203125,3.009765625,45.61235294117647,313.958126030065
0.87599560546875,-0.16393505859375,0.5358979492187499,1.0399180814917874,-0.291015625,5.95556640625,3.00634765625,44.95352941176471,313.97965910699867
0.86037060546875,-0.15172802734375,0.6110932617187499,1.0661585002026432,-0.12548828125,5.67236328125,3.654296875,45.84764705882353,313.97965910699867
0.89552685546875,-0.13366162109375,0.6750581054687499,1.129396840609276,-0.1337890625,5.92333984375,3.6875,45.7535294117647,313.97965910699867
0.94874951171875,-0.09899365234375,0.7268159179687499,1.1992442444321667,-0.0126953125,6.50048828125,3.1201171875,45.565294117647056,313.97965910699867
0.94337841796875,-0.07750927734375,0.7439057617187499,1.2038963036249948,0.16650390625,7.43017578125,2.30517578125,45.7535294117647,313.97965910699867
0.91749951171875,-0.05895458984375,0.7732026367187499,1.201300676390643,0.30126953125,7.81982421875,2.03369140625,45.00058823529412,313.8228917291834
0.85011669921875,-0.04039990234375,0.7854096679687499,1.1581014208344402,0.462890625,7.73681640625,2.11083984375,45.7535294117647,313.8228917291834
0.84279248046875,-0.04479443359375,0.7741791992187499,1.1452768830805231,0.47705078125,7.94384765625,2.05078125,45.61235294117647,313.8228917291834
0.84914013671875,-0.02868115234375,0.7873627929687499,1.1583616654732896,0.50537109375,8.28662109375,1.5908203125,45.61235294117647,313.8228917291834
0.86085888671875,-0.01110302734375,0.7932221679687499,1.1706420066851717,0.89208984375,8.4453125,1.10205078125,45.7535294117647,314.02423471643345
0.88478466796875,-0.02428662109375,0.7829682617187499,1.1817246072988423,1.03271484375,8.423828125,0.62548828125,44.85941176470588,314.02423471643345
0.87208935546875,-0.02965771484375,0.7907807617187499,1.177605042905362,1.1416015625,8.30126953125,0.18359375,44.85941176470588,314.02423471643345
0.86818310546875,-0.02379833984375,0.7649018554687499,1.1573172054800782,1.25830078125,7.97802734375,-0.18603515625,45.84764705882353,314.02423471643345
0.90431591796875,0.03430712890625,0.7653901367187499,1.185236820205903,1.36669921875,7.49365234375,-0.69140625,45.7535294117647,314.02423471643345
0.93068310546875,0.10510791015625,0.7893159179687499,1.224842166951,1.59521484375,6.328125,-1.078125,45.7535294117647,313.7337426025089
0.95558544921875,0.16907275390625,0.8586518554687499,1.2957670144636229,1.9833984375,5.12158203125,-1.2958984375,45.518235294117645,313.7337426025089
0.94435498046875,0.22424853515625,0.97193310546875,1.3735893477171353,2.357421875,3.5185546875,-1.09228515625,45.7535294117647,313.7337426025089
0.89747998046875,0.24866259765625,1.13306591796875,1.466677121004384,2.6796875,2.37548828125,-0.49951171875,45.00058823529412,313.7337426025089
0.86525341796875,0.23743212890625,1.31568310546875,1.5925010289351316,3.005859375,1.7646484375,0.14501953125,45.09470588235294,314.10261997235864
0.77492138671875,0.18079150390625,1.46607373046875,1.668100988144708,3.390625,2.314453125,0.21435546875,46.17705882352941,314.10261997235864
0.70363232421875,0.10364306640625,1.47925732421875,1.6413538814510376,3.15087890625,3.50830078125,0.27001953125,45.89470588235295,314.10261997235864
0.76271435546875,0.00989306640625,1.74537060546875,1.9047702253120664,2.90966796875,5.56982421875,0.4697265625,45.89470588235295,314.10261997235864
0.90822216796875,-0.08532177734375,1.79371044921875,2.012348003630456,3.033203125,7.595703125,0.57177734375,45.84764705882353,314.10261997235864
1.11427685546875,-0.15856396484375,1.83912060546875,2.156181820496601,3.0,9.009765625,0.57958984375,45.565294117647056,313.958126030065
1.30128857421875,-0.14147412109375,1.94312451171875,2.342882785880196,3.21044921875,9.13525390625,0.916015625,44.85941176470588,313.958126030065
1.22121044921875,-0.16539990234375,1.88208935546875,2.249660514598849,3.44482421875,10.0546875,1.2412109375,45.61235294117647,313.958126030065
1.12013623046875,-0.16002880859375,1.81031201171875,2.134840503213733,3.41064453125,11.28271484375,1.388671875,45.70647058823529,313.958126030065
1.02492138671875,-0.12682568359375,1.71851513671875,2.004954582553922,3.39013671875,11.8623046875,1.16845703125,44.85941176470588,314.0487875414351
0.84718701171875,-0.11706005859375,1.54322216796875,1.7643592462571465,3.12158203125,12.71337890625,0.42578125,45.70647058823529,314.0487875414351
0.58058544921875,-0.11168896484375,1.38648388671875,1.5072794886294771,2.419921875,13.55029296875,0.166015625,45.7535294117647,314.0487875414351
0.34425732421875,-0.17418896484375,1.18531201171875,1.2465229504009707,1.4013671875,13.5830078125,1.478515625,45.565294117647056,314.0487875414351
0.12892529296875,-0.26793896484375,0.95142529296875,0.9968064547088816,0.3369140625,12.16650390625,3.43505859375,45.61235294117647,314.0487875414351
0.09279248046875,-0.28942333984375,0.7585541992187499,0.8171785528452477,-0.486328125,8.25439453125,3.95556640625,45.7535294117647,314.02423471643345
0.43654248046875,-0.25817333984375,0.6130463867187499,0.7956435652531858,-0.72998046875,2.740234375,3.12255859375,45.84764705882353,314.02423471643345
0.87990185546875,-0.13073193359375,0.5456635742187499,1.043583657378598,-0.84814453125,-1.6201171875,2.5029296875,45.84764705882353,314.02423471643345
1.03322216796875,0.08508837890625,0.6037690429687499,1.1997187744860618,-0.68798828125,-2.5634765625,4.3427734375,45.7535294117647,314.02423471643345
1.01320263671875,0.30335009765625,0.6462495117187499,1.2394512076716075,-0.37744140625,-0.6474609375,6.0546875,45.7535294117647,314.0580439808393
0.91701123046875,0.59338916015625,0.6760346679687499,1.2845400595124965,0.0732421875,3.22265625,5.1875,45.7535294117647,314.0580439808393
0.43703076171875,0.83313525390625,0.6145112304687499,1.1237145057184763,0.5224609375,7.24609375,2.63671875,44.85941176470588,314.0580439808393
0.26369091796875,0.87366259765625,0.4660737304687499,1.0247165251891497,0.45849609375,9.4609375,-0.16357421875,45.70647058823529,314.0580439808393
0.32814404296875,0.77210009765625,0.3151948242187499,0.8961946501463598,0.1787109375,9.0556640625,-2.80322265625,45.61235294117647,314.0580439808393
0.48244091796875,0.55481494140625,0.2453706054687499,0.7750971504051939,0.11181640625,6.19921875,-4.3310546875,45.70647058823529,314.13794014961326
0.50880810546875,0.26965869140625,0.2199799804687499,0.6164354709526874,0.0341796875,1.74365234375,-4.791015625,45.7535294117647,314.13794014961326
0.37990185546875,0.03430712890625,0.2819916992187499,0.474364540528344,-0.130859375,-2.89892578125,-4.33544921875,45.7535294117647,314.13794014961326
0.19435498046875,-0.04284130859375,0.3982026367187499,0.4451680312475254,-0.099609375,-6.64453125,-3.53662109375,46.27117647058824,314.13794014961326
0.05714794921875,-0.03258740234375,0.5876557617187499,0.591326577427961,0.18603515625,-8.87548828125,-2.8701171875,45.61235294117647,314.1717503085603
0.02638623046875,-0.01110302734375,0.7995698242187499,0.8000821296440439,0.7265625,-9.529296875,-2.13330078125,45.518235294117645,314.1717503085603
0.06691357421875,0.01233447265625,0.98072216796875,0.9830796185333928,1.3642578125,-8.76904296875,-1.552734375,45.61235294117647,314.1717503085603
0.14455029296875,0.0025688476562499,1.11646435546875,1.1257859668728707,1.76220703125,-7.06396484375,-1.13916015625,45.61235294117647,314.1717503085603
0.16359326171875,-0.01940380859375,1.16333935546875,1.1749458366453194,1.76953125,-4.59033203125,-1.072265625,45.7535294117647,314.1717503085603
0.12404248046875,-0.04479443359375,1.15162060546875,1.159147573513414,1.4423828125,-1.25537109375,-1.27099609375,46.27117647058824,314.2363490748368
0.09279248046875,-0.05944287109375,1.11402294921875,1.1194601514754572,1.0244140625,1.50146484375,-1.45947265625,45.70647058823529,314.2363490748368
0.07619091796875,-0.08288037109375,1.03980419921875,1.0458809610115791,0.5625,3.54248046875,-1.43798828125,45.565294117647056,314.2363490748368
0.10255810546875,-0.11315380859375,0.96656201171875,0.9785520282000376,0.11376953125,4.45751953125,-1.03271484375,46.17705882352941,314.2363490748368
0.15187451171875,-0.17321240234375,0.90796826171875,0.9367362317771584,-0.224609375,4.17236328125,-0.19580078125,45.61235294117647,314.1825167356848
0.20167919921875,-0.20836865234375,0.8835541992187499,0.9299247376181328,-0.38916015625,2.93212890625,0.9404296875,46.13,314.1825167356848
0.28517529296875,-0.21569287109375,0.8791596679687499,0.9490890812475928,-0.494140625,1.486328125,1.83056640625,45.61235294117647,314.1825167356848
0.35744091796875,-0.17028271484375,0.91968701171875,1.0012913723472627,-0.4658203125,-0.03466796875,2.20703125,45.565294117647056,314.1825167356848
0.34914013671875,-0.09850537109375,0.98511669921875,1.049789052277623,-0.35693359375,-1.3466796875,2.146484375,45.61235294117647,314.1825167356848
0.28419873046875,-0.01403271484375,1.03003857421875,1.0686184070399176,-0.29052734375,-1.9990234375,1.8994140625,46.17705882352941,314.2255825798675
0.22316357421875,0.08899462890625,1.07642529296875,1.1029113455645962,-0.30810546875,-1.96875,1.73193359375,45.7535294117647,314.2255825798675
0.21486279296875,0.18909228515625,1.08716748046875,1.1242130770884649,-0.29931640625,-1.4375,1.65625,46.13,314.2255825798675
0.22804638671875,0.28528369140625,1.09205029296875,1.151505875560775,-0.3388671875,-0.70263671875,1.43603515625,45.61235294117647,314.2255825798675
0.27199169921875,0.33606494140625,1.11695263671875,1.1977071102566177,-0.359375,-0.03759765625,1.07763671875,46.13,314.4807676416026
0.29884716796875,0.34143603515625,1.11304638671875,1.2019818862586191,-0.21484375,0.90478515625,0.6015625,46.17705882352941,314.4807676416026
0.29542919921875,0.33069384765625,1.09644482421875,1.1827206285445488,0.0400390625,2.22119140625,0.076171875,45.565294117647056,314.4807676416026
0.27589794921875,0.29211962890625,1.06763623046875,1.1407456669148297,0.302734375,3.13525390625,-0.32373046875,45.09470588235294,314.4807676416026
0.23927685546875,0.24670947265625,1.00904248046875,1.0659670280322304,0.46875,3.70703125,-0.57861328125,45.61235294117647,314.4807676416026
0.21242138671875,0.21838916015625,0.93433544921875,0.9827509361359428,0.54541015625,3.439453125,-0.82861328125,45.7535294117647,314.6698459350906
0.19923779296875,0.21545947265625,0.8698823242187499,0.9180488769627584,0.39697265625,2.43798828125,-1.28564453125,46.27117647058824,314.6698459350906
0.21583935546875,0.23157275390625,0.8371674804687499,0.8950206467312835,0.1943359375,1.29052734375,-1.8564453125,45.00058823529412,314.6698459350906
0.22804638671875,0.24573291015625,0.8347260742187499,0.8995317874372107,0.10986328125,0.41162109375,-2.15966796875,45.565294117647056,314.6698459350906
0.24464794921875,0.23254931640625,0.8449799804687499,0.9099027261256684,0.16552734375,-0.033203125,-2.16650390625,45.565294117647056,314.3593133926136
0.27736279296875,0.22083056640625,0.8654877929687499,0.9352889274233116,0.25732421875,0.1103515625,-2.2470703125,44.85941176470588,314.3593133926136
0.32912060546875,0.20911181640625,0.8947846679687499,0.9760572353795568,0.2548828125,0.77734375,-2.671875,46.17705882352941,314.3593133926136
0.34083935546875,0.19885791015625,0.92945263671875,1.0097515231835508,0.58154296875,1.49609375,-3.123046875,45.14176470588235,314.3593133926136
0.31398388671875,0.16418994140625,0.94507763671875,1.0093145978355302,0.73193359375,2.00537109375,-3.25048828125,45.7535294117647,314.3593133926136
0.28126904296875,0.14270556640625,0.94117138671875,0.992613082925054,0.61669921875,2.22607421875,-3.54736328125,45.84764705882353,314.4484682077504
0.25246044921875,0.14270556640625,0.94458935546875,0.9881043505459988,0.48193359375,2.41748046875,-3.69482421875,45.70647058823529,314.4484682077504
0.21095654296875,0.15149462890625,0.93824169921875,0.9735249209761688,0.42236328125,2.51025390625,-3.58642578125,45.00058823529412,314.4484682077504
0.19581982421875,0.14514697265625,0.91773388671875,0.9495517542821136,0.46337890625,3.0556640625,-3.3349609375,45.89470588235295,314.4484682077504
0.19581982421875,0.13977587890625,0.8859956054687499,0.9180800143729376,0.52001953125,3.671875,-3.19677734375,44.81235294117647,314.5837144701133
0.21388623046875,0.13831103515625,0.8679291992187499,0.90453212042836,0.57275390625,4.31640625,-3.27099609375,45.84764705882353,314.5837144701133
0.21388623046875,0.12415087890625,0.8381440429687499,0.8738685239103919,0.67041015625,4.8076171875,-3.30419921875,45.70647058823529,314.5837144701133
0.20412060546875,0.10461962890625,0.8108002929687499,0.842619489097909,0.73388671875,5.0966796875,-3.12890625,45.61235294117647,314.5837144701133
0.21583935546875,0.06067431640625,0.7839448242187499,0.8153756725950915,0.8076171875,5.095703125,-2.861328125,45.7535294117647,314.5837144701133
0.21730419921875,0.0172172851562499,0.7600190429687499,0.7906620615543586,0.80712890625,5.115234375,-2.61474609375,46.27117647058824,314.205560681313
0.21486279296875,0.0001274414062499,0.7443940429687499,0.7747828903964032,0.8115234375,5.0712890625,-2.41943359375,44.95352941176471,314.205560681313
0.23048779296875,-0.00182568359375,0.7429291992187499,0.7778635811503215,0.78173828125,4.80126953125,-2.3193359375,45.84764705882353,314.205560681313
0.24318310546875,0.01086962890625,0.7292573242187499,0.7688123415663121,0.7177734375,4.07470703125,-2.40087890625,45.565294117647056,314.205560681313
0.23195263671875,0.0225883789062499,0.7092377929687499,0.7465457169641897,0.5849609375,3.361328125,-2.6884765625,45.61235294117647,314.6944043505948
0.20412060546875,0.0274711914062499,0.6901948242187499,0.720269937809818,0.42919921875,2.54150390625,-2.8232421875,45.84764705882353,314.6944043505948
0.16408154296875,0.03235400390625,0.6911713867187499,0.7111170228102341,0.31005859375,2.17138671875,-2.7646484375,45.61235294117647,314.6944043505948
0.12941357421875,0.03137744140625,0.6994721679687499,0.7120349224470508,0.25341796875,2.083984375,-2.6494140625,45.70647058823529,314.6944043505948
0.09669873046875,0.03479541015625,0.7175385742187499,0.7248606559429792,0.2451171875,2.2158203125,-2.43359375,46.13,314.6944043505948
0.06105419921875,0.0294243164062499,0.7331635742187499,0.7362895029806077,0.25537109375,2.4921875,-2.107421875,45.7535294117647,314.5068370982566
0.06349560546875,0.0260063476562499,0.7404877929687499,0.7436599986337783,0.30029296875,2.8232421875,-1.8701171875,45.565294117647056,314.5068370982566
0.09181591796875,0.03235400390625,0.7492768554687499,0.7555744506680647,0.2958984375,3.18359375,-2.01171875,46.17705882352941,314.5068370982566
0.11476513671875,0.05481494140625,0.7614838867187499,0.7720320097895799,0.29931640625,3.4423828125,-2.35009765625,45.70647058823529,314.5068370982566
0.10109326171875,0.06165087890625,0.7580659179687499,0.7672578539322046,0.296875,3.45361328125,-2.5107421875,45.84764705882353,314.5837144701133
0.07472607421875,0.06995166015625,0.7600190429687499,0.7668808033859604,0.2705078125,3.31298828125,-2.296875,45.00058823529412,314.5837144701133
0.06837841796875,0.06067431640625,0.7624604492187499,0.7679211660959299,0.2421875,3.1171875,-1.8984375,46.13,314.5837144701133
0.07423779296875,0.05383837890625,0.7663666992187499,0.7718340097582936,0.25341796875,3.01220703125,-1.51806640625,45.7535294117647,314.5837144701133
0.08058544921875,0.05139697265625,0.7585541992187499,0.7645522458121577,0.28857421875,3.03857421875,-1.21875,46.08294117647059,314.5837144701133
0.09230419921875,0.04846728515625,0.7629487304687499,0.7700389004769234,0.31494140625,3.14013671875,-1.06396484375,46.27117647058824,314.58522755384865
0.10353466796875,0.05432666015625,0.7688081054687499,0.7776481958505276,0.3623046875,3.19873046875,-1.04541015625,46.17705882352941,314.58522755384865
0.09816357421875,0.06751025390625,0.7775971679687499,0.7866708824654098,0.4150390625,3.15478515625,-1.080078125,45.7535294117647,314.58522755384865
0.07033154296875,0.08118212890625,0.7907807617187499,0.798042152454745,0.41162109375,2.87890625,-1.111328125,45.7535294117647,314.58522755384865
0.03615185546875,0.08362353515625,0.8088471679687499,0.8139616658153681,0.39599609375,2.47265625,-1.1240234375,46.17705882352941,314.73124457523164
0.00148388671875,0.08606494140625,0.8425385742187499,0.8469242144995143,0.4990234375,2.06591796875,-0.8779296875,45.00058823529412,314.73124457523164
-0.0029106445312499,0.07483447265625,0.8796479492187499,0.8828302128462068,0.35302734375,1.806640625,-0.83349609375,45.7535294117647,314.73124457523164
-0.0014458007812499,0.08167041015625,0.93384716796875,0.9374127582651324,0.31494140625,1.60546875,-0.8564453125,45.565294117647056,314.73124457523164
-0.0058403320312499,0.08362353515625,0.96949169921875,0.9731090175125924,0.2958984375,1.40576171875,-0.8759765625,45.7535294117647,314.73124457523164
-0.0077934570312499,0.09778369140625,1.01197216796875,1.0167153274249892,0.23095703125,1.25634765625,-0.9169921875,45.84764705882353,314.5068370982566
-0.01218798828125,0.11780322265625,1.04664013671875,1.0533193827691512,0.21240234375,1.19873046875,-0.96826171875,45.61235294117647,314.5068370982566
-0.01658251953125,0.13733447265625,1.08228466796875,1.0910892905046785,0.2099609375,1.40087890625,-1.06396484375,45.61235294117647,314.5068370982566
-0.0014458007812499,0.14807666015625,1.10669873046875,1.1165620751414012,0.18310546875,1.857421875,-1.2890625,45.61235294117647,314.5068370982566
-0.0077934570312499,0.15247119140625,1.12769482421875,1.137982345535772,0.13525390625,2.3076171875,-1.5791015625,45.565294117647056,314.4853044368971
-0.04636767578125,0.15295947265625,1.11548779296875,1.1268804630017002,0.068359375,2.3759765625,-1.6455078125,45.7535294117647,314.4853044368971
-0.09666064453125,0.14563525390625,1.07496044921875,1.0890789111749946,-0.02685546875,2.3515625,-1.32421875,45.61235294117647,314.4853044368971
-0.13328173828125,0.12952197265625,1.02515576171875,1.0418657777973075,-0.1083984375,1.875,-0.73291015625,45.84764705882353,314.4853044368971
-0.15037158203125,0.11340869140625,0.99146435546875,1.0091950813069408,-0.09130859375,1.3876953125,-0.173828125,45.89470588235295,314.4853044368971
-0.13328173828125,0.09827197265625,0.96802685546875,0.9820882828329328,-0.0390625,1.119140625,0.2861328125,45.70647058823529,314.528369813894
-0.12058642578125,0.08313525390625,0.93628857421875,0.9476754986477876,0.0234375,1.103515625,0.55712890625,45.61235294117647,314.528369813894
-0.10349658203125,0.07434619140625,0.90699169921875,0.9159000169890168,0.11328125,1.20703125,0.6611328125,45.14176470588235,314.528369813894
-0.10105517578125,0.08069384765625,0.8781831054687499,0.8876537682748195,0.16748046875,1.4599609375,0.6162109375,45.7535294117647,314.528369813894
-0.10642626953125,0.08655322265625,0.8361909179687499,0.8473684337358462,0.1865234375,1.60302734375,0.3798828125,45.565294117647056,314.4530055466397
-0.12156298828125,0.10803759765625,0.8122651367187499,0.8283865854514608,0.1044921875,1.5458984375,0.0498046875,45.89470588235295,314.4530055466397
-0.14158251953125,0.12512744140625,0.7941987304687499,0.8163664066507547,-0.01318359375,1.34423828125,-0.31103515625,45.565294117647056,314.4530055466397
-0.16746142578125,0.15393603515625,0.7844331054687499,0.8167465512627906,-0.16748046875,1.13623046875,-0.5546875,45.61235294117647,314.4530055466397
-0.18259814453125,0.16956103515625,0.7971284179687499,0.835168690602609,-0.2763671875,0.99560546875,-0.56884765625,45.7535294117647,314.4530055466397
-0.18650439453125,0.16956103515625,0.8244721679687499,0.8621422096022313,-0.287109375,0.9208984375,-0.267578125,44.81235294117647,314.36082495989035
-0.17869189453125,0.15930712890625,0.8513276367187499,0.8843462554523832,-0.240234375,0.82080078125,0.1318359375,45.7535294117647,314.36082495989035
-0.16257861328125,0.15100634765625,0.8786713867187499,0.906255001843954,-0.1953125,0.712890625,0.40576171875,46.17705882352941,314.36082495989035
-0.14939501953125,0.13977587890625,0.92603466796875,0.9483651060982526,-0.1591796875,0.6298828125,0.56787109375,45.7535294117647,314.36082495989035
-0.14304736328125,0.13049853515625,0.96265576171875,0.9819361137008616,-0.09326171875,0.63671875,0.6591796875,45.61235294117647,314.9649099296189
-0.12839892578125,0.11292041015625,0.98560498046875,1.0003271868226111,-0.02001953125,0.638671875,0.68408203125,45.84764705882353,314.9649099296189
-0.12205126953125,0.08020556640625,0.99390576171875,1.0045785725638716,0.02734375,0.5166015625,0.7333984375,46.27117647058824,314.9649099296189
-0.12107470703125,0.05286181640625,0.99146435546875,1.000227486365744,0.01220703125,0.24072265625,0.736328125,45.89470588235295,314.9649099296189
-0.13621142578125,0.04700244140625,0.97925732421875,0.9898018433239932,-0.06640625,-0.1484375,0.7421875,45.09470588235294,314.9649099296189
-0.16013720703125,0.06165087890625,0.98218701171875,0.9970637301269616,-0.1943359375,-0.5810546875,0.8515625,45.565294117647056,314.7204783287626
-0.17625048828125,0.09192431640625,0.99195263671875,1.0116740325121605,-0.28125,-0.81494140625,0.96875,44.85941176470588,314.7204783287626
-0.18406298828125,0.11877978515625,1.00074169921875,1.024437294114198,-0.33447265625,-0.529296875,0.9599609375,45.37705882352941,314.7204783287626
-0.17625048828125,0.13782275390625,1.00025341796875,1.0249713392441024,-0.306640625,0.3330078125,0.91748046875,45.84764705882353,314.7204783287626
-0.13328173828125,0.13977587890625,0.98218701171875,1.0009958262012355,-0.2734375,1.099609375,0.7001953125,45.61235294117647,314.60827363487675
-0.10886767578125,0.14710009765625,0.94996044921875,0.9674272399722776,-0.3349609375,1.32080078125,0.359375,45.70647058823529,314.60827363487675
-0.13181689453125,0.14514697265625,0.8996674804687499,0.920784943821371,-0.359375,1.08056640625,0.2724609375,45.7535294117647,314.60827363487675
-0.13865283203125,0.14417041015625,0.8835541992187499,0.905912654703528,-0.32275390625,0.73583984375,0.36474609375,45.61235294117647,314.60827363487675
-0.13425830078125,0.14807666015625,0.8733002929687499,0.8958824645627363,-0.26025390625,0.40673828125,0.38427734375,45.09470588235294,314.60827363487675
-0.12937548828125,0.15295947265625,0.8816010742187499,0.9040769166984322,-0.19775390625,0.06884765625,0.28369140625,45.84764705882353,314.1101756734261
-0.13767626953125,0.15100634765625,0.8884370117187499,0.9116347931141416,-0.12060546875,-0.39599609375,0.42578125,45.7535294117647,314.1101756734261
-0.14255908203125,0.14319384765625,0.90503857421875,0.9273200044753168,-0.044921875,-0.76123046875,0.73876953125,45.89470588235295,314.1101756734261
-0.14158251953125,0.14221728515625,0.92554638671875,0.947051994349922,0.07275390625,-1.19921875,0.990234375,46.17705882352941,314.1101756734261
-0.13084033203125,0.14905322265625,0.94996044921875,0.970443666963802,0.13720703125,-1.31298828125,0.9404296875,45.7535294117647,314.66513282269256
-0.12839892578125,0.16174853515625,0.97388623046875,0.9955416930815116,0.1728515625,-1.2822265625,0.68212890625,45.42411764705882,314.66513282269256
-0.14109423828125,0.15735400390625,0.99585888671875,1.018038697141814,0.1826171875,-1.04345703125,0.62353515625,45.7535294117647,314.66513282269256
-0.15085986328125,0.14954150390625,1.00415966796875,1.026381020145487,0.1826171875,-0.732421875,0.46142578125,45.84764705882353,314.66513282269256
-0.15623095703125,0.15295947265625,1.00562451171875,1.0291187350251445,0.17041015625,-0.31884765625,0.43359375,45.61235294117647,314.66513282269256
-0.15769580078125,0.16028369140625,1.00367138671875,1.028549988980989,0.17041015625,0.0234375,0.35888671875,46.17705882352941,314.60676021786946
-0.16404345703125,0.16321337890625,0.99097607421875,1.0176357120909054,0.1142578125,0.13525390625,0.23779296875,45.61235294117647,314.60676021786946
-0.15378955078125,0.15051806640625,0.96314404296875,0.9868907547192668,0.078125,-0.08251953125,0.19921875,44.85941176470588,314.60676021786946
-0.13962939453125,0.13293994140625,0.95386669921875,0.9731552166621386,0.0859375,-0.47021484375,0.41064453125,45.61235294117647,314.60676021786946
-0.11765673828125,0.11780322265625,0.93824169921875,0.9528998863910456,0.10498046875,-0.86962890625,0.7177734375,45.7535294117647,314.64208624138763
-0.11033251953125,0.11340869140625,0.94458935546875,0.957749365239915,0.09521484375,-1.0986328125,0.884765625,45.61235294117647,314.64208624138763
-0.11765673828125,0.12610400390625,0.94849560546875,0.9640483605388792,0.08154296875,-1.13330078125,0.74169921875,45.61235294117647,314.64208624138763
-0.12546923828125,0.13879931640625,0.96460888671875,0.9825874436031152,0.07275390625,-1.025390625,0.51025390625,45.565294117647056,314.64208624138763
-0.11570361328125,0.14905322265625,0.98951123046875,1.007341384305405,0.0830078125,-0.86767578125,0.42919921875,45.7535294117647,314.64208624138763
-0.06345751953125,0.15393603515625,1.00074169921875,1.0144984515808373,0.08837890625,-0.677734375,0.29541015625,45.7535294117647,314.8649834861314
0.00343701171875,0.15393603515625,1.01880810546875,1.0303776354997254,0.1064453125,-0.3984375,-0.10205078125,45.518235294117645,314.8649834861314
0.02394482421875,0.14368212890625,1.01636669921875,1.026751759703735,0.0888671875,-0.24951171875,-0.39794921875,45.565294117647056,314.8649834861314
0.00441357421875,0.12659228515625,1.01539013671875,1.023260580714506,0.07373046875,-0.3544921875,-0.3037109375,46.27117647058824,314.8649834861314
-0.01169970703125,0.12805712890625,1.00708935546875,1.0152657195566053,0.064453125,-0.533203125,-0.10302734375,46.17705882352941,314.54216238864046
-0.00925830078125,0.11829150390625,1.01050732421875,1.0174495802394812,0.0810546875,-0.56396484375,-0.03369140625,45.00058823529412,314.54216238864046
-0.01365283203125,0.11145556640625,1.02417919921875,1.0303163471564314,0.11279296875,-0.6220703125,0.04443359375,45.00058823529412,314.54216238864046
-0.02732470703125,0.10315478515625,1.02271435546875,1.0282666007397288,0.12841796875,-0.3798828125,0.11767578125,46.17705882352941,314.54216238864046
-0.04002001953125,0.10559619140625,1.01197216796875,1.0182533213037703,0.091796875,-0.275390625,0.04541015625,45.70647058823529,314.54216238864046
-0.06248095703125,0.12415087890625,1.00562451171875,1.015183712090728,0.0615234375,-0.1796875,-0.0458984375,45.00058823529412,314.4314730209845
-0.09226611328125,0.13684619140625,0.99976513671875,1.013296720788479,0.05322265625,-0.0703125,-0.04541015625,46.17705882352941,314.4314730209845
-0.08933642578125,0.13586962890625,0.98462841796875,0.9979652671822472,0.07177734375,-0.044921875,-0.01123046875,45.7535294117647,314.4314730209845
-0.08250048828125,0.14172900390625,0.95972607421875,0.9736362660923412,0.0732421875,-0.1240234375,-0.05419921875,45.7535294117647,314.4314730209845
-0.07761767578125,0.13782275390625,0.96412060546875,0.9770098039310634,0.07177734375,-0.20703125,-0.08935546875,45.00058823529412,314.33003799521026
-0.06052783203125,0.12756884765625,0.96265576171875,0.9729560858091456,0.08544921875,-0.31005859375,-0.00537109375,45.84764705882353,314.33003799521026
-0.05466845703125,0.12659228515625,0.96412060546875,0.9739316139979683,0.037109375,-0.34228515625,-0.15283203125,45.84764705882353,314.33003799521026
-0.07957080078125,0.13245166015625,0.97144482421875,0.9836564446576428,0.05810546875,-0.37060546875,-0.05615234375,45.14176470588235,314.33003799521026
-0.10300830078125,0.13879931640625,0.98023388671875,0.9953564351208212,0.0498046875,-0.38916015625,-0.06640625,46.17705882352941,314.33003799521026
-0.10447314453125,0.14221728515625,0.96412060546875,0.9801372026481244,0.005859375,-0.34033203125,-0.27490234375,45.89470588235295,314.6298062323908
-0.10252001953125,0.14124072265625,0.96802685546875,0.9836337169139048,0.0107421875,-0.31689453125,-0.38525390625,45.7535294117647,314.6298062323908
-0.09421923828125,0.12708056640625,0.97876904296875,0.9914714190002628,0.02685546875,-0.427734375,-0.30126953125,45.70647058823529,314.6298062323908
-0.08738330078125,0.11487353515625,0.98218701171875,0.992735159205983,0.005859375,-0.47509765625,-0.22509765625,45.7535294117647,314.6298062323908
-0.08738330078125,0.11682666015625,0.98755810546875,0.9982761749414422,-0.00048828125,-0.3955078125,-0.26171875,45.84764705882353,314.6190399268478
-0.09373095703125,0.12561572265625,0.99292919921875,1.0052229587239012,-0.02587890625,-0.23681640625,-0.3583984375,45.61235294117647,314.6190399268478
-0.08835986328125,0.12952197265625,1.00122998046875,1.0134322279409222,-0.02001953125,0.078125,-0.3935546875,45.70647058823529,314.6190399268478
-0.08738330078125,0.13635791015625,0.98951123046875,1.0026773140653906,-0.01171875,0.275390625,-0.26904296875,46.17705882352941,314.6190399268478
-0.07517626953125,0.13147509765625,0.98511669921875,0.9966905657645208,-0.0087890625,0.3369140625,-0.12548828125,45.00058823529412,314.6190399268478
-0.06541064453125,0.12854541015625,0.97925732421875,0.98982189404271,-0.0068359375,0.25537109375,-0.11474609375,45.61235294117647,314.5867410916553
-0.05759814453125,0.12659228515625,0.97681591796875,0.9866673656869652,-0.0029296875,0.2490234375,-0.23095703125,45.565294117647056,314.5867410916553
-0.05125048828125,0.12903369140625,0.96753857421875,0.9774493330440414,0.0205078125,-0.0087890625,-0.34375,45.89470588235295,314.5867410916553
-0.05173876953125,0.13098681640625,0.97046826171875,0.9806340262035906,0.0146484375,-0.14013671875,-0.3525390625,45.61235294117647,314.5867410916553
-0.06785205078125,0.13049853515625,0.96949169921875,0.9805855002635964,0.009765625,-0.16796875,-0.2197265625,45.89470588235295,314.2516493728106
-0.07957080078125,0.12756884765625,0.96900341796875,0.9805982598722236,0.03125,-0.07177734375,-0.18603515625,45.565294117647056,314.2516493728106
-0.07517626953125,0.12268603515625,0.96753857421875,0.9781790364367084,0.02783203125,0.06494140625,-0.22216796875,45.7535294117647,314.2516493728106
-0.06492236328125,0.12415087890625,0.96363232421875,0.973763631620347,0.0283203125,0.03173828125,-0.2666015625,46.17705882352941,314.2516493728106
-0.06931689453125,0.12708056640625,0.95435498046875,0.965270807064576,-0.0283203125,-0.14208984375,-0.24365234375,45.7535294117647,314.2516493728106
-0.07615283203125,0.13391650390625,0.95337841796875,0.965744941324286,-0.0771484375,-0.2451171875,-0.11572265625,46.17705882352941,314.57597484039513
-0.07712939453125,0.13928759765625,0.95972607421875,0.9728433151833548,-0.08544921875,-0.263671875,-0.125,45.61235294117647,314.57597484039513
-0.07273486328125,0.14514697265625,0.97681591796875,0.9902158055721731,-0.08203125,-0.13720703125,-0.00439453125,45.89470588235295,314.57597484039513
-0.08543017578125,0.14905322265625,0.98072216796875,0.9956561398713684,-0.05908203125,0.05224609375,-0.02734375,45.565294117647056,314.57597484039513
-0.10056689453125,0.15442431640625,0.97925732421875,0.9964464244550548,-0.01708984375,0.19873046875,-0.01708984375,46.27117647058824,314.6451149834098
-0.09861376953125,0.15540087890625,0.97388623046875,0.991124865293283,-0.01171875,0.32421875,0.03466796875,46.17705882352941,314.6451149834098
-0.09128955078125,0.15198291015625,0.97144482421875,0.9874905739108616,0.00927734375,0.28857421875,0.04052734375,45.61235294117647,314.6451149834098
-0.08396533203125,0.15247119140625,0.96997998046875,0.9854738980318636,0.0048828125,0.06884765625,0.0419921875,45.70647058823529,314.6451149834098
-0.08787158203125,0.15002978515625,0.96851513671875,0.9839979275466204,0.001953125,-0.12841796875,0.02197265625,45.7535294117647,314.6451149834098
-0.09714892578125,0.14807666015625,0.96363232421875,0.979771334211565,-0.0263671875,-0.46240234375,0.1240234375,45.61235294117647,314.4422392770311
-0.10252001953125,0.15198291015625,0.97486279296875,0.9919509183921764,-0.05419921875,-0.53271484375,0.04296875,45.00058823529412,314.4422392770311
-0.09128955078125,0.14954150390625,0.99146435546875,1.0068257106557466,-0.04345703125,-0.43798828125,0.06591796875,45.7535294117647,314.4422392770311
-0.07224658203125,0.15002978515625,0.98755810546875,1.001498635409083,-0.05078125,-0.3125,0.03955078125,45.61235294117647,314.4422392770311
-0.06589892578125,0.14563525390625,0.99244091796875,1.0052319489839725,-0.02392578125,-0.20947265625,0.0068359375,44.85941176470588,314.6743850989376
-0.07468798828125,0.14417041015625,0.98511669921875,0.9984078895109788,-0.021484375,-0.138671875,0.0068359375,44.85941176470588,314.6743850989376
-0.08250048828125,0.14368212890625,0.98560498046875,0.9994338708781496,-0.01806640625,-0.072265625,0.0048828125,45.61235294117647,314.6743850989376
-0.08689501953125,0.14514697265625,0.98951123046875,1.0038679511342066,-0.0205078125,0.03125,0.01806640625,45.7535294117647,314.6743850989376
-0.07322314453125,0.14661181640625,0.98951123046875,1.002990094083069,0.00439453125,0.12109375,0.00341796875,45.7535294117647,314.6743850989376
-0.07224658203125,0.14221728515625,0.98169873046875,0.9945741411359776,0.01123046875,0.14453125,0.0126953125,46.27117647058824,314.2546741694244
-0.07175830078125,0.14026416015625,0.99244091796875,1.0048692770773746,0.0517578125,0.203125,0.064453125,45.70647058823529,314.2546741694244
-0.08005908203125,0.14417041015625,0.99390576171875,1.0074935369311488,0.05615234375,0.31298828125,0.10009765625,44.85941176470588,314.2546741694244
-0.08298876953125,0.14270556640625,0.99634716796875,1.009930539032753,0.08837890625,0.48828125,0.138671875,45.61235294117647,314.2546741694244
-0.08738330078125,0.14124072265625,0.99585888671875,1.0096136415721582,0.12109375,0.64013671875,0.16259765625,45.70647058823529,314.58825508353823
-0.09177783203125,0.15051806640625,0.99390576171875,1.009419398438905,0.12060546875,0.85791015625,0.171875,45.61235294117647,314.58825508353823
-0.09470751953125,0.15686572265625,1.00171826171875,1.018339749327828,0.1318359375,0.9267578125,0.1689453125,44.81235294117647,314.58825508353823
-0.09324267578125,0.15881884765625,1.00074169921875,1.017546839960175,0.11962890625,0.93994140625,0.181640625,45.61235294117647,314.58825508353823
-0.07859423828125,0.15833056640625,0.99488232421875,1.010463488500419,0.1171875,0.89453125,0.185546875,45.565294117647056,314.58825508353823
