AccX,AccY,AccZ,Magnitude,GyroX,GyroY,GyroZ,Temperature,Altitude
0.19533154296875,1.05090869140625,-0.3561918945312501,1.1266925734562692,-1.7626953125,2.10302734375,2.08349609375,43.63588235294118,327.7072720714193
0.16994091796875,1.00208056640625,-0.3410551757812501,1.0720839566453326,-1.703125,1.14892578125,2.046875,43.63588235294118,327.7072720714193
0.14357373046875,0.96790087890625,-0.3220122070312501,1.030115230906398,-1.69189453125,0.2060546875,2.11181640625,43.87117647058824,327.7072720714193
0.08400341796875,0.95471728515625,-0.2990629882812501,1.003982240762387,-1.72119140625,-0.55517578125,2.43115234375,43.54176470588236,327.7072720714193
0.00734326171875,0.93469775390625,-0.2702543945312501,0.9730114348832244,-1.833984375,-0.66357421875,3.0966796875,43.82411764705883,327.7072720714193
-0.03904345703125,0.92688525390625,-0.2028715820312501,0.9496302144738586,-1.75634765625,-0.3251953125,3.97412109375,43.777058823529416,327.6075853116285
-0.02781298828125,0.92688525390625,-0.1462309570312501,0.9387615932814156,-1.48828125,0.23291015625,4.666015625,43.87117647058824,327.6075853116285
0.01417919921875,0.92981494140625,-0.1179106445312501,0.9373685481423878,-1.21142578125,0.69775390625,5.2294921875,43.54176470588236,327.6075853116285
0.07130810546875,0.91418994140625,-0.0998442382812501,0.9223865603920453,-1.017578125,0.970703125,5.49365234375,43.68294117647059,327.6075853116285
0.09621044921875,0.87463916015625,-0.0764067382812501,0.8832259624085353,-0.95263671875,1.24072265625,5.55810546875,43.63588235294118,327.4839791588277
0.11427685546875,0.82922900390625,-0.0739653320312501,0.8403277997053711,-1.0546875,1.31298828125,5.54345703125,43.68294117647059,327.4839791588277
0.10841748046875,0.80432666015625,-0.0568754882812501,0.813591142697934,-1.38671875,1.2900390625,5.6787109375,43.63588235294118,327.4839791588277
0.11476513671875,0.76770556640625,-0.0202543945312501,0.776500556210388,-1.7685546875,1.43310546875,6.09765625,43.49470588235295,327.4839791588277
0.19923779296875,0.80676806640625,0.0305268554687498,0.8315661729680615,-2.06298828125,1.79736328125,6.310546875,43.777058823529416,327.4839791588277
0.33595654296875,0.88684619140625,0.0905854492187498,0.9526639961631002,-1.93115234375,2.5205078125,6.1953125,43.63588235294118,327.71695832826634
0.46535107421875,1.00061572265625,0.1037690429687498,1.1084004064335615,-1.43359375,3.267578125,5.9560546875,43.63588235294118,327.71695832826634
0.52150341796875,1.07629931640625,0.0637299804687498,1.197684242135713,-0.8828125,4.015625,5.83544921875,43.82411764705883,327.71695832826634
0.58986279296875,1.11780322265625,-0.0202543945312501,1.2640539543893765,-0.56201171875,4.59521484375,5.72607421875,43.777058823529416,327.71695832826634
0.69777294921875,1.13684619140625,-0.0749418945312501,1.336009969697929,-0.40185546875,4.5302734375,5.33837890625,43.87117647058824,328.10602647233577
0.74025341796875,1.11047900390625,-0.1140043945312501,1.3394535239803849,-0.24609375,3.91064453125,4.576171875,43.82411764705883,328.10602647233577
0.72023388671875,1.03918994140625,-0.1555083007812501,1.2739055763712608,-0.212890625,3.138671875,3.8203125,43.777058823529416,328.10602647233577
0.63820263671875,0.98743212890625,-0.1848051757812501,1.1901587153428876,0.0146484375,2.68505859375,3.4697265625,43.777058823529416,328.10602647233577
0.58156201171875,0.91858447265625,-0.2350981445312501,1.112332209567608,0.22265625,2.13330078125,3.68310546875,43.82411764705883,328.10602647233577
0.51417919921875,0.87268603515625,-0.2829497070312501,1.0516756636791786,0.09033203125,1.4482421875,3.982421875,43.63588235294118,327.8861393814916
0.44240185546875,0.86926806640625,-0.2995512695312501,1.0203319734643412,-0.1220703125,0.8818359375,4.14306640625,43.63588235294118,327.8861393814916
0.42238232421875,0.88977587890625,-0.2516997070312501,1.0165926839277568,-0.259765625,0.6728515625,4.11279296875,43.82411764705883,327.8861393814916
0.44289013671875,0.89514697265625,-0.2131254882812501,1.0212062718244164,-0.12255859375,0.958984375,4.2080078125,43.82411764705883,327.8861393814916
0.47316357421875,0.87463916015625,-0.2092192382812501,1.0161939372547346,0.31689453125,1.30859375,4.4736328125,43.777058823529416,327.7864507895857
0.49122998046875,0.87512744140625,-0.2409575195312501,1.032092756796709,0.451171875,1.31103515625,4.78173828125,43.63588235294118,327.7864507895857
0.50197216796875,0.87268603515625,-0.2761137695312501,1.043932846066613,0.701171875,1.115234375,5.34521484375,43.68294117647059,327.7864507895857
0.55324169921875,0.85120166015625,-0.2902739257812501,1.0558785896094611,0.89892578125,0.52685546875,5.7490234375,43.63588235294118,327.7864507895857
0.59865185546875,0.83069384765625,-0.2761137695312501,1.06050701379806,0.9130859375,-0.2509765625,5.3759765625,43.63588235294118,327.7864507895857
0.59376904296875,0.79358447265625,-0.2590239257812501,1.0244175836817009,0.7744140625,-0.86083984375,5.15771484375,43.30647058823529,327.8428456301928
0.53761669921875,0.80627978515625,-0.2145903320312501,0.9925562038654308,0.42578125,-0.9912109375,5.205078125,43.82411764705883,327.8428456301928
0.47414013671875,0.87463916015625,-0.1789458007812501,1.0108531690328464,0.2265625,-1.06005859375,5.52734375,43.87117647058824,327.8428456301928
0.46339794921875,0.98254931640625,-0.1755278320312501,1.1004321143660445,0.1005859375,-1.12060546875,5.89697265625,43.82411764705883,327.8428456301928
0.50636669921875,1.00598681640625,-0.1935942382812501,1.1427578212187268,0.09375,-1.07421875,6.314453125,44.01235294117648,327.6542926076652
0.57716748046875,1.00061572265625,-0.2238676757812501,1.1766353985824296,0.02001953125,-1.216796875,6.35400390625,43.82411764705883,327.6542926076652
0.63869091796875,0.93469775390625,-0.2551176757812501,1.1604615497073485,-0.12451171875,-1.56005859375,6.048828125,43.82411764705883,327.6542926076652
0.68556591796875,0.83069384765625,-0.2585356445312501,1.1076522811367604,-0.12255859375,-1.94482421875,5.7470703125,43.777058823529416,327.6542926076652
0.72462841796875,0.77502978515625,-0.2448637695312501,1.0889057707792211,-0.6591796875,-2.81689453125,5.13037109375,43.82411764705883,327.6542926076652
0.79738232421875,0.80969775390625,-0.2141020507812501,1.1564033516926775,-1.1826171875,-3.27783203125,4.81201171875,43.87117647058824,327.8092363750419
0.54689404296875,0.89124072265625,-0.1926176757812501,1.0632519405008911,-0.8623046875,-2.341796875,4.55712890625,43.68294117647059,327.8092363750419
0.51124951171875,0.89368212890625,-0.2038481445312501,1.0495703296053585,-0.349609375,-1.18359375,4.5751953125,43.777058823529416,327.8092363750419
0.52150341796875,0.92493212890625,-0.1701567382812501,1.075369040664018,0.2392578125,-0.00732421875,4.703125,43.96529411764706,327.8092363750419
0.62697216796875,0.89075244140625,-0.2399809570312501,1.1154034566094295,1.19140625,1.15478515625,4.91259765625,43.87117647058824,327.7744889739435
0.83107373046875,0.87122119140625,-0.3034575195312501,1.24169093416624,2.470703125,2.2685546875,4.8828125,43.82411764705883,327.7744889739435
0.98048779296875,0.76624072265625,-0.3967192382812501,1.306088554134044,3.64404296875,2.904296875,4.65380859375,43.68294117647059,327.7744889739435
1.06300732421875,0.60950244140625,-0.4841215820312501,1.317517173934111,3.49072265625,0.833984375,4.41064453125,43.82411764705883,327.7744889739435
1.00490185546875,0.64172900390625,-0.4538481445312501,1.275782893706254,2.9716796875,-1.8662109375,4.494140625,43.54176470588236,327.7744889739435
1.04298779296875,0.43909228515625,-0.4230864257812501,1.2081505265677432,1.072265625,-5.9580078125,4.35693359375,43.82411764705883,327.9544980302102
0.81496044921875,0.44446337890625,-0.2609770507812501,0.9642703199902332,-1.32275390625,-9.31103515625,4.58154296875,43.777058823529416,327.9544980302102
0.46681591796875,0.64319384765625,-0.0427153320312501,0.795889456220145,-2.00244140625,-9.01806640625,5.3251953125,43.87117647058824,327.9544980302102
0.53322216796875,0.64905322265625,0.1325776367187499,0.8503956702686616,-1.630859375,-7.296875,6.01416015625,43.777058823529416,327.9544980302102
0.73878857421875,0.55188525390625,0.1721284179687499,0.9380906582776336,-1.23681640625,-4.8251953125,6.09326171875,43.87117647058824,327.6662545468664
0.71583935546875,0.54553759765625,0.1042573242187498,0.9060390957059864,-0.99609375,-1.2978515625,6.0205078125,43.777058823529416,327.6662545468664
0.69484326171875,0.52698291015625,-0.0202543945312501,0.8723120923445513,-0.64697265625,1.48193359375,6.21484375,43.777058823529416,327.6662545468664
0.67140576171875,0.55823291015625,-0.1540434570312501,0.886644836168795,-0.46630859375,2.04296875,6.95703125,43.68294117647059,327.6662545468664
0.72951123046875,0.51868212890625,-0.2551176757812501,0.9307538958944928,-0.58056640625,0.70849609375,7.404296875,43.777058823529416,327.6662545468664
0.86671826171875,0.38831103515625,-0.2482817382812501,0.9816464876852812,-1.21240234375,-1.88427734375,7.65869140625,43.82411764705883,327.6326457915546
0.93068310546875,0.49768603515625,-0.1789458007812501,1.0704597292807176,-1.96240234375,-4.1552734375,8.81884765625,43.63588235294118,327.6326457915546
0.88283154296875,0.67151416015625,-0.0969145507812501,1.113425000035507,-2.2333984375,-3.91552734375,9.6171875,43.82411764705883,327.6326457915546
0.92482373046875,0.84485400390625,-0.0290434570312501,1.2529647811294948,-1.4794921875,-1.87548828125,9.18115234375,43.82411764705883,327.6326457915546
1.04249951171875,1.02698291015625,0.0100190429687498,1.4634204832886692,-0.482421875,-0.20361328125,8.2255859375,43.68294117647059,327.94253495317184
1.28273388671875,1.07239306640625,-0.0090239257812501,1.6719792296106122,0.470703125,0.748046875,6.14306640625,43.82411764705883,327.94253495317184
1.39747998046875,1.07043994140625,-0.0978911132812501,1.763058318385469,1.00244140625,1.93017578125,3.416015625,43.63588235294118,327.94253495317184
1.34523388671875,1.00696337890625,-0.1701567382812501,1.6889590794383509,1.29248046875,2.18603515625,1.93798828125,43.63588235294118,327.94253495317184
1.22365185546875,0.94690478515625,-0.1633208007812501,1.5558361801654272,1.453125,1.607421875,1.232421875,43.96529411764706,327.94253495317184
1.06007763671875,0.87268603515625,-0.1555083007812501,1.3818568462180942,1.88720703125,1.0859375,0.90185546875,43.63588235294118,327.83544183928166
0.98927685546875,0.74817431640625,-0.0983793945312501,1.244231493639521,2.80517578125,0.92236328125,0.38818359375,43.777058823529416,327.83544183928166
0.94972607421875,0.61340869140625,-0.0974028320312501,1.134785067945201,2.939453125,0.90087890625,0.130859375,43.82411764705883,327.83544183928166
1.10695263671875,0.33850634765625,-0.1042387695312501,1.162237672946268,3.021484375,1.6005859375,0.9658203125,43.82411764705883,327.83544183928166
1.17433544921875,0.26477587890625,-0.1506254882812501,1.213201570664309,2.85888671875,1.98974609375,1.35986328125,43.96529411764706,327.767082089231
1.00929638671875,0.48596728515625,-0.2018950195312501,1.1382464572302364,3.1416015625,3.0869140625,1.57958984375,43.68294117647059,327.767082089231
0.99269482421875,0.70520556640625,-0.2390043945312501,1.2409194194331492,4.54443359375,4.62548828125,1.06884765625,43.68294117647059,327.767082089231
0.80763623046875,1.06799853515625,-0.3249418945312501,1.3778549947956156,7.990234375,7.8916015625,0.3134765625,43.87117647058824,327.767082089231
1.36622998046875,0.43127978515625,-0.4186918945312501,1.4926116424449565,10.47265625,10.2294921875,-1.1044921875,44.01235294117648,327.767082089231
1.46144482421875,-0.42418896484375,-0.4802153320312501,1.595733065787906,7.06884765625,2.9814453125,-1.6357421875,43.82411764705883,327.9123450338788
0.93947216796875,-0.44079052734375,-0.3625395507812501,1.09924481771103,3.337890625,-2.1103515625,2.14990234375,43.63588235294118,327.9123450338788
0.87941357421875,-0.17809521484375,-0.1350004882812501,0.9073650158048931,1.19921875,-3.833984375,4.3994140625,43.82411764705883,327.9123450338788
0.90089794921875,0.06702197265625,-0.0080473632812501,0.9034233889938122,-0.00634765625,-3.2607421875,4.36328125,43.87117647058824,327.9123450338788
0.85890576171875,0.25549853515625,0.1091401367187498,0.9027237553225476,-1.04296875,-0.72900390625,3.34716796875,43.82411764705883,327.8667714032523
0.86232373046875,0.34583056640625,0.1189057617187498,0.9366640683619316,-0.97998046875,2.642578125,3.00341796875,43.82411764705883,327.8667714032523
1.00783154296875,0.29016650390625,-0.0095122070312501,1.048814331077981,-0.591796875,5.29736328125,3.06787109375,43.96529411764706,327.8667714032523
1.09572216796875,0.23450244140625,-0.2053129882812501,1.139189135991301,-0.060546875,6.4248046875,3.16845703125,43.82411764705883,327.8667714032523
1.07863232421875,0.19495166015625,-0.3913481445312501,1.163875943077815,0.3349609375,5.57080078125,3.40234375,43.63588235294118,327.8667714032523
1.03224560546875,0.20715869140625,-0.5226958007812501,1.175438902533453,0.38330078125,2.97119140625,3.95947265625,43.87117647058824,328.1020456781775
1.03712841796875,0.27502978515625,-0.5436918945312501,1.2028622590556393,0.244140625,-0.14599609375,4.17041015625,43.777058823529416,328.1020456781775
1.01564404296875,0.34485400390625,-0.4074614257812501,1.1473804597986534,0.34130859375,-2.19482421875,3.8212890625,43.87117647058824,328.1020456781775
0.91261669921875,0.38001025390625,-0.2536528320312501,1.0205962923528051,0.58544921875,-2.2109375,3.53369140625,43.68294117647059,328.1020456781775
0.87111279296875,0.39710009765625,-0.1433012695312501,0.9680192350783572,0.85009765625,-0.86474609375,3.35546875,43.87117647058824,327.9567787083082
0.89650341796875,0.39563525390625,-0.0895903320312501,0.9840081606148312,1.11669921875,0.99462890625,3.41259765625,43.82411764705883,327.9567787083082
0.93312451171875,0.41711962890625,-0.1066801757812501,1.0276627847178088,1.34326171875,2.0693359375,3.4287109375,43.777058823529416,327.9567787083082
0.92238232421875,0.41614306640625,-0.1428129882812501,1.0219392121701762,1.53955078125,2.2666015625,3.35107421875,43.777058823529416,327.9567787083082
0.97072216796875,0.35315478515625,-0.1745512695312501,1.0476106029244254,1.7412109375,1.89697265625,2.93603515625,43.82411764705883,327.9567787083082
1.00587841796875,0.25354541015625,-0.2004301757812501,1.056526820345948,1.82958984375,1.5263671875,2.3916015625,43.87117647058824,327.7021424418783
1.03419873046875,0.13440478515625,-0.2336333007812501,1.0687451424965702,1.88134765625,1.359375,1.9521484375,43.777058823529416,327.7021424418783
1.04640576171875,0.04211962890625,-0.2634184570312501,1.0798742356414113,1.69287109375,1.14892578125,1.89599609375,43.87117647058824,327.7021424418783
1.06398388671875,0.0167290039062499,-0.2600004882812501,1.0954185614071554,1.46337890625,0.8349609375,2.15673828125,43.777058823529416,327.7021424418783
1.08058544921875,0.05042041015625,-0.2267973632812501,1.1052801340904213,1.28369140625,0.8671875,2.4921875,44.01235294117648,327.83430151451296
1.05568310546875,0.10608447265625,-0.2316801757812501,1.0860002018236137,1.10009765625,1.20361328125,2.642578125,43.87117647058824,327.83430151451296
1.07033154296875,0.16711962890625,-0.2512114257812501,1.112045755660565,0.92529296875,1.56396484375,2.4462890625,43.96529411764706,327.83430151451296
1.05324169921875,0.18079150390625,-0.2604887695312501,1.0999354726118202,0.81005859375,1.671875,2.27734375,43.82411764705883,327.83430151451296
0.99415966796875,0.18176806640625,-0.2683012695312501,1.045647477218246,0.7294921875,1.71630859375,2.7451171875,43.82411764705883,327.83430151451296
0.92580029296875,0.20911181640625,-0.2619536132812501,0.9846083636313716,0.7900390625,1.68603515625,3.16943359375,43.68294117647059,327.6468864499233
0.91408154296875,0.22180712890625,-0.2477934570312501,0.9726998853589232,0.9677734375,1.45751953125,3.19091796875,43.96529411764706,327.6468864499233
0.95314404296875,0.17737353515625,-0.2287504882812501,0.9961283669836684,1.14306640625,1.29150390625,3.15576171875,43.82411764705883,327.6468864499233
0.98488232421875,0.12903369140625,-0.2136137695312501,1.0160087246720868,1.353515625,1.2275390625,3.0830078125,43.82411764705883,327.6468864499233
0.98244091796875,0.10559619140625,-0.2248442382812501,1.013358596167744,1.46533203125,1.072265625,3.06591796875,43.54176470588236,327.74771574316816
0.97121044921875,0.11096728515625,-0.2121489257812501,1.0002852801859945,1.5634765625,0.99462890625,3.24951171875,43.777058823529416,327.74771574316816
0.93800732421875,0.13684619140625,-0.2111723632812501,0.9711737163886816,1.6806640625,1.009765625,3.20068359375,43.447647058823534,327.74771574316816
0.90724560546875,0.17151416015625,-0.1843168945312501,0.941533012371901,1.91552734375,1.24169921875,3.1708984375,43.87117647058824,327.74771574316816
0.89210888671875,0.15393603515625,-0.2092192382812501,0.9291540552293684,2.06005859375,1.4423828125,2.91943359375,43.87117647058824,327.74771574316816
0.90724560546875,0.13098681640625,-0.2067778320312501,0.939685695610052,1.88720703125,1.63330078125,2.568359375,43.777058823529416,327.92430903829853
0.89357373046875,0.09192431640625,-0.1916411132812501,0.918504440942052,1.86474609375,1.81103515625,2.30322265625,43.82411764705883,327.92430903829853
0.87453076171875,0.06555712890625,-0.1867583007812501,0.8966495710440661,1.77587890625,1.92529296875,2.47802734375,43.68294117647059,327.92430903829853
0.93458935546875,0.07190478515625,-0.1511137695312501,0.9494540182788233,1.734375,2.21044921875,2.8701171875,43.87117647058824,327.92430903829853
1.00831982421875,0.10999072265625,-0.1496489257812501,1.0252812433525045,1.7509765625,2.66748046875,3.00439453125,43.63588235294118,327.66853292973667
1.05470654296875,0.11487353515625,-0.1828520507812501,1.0765856646525138,1.9443359375,3.095703125,2.95068359375,43.447647058823534,327.66853292973667
1.05031201171875,0.12268603515625,-0.2180083007812501,1.0796919951507358,1.96240234375,3.06396484375,2.7783203125,43.87117647058824,327.66853292973667
1.03664013671875,0.10803759765625,-0.2277739257812501,1.0668532499033807,1.953125,2.67333984375,2.54736328125,43.68294117647059,327.66853292973667
1.00831982421875,0.08801806640625,-0.2097075195312501,1.0336504688115689,1.859375,2.3046875,2.21435546875,43.82411764705883,327.66853292973667
0.96046826171875,0.08460009765625,-0.1926176757812501,0.9832385403938636,1.68359375,2.171875,2.29541015625,43.82411764705883,327.879875345378
0.99513623046875,0.09094775390625,-0.1716215820312501,1.0139139897205551,1.552734375,2.28271484375,2.4677734375,43.777058823529416,327.879875345378
1.00392529296875,0.13049853515625,-0.1677153320312501,1.02616971994825,1.38232421875,2.4189453125,2.48486328125,43.96529411764706,327.879875345378
1.00148388671875,0.17249072265625,-0.1540434570312501,1.0278387088516896,1.404296875,2.40869140625,2.45654296875,43.777058823529416,327.879875345378
0.99025341796875,0.13342822265625,-0.1867583007812501,1.0165055756417165,1.533203125,2.32861328125,2.5400390625,43.54176470588236,327.738033452995
1.06496044921875,0.13977587890625,-0.1813872070312501,1.08930224162021,1.53173828125,2.31689453125,2.4140625,43.68294117647059,327.738033452995
1.11330029296875,0.11829150390625,-0.1818754882812501,1.1342438518494382,1.5712890625,2.2275390625,2.23095703125,43.82411764705883,327.738033452995
1.12013623046875,0.08557666015625,-0.1887114257812501,1.139140264318943,1.62451171875,2.29052734375,2.01171875,43.68294117647059,327.738033452995
1.06886669921875,0.06262744140625,-0.1955473632812501,1.0884103033333197,1.61328125,2.2451171875,1.75927734375,43.63588235294118,327.738033452995
1.01466748046875,0.04309619140625,-0.2014067382812501,1.035360831719849,1.4736328125,1.82958984375,1.79638671875,43.68294117647059,327.8029722547372
1.04640576171875,0.05139697265625,-0.1545317382812501,1.0590027030620128,1.43798828125,1.24267578125,1.8779296875,43.82411764705883,327.8029722547372
1.00978466796875,0.06311572265625,-0.1154692382812501,1.018323040641049,1.3818359375,1.13427734375,1.998046875,43.96529411764706,327.8029722547372
0.98390576171875,0.06555712890625,-0.0949614257812501,0.9906492605762104,1.23974609375,1.54443359375,2.07470703125,43.96529411764706,327.8029722547372
0.96535107421875,0.05432666015625,-0.0930083007812501,0.9713416631202652,1.0244140625,1.9462890625,2.029296875,43.54176470588236,328.0348233930092
0.92335888671875,0.0211235351562499,-0.1008208007812501,0.9290870095368676,0.732421875,1.9970703125,2.166015625,43.87117647058824,328.0348233930092
0.88429638671875,-0.00719677734375,-0.0886137695312501,0.8887543492543427,0.43994140625,1.76220703125,2.44580078125,43.63588235294118,328.0348233930092
0.84474560546875,-0.00768505859375,-0.0617583007812501,0.8470349967975005,0.23779296875,1.26513671875,2.55615234375,43.63588235294118,328.0348233930092
0.85744091796875,-0.06579052734375,-0.0124418945312501,0.8600512322151443,-0.03564453125,0.96142578125,2.65087890625,43.777058823529416,328.0348233930092
0.95265576171875,-0.10143505859375,0.0720307617187498,0.9607447642748996,-0.111328125,1.099609375,2.48583984375,43.82411764705883,327.3825716857236
1.00001904296875,-0.14782177734375,0.1452729492187499,1.0212705782171116,0.0380859375,1.57373046875,2.25439453125,43.777058823529416,327.3825716857236
1.01222607421875,-0.20104443359375,0.1862885742187499,1.0486772251230545,0.0478515625,2.1416015625,2.46337890625,43.63588235294118,327.3825716857236
1.04298779296875,-0.20934521484375,0.2155854492187499,1.0854151469251985,0.00244140625,2.87548828125,2.83251953125,43.82411764705883,327.3825716857236
1.10304638671875,-0.21081005859375,0.2268159179687499,1.1456865508076794,0.2275390625,3.5966796875,3.04931640625,43.777058823529416,327.758538916969
1.12355419921875,-0.21471630859375,0.2326752929687499,1.1673109798662509,0.2978515625,3.91552734375,3.24609375,43.87117647058824,327.758538916969
1.10597607421875,-0.21959912109375,0.2390229492187499,1.1526225839287962,0.24658203125,4.1318359375,3.50634765625,43.68294117647059,327.758538916969
1.13771435546875,-0.23375927734375,0.2346284179687499,1.1849421289254864,0.2705078125,4.39794921875,3.71923828125,43.82411764705883,327.758538916969
1.15333935546875,-0.25377880859375,0.3513276367187499,1.232082164827783,0.30712890625,4.68115234375,3.99462890625,43.82411764705883,327.758538916969
1.19093701171875,-0.24596630859375,0.2473237304687499,1.2409671303051508,0.455078125,4.873046875,4.279296875,43.68294117647059,328.02628376355324
1.22951123046875,-0.21032177734375,0.2795502929687499,1.278311965903757,0.6982421875,5.01171875,4.25,43.96529411764706,328.02628376355324
1.20558544921875,-0.13512646484375,0.2893159179687499,1.2471564205260082,0.98291015625,5.2529296875,4.150390625,43.82411764705883,328.02628376355324
1.21681591796875,-0.07409130859375,0.3127534179687499,1.2585488471578692,1.306640625,5.8525390625,3.8681640625,43.777058823529416,328.02628376355324
1.22706982421875,-0.03209912109375,0.3454682617187499,1.2751780373493735,1.55712890625,6.3232421875,3.408203125,43.54176470588236,327.9038039823232
1.28761669921875,-0.03600537109375,0.3933198242187499,1.346830960060711,1.7705078125,6.7578125,3.1220703125,43.63588235294118,327.9038039823232
1.34962841796875,-0.06481396484375,0.4231049804687499,1.4158797763669977,2.00830078125,7.3876953125,2.97021484375,43.87117647058824,327.9038039823232
1.36281201171875,-0.08532177734375,0.4445893554687499,1.4360348463634582,2.21044921875,8.408203125,2.71875,43.82411764705883,327.9038039823232
1.34132763671875,-0.12780224609375,0.4309174804687499,1.4146317959475003,2.35009765625,9.2421875,2.24658203125,43.777058823529416,327.9038039823232
1.26271435546875,-0.19420849609375,0.4172456054687499,1.3439711227347264,2.40185546875,9.42822265625,1.51708984375,43.54176470588236,327.52669157781
1.21486279296875,-0.26207958984375,0.4045502929687499,1.3069958900829035,2.28955078125,8.998046875,1.13427734375,43.63588235294118,327.52669157781
1.14113232421875,-0.31969677734375,0.4123627929687499,1.2547637561891298,2.07080078125,8.23974609375,1.0478515625,43.82411764705883,327.52669157781
1.08449169921875,-0.34166943359375,0.4567963867187499,1.2253665518717047,1.92236328125,7.46728515625,1.35205078125,43.777058823529416,327.52669157781
1.04884716796875,-0.33532177734375,0.4948823242187499,1.2072404859601051,1.82177734375,6.91015625,1.7353515625,44.01235294117648,327.6047338891967
1.00392529296875,-0.31920849609375,0.5334565429687499,1.1808200290802124,1.72119140625,6.470703125,2.12939453125,44.388823529411766,327.6047338891967
0.96925732421875,-0.29332958984375,0.5739838867187499,1.1640272810558852,1.64208984375,6.21728515625,2.689453125,43.82411764705883,327.6047338891967
0.92580029296875,-0.26793896484375,0.5969331054687499,1.1336783510974924,1.517578125,5.91748046875,3.150390625,43.777058823529416,327.6047338891967
0.90382763671875,-0.19274365234375,0.6472260742187499,1.128253563506016,1.54833984375,5.6884765625,3.1748046875,43.777058823529416,327.6047338891967
0.85548779296875,-0.11852490234375,0.6921479492187499,1.106786474439338,1.6474609375,5.35107421875,3.109375,43.49470588235295,327.4714360066975
0.81154248046875,-0.04772412109375,0.7458588867187499,1.1032607435402002,1.75927734375,5.27197265625,3.0537109375,43.82411764705883,327.4714360066975
0.85744091796875,0.0274711914062499,0.8020112304687499,1.174385630005055,1.9912109375,5.53271484375,2.57861328125,44.01235294117648,327.4714360066975
0.85011669921875,0.07043994140625,0.8278901367187499,1.1887229559960928,2.27001953125,5.91162109375,1.77734375,43.82411764705883,327.4714360066975
0.82423779296875,0.11096728515625,0.8581635742187499,1.195042425125085,2.47802734375,6.36279296875,1.037109375,44.388823529411766,327.5494779642306
0.81496044921875,0.11047900390625,0.8654877929687499,1.193915936686022,2.5947265625,6.6875,0.5576171875,43.87117647058824,327.5494779642306
0.78566357421875,0.10168994140625,0.8772065429687499,1.1819896002353714,2.76708984375,7.0595703125,0.1767578125,43.82411764705883,327.5494779642306
0.75148388671875,0.06067431640625,0.8742768554687499,1.1544563329453437,2.93212890625,7.35400390625,-0.134765625,43.63588235294118,327.5494779642306
0.74415966796875,0.01526416015625,0.8674409179687499,1.1430049659485753,2.9794921875,7.4453125,-0.376953125,43.777058823529416,327.5494779642306
0.72609326171875,-0.03112255859375,0.8586518554687499,1.1249280187046289,2.888671875,7.4560546875,-0.51708984375,43.87117647058824,327.62638013900084
0.69630810546875,-0.06627880859375,0.8430268554687499,1.0954141396073065,2.84375,7.49853515625,-0.50341796875,43.82411764705883,327.62638013900084
0.66701123046875,-0.09997021484375,0.8108002929687499,1.054654038301448,2.62060546875,7.37109375,-0.5009765625,44.01235294117648,327.62638013900084
0.64894482421875,-0.11754833984375,0.7946870117187499,1.0327024952399422,2.35107421875,6.73046875,-0.41748046875,43.777058823529416,327.62638013900084
0.60499951171875,-0.13073193359375,0.7898041992187499,1.0034470194009537,2.111328125,5.80810546875,-0.28369140625,43.87117647058824,327.7163872945886
0.58205029296875,-0.12536083984375,0.7746674804687499,0.9770402187254826,1.87158203125,5.29443359375,-0.05419921875,43.82411764705883,327.7163872945886
0.58107373046875,-0.10973583984375,0.7414643554687499,0.9483976092429648,1.7392578125,4.7890625,-0.00537109375,43.777058823529416,327.7163872945886
0.56447216796875,-0.08532177734375,0.6750581054687499,0.884088276055901,1.68798828125,4.27490234375,-0.1787109375,43.82411764705883,327.7163872945886
0.56740185546875,-0.06774365234375,0.6379487304687499,0.8564535309804852,1.42529296875,4.1396484375,-0.16064453125,43.87117647058824,327.7163872945886
0.59962841796875,-0.03893505859375,0.5847260742187499,0.8384359011246332,1.234375,3.73291015625,-0.29638671875,43.777058823529416,327.738033452995
0.62062451171875,-0.01452099609375,0.5524995117187499,0.8310483465618282,1.11083984375,3.30615234375,-0.4482421875,43.87117647058824,327.738033452995
0.62257763671875,-0.00377880859375,0.5324799804687499,0.8192387458712462,1.087890625,2.85107421875,-0.505859375,43.30647058823529,327.738033452995
0.63624951171875,-0.02331005859375,0.5212495117187499,0.8228352529279643,1.1796875,2.388671875,-0.8173828125,44.57705882352941,327.738033452995
0.66847607421875,-0.04235302734375,0.4929291992187499,0.8316448978804176,1.27978515625,2.0947265625,-1.2353515625,43.82411764705883,328.0490723071753
0.68410107421875,-0.08581005859375,0.4650971679687499,0.8316688172317525,1.169921875,2.1796875,-1.5478515625,44.01235294117648,328.0490723071753
0.69923779296875,-0.12291943359375,0.4411713867187499,0.8358677351891036,1.12744140625,2.3125,-1.5966796875,43.68294117647059,328.0490723071753
0.70949169921875,-0.17907177734375,0.4221284179687499,0.8447707227160269,1.0322265625,2.32763671875,-1.43701171875,43.82411764705883,328.0490723071753
0.68361279296875,-0.22350537109375,0.4309174804687499,0.8384336447160415,0.9345703125,2.17431640625,-1.27880859375,43.82411764705883,328.0490723071753
0.65138623046875,-0.23229443359375,0.4597260742187499,0.8304292796135696,1.0703125,1.72119140625,-1.2880859375,43.82411764705883,327.67309514103715
0.61085888671875,-0.24303662109375,0.4797456054687499,0.8138619198872221,1.16650390625,1.001953125,-1.2421875,43.777058823529416,327.67309514103715
0.57570263671875,-0.25866162109375,0.5007416992187499,0.8056560118861206,1.087890625,0.5390625,-1.0107421875,43.63588235294118,327.67309514103715
0.53273388671875,-0.25622021484375,0.5119721679687499,0.7820292151369188,1.0009765625,0.3349609375,-0.70751953125,43.82411764705883,327.67309514103715
0.49464794921875,-0.22887646484375,0.5056245117187499,0.7434495118543771,0.90673828125,0.4794921875,-0.42333984375,43.87117647058824,327.87361906841545
0.47072216796875,-0.16735302734375,0.4860932617187499,0.697045948461571,0.68115234375,0.806640625,-0.0849609375,43.82411764705883,327.87361906841545
0.46193310546875,-0.12682568359375,0.4738862304687499,0.6738212725752329,0.3818359375,0.97021484375,0.18212890625,43.68294117647059,327.87361906841545
0.43947216796875,-0.08971630859375,0.4841401367187499,0.6599821773570042,0.1728515625,1.0791015625,0.55078125,43.96529411764706,327.87361906841545
0.41505810546875,-0.07018505859375,0.4934174804687499,0.6485830582101612,0.07421875,1.255859375,1.16748046875,43.82411764705883,327.87361906841545
0.40187451171875,-0.07946240234375,0.5485932617187499,0.6846692364628635,0.10107421875,1.4033203125,1.6953125,43.82411764705883,327.651449145902
0.39943310546875,-0.09752880859375,0.6013276367187499,0.7284597455809639,0.30810546875,1.59423828125,1.97900390625,43.87117647058824,327.651449145902
0.43458935546875,-0.10631787109375,0.6149995117187499,0.760523370459417,0.55908203125,1.6884765625,1.81787109375,43.777058823529416,327.651449145902
0.48244091796875,-0.10094677734375,0.6193940429687499,0.7915734152002531,0.77978515625,1.3515625,1.53955078125,43.96529411764706,327.651449145902
0.52980419921875,-0.10875927734375,0.6433198242187499,0.8404650297014141,1.01611328125,0.626953125,1.45166015625,43.777058823529416,327.7522817037312
0.58107373046875,-0.09166943359375,0.6579682617187499,0.8825940169327355,1.265625,-0.173828125,1.375,43.87117647058824,327.7522817037312
0.57228466796875,-0.06872021484375,0.6789643554687499,0.8906316888127036,1.27099609375,-0.90283203125,1.44384765625,43.777058823529416,327.7522817037312
0.56935498046875,-0.03698193359375,0.7170502929687499,0.9163481215365006,1.017578125,-1.2880859375,1.77587890625,43.63588235294118,327.7522817037312
0.62355419921875,-0.00231396484375,0.7409760742187499,0.9684372650622576,0.6123046875,-1.35546875,2.16455078125,43.87117647058824,327.7522817037312
0.69923779296875,0.03235400390625,0.7463471679687499,1.0232372001738148,0.39453125,-1.0400390625,2.20703125,43.63588235294118,327.98413425404806
0.81105419921875,0.0260063476562499,0.7522065429687499,1.1064808753312383,0.26025390625,-0.955078125,1.7880859375,43.63588235294118,327.98413425404806
0.85109326171875,-0.01452099609375,0.7751557617187499,1.1512762719679368,0.06689453125,-1.4052734375,1.68115234375,43.777058823529416,327.98413425404806
0.85499951171875,-0.01696240234375,0.8005463867187499,1.17140360483525,-0.00048828125,-1.822265625,1.798828125,43.54176470588236,327.98413425404806
0.87111279296875,0.03528369140625,0.8464448242187499,1.2151342631165407,0.21435546875,-2.2392578125,1.76806640625,43.87117647058824,327.6611308425609
0.86915966796875,0.07678759765625,0.8435151367187499,1.2136114079271905,0.51025390625,-2.84619140625,1.8583984375,43.87117647058824,327.6611308425609
0.96437451171875,0.10852587890625,0.8059174804687499,1.2614670231798568,0.6376953125,-3.97021484375,1.3408203125,43.87117647058824,327.6611308425609
1.02296826171875,0.12366259765625,0.8049409179687499,1.3075497634749305,0.69677734375,-5.302734375,0.76123046875,43.68294117647059,327.6611308425609
1.03419873046875,0.08069384765625,0.8054291992187499,1.313314397281512,0.50732421875,-6.052734375,0.35498046875,44.57705882352941,327.6611308425609
1.01955029296875,0.03333056640625,0.8352143554687499,1.318399312094293,0.10693359375,-5.69189453125,0.271484375,43.68294117647059,327.9613455101922
1.03664013671875,-0.02965771484375,0.8962495117187499,1.3706806850474402,-0.01806640625,-5.201171875,0.1279296875,43.54176470588236,327.9613455101922
1.07667919921875,-0.12926708984375,0.90845654296875,1.4146523845135006,0.04638671875,-4.8818359375,-0.28515625,43.87117647058824,327.9613455101922
1.09328076171875,-0.22545849609375,0.8708588867187499,1.4157999710348232,-0.0361328125,-4.4072265625,-0.67041015625,43.54176470588236,327.9613455101922
1.08888623046875,-0.28844677734375,0.8391206054687499,1.404634527835152,-0.15185546875,-4.03759765625,-0.302734375,43.82411764705883,327.80753881884453
1.16701123046875,-0.29186474609375,0.8278901367187499,1.4603089811847167,-0.2060546875,-4.0341796875,0.3115234375,43.63588235294118,327.80753881884453
1.18996044921875,-0.26403271484375,0.8303315429687499,1.4748456246202568,-0.23779296875,-4.41748046875,1.16943359375,43.82411764705883,327.80753881884453
1.21290966796875,-0.22692333984375,0.7326752929687499,1.4350808861331648,-0.08984375,-4.8779296875,1.98095703125,43.82411764705883,327.80753881884453
1.26271435546875,-0.21129833984375,0.8962495117187499,1.5628044404798969,0.1318359375,-5.67919921875,2.25244140625,44.01235294117648,327.80753881884453
1.32765576171875,-0.24450146484375,0.93531201171875,1.6423335066913507,0.11376953125,-5.99365234375,1.83203125,43.96529411764706,327.8086815943844
1.35988232421875,-0.28795849609375,0.94849560546875,1.6828083505820544,-0.02734375,-5.43603515625,1.64892578125,43.82411764705883,327.8086815943844
1.34132763671875,-0.27868115234375,0.96460888671875,1.6754979313726217,-0.021484375,-4.40673828125,1.560546875,43.87117647058824,327.8086815943844
1.26906201171875,-0.27672802734375,0.97486279296875,1.624024093361929,0.06298828125,-3.509765625,1.501953125,43.63588235294118,327.8086815943844
1.20363232421875,-0.30163037109375,0.96167919921875,1.569884879499258,0.1494140625,-2.7958984375,1.37548828125,43.82411764705883,328.1305504266321
1.11964794921875,-0.34459912109375,0.93921826171875,1.5014962629305235,0.2060546875,-2.33203125,1.5849609375,43.777058823529416,328.1305504266321
1.12892529296875,-0.35582958984375,0.8918549804687499,1.482056787137343,0.041015625,-2.18408203125,1.859375,43.63588235294118,328.1305504266321
1.12306591796875,-0.29821240234375,0.8747651367187499,1.4544489463137562,0.091796875,-2.18408203125,2.0693359375,43.777058823529416,328.1305504266321
1.10597607421875,-0.21471630859375,0.8322846679687499,1.4007083702385363,0.1650390625,-2.11865234375,2.3427734375,43.87117647058824,328.1305504266321
1.09328076171875,-0.11364208984375,0.8225190429687499,1.372849199502485,0.55908203125,-1.634765625,2.6015625,43.87117647058824,327.8844420283663
1.09669873046875,-0.14000927734375,0.7717377929687499,1.348306316921479,0.93603515625,-1.10693359375,2.66748046875,43.87117647058824,327.8844420283663
1.18068310546875,-0.23717724609375,0.7209565429687499,1.403582551349723,0.83740234375,-0.60498046875,2.3447265625,43.63588235294118,327.8844420283663
1.12550732421875,-0.34313427734375,0.7033784179687499,1.3708570560136786,0.57861328125,-0.0009765625,2.1875,43.777058823529416,327.8844420283663
1.08449169921875,-0.40612255859375,0.6823823242187499,1.344136680058724,0.263671875,0.2841796875,2.107421875,43.96529411764706,327.840007676384
1.01369091796875,-0.43541943359375,0.6652924804687499,1.2883219492392777,-0.0537109375,0.08154296875,2.28369140625,43.63588235294118,327.840007676384
0.94386669921875,-0.40612255859375,0.6662690429687499,1.2246364015949085,-0.478515625,-0.916015625,2.52880859375,43.54176470588236,327.840007676384
0.86622998046875,-0.28063427734375,0.6755463867187499,1.1337869717420015,-0.6494140625,-1.62109375,2.39453125,43.82411764705883,327.840007676384
0.83595654296875,-0.21276318359375,0.6867768554687499,1.1026123358790956,-0.72607421875,-1.9267578125,2.376953125,43.82411764705883,327.840007676384
0.89796826171875,-0.19567333984375,0.6989838867187499,1.1546486603604802,-0.97705078125,-2.21728515625,2.23583984375,43.82411764705883,327.7294935896043
0.96828076171875,-0.18102490234375,0.7395112304687499,1.2317526167102757,-1.20068359375,-2.240234375,2.0703125,43.82411764705883,327.7294935896043
1.04933544921875,-0.20641552734375,0.7751557617187499,1.3208250110599398,-1.32763671875,-2.21875,1.7294921875,44.01235294117648,327.7294935896043
1.06740185546875,-0.24840771484375,0.8215424804687499,1.3696660764824289,-1.4453125,-2.11376953125,1.50048828125,43.82411764705883,327.7294935896043
1.06154248046875,-0.29381787109375,0.8566987304687499,1.3953974681074128,-1.5107421875,-2.162109375,1.38134765625,43.777058823529416,327.997243896816
1.00587841796875,-0.29625927734375,0.90552685546875,1.385474589129183,-1.62451171875,-2.36962890625,1.52880859375,43.777058823529416,327.997243896816
0.90187451171875,-0.25280224609375,0.96607373046875,1.3455798241723846,-1.67919921875,-2.447265625,1.8486328125,43.63588235294118,327.997243896816
0.84083935546875,-0.21422802734375,1.02759716796875,1.3449388123710655,-1.5986328125,-2.21875,2.07470703125,43.68294117647059,327.997243896816
0.86183544921875,-0.18932568359375,1.06031201171875,1.3794441337703345,-1.47900390625,-1.96240234375,1.861328125,43.87117647058824,327.997243896816
0.87697216796875,-0.18541943359375,1.08179638671875,1.404899986498605,-1.41943359375,-1.59814453125,1.71240234375,44.01235294117648,327.730635881617
0.89113232421875,-0.18297802734375,1.09205029296875,1.4213274148243444,-1.3564453125,-1.12744140625,1.6015625,43.87117647058824,327.730635881617
0.92287060546875,-0.14196240234375,1.09351513671875,1.4379217059181255,-1.16845703125,-0.47705078125,1.208984375,43.777058823529416,327.730635881617
0.91261669921875,0.0284477539062499,1.09839794921875,1.4283404948551983,-0.64599609375,1.81494140625,0.54296875,43.87117647058824,327.9864210431382
0.92531201171875,0.04260791015625,1.05249951171875,1.4020602609043202,-0.51220703125,2.00146484375,0.4521484375,43.87117647058824,327.9864210431382
0.80324169921875,0.06506884765625,1.05787060546875,1.329857661636747,-0.3271484375,2.37060546875,0.27294921875,43.96529411764706,327.9864210431382
0.91896435546875,0.06458056640625,1.04126904296875,1.3902903855038715,-0.1962890625,2.61181640625,0.087890625,43.96529411764706,327.9864210431382
0.86427685546875,0.06848681640625,1.00562451171875,1.3277596113340655,0.19970703125,3.119140625,-0.42724609375,43.68294117647059,327.9864210431382
0.77736279296875,0.05188525390625,0.94312451171875,1.2233024303375768,0.67138671875,3.650390625,-1.04248046875,43.82411764705883,327.9864210431382
0.74074169921875,0.0196586914062499,0.8967377929687499,1.1632813066699526,0.9921875,3.962890625,-1.6259765625,43.68294117647059,327.9864210431382
0.71779248046875,-0.01940380859375,0.8586518554687499,1.1193237072917517,1.11328125,3.92822265625,-2.3642578125,43.82411764705883,327.9864210431382
0.68507763671875,-0.04918896484375,0.8049409179687499,1.0581497077516588,1.15576171875,3.99658203125,-2.74462890625,43.63588235294118,327.9864210431382
0.66115185546875,-0.05602490234375,0.7736909179687499,1.0192439365626489,1.103515625,4.3369140625,-2.97802734375,43.82411764705883,327.9864210431382
0.62697216796875,-0.05651318359375,0.7341401367187499,0.9670830262540856,1.0263671875,4.748046875,-3.17138671875,43.777058823529416,328.26500392160244
0.67238232421875,-0.04381787109375,0.6701752929687499,0.9503435794778362,0.84716796875,5.021484375,-3.1533203125,43.82411764705883,328.26500392160244
0.43556591796875,0.00842822265625,0.6223237304687499,0.7596548751490011,0.6357421875,5.14501953125,-2.85205078125,43.82411764705883,328.26500392160244
0.35597607421875,0.04797900390625,0.5441987304687499,0.6520530718245472,0.37890625,5.267578125,-2.70654296875,43.777058823529416,328.26500392160244
0.31593701171875,0.10608447265625,0.4987885742187499,0.5998834490829877,0.0732421875,5.55810546875,-2.70458984375,43.68294117647059,328.26500392160244
0.36232373046875,0.14563525390625,0.4690034179687499,0.6102887176636147,-0.10498046875,6.08349609375,-2.7685546875,43.777058823529416,327.9431297644859
0.46388623046875,0.16418994140625,0.4270112304687499,0.6515269469668388,-0.15869140625,6.63671875,-2.86962890625,43.96529411764706,327.9431297644859
0.53322216796875,0.13879931640625,0.3693940429687499,0.6633574373058124,-0.111328125,6.82958984375,-2.87548828125,43.777058823529416,327.9431297644859
0.52150341796875,0.08997119140625,0.3137299804687499,0.6152130776252005,-0.142578125,6.47021484375,-2.58154296875,43.87117647058824,327.9431297644859
0.45021435546875,0.05090869140625,0.2873627929687499,0.5365277583812784,-0.15966796875,5.654296875,-2.0078125,43.82411764705883,327.9214842067904
0.41652294921875,0.0289360351562499,0.2834565429687499,0.5046546077350764,0.0087890625,4.85498046875,-1.5361328125,43.777058823529416,327.9214842067904
0.46046826171875,0.0025688476562499,0.2883393554687499,0.5433021285994584,0.21435546875,4.05615234375,-1.64111328125,43.82411764705883,327.9214842067904
0.46486279296875,-0.02379833984375,0.3098237304687499,0.5591551852818663,0.3857421875,3.7763671875,-2.1064453125,43.777058823529416,327.9214842067904
0.45314404296875,-0.04772412109375,0.3313081054687499,0.5633668220276444,0.4384765625,4.0390625,-2.38525390625,43.777058823529416,327.9214842067904
0.42384716796875,-0.07604443359375,0.3674409179687499,0.566075971821311,0.38720703125,4.56396484375,-2.35693359375,43.87117647058824,328.1208723011628
0.39699169921875,-0.08141552734375,0.3991791992187499,0.5688364707279007,0.361328125,4.9765625,-2.2158203125,43.82411764705883,328.1208723011628
0.37941357421875,-0.07360302734375,0.4314057617187499,0.5792089408665464,0.31640625,5.2412109375,-2.0712890625,43.63588235294118,328.1208723011628
0.35402294921875,-0.08678662109375,0.4714448242187499,0.5959231397227831,0.234375,5.31640625,-2.00244140625,43.82411764705883,328.1208723011628
0.33205029296875,-0.09801708984375,0.5075776367187499,0.6144101270804883,0.0458984375,4.95947265625,-1.8671875,43.96529411764706,328.2410680672318
0.33937451171875,-0.10338818359375,0.5583588867187499,0.6615352009447092,-0.24755859375,4.61962890625,-1.74755859375,43.87117647058824,328.2410680672318
0.35109326171875,-0.13268505859375,0.6096284179687499,0.7159040516671339,-0.638671875,4.37255859375,-1.2568359375,43.96529411764706,328.2410680672318
0.36671826171875,-0.13268505859375,0.6613862304687499,0.7678016372121844,-1.279296875,4.12353515625,-0.7001953125,43.87117647058824,328.2410680672318
0.40382763671875,-0.13805615234375,0.7512299804687499,0.8639923292095189,-1.72314453125,4.24853515625,-0.4267578125,43.777058823529416,328.2410680672318
0.47316357421875,-0.20055615234375,0.7893159179687499,0.9418737476802516,-1.619140625,4.76806640625,-0.18408203125,43.63588235294118,328.1208723011628
0.45265576171875,-0.24498974609375,0.7707612304687499,0.9268171819199098,-1.3369140625,5.12109375,0.3359375,43.63588235294118,328.1208723011628
0.30763623046875,-0.20641552734375,0.7878510742187499,0.8706071073528279,-0.615234375,5.74853515625,1.94287109375,43.82411764705883,328.1208723011628
0.66701123046875,-0.09215771484375,0.8474213867187499,1.0823677899147714,0.42529296875,5.3779296875,4.1376953125,43.82411764705883,328.1208723011628
1.04494091796875,-0.00817333984375,0.9001557617187499,1.379220330797454,1.3828125,4.58642578125,4.8994140625,43.777058823529416,328.2553269634998
1.26369091796875,0.0250297851562499,0.91089794921875,1.55797185474982,2.02880859375,3.92041015625,2.125,43.82411764705883,328.2553269634998
1.17970654296875,0.07092822265625,0.91871044921875,1.496919246250836,1.8193359375,3.43994140625,-0.986328125,43.777058823529416,328.2553269634998
0.90724560546875,0.0035454101562499,0.91626904296875,1.2894402342405806,1.49072265625,3.71533203125,-1.78955078125,44.01235294117648,328.2553269634998
0.68556591796875,-0.10094677734375,0.90113232421875,1.1367630999853529,1.4580078125,4.38623046875,-1.09326171875,43.96529411764706,328.2553269634998
0.60695263671875,-0.20543896484375,0.8498627929687499,1.0643605772333729,1.21337890625,4.76611328125,-0.6552734375,43.68294117647059,328.77661077074663
0.54738232421875,-0.28209912109375,0.8239838867187499,1.0286674722966234,0.9345703125,3.880859375,-0.80126953125,43.82411764705883,328.77661077074663
0.46925732421875,-0.35827099609375,0.8142182617187499,1.005739489475904,0.81201171875,2.59130859375,-0.681640625,43.87117647058824,328.77661077074663
0.39503857421875,-0.40172802734375,0.8435151367187499,1.014375999789001,0.669921875,1.07763671875,0.0498046875,43.777058823529416,328.77661077074663
0.37697216796875,-0.38122021484375,0.90699169921875,1.053598979726295,0.7685546875,0.33837890625,1.2333984375,43.82411764705883,328.4461927770181
0.43507763671875,-0.37243115234375,0.96216748046875,1.1197159343692704,1.2138671875,0.07470703125,2.22509765625,43.777058823529416,328.4461927770181
0.48390576171875,-0.40709912109375,1.00513623046875,1.187515609337762,1.35205078125,0.6484375,2.71728515625,43.30647058823529,328.4461927770181
0.49025341796875,-0.44225537109375,1.00513623046875,1.2025959707616856,1.4970703125,2.23779296875,2.76123046875,43.777058823529416,328.4461927770181
0.45412060546875,-0.45690380859375,0.95826123046875,1.1546649732447334,1.53564453125,3.8818359375,2.51123046875,43.68294117647059,328.4461927770181
0.39455029296875,-0.45397412109375,0.8566987304687499,1.046754580162579,1.39111328125,5.2724609375,2.36328125,43.82411764705883,328.3778154804782
0.35255810546875,-0.43151318359375,0.7492768554687499,0.9337647731029832,1.14306640625,6.0869140625,2.3271484375,43.82411764705883,328.3778154804782
0.33449169921875,-0.39782177734375,0.6482026367187499,0.8308510827003396,0.78564453125,5.97265625,2.4228515625,43.87117647058824,328.3778154804782
0.34718701171875,-0.36168896484375,0.5734956054687499,0.7617446671214095,0.44677734375,5.310546875,2.5888671875,43.87117647058824,328.3778154804782
0.35451123046875,-0.33239208984375,0.5188081054687499,0.710861846084903,0.15283203125,4.6748046875,2.7109375,43.87117647058824,328.189244914472
0.35158154296875,-0.31579052734375,0.4924409179687499,0.682518348622391,-0.08935546875,4.11083984375,2.75732421875,44.01235294117648,328.189244914472
0.35060498046875,-0.29870068359375,0.5090424804687499,0.6864912218161596,-0.2373046875,3.7197265625,2.77978515625,43.68294117647059,328.189244914472
0.34474560546875,-0.28844677734375,0.5339448242187499,0.6979599925210626,-0.3056640625,3.5078125,2.77978515625,43.777058823529416,328.189244914472
0.35060498046875,-0.27916943359375,0.5774018554687499,0.7309256649491129,-0.31884765625,3.29443359375,2.78466796875,43.82411764705883,328.189244914472
0.35011669921875,-0.27184521484375,0.6584565429687499,0.7937547120386969,-0.189453125,2.796875,2.85400390625,43.82411764705883,328.3658462769573
0.38478466796875,-0.27379833984375,0.7473237304687499,0.8840348011966178,0.03125,2.1494140625,3.013671875,43.87117647058824,328.3658462769573
0.41115185546875,-0.27428662109375,0.8171479492187499,0.9549920259765684,0.240234375,1.78955078125,3.14013671875,43.87117647058824,328.3658462769573
0.40822216796875,-0.24743115234375,0.8918549804687499,1.011569483405948,0.2548828125,1.935546875,3.20361328125,43.82411764705883,328.3658462769573
0.36378857421875,-0.21032177734375,0.96265576171875,1.0503730253235997,0.6123046875,2.4306640625,3.2216796875,43.777058823529416,328.279265083362
0.30714794921875,-0.17956005859375,0.98951123046875,1.0515294349542736,0.76806640625,3.07177734375,2.97998046875,43.96529411764706,328.279265083362
0.25343701171875,-0.16979443359375,0.96949169921875,1.0163535917398094,0.78759765625,3.576171875,2.748046875,43.777058823529416,328.279265083362
0.23781201171875,-0.15465771484375,0.95435498046875,0.99562392017464,0.666015625,3.79931640625,2.36669921875,43.82411764705883,328.279265083362
0.25929638671875,-0.14293896484375,0.92310498046875,0.9694271343438936,0.634765625,3.701171875,2.3017578125,44.01235294117648,328.279265083362
0.28615185546875,-0.13366162109375,0.8967377929687499,0.9507297106328813,0.57666015625,3.47802734375,2.26171875,43.96529411764706,328.48718906824325
0.28956982421875,-0.12633740234375,0.8752534179687499,0.93052693029005,0.5830078125,3.33154296875,2.04150390625,43.96529411764706,328.48718906824325
0.29005810546875,-0.12926708984375,0.8606049804687499,0.9173247066728388,0.51171875,3.310546875,1.7373046875,43.82411764705883,328.48718906824325
0.26662060546875,-0.12389599609375,0.8654877929687499,0.914060110105732,0.4765625,3.2548828125,1.63525390625,43.63588235294118,328.48718906824325
0.22902294921875,-0.12829052734375,0.8532807617187499,0.8927474609285213,0.48193359375,3.05517578125,1.74560546875,43.87117647058824,328.67805887781253
0.21779248046875,-0.14489208984375,0.8449799804687499,0.8845442044584256,0.462890625,2.83935546875,1.74609375,43.777058823529416,328.67805887781253
0.19874951171875,-0.15563427734375,0.8527924804687499,0.8893696708550365,0.43994140625,2.54638671875,1.63037109375,43.96529411764706,328.67805887781253
0.17726513671875,-0.14928662109375,0.8625581054687499,0.8931494327621471,0.38134765625,2.15283203125,1.62646484375,43.68294117647059,328.67805887781253
0.15675732421875,-0.14147412109375,0.8811127929687499,0.9060615539623468,0.36767578125,1.73828125,1.75439453125,43.68294117647059,328.67805887781253
0.15968701171875,-0.14489208984375,0.8982026367187499,0.9237216225787228,0.42236328125,1.5732421875,1.76416015625,43.777058823529416,328.2997638367888
0.18019482421875,-0.15661083984375,0.8874604492187499,0.9190120667104084,0.4833984375,1.572265625,1.60498046875,43.63588235294118,328.2997638367888
0.17970654296875,-0.17467724609375,0.8908784179687499,0.925457150543005,0.55126953125,1.6875,1.48974609375,43.87117647058824,328.2997638367888
0.16749951171875,-0.20006787109375,0.8820893554687499,0.9198722033528786,0.748046875,1.8857421875,1.388671875,43.777058823529416,328.2997638367888
0.16017529296875,-0.21813427734375,0.8791596679687499,0.9198697783995446,0.61669921875,2.08349609375,1.2119140625,43.63588235294118,328.4786605078131
0.15578076171875,-0.21178662109375,0.8698823242187499,0.9087444506483636,0.52880859375,2.06591796875,1.07373046875,43.777058823529416,328.4786605078131
0.15382763671875,-0.21081005859375,0.8859956054687499,0.9236298152034248,0.419921875,1.859375,1.1015625,43.87117647058824,328.4786605078131
0.16603466796875,-0.22008740234375,0.90503857421875,0.9460976675068068,0.28076171875,1.64404296875,1.134765625,43.82411764705883,328.4786605078131
0.17970654296875,-0.22252880859375,0.92749951171875,0.9706023163368468,0.16064453125,1.6142578125,1.107421875,43.68294117647059,328.4786605078131
0.18361279296875,-0.23082958984375,0.95289013671875,0.9974946465746556,0.09521484375,1.8115234375,1.03125,43.82411764705883,328.5230985268738
0.16456982421875,-0.22448193359375,0.96412060546875,1.00349584326135,0.0419921875,2.03076171875,0.95947265625,43.82411764705883,328.5230985268738
0.14796826171875,-0.20348583984375,0.96851513671875,1.0006611132378052,0.0185546875,2.04248046875,0.9130859375,43.87117647058824,328.5230985268738
0.14406201171875,-0.17858349609375,0.96314404296875,0.99009715472963,0.013671875,2.013671875,0.861328125,43.49470588235295,328.5230985268738
0.13234326171875,-0.16442333984375,0.95581982421875,0.978846928777576,0.02734375,1.89697265625,0.7802734375,43.96529411764706,328.567536732798
0.11281201171875,-0.15221630859375,0.96363232421875,0.9820812649008068,0.0791015625,1.7060546875,0.77587890625,43.777058823529416,328.567536732798
0.09474560546875,-0.14147412109375,0.96167919921875,0.9766363391277764,0.142578125,1.5576171875,0.8505859375,43.82411764705883,328.567536732798
0.07863232421875,-0.13268505859375,0.96753857421875,0.9797546936796582,0.2392578125,1.4072265625,0.91162109375,43.68294117647059,328.567536732798
0.07765576171875,-0.12243115234375,0.97095654296875,0.981721148150616,0.34716796875,1.31005859375,0.99853515625,43.777058823529416,328.567536732798
0.07814404296875,-0.12243115234375,0.8527924804687499,0.8650727676096177,0.4345703125,1.24609375,1.11474609375,43.777058823529416,328.6119751255758
0.08888623046875,-0.12536083984375,0.97681591796875,0.9888303392040544,0.498046875,1.25537109375,1.1318359375,43.54176470588236,328.6119751255758
0.10206982421875,-0.12633740234375,0.96851513671875,0.9820391836888952,0.537109375,1.31640625,1.05712890625,43.87117647058824,328.6119751255758
0.10988232421875,-0.12877880859375,0.96265576171875,0.9774273488545564,0.55810546875,1.33837890625,0.9697265625,43.82411764705883,328.6119751255758
0.09865185546875,-0.13219677734375,0.96363232421875,0.9776479084040072,0.53857421875,1.29150390625,0.9501953125,43.82411764705883,328.56868491900144
0.09718701171875,-0.13317333984375,0.95630810546875,0.970415192727932,0.47900390625,1.232421875,0.83642578125,43.63588235294118,328.56868491900144
0.09621044921875,-0.13903271484375,0.95386669921875,0.9687353747098172,0.4189453125,1.21044921875,0.615234375,43.82411764705883,328.56868491900144
0.08302685546875,-0.14342724609375,0.96021435546875,0.9744108179301648,0.32958984375,1.2373046875,0.4365234375,43.87117647058824,328.56868491900144
0.06544873046875,-0.14782177734375,0.95972607421875,0.97324660375075,0.2958984375,1.34814453125,0.376953125,43.82411764705883,328.56868491900144
0.05324169921875,-0.14684521484375,0.95874951171875,0.9713901491569432,0.29248046875,1.45263671875,0.3984375,43.68294117647059,328.6131235232975
0.03956982421875,-0.13854443359375,0.95044873046875,0.9613080257223352,0.33935546875,1.46875,0.4765625,43.96529411764706,328.6131235232975
0.03810498046875,-0.13122021484375,0.94458935546875,0.9544211778795731,0.3876953125,1.49169921875,0.48876953125,43.777058823529416,328.6131235232975
0.04787060546875,-0.12975537109375,0.93238232421875,0.9425841340226238,0.40673828125,1.40283203125,0.42822265625,43.82411764705883,328.6131235232975
0.04591748046875,-0.13366162109375,0.92066357421875,0.9314479378146964,0.38720703125,1.16845703125,0.29345703125,43.87117647058824,328.63591731744543
0.03908154296875,-0.13366162109375,0.90552685546875,0.9161722992589056,0.34033203125,0.73388671875,0.22216796875,43.777058823529416,328.63591731744543
0.04298779296875,-0.13170849609375,0.91382763671875,0.9242705382725216,0.2734375,0.17822265625,0.3896484375,43.777058823529416,328.63591731744543
0.06447216796875,-0.12536083984375,0.93580029296875,0.9463583829233612,0.22509765625,-0.4306640625,0.55419921875,43.82411764705883,328.63591731744543
0.08351513671875,-0.11022412109375,0.96070263671875,0.9706048068757952,0.1748046875,-0.77880859375,0.57763671875,43.82411764705883,328.63591731744543
0.07667919921875,-0.10875927734375,0.99146435546875,1.0003548611199062,0.14697265625,-0.68115234375,0.35546875,43.68294117647059,328.2923820942681
0.06593701171875,-0.10192333984375,1.02173779296875,1.0289237942141078,0.201171875,-0.17919921875,0.09228515625,43.82411764705883,328.2923820942681
0.05910107421875,-0.11071240234375,1.02857373046875,1.0362017622147417,0.28857421875,0.37890625,-0.15625,43.82411764705883,328.2923820942681
0.05421826171875,-0.12243115234375,1.03199169921875,1.0406420490372397,0.36669921875,1.029296875,-0.39306640625,43.82411764705883,328.2923820942681
0.03468701171875,-0.11998974609375,1.00513623046875,1.012867004966865,0.45458984375,1.27099609375,-0.47314453125,43.82411764705883,328.3584647844078
0.01027294921875,-0.13463818359375,0.99097607421875,1.0001332679403685,0.5048828125,1.2607421875,-0.43798828125,43.82411764705883,328.3584647844078
0.00294873046875,-0.14684521484375,0.97974560546875,0.9906935265606672,0.5712890625,1.1845703125,-0.38330078125,44.15352941176471,328.3584647844078
0.00685498046875,-0.15075146484375,0.97681591796875,0.9884039318552384,0.5947265625,1.1875,-0.3046875,43.777058823529416,328.3584647844078
0.03566357421875,-0.14733349609375,0.97681591796875,0.9885081624318512,0.65966796875,1.18603515625,-0.19482421875,43.82411764705883,328.3584647844078
0.07667919921875,-0.15758740234375,0.95630810546875,0.9722338615557008,0.6171875,0.974609375,-0.13818359375,43.82411764705883,328.7116750450625
0.10499951171875,-0.16100537109375,0.95777294921875,0.976870845730076,0.48583984375,0.62158203125,-0.18896484375,43.87117647058824,328.7116750450625
0.10451123046875,-0.15758740234375,0.97046826171875,0.9887188850603368,0.39697265625,0.0908203125,-0.208984375,43.87117647058824,328.7116750450625
0.08058544921875,-0.16100537109375,0.98023388671875,0.9966319364833592,0.3876953125,0.12353515625,-0.2001953125,43.777058823529416,328.7116750450625
0.05714794921875,-0.16198193359375,0.98853466796875,1.0033468117688746,0.36474609375,0.55810546875,-0.2255859375,43.96529411764706,328.5253949301041
0.04689404296875,-0.15172802734375,1.00122998046875,1.013746476855547,0.341796875,1.1513671875,-0.25537109375,43.68294117647059,328.5253949301041
0.03761669921875,-0.14147412109375,0.99488232421875,1.005594740460721,0.31884765625,1.5537109375,-0.2783203125,43.54176470588236,328.5253949301041
0.04445263671875,-0.14147412109375,0.98511669921875,0.9962157772943284,0.23095703125,1.53271484375,-0.3095703125,43.82411764705883,328.5253949301041
0.04445263671875,-0.14586865234375,0.96851513671875,0.9804464649847892,0.1103515625,1.1923828125,-0.42138671875,43.68294117647059,328.5253949301041
0.02931591796875,-0.14831005859375,0.96802685546875,0.9797608327725436,0.0,0.81591796875,-0.5341796875,44.57705882352941,328.54703989734
0.00880810546875,-0.14879833984375,0.97290966796875,0.9842620335506536,-0.0283203125,0.6220703125,-0.5302734375,43.82411764705883,328.54703989734
-0.0053520507812499,-0.14293896484375,0.98804638671875,0.9983465602816216,-0.06298828125,0.703125,-0.40771484375,43.82411764705883,328.54703989734
-0.01218798828125,-0.13219677734375,0.99537060546875,1.0041848322045313,-0.02001953125,0.8828125,-0.26416015625,43.68294117647059,328.54703989734
0.00831982421875,-0.11998974609375,0.99830029296875,1.0055198822420992,-0.00244140625,0.95751953125,-0.17236328125,43.82411764705883,328.4137251686556
0.02199169921875,-0.10973583984375,0.98316357421875,0.9895131141381244,-0.01953125,0.88330078125,-0.19580078125,43.40058823529412,328.4137251686556
0.04298779296875,-0.10729443359375,0.97242138671875,0.9792667660921328,0.0009765625,0.7197265625,-0.28466796875,43.82411764705883,328.4137251686556
0.03615185546875,-0.10680615234375,0.95826123046875,0.9648725805264612,-0.01708984375,0.5380859375,-0.35888671875,43.87117647058824,328.4137251686556
0.02443310546875,-0.11168896484375,0.96167919921875,0.9684514875411836,-0.05810546875,0.3828125,-0.30224609375,43.68294117647059,328.4137251686556
0.01955029296875,-0.12194287109375,0.96314404296875,0.9710297241958868,-0.07373046875,0.27783203125,-0.27587890625,43.68294117647059,328.6923281285122
0.00294873046875,-0.12633740234375,0.96802685546875,0.9762406604680324,-0.13671875,0.2138671875,-0.2880859375,43.87117647058824,328.6923281285122
-0.00828173828125,-0.12584912109375,0.97535107421875,0.98347155853573,-0.1513671875,0.21728515625,-0.40283203125,43.87117647058824,328.6923281285122
-0.01804736328125,-0.13024365234375,0.98218701171875,0.9909492632250416,-0.15966796875,0.31640625,-0.51025390625,43.68294117647059,328.6923281285122
-0.02439501953125,-0.14831005859375,0.98267529296875,0.9941034764395656,-0.1591796875,0.42919921875,-0.6025390625,43.777058823529416,328.2923820942681
-0.02683642578125,-0.14684521484375,0.99097607421875,1.0021563204137491,-0.19482421875,0.49560546875,-0.60986328125,44.57705882352941,328.2923820942681
-0.04197314453125,-0.14440380859375,0.98218701171875,0.9936324928197696,-0.21533203125,0.49365234375,-0.5439453125,43.96529411764706,328.2923820942681
-0.03904345703125,-0.14000927734375,0.99244091796875,1.003028396875146,-0.232421875,0.54443359375,-0.3232421875,43.68294117647059,328.2923820942681
-0.01707080078125,-0.13268505859375,0.99585888671875,1.0048042890384414,-0.17578125,0.71337890625,-0.10546875,43.63588235294118,328.2923820942681
1.904296875000072e-05,-0.12047802734375,1.00220654296875,1.0094220674250436,-0.11328125,0.93798828125,0.01708984375,43.54176470588236,328.5037500172787
0.00294873046875,-0.12487255859375,1.00464794921875,1.012383006954664,-0.06982421875,1.0205078125,0.02001953125,43.82411764705883,328.5037500172787
-0.01023486328125,-0.12926708984375,0.99683544921875,1.0052341248496317,-0.060546875,1.048828125,0.0185546875,43.777058823529416,328.5037500172787
-0.02488330078125,-0.13219677734375,0.99878857421875,1.007806421188001,-0.04638671875,1.0595703125,-0.06201171875,43.777058823529416,328.5037500172787
-0.04197314453125,-0.14245068359375,0.99390576171875,1.0049391052675265,-0.03466796875,1.080078125,-0.15283203125,43.87117647058824,328.3584647844078
-0.04929736328125,-0.14147412109375,0.99292919921875,1.0041680893291325,-0.02392578125,1.0771484375,-0.1533203125,43.87117647058824,328.3584647844078
-0.03562548828125,-0.14342724609375,0.98365185546875,0.99469167238116,-0.0341796875,1.06640625,-0.06103515625,43.777058823529416,328.3584647844078
-0.03220751953125,-0.14489208984375,0.97974560546875,0.9909250695430872,-0.09033203125,1.10302734375,0.02392578125,43.82411764705883,328.3584647844078
-0.02976611328125,-0.13561474609375,0.97339794921875,0.9832501962375664,-0.10302734375,1.24755859375,0.072265625,43.96529411764706,328.3584647844078
-0.03123095703125,-0.13512646484375,0.97583935546875,0.9856454645864924,-0.1328125,1.06298828125,0.09912109375,43.777058823529416,328.58180506300306
-0.03953173828125,-0.13561474609375,0.97876904296875,0.9889099843583196,-0.11328125,0.884765625,0.150390625,43.82411764705883,328.58180506300306
-0.04832080078125,-0.14147412109375,0.97486279296875,0.9862592417018065,-0.1064453125,0.701171875,0.15478515625,43.87117647058824,328.58180506300306
-0.05515673828125,-0.14342724609375,0.97486279296875,0.9868997445610648,-0.0927734375,0.58984375,0.181640625,43.82411764705883,328.58180506300306
-0.05857470703125,-0.13952099609375,0.98218701171875,0.9937748390072052,-0.044921875,0.5703125,0.24560546875,44.01235294117648,328.22629962075763
-0.06003955078125,-0.13073193359375,0.99341748046875,1.0037797948853393,-0.02587890625,0.62109375,0.30224609375,43.87117647058824,328.22629962075763
-0.06394580078125,-0.11998974609375,0.98951123046875,0.9988088304720666,0.01025390625,0.6455078125,0.357421875,43.777058823529416,328.22629962075763
-0.06101611328125,-0.11852490234375,0.98169873046875,0.9907085928563965,0.0234375,0.60693359375,0.40673828125,43.82411764705883,328.22629962075763
-0.05857470703125,-0.11461865234375,0.97632763671875,0.9847761603479817,0.0048828125,0.53076171875,0.38623046875,43.87117647058824,328.22629962075763
-0.05320361328125,-0.11217724609375,0.97095654296875,0.9788620777929772,0.0048828125,0.43310546875,0.34814453125,43.96529411764706,328.5253949301041
-0.05173876953125,-0.11217724609375,0.96851513671875,0.9763617182515528,0.01416015625,0.42333984375,0.28955078125,43.82411764705883,328.5253949301041
-0.05027392578125,-0.12194287109375,0.96949169921875,0.9784230609905434,0.0224609375,0.4228515625,0.267578125,43.82411764705883,328.5253949301041
-0.05222705078125,-0.11657177734375,0.96314404296875,0.9715776302553376,0.0283203125,0.37255859375,0.232421875,43.96529411764706,328.5253949301041
-0.04539111328125,-0.11803662109375,0.95923779296875,0.9675381855739332,-0.0087890625,0.26806640625,0.21142578125,43.87117647058824,328.4940766453886
-0.06199267578125,-0.11559521484375,0.97046826171875,0.9792925980260976,-0.0380859375,0.109375,0.1640625,43.96529411764706,328.4940766453886
-0.06638720703125,-0.11706005859375,0.97925732421875,0.9884610389951888,-0.05615234375,-0.0234375,0.21484375,43.82411764705883,328.4940766453886
-0.05027392578125,-0.11901318359375,0.98853466796875,0.996941520480848,-0.02978515625,0.04931640625,0.3076171875,43.82411764705883,328.4940766453886
-0.03269580078125,-0.12926708984375,0.98267529296875,0.9916802545763516,0.07666015625,0.548828125,0.35107421875,43.96529411764706,328.4940766453886
-0.02000048828125,-0.13707958984375,0.97290966796875,0.9827227765297202,0.1142578125,0.87060546875,0.2861328125,43.82411764705883,328.63591731744543
-0.02146533203125,-0.14098583984375,0.94947216796875,0.9601224740953298,0.07373046875,0.6328125,0.14208984375,43.68294117647059,328.63591731744543
-0.05466845703125,-0.14000927734375,0.93580029296875,0.9477939788038828,0.0166015625,0.373046875,0.0751953125,43.30647058823529,328.63591731744543
-0.06931689453125,-0.13707958984375,0.94605419921875,0.9584436309343484,-0.0390625,-0.04150390625,0.10791015625,43.82411764705883,328.63591731744543
-0.06834033203125,-0.13414990234375,0.94556591796875,0.957476632876784,-0.08984375,-0.1396484375,0.0693359375,43.82411764705883,328.3151748601676
-0.07712939453125,-0.13073193359375,0.96021435546875,0.9721375367766564,-0.11376953125,-0.142578125,0.0361328125,43.82411764705883,328.3151748601676
-0.08445361328125,-0.13463818359375,0.96900341796875,0.9819508527990608,-0.0791015625,-0.19775390625,0.05224609375,43.96529411764706,328.3151748601676
-0.08103564453125,-0.13219677734375,0.96900341796875,0.9813309266805912,-0.07861328125,-0.208984375,0.041015625,43.63588235294118,328.3151748601676
-0.07761767578125,-0.13414990234375,0.97779248046875,0.9899994114916189,-0.0908203125,-0.2119140625,0.01171875,43.777058823529416,328.3151748601676
-0.08396533203125,-0.12389599609375,0.98755810546875,0.9988350246703442,-0.09033203125,-0.23291015625,0.015625,43.82411764705883,328.58180506300306
-0.08445361328125,-0.12877880859375,0.98706982421875,0.9990111271764286,-0.1064453125,-0.287109375,0.0595703125,43.777058823529416,328.58180506300306
-0.07371142578125,-0.12536083984375,0.99195263671875,1.002556107133319,-0.087890625,-0.30126953125,0.13525390625,43.96529411764706,328.58180506300306
-0.06443408203125,-0.11998974609375,0.99781201171875,1.007064099660529,-0.07275390625,-0.224609375,0.15478515625,43.777058823529416,328.58180506300306
-0.06003955078125,-0.12047802734375,1.00318310546875,1.0121739207411842,-0.07421875,-0.0576171875,0.1572265625,43.82411764705883,328.5709826529287
-0.05564501953125,-0.11803662109375,0.98414013671875,0.9927541593056473,-0.04052734375,0.08203125,0.12353515625,43.82411764705883,328.5709826529287
-0.06150439453125,-0.12926708984375,0.98121044921875,0.9915980620792826,-0.05322265625,0.09228515625,0.12060546875,43.30647058823529,328.5709826529287
-0.06541064453125,-0.13170849609375,0.97486279296875,0.985892055691749,-0.04296875,0.02490234375,0.16357421875,43.82411764705883,328.5709826529287
-0.07175830078125,-0.13219677734375,0.96265576171875,0.9743363676068916,-0.0439453125,-0.09228515625,0.22509765625,43.68294117647059,328.5709826529287
-0.07322314453125,-0.12926708984375,0.95728466796875,0.968744313500604,-0.02587890625,-0.1875,0.2099609375,43.87117647058824,328.4160218758397
0.04738232421875,-0.12731396484375,0.96509716796875,0.9746109346369493,-0.0537109375,-0.24462890625,0.15478515625,43.82411764705883,328.4160218758397
0.04640576171875,-0.12877880859375,0.96167919921875,0.9713724097757456,-0.04541015625,-0.24462890625,0.0849609375,43.63588235294118,328.4160218758397
-0.07615283203125,-0.12926708984375,0.96363232421875,0.9752417600894056,-0.0517578125,-0.18505859375,0.05126953125,43.96529411764706,328.4160218758397
-0.07859423828125,-0.12682568359375,0.96802685546875,0.9794579119179894,-0.03857421875,-0.1240234375,0.0673828125,43.68294117647059,328.6273937828248
-0.08054736328125,-0.13561474609375,0.96167919921875,0.9745286652016194,-0.0322265625,-0.15576171875,0.06689453125,43.82411764705883,328.6273937828248
-0.08494189453125,-0.13756787109375,0.96949169921875,0.9828805621528404,-0.05908203125,-0.24609375,0.0693359375,43.87117647058824,328.6273937828248
-0.09275439453125,-0.13122021484375,0.97925732421875,0.9923542862932394,-0.09326171875,-0.37158203125,0.06494140625,43.87117647058824,328.6273937828248
-0.09128955078125,-0.13512646484375,0.98121044921875,0.994669236097645,-0.0673828125,-0.3603515625,0.09521484375,43.96529411764706,328.6273937828248
-0.07859423828125,-0.13659130859375,0.98902294921875,1.0014991931877513,-0.05224609375,-0.244140625,0.15234375,43.68294117647059,328.63936623168627
-0.06003955078125,-0.13170849609375,0.98706982421875,0.9976265400862816,-0.03369140625,-0.14306640625,0.140625,43.82411764705883,328.63936623168627
-0.05613330078125,-0.13268505859375,0.97925732421875,0.9897985548922018,-0.0263671875,-0.07666015625,0.09033203125,44.01235294117648,328.63936623168627
-0.05369189453125,-0.13707958984375,0.97828076171875,0.989296154970342,-0.0537109375,-0.14501953125,0.01171875,43.87117647058824,328.63936623168627
-0.06052783203125,-0.14147412109375,0.96802685546875,0.980180870196092,-0.048828125,-0.27880859375,0.009765625,43.96529411764706,328.3510877534273
-0.06541064453125,-0.14000927734375,0.96265576171875,0.974980648900592,-0.052734375,-0.42822265625,0.03564453125,43.87117647058824,328.3510877534273
-0.06687548828125,-0.12682568359375,0.96802685546875,0.9785872867867196,-0.068359375,-0.4931640625,0.04052734375,43.63588235294118,328.3510877534273
-0.06785205078125,-0.12389599609375,0.97193310546875,0.9821446330095236,-0.048828125,-0.4814453125,0.10107421875,43.87117647058824,328.3510877534273
-0.06638720703125,-0.11754833984375,0.98365185546875,0.992872522645554,-0.0498046875,-0.388671875,0.15234375,43.82411764705883,328.3510877534273
-0.05125048828125,-0.11706005859375,0.97046826171875,0.9788453998821524,-0.07958984375,-0.39208984375,0.16796875,43.82411764705883,328.1505426908484
-0.04490283203125,-0.12047802734375,0.96265576171875,0.9712040645340064,-0.07373046875,-0.53515625,0.12109375,43.87117647058824,328.1505426908484
-0.04587939453125,-0.23815380859375,0.96607373046875,0.9960525127181143,-0.07666015625,-0.7646484375,0.1240234375,43.82411764705883,328.1505426908484
-0.05125048828125,-0.24010693359375,0.97193310546875,1.0024629238106455,-0.08447265625,-0.9306640625,-0.13916015625,43.82411764705883,328.1505426908484
-0.05125048828125,-0.10729443359375,0.96949169921875,0.9767562965670246,-0.0712890625,-1.00390625,-0.18115234375,43.82411764705883,328.5852548859522
-0.05125048828125,-0.11168896484375,0.99146435546875,0.999050852350369,-0.0341796875,-0.927734375,-0.142578125,43.68294117647059,328.5852548859522
-0.05564501953125,-0.11217724609375,1.00367138671875,1.0114525966439307,-0.0048828125,-0.74560546875,-0.11279296875,43.68294117647059,328.5852548859522
-0.05955126953125,-0.10778271484375,1.00806591796875,1.015559137762076,0.0029296875,-0.5478515625,-0.103515625,44.01235294117648,328.5852548859522
-0.06199267578125,-0.11120068359375,1.00855419921875,1.0165580439128947,0.00390625,-0.359375,-0.1044921875,43.777058823529416,328.5852548859522
-0.06345751953125,-0.11803662109375,1.00904248046875,1.0179028578871443,0.0263671875,-0.20751953125,-0.0947265625,43.68294117647059,328.46160960074513
-0.05662158203125,-0.12096630859375,0.99195263671875,1.0009040337913522,0.05810546875,-0.14404296875,-0.111328125,44.01235294117648,328.46160960074513
-0.05320361328125,-0.13463818359375,0.98658154296875,0.9971465317967084,0.119140625,-0.10986328125,-0.15380859375,43.777058823529416,328.46160960074513
-0.05076220703125,-0.14489208984375,0.97535107421875,0.9873602368647636,0.13818359375,-0.19677734375,-0.20263671875,43.82411764705883,328.46160960074513
-0.04783251953125,-0.15075146484375,0.97193310546875,0.9847171754282404,0.13037109375,-0.43896484375,-0.15869140625,43.87117647058824,328.429142678549
-0.05759814453125,-0.15075146484375,0.97486279296875,0.9881300600228752,0.107421875,-0.62646484375,-0.0712890625,43.777058823529416,328.429142678549
-0.05564501953125,-0.14586865234375,0.98560498046875,0.9978933858183548,0.0986328125,-0.662109375,0.10498046875,43.63588235294118,328.429142678549
-0.03855517578125,-0.14879833984375,0.99927685546875,1.0110300101358476,0.1376953125,-0.51416015625,0.25439453125,43.82411764705883,328.429142678549
-0.03025439453125,-0.14977490234375,0.99976513671875,1.0113744006839371,0.216796875,-0.14013671875,0.3154296875,43.82411764705883,328.429142678549
-0.03171923828125,-0.15661083984375,0.98804638671875,1.0008839730666512,0.24658203125,0.03271484375,0.345703125,44.57705882352941,328.5060484781766
-0.04734423828125,-0.14977490234375,0.98072216796875,0.9932220139605428,0.25634765625,-0.0673828125,0.4990234375,43.63588235294118,328.5060484781766
-0.05320361328125,-0.14928662109375,0.96363232421875,0.9765778903820216,0.23046875,-0.1767578125,0.4296875,43.82411764705883,328.5060484781766
-0.04685595703125,-0.14733349609375,0.96997998046875,0.9822239063933832,0.18408203125,-0.25244140625,0.48828125,43.82411764705883,328.5060484781766
-0.03855517578125,-0.14928662109375,0.97339794921875,0.9855336444588688,0.216796875,-0.20361328125,0.48388671875,44.01235294117648,328.6621612898129
-0.02488330078125,-0.14489208984375,0.97339794921875,0.9844371304965734,0.19091796875,-0.24365234375,0.46240234375,43.68294117647059,328.6621612898129
-0.02195361328125,-0.14635693359375,0.96607373046875,0.977343729630919,0.169921875,-0.4306640625,0.4228515625,43.54176470588236,328.6621612898129
-0.02537158203125,-0.14977490234375,0.95728466796875,0.9692626961123016,0.13134765625,-0.59423828125,0.4169921875,43.777058823529416,328.6621612898129
-0.04099658203125,-0.14440380859375,0.97388623046875,0.9853870151221076,0.0859375,-0.71630859375,0.4541015625,43.68294117647059,328.6621612898129
-0.04392626953125,-0.14342724609375,0.98804638671875,0.9993680775294688,0.07568359375,-0.71826171875,0.48583984375,43.777058823529416,328.2861541207746
-0.04099658203125,-0.14049755859375,0.99292919921875,1.003657649983418,0.0654296875,-0.62451171875,0.52392578125,43.82411764705883,328.2861541207746
-0.04490283203125,-0.13952099609375,0.99292919921875,1.0036885808539453,0.06005859375,-0.49169921875,0.57421875,43.777058823529416,328.2861541207746
-0.03464892578125,-0.13610302734375,0.99781201171875,1.0076474546388468,0.0693359375,-0.43212890625,0.6015625,43.96529411764706,328.2861541207746
-0.03464892578125,-0.13219677734375,0.99439404296875,1.0037410267044002,0.06787109375,-0.46728515625,0.7490234375,43.82411764705883,328.6969300076529
-0.03709033203125,-0.12536083984375,0.98853466796875,0.9971418267591652,0.072265625,-0.51171875,0.67919921875,43.82411764705883,328.6969300076529
-0.03367236328125,-0.12340771484375,0.98755810546875,0.995808367010906,0.10595703125,-0.51708984375,0.73974609375,43.82411764705883,328.6969300076529
-0.01511767578125,-0.12145458984375,0.98658154296875,0.9941443066485568,0.130859375,-0.50537109375,0.7392578125,43.87117647058824,328.6969300076529
-0.0043754882812499,-0.12487255859375,0.99927685546875,1.007058357128802,0.15185546875,-0.3828125,0.68212890625,43.54176470588236,328.6969300076529
-0.0077934570312499,0.00842822265625,0.99634716796875,0.996413293783754,0.1513671875,-0.2216796875,0.58935546875,44.53,328.24171575463885
-0.01902392578125,-0.11364208984375,0.99488232421875,1.0015324624689343,0.13623046875,-0.16552734375,0.52978515625,43.30647058823529,328.24171575463885
-0.03660205078125,-0.10827099609375,0.98999951171875,0.9965748099966651,0.13525390625,-0.1650390625,0.6044921875,43.777058823529416,328.24171575463885
-0.03757861328125,-0.11168896484375,0.98609326171875,0.9931095094958728,0.16943359375,-0.181640625,0.6953125,43.82411764705883,328.24171575463885
-0.02976611328125,-0.11559521484375,0.99146435546875,0.9986239749573952,0.1943359375,-0.12548828125,0.67626953125,43.82411764705883,328.34141490571125
-0.01218798828125,-0.11559521484375,0.98755810546875,0.9943750863885032,0.18408203125,-0.072265625,0.564453125,43.68294117647059,328.34141490571125
-0.02048876953125,-0.11510693359375,0.98316357421875,0.9900909097193288,0.1591796875,-0.14404296875,0.48779296875,43.96529411764706,328.34141490571125
-0.02683642578125,-0.11706005859375,0.98316357421875,0.9904715365608808,0.1689453125,-0.22607421875,0.47802734375,43.777058823529416,328.34141490571125
-0.02097705078125,-0.12438427734375,0.98951123046875,0.9975189022437548,0.17041015625,-0.24658203125,0.48583984375,43.68294117647059,328.34141490571125
-0.02683642578125,-0.11950146484375,0.99439404296875,1.0019083324038434,0.17431640625,-0.15576171875,0.46240234375,43.96529411764706,328.44111479319406
-0.03123095703125,-0.11852490234375,0.99585888671875,1.0033735333410938,0.17578125,-0.10107421875,0.419921875,43.96529411764706,328.44111479319406
-0.03562548828125,-0.11803662109375,0.98755810546875,0.9952250152661626,0.14990234375,-0.05419921875,0.4541015625,43.87117647058824,328.44111479319406
-0.03171923828125,-0.11461865234375,0.98560498046875,0.9927541100731062,0.1259765625,-0.0517578125,0.4326171875,44.01235294117648,328.44111479319406
-0.02195361328125,-0.11217724609375,0.98804638671875,0.994636294323336,0.1142578125,-0.130859375,0.42236328125,43.87117647058824,328.2080998257803
-0.02585986328125,-0.10875927734375,0.97730419921875,0.9836771882827524,0.10498046875,-0.212890625,0.50146484375,43.87117647058824,328.2080998257803
-0.02634814453125,-0.10924755859375,0.99048779296875,0.996842676553848,0.162109375,-0.17529296875,0.6376953125,43.777058823529416,328.2080998257803
-0.01658251953125,-0.11168896484375,0.99048779296875,0.9969029405323158,0.24072265625,-0.03173828125,0.62646484375,43.63588235294118,328.2080998257803
-0.01365283203125,-0.10973583984375,0.98560498046875,0.9917890561472694,0.2451171875,0.10302734375,0.482421875,43.87117647058824,328.2080998257803
-0.01755908203125,-0.10582958984375,0.97583935546875,0.9817182238962164,0.24072265625,0.10107421875,0.38818359375,43.30647058823529,328.71627280880404
-0.02585986328125,-0.10289990234375,0.97437451171875,0.9801340783374642,0.2412109375,0.041015625,0.47119140625,43.777058823529416,328.71627280880404
-0.02585986328125,-0.10143505859375,0.96802685546875,0.9736702709590956,0.25732421875,0.03662109375,0.5771484375,43.82411764705883,328.71627280880404
-0.01462939453125,-0.09704052734375,0.96363232421875,0.9686166111577552,0.25927734375,0.0654296875,0.580078125,43.777058823529416,328.71627280880404
-0.01462939453125,-0.08971630859375,0.96558544921875,0.9698547803434364,0.2587890625,0.0771484375,0.53173828125,43.82411764705883,328.79548132277466
-0.02000048828125,-0.09362255859375,0.96216748046875,0.966918540250786,0.2646484375,0.13330078125,0.49658203125,43.87117647058824,328.79548132277466
-0.01804736328125,-0.09264599609375,0.96216748046875,0.966786040644563,0.2744140625,0.16943359375,0.40478515625,43.87117647058824,328.79548132277466
-0.01804736328125,-0.09069287109375,0.95972607421875,0.964170649690171,0.29296875,0.1845703125,0.31591796875,43.87117647058824,328.79548132277466
-0.0063286132812499,-0.09313427734375,0.95728466796875,0.9618253378292994,0.30517578125,0.1552734375,0.22314453125,43.82411764705883,328.79548132277466
-0.0058403320312499,-0.09264599609375,0.97388623046875,0.9783004548537578,0.27685546875,0.14599609375,0.12939453125,43.30647058823529,328.6296945416708
-0.03123095703125,-0.07653271484375,0.97828076171875,0.9817667125480778,0.27001953125,0.00146484375,0.14892578125,43.82411764705883,328.6296945416708
-0.04343798828125,-0.07653271484375,0.99097607421875,0.9948757183393724,0.30810546875,0.146484375,0.22705078125,43.87117647058824,328.6296945416708
-0.03269580078125,-0.06920849609375,0.99390576171875,0.996848782162076,0.35595703125,0.14697265625,0.1513671875,43.87117647058824,328.6296945416708
-0.02585986328125,-0.06774365234375,1.00855419921875,1.0111575088598068,0.4208984375,0.0869140625,-0.17724609375,44.71823529411765,328.5647614127137
-0.02878955078125,-0.06334912109375,1.00904248046875,1.0114389140072002,0.404296875,0.00341796875,-0.57470703125,43.87117647058824,328.5647614127137
-0.01609423828125,-0.07604443359375,1.02271435546875,1.0256638987837627,0.3916015625,-0.01025390625,-0.8193359375,43.30647058823529,328.5647614127137
0.00050732421875,-0.09069287109375,1.02515576171875,1.029159749519112,0.43212890625,0.1298828125,-0.94921875,43.63588235294118,328.5647614127137
0.00880810546875,-0.11071240234375,1.01685498046875,1.0229021801026603,0.4267578125,0.20458984375,-1.15625,43.777058823529416,328.5647614127137
0.01955029296875,-0.12047802734375,1.01441357421875,1.021729939165465,0.43115234375,0.18115234375,-1.29833984375,43.82411764705883,328.46390945396706
0.02247998046875,-0.12731396484375,0.99048779296875,0.9988895150046456,0.4462890625,0.09033203125,-1.40478515625,43.87117647058824,328.46390945396706
0.02199169921875,-0.14782177734375,0.98414013671875,0.995422885708578,0.37744140625,0.07763671875,-1.43505859375,43.777058823529416,328.46390945396706
0.01564404296875,-0.16051708984375,0.98462841796875,0.9977492639355632,0.3125,0.09765625,-1.330078125,43.87117647058824,328.46390945396706
0.00685498046875,-0.15807568359375,1.00074169921875,1.0131726708987414,0.3046875,0.2880859375,-1.1767578125,43.87117647058824,328.4086481343639
0.00148388671875,-0.15123974609375,0.99683544921875,1.0082443034986328,0.3115234375,0.59814453125,-1.140625,43.87117647058824,328.4086481343639
-0.01658251953125,-0.14293896484375,0.99244091796875,1.0028187788844314,0.30810546875,0.71533203125,-1.142578125,43.82411764705883,328.4086481343639
-0.02244189453125,-0.13561474609375,0.97046826171875,0.9801549086708876,0.2978515625,0.53369140625,-1.0693359375,43.777058823529416,328.4086481343639
-0.03318408203125,-0.13756787109375,0.96167919921875,0.9720354852923526,0.310546875,0.2109375,-0.96337890625,43.777058823529416,328.4086481343639
-0.04294970703125,-0.14489208984375,0.96753857421875,0.9792697726544054,0.33203125,-0.19189453125,-0.95703125,44.29470588235294,328.4662111225348
-0.04294970703125,-0.15416943359375,0.98462841796875,0.9975500052931338,0.3173828125,-0.42236328125,-0.94091796875,43.777058823529416,328.4662111225348
-0.04880908203125,-0.15514599609375,0.99878857421875,1.011944278398064,0.33935546875,-0.384765625,-0.89892578125,43.68294117647059,328.4662111225348
-0.04490283203125,-0.15954052734375,1.00855419921875,1.0220817075710351,0.38330078125,-0.07861328125,-0.736328125,44.01235294117648,328.4662111225348
-0.04294970703125,-0.15758740234375,1.00855419921875,1.021694689950621,0.44677734375,0.302734375,-0.60009765625,43.82411764705883,328.35453730840123
-0.04587939453125,-0.16100537109375,0.98902294921875,1.0030922402475977,0.4697265625,0.54345703125,-0.4521484375,43.87117647058824,328.35453730840123
-0.05369189453125,-0.15123974609375,0.96997998046875,0.983167047274782,0.52099609375,0.57958984375,-0.2890625,43.63588235294118,328.35453730840123
-0.06150439453125,-0.14000927734375,0.96216748046875,0.9742441422767484,0.60009765625,0.4892578125,-0.14111328125,43.54176470588236,328.35453730840123
-0.05955126953125,-0.12682568359375,0.95484326171875,0.9650682681403976,0.67578125,0.41650390625,-0.09521484375,43.87117647058824,328.35453730840123
-0.06736376953125,-0.12438427734375,0.94849560546875,0.9589855262147166,0.73193359375,0.38037109375,-0.17529296875,43.82411764705883,328.8542003129439
-0.07468798828125,-0.11998974609375,0.95044873046875,0.9608999032213508,0.7548828125,0.3251953125,-0.35400390625,44.53,328.8542003129439
-0.09812548828125,-0.12340771484375,0.95240185546875,0.9653638535980656,0.740234375,0.271484375,-0.47900390625,43.82411764705883,328.8542003129439
-0.12546923828125,-0.13903271484375,0.95826123046875,0.976389886966873,0.73046875,0.15283203125,-0.62353515625,43.96529411764706,328.8542003129439
-0.14597705078125,-0.14831005859375,0.97290966796875,0.9949162753025684,0.78466796875,0.0146484375,-0.36376953125,43.96529411764706,328.6752856559837
-0.14597705078125,-0.16491162109375,0.98316357421875,1.007529530980183,0.830078125,-0.1328125,-0.2275390625,43.777058823529416,328.6752856559837
-0.12693408203125,-0.18444287109375,0.99683544921875,1.0216713496509378,0.9287109375,-0.2041015625,-0.2255859375,43.777058823529416,328.6752856559837
-0.09666064453125,-0.20153271484375,1.01831982421875,1.0425612594713056,0.955078125,-0.11767578125,-0.43017578125,43.54176470588236,328.6752856559837
-0.09128955078125,-0.21959912109375,1.03540966796875,1.0623703387191057,0.9384765625,0.59326171875,-0.60986328125,43.87117647058824,328.6752856559837
-0.08982470703125,-0.23082958984375,1.05445263671875,1.0831533320005104,0.927734375,1.23095703125,-0.5947265625,43.777058823529416,328.35338700290805
-0.09714892578125,-0.22741162109375,1.02808544921875,1.0574089322888554,0.88330078125,1.61669921875,-0.43798828125,43.82411764705883,328.35338700290805
-0.09177783203125,-0.22008740234375,1.00611279296875,1.0339848099939162,0.861328125,1.6865234375,-0.39501953125,43.82411764705883,328.35338700290805
-0.07810595703125,-0.22448193359375,0.97925732421875,1.007689230899002,0.8173828125,1.61572265625,-0.5390625,44.01235294117648,328.35338700290805
-0.07078173828125,-0.24596630859375,0.95533154296875,0.9890236783962272,0.6650390625,1.4873046875,-0.70166015625,43.68294117647059,328.00017989817366
-0.08054736328125,-0.23327099609375,0.95679638671875,0.9881106015969,0.623046875,1.244140625,-0.56640625,43.63588235294118,328.00017989817366
-0.07810595703125,-0.19372021484375,0.95630810546875,0.9788530302083688,0.65087890625,0.91796875,-0.36962890625,43.68294117647059,328.00017989817366
-0.09373095703125,-0.17321240234375,0.94849560546875,0.9687269699070103,0.63671875,0.6669921875,-0.4189453125,43.87117647058824,328.00017989817366
-0.13230517578125,-0.16491162109375,0.96119091796875,0.9841689301618316,0.53173828125,0.61767578125,-0.34619140625,43.82411764705883,328.00017989817366
-0.15671923828125,-0.16442333984375,0.98853466796875,1.0142961816495788,0.5185546875,0.7294921875,-0.078125,43.49470588235295,328.5214729321682
-0.15769580078125,-0.16735302734375,1.03833935546875,1.0634959419106482,0.556640625,1.00927734375,0.21484375,43.96529411764706,328.5214729321682
-0.16111376953125,-0.19225537109375,1.06275341796875,1.0919544870786626,0.5693359375,1.31884765625,0.53466796875,43.82411764705883,328.5214729321682
-0.12058642578125,-0.20739208984375,1.07496044921875,1.101404799516069,0.48046875,1.31591796875,0.86474609375,43.82411764705883,328.5214729321682
-0.11912158203125,-0.15368115234375,1.10718701171875,1.124131187544419,0.599609375,1.36083984375,0.88134765625,43.82411764705883,328.3220709760792
-0.06150439453125,-0.13512646484375,1.06372998046875,1.0740406991338234,0.6201171875,1.2646484375,0.53662109375,43.87117647058824,328.3220709760792
-0.08543017578125,-0.11266552734375,1.05347607421875,1.0629222337203272,0.50927734375,1.32470703125,0.26171875,43.777058823529416,328.3220709760792
-0.09568408203125,-0.08629833984375,1.06861279296875,1.0763531708089231,0.267578125,1.50537109375,0.25537109375,43.96529411764706,328.3220709760792
-0.06296923828125,-0.01110302734375,1.07203076171875,1.0739359181334798,0.24169921875,1.791015625,0.103515625,43.777058823529416,328.3220709760792
-0.00877001953125,0.0191704101562499,1.06372998046875,1.0639388559575145,0.123046875,2.07275390625,-0.080078125,43.96529411764706,328.4109495010585
0.03126904296875,0.08948291015625,1.03003857421875,1.03439083940105,0.32275390625,2.13720703125,-0.1328125,43.87117647058824,328.4109495010585
0.05275341796875,0.10901416015625,0.96509716796875,0.9726662088523788,0.5400390625,1.9345703125,-0.15576171875,44.01235294117648,328.4109495010585
0.03908154296875,0.10706103515625,0.90796826171875,0.915093326682101,0.58203125,1.353515625,-0.154296875,43.447647058823534,328.4109495010585
-0.0077934570312499,0.09631884765625,0.8816010742187499,0.8868813406820439,0.59130859375,0.18212890625,-0.02099609375,43.68294117647059,328.4337449272944
-0.08396533203125,0.06995166015625,0.8889252929687499,0.8956179923501489,0.6357421875,-0.6123046875,0.26220703125,43.63588235294118,328.4337449272944
-0.14988330078125,0.06799853515625,0.92847607421875,0.942951019424201,0.810546875,-0.80322265625,0.5087890625,43.87117647058824,328.4337449272944
-0.17380908203125,0.05432666015625,0.96753857421875,0.9845262188492138,0.97802734375,-0.4462890625,0.63623046875,43.777058823529416,328.4337449272944
-0.17966845703125,0.03821337890625,0.97681591796875,0.9939367959667024,1.078125,0.1044921875,0.6318359375,43.63588235294118,328.4337449272944
-0.16746142578125,0.03723681640625,0.96119091796875,0.9763799928339222,1.17822265625,0.80419921875,0.36669921875,43.68294117647059,328.3568392808883
-0.16062548828125,0.0216118164062499,0.93580029296875,0.9497314390996888,1.06494140625,1.50146484375,0.00927734375,43.777058823529416,328.3568392808883
-0.14304736328125,0.03430712890625,0.92505810546875,0.936681389656558,0.96044921875,2.09814453125,-0.40869140625,43.777058823529416,328.3568392808883
-0.09666064453125,0.05286181640625,0.91724560546875,0.9238382718780914,0.82373046875,2.251953125,-0.9013671875,43.777058823529416,328.3568392808883
-0.08396533203125,0.07141650390625,0.92408154296875,0.9306326837527332,0.7783203125,2.3515625,-1.33447265625,43.82411764705883,328.5226245981487
-0.09470751953125,0.05627978515625,0.94263623046875,0.949052154238812,0.72509765625,2.46533203125,-1.52294921875,43.63588235294118,328.5226245981487
-0.11668017578125,0.04895556640625,0.96412060546875,0.9723885297513176,0.77880859375,2.3076171875,-1.6171875,43.777058823529416,328.5226245981487
-0.14402392578125,0.03577197265625,0.96753857421875,0.9788531135090768,0.83154296875,1.91748046875,-1.62744140625,43.87117647058824,328.5226245981487
-0.15232470703125,0.0225883789062499,0.95728466796875,0.9695911441230308,0.876953125,1.3193359375,-1.580078125,43.82411764705883,328.5226245981487
-0.15281298828125,0.01184619140625,0.94605419921875,0.958389633446496,0.90087890625,0.580078125,-1.490234375,43.777058823529416,328.6775895609512
-0.16111376953125,0.0020805664062499,0.95093701171875,0.96449114860932,0.92529296875,0.0576171875,-1.36328125,43.82411764705883,328.6775895609512
-0.17869189453125,-0.00231396484375,0.96314404296875,0.9795828679140192,0.94873046875,-0.0439453125,-1.24072265625,43.63588235294118,328.6775895609512
-0.19285205078125,0.0006157226562499,0.97828076171875,0.9971085905526744,1.06787109375,0.16162109375,-1.08447265625,43.68294117647059,328.6775895609512
-0.19529345703125,0.01086962890625,0.98951123046875,1.00865760217011,1.169921875,0.55078125,-0.89501953125,43.87117647058824,328.5562426945095
-0.19529345703125,-0.11510693359375,0.95923779296875,0.9856603289065312,1.1611328125,0.96923828125,-0.716796875,43.82411764705883,328.5562426945095
-0.18308642578125,0.0216118164062499,0.93677685546875,0.9547452994676904,1.07470703125,1.1767578125,-0.57275390625,43.777058823529416,328.5562426945095
-0.16892626953125,0.0304008789062499,0.91040966796875,0.9264480889434584,0.96044921875,1.150390625,-0.474609375,43.777058823529416,328.5562426945095
-0.17869189453125,0.0289360351562499,0.8991791992187499,0.9172193410571996,0.84326171875,1.02685546875,-0.4384765625,43.82411764705883,328.5562426945095
-0.18943408203125,0.0230766601562499,0.90894482421875,0.9287618086210496,0.7451171875,0.84033203125,-0.34814453125,43.82411764705883,328.7556490539938
-0.07615283203125,0.03479541015625,0.92066357421875,0.9244627581939496,0.63623046875,0.85302734375,-0.26416015625,43.777058823529416,328.7556490539938
-0.21091845703125,0.03479541015625,0.94605419921875,0.9699050798628776,0.58984375,0.982421875,-0.2666015625,44.01235294117648,328.7556490539938
-0.21580126953125,0.03333056640625,0.95874951171875,0.983301449612072,0.5205078125,1.0556640625,-0.365234375,43.96529411764706,328.7556490539938
-0.21873095703125,0.03333056640625,0.97486279296875,0.9996557524145998,0.43798828125,1.138671875,-0.59521484375,43.82411764705883,328.4565406194691
-0.22459033203125,0.03186572265625,0.97486279296875,1.0009064424995695,0.34423828125,1.16796875,-0.7705078125,43.82411764705883,328.4565406194691
-0.21189501953125,0.0299125976562499,0.98218701171875,1.005229122533615,0.244140625,1.22314453125,-0.81396484375,43.87117647058824,328.4565406194691
-0.18992236328125,0.0250297851562499,0.98804638671875,1.0064455556696947,0.17529296875,1.24560546875,-0.77978515625,43.82411764705883,328.4565406194691
-0.18210986328125,0.0196586914062499,0.98609326171875,1.00296081043042,0.1904296875,1.17431640625,-0.74755859375,44.62411764705882,328.4565406194691
-0.17478564453125,0.0216118164062499,0.98951123046875,1.0050619719034053,0.2509765625,1.0302734375,-0.44970703125,44.01235294117648,328.91061676714315
-0.15427783203125,0.0250297851562499,0.98511669921875,0.9974382440436478,0.40185546875,0.55078125,-0.2919921875,43.777058823529416,328.91061676714315
-0.17722705078125,0.0274711914062499,0.98755810546875,1.0037106682520245,0.4462890625,0.09375,-0.06494140625,43.82411764705883,328.91061676714315
-0.19089892578125,0.0264946289062499,0.97828076171875,0.9970845570834664,0.453125,-0.15771484375,0.001953125,43.82411764705883,328.91061676714315
-0.19089892578125,0.04749072265625,0.97632763671875,0.9959485041023292,0.3916015625,-0.19189453125,0.20751953125,43.82411764705883,328.6775895609512
-0.19968798828125,0.06604541015625,1.10132763671875,1.1212313999648007,0.25048828125,-0.0126953125,0.31982421875,43.82411764705883,328.6775895609512
-0.21531298828125,0.08362353515625,0.95874951171875,0.9861811216888972,0.3642578125,0.27880859375,0.49560546875,43.82411764705883,328.6775895609512
-0.22068408203125,0.08655322265625,0.94947216796875,0.978616534788492,0.32177734375,0.5458984375,0.658203125,43.777058823529416,328.6775895609512
-0.21726611328125,0.09338916015625,0.92896435546875,0.9585931738472272,0.25244140625,0.55712890625,0.79052734375,43.82411764705883,328.6775895609512
-0.23191455078125,0.09924853515625,0.93580029296875,0.969204219406379,0.2275390625,0.3876953125,0.98193359375,43.63588235294118,328.4793365775923
-0.25584033203125,0.09729541015625,0.93921826171875,0.9782901489217416,0.18603515625,0.16357421875,1.240234375,43.87117647058824,328.4793365775923
-0.26462939453125,0.09631884765625,0.96167919921875,1.0020643288101916,0.19580078125,0.02978515625,1.42822265625,43.87117647058824,328.4793365775923
-0.26218798828125,0.08899462890625,0.96997998046875,1.008723821312497,0.1953125,-0.00146484375,1.60986328125,43.777058823529416,328.4793365775923
-0.26267626953125,0.07874072265625,0.97583935546875,1.0136376925020831,0.208984375,0.07666015625,1.72998046875,43.777058823529416,328.7123611022562
-0.25877001953125,0.07239306640625,0.96558544921875,1.002276378457997,0.15576171875,0.20654296875,1.7705078125,43.82411764705883,328.7123611022562
-0.24949267578125,0.07190478515625,0.95777294921875,0.9923436479627592,0.10888671875,0.2177734375,1.7998046875,43.87117647058824,328.7123611022562
-0.24607470703125,0.07629931640625,0.94556591796875,0.9800353321940292,0.072265625,0.1435546875,1.8896484375,43.82411764705883,328.7123611022562
-0.24753955078125,0.08460009765625,0.94605419921875,0.9815556803278458,0.07275390625,0.15576171875,1.87744140625,44.62411764705882,328.7123611022562
-0.25046923828125,0.09583056640625,0.94068310546875,0.9781630956528996,0.078125,0.265625,2.1328125,43.82411764705883,328.6547932054498
-0.25584033203125,0.11340869140625,0.93970654296875,0.9804918121425684,0.09375,0.4111328125,2.27685546875,43.82411764705883,328.6547932054498
-0.26072314453125,0.12708056640625,0.93042919921875,0.974589412630386,0.05224609375,0.49462890625,2.35302734375,43.777058823529416,328.6547932054498
-0.25046923828125,0.13440478515625,0.93140576171875,0.9738152692174076,0.03564453125,0.56689453125,2.31982421875,43.68294117647059,328.6547932054498
-0.24216845703125,0.25842822265625,0.92798779296875,0.993273402314376,0.02294921875,0.56396484375,2.24951171875,43.96529411764706,328.6679202205052
-0.23679736328125,0.13831103515625,0.92749951171875,0.9671909211430104,-0.02490234375,0.50439453125,1.88330078125,43.82411764705883,328.6679202205052
-0.25584033203125,0.12952197265625,0.91968701171875,0.9633558098744152,-0.05908203125,0.35302734375,1.76318359375,43.87117647058824,328.6679202205052
-0.25681689453125,0.12610400390625,0.91871044921875,0.9622297161393324,-0.0986328125,0.31591796875,1.77392578125,43.82411764705883,328.6679202205052
-0.23337939453125,0.11536181640625,0.91382763671875,0.9501869500826128,-0.080078125,0.5908203125,1.740234375,43.82411764705883,328.6679202205052
-0.19138720703125,0.10803759765625,0.93433544921875,0.9598353594181448,-0.1103515625,0.99755859375,1.603515625,43.87117647058824,328.5237767179792
-0.17234423828125,0.10559619140625,0.93433544921875,0.9559476051411252,-0.16357421875,1.193359375,1.470703125,43.82411764705883,328.5237767179792
-0.18210986328125,0.10022509765625,0.92066357421875,0.9438381690723066,-0.2001953125,1.1396484375,1.36279296875,43.777058823529416,328.5237767179792
-0.20066455078125,0.09827197265625,0.92310498046875,0.9497612581676528,-0.255859375,0.88818359375,1.42626953125,43.777058823529416,328.5237767179792
-0.22263720703125,0.08850634765625,0.9001557617187499,0.9314940122650212,-0.2529296875,0.39599609375,1.52001953125,43.82411764705883,328.4035830653707
-0.22361376953125,0.09338916015625,0.90210888671875,0.9340905184486176,-0.2861328125,-0.19140625,1.54248046875,43.87117647058824,328.4035830653707
-0.21580126953125,0.10266650390625,0.90552685546875,0.936530557392952,-0.2939453125,-0.7294921875,1.43310546875,43.777058823529416,328.4035830653707
-0.20261767578125,0.11389697265625,0.92115185546875,0.9500248332295188,-0.275390625,-1.20458984375,1.2412109375,43.87117647058824,328.4035830653707
-0.19089892578125,0.11975634765625,0.95630810546875,0.982501488677564,-0.15576171875,-1.50732421875,1.06298828125,43.87117647058824,328.4035830653707
-0.20115283203125,0.11731494140625,0.98951123046875,1.016542046614464,0.017578125,-1.53759765625,0.9404296875,43.54176470588236,328.5573950864424
-0.19919970703125,0.10364306640625,1.02759716796875,1.0518452110994383,0.1962890625,-1.46435546875,0.97314453125,43.777058823529416,328.5573950864424
-0.23826220703125,0.08655322265625,1.05201123046875,1.0821219749565936,0.447265625,-1.18408203125,1.166015625,43.87117647058824,328.5573950864424
-0.27878955078125,0.07874072265625,1.04126904296875,1.0808167906145316,0.6494140625,-0.58935546875,1.5712890625,43.96529411764706,328.5573950864424
-0.29929736328125,0.10608447265625,0.99732373046875,1.046655363699994,0.693359375,0.12939453125,1.88330078125,44.01235294117648,328.61381055611946
-0.29148486328125,0.16174853515625,0.95923779296875,1.0155112789166056,0.69091796875,0.92138671875,2.2685546875,43.68294117647059,328.61381055611946
-0.27341845703125,0.17444384765625,0.90552685546875,0.9618561194927174,0.6142578125,0.92041015625,2.42333984375,43.82411764705883,328.61381055611946
-0.24949267578125,0.19592822265625,0.8811127929687499,0.9364796941925202,0.5341796875,0.42333984375,2.37548828125,43.87117647058824,328.61381055611946
-0.23240283203125,0.19739306640625,0.8674409179687499,0.9194720469747164,0.44775390625,-0.13916015625,2.0390625,43.777058823529416,328.61381055611946
-0.25095751953125,0.18030322265625,0.8689057617187499,0.9222180606871392,0.3427734375,-0.3984375,1.71728515625,43.96529411764706,328.47818466928493
-0.25730517578125,0.14954150390625,0.8772065429687499,0.9263152454221772,0.3037109375,-0.28662109375,1.42919921875,43.87117647058824,328.47818466928493
-0.25779345703125,0.12366259765625,0.8776948242187499,0.9230916038008344,0.251953125,-0.09814453125,1.2236328125,43.87117647058824,328.47818466928493
-0.25193408203125,0.11438525390625,0.8566987304687499,0.9002707830352453,0.15283203125,-0.10107421875,1.16845703125,43.777058823529416,328.47818466928493
-0.21531298828125,0.10510791015625,0.8747651367187499,0.9069847849432696,-0.01025390625,-0.5322265625,1.23876953125,43.87117647058824,328.89128070349113
-0.19187548828125,0.10510791015625,0.92115185546875,0.9467759062281332,-0.130859375,-1.00830078125,1.4990234375,43.87117647058824,328.89128070349113
-0.17478564453125,0.08557666015625,0.96412060546875,0.9835659246777166,-0.14453125,-1.41796875,1.62744140625,43.63588235294118,328.89128070349113
-0.18015673828125,0.07629931640625,0.98658154296875,1.0057938043947174,-0.1591796875,-1.1298828125,1.99658203125,43.82411764705883,328.89128070349113
-0.16111376953125,0.07190478515625,0.96705029296875,0.9830128249376404,-0.18505859375,-0.76220703125,2.0244140625,43.87117647058824,328.89128070349113
-0.14402392578125,0.09729541015625,0.94312451171875,0.9590063256515288,-0.2490234375,-0.6650390625,1.94384765625,43.777058823529416,328.31355134964383
-0.14207080078125,0.12561572265625,0.90210888671875,0.9218263750349196,-0.30810546875,-0.88232421875,1.9140625,43.82411764705883,328.31355134964383
-0.16013720703125,0.14661181640625,0.8781831054687499,0.904623964151098,-0.396484375,-1.294921875,1.94482421875,43.63588235294118,328.31355134964383
-0.18455126953125,0.17590869140625,0.8767182617187499,0.9130377589284036,-0.5,-1.71240234375,2.05322265625,43.777058823529416,328.31355134964383
-0.21335986328125,0.18225634765625,0.8933198242187499,0.936354695541496,-0.6064453125,-2.0087890625,2.3173828125,43.54176470588236,328.4599980693869
-0.21921923828125,0.19543994140625,0.93140576171875,0.9766117642606884,-0.6806640625,-2.18798828125,2.3037109375,43.82411764705883,328.4599980693869
-0.20310595703125,0.19641650390625,0.95289013671875,0.9938969189227884,-0.7001953125,-2.11572265625,2.251953125,43.82411764705883,328.4599980693869
-0.17625048828125,0.19836962890625,0.96802685546875,1.0037383808545424,-0.64013671875,-2.00732421875,2.1171875,43.30647058823529,328.4599980693869
-0.18357470703125,0.19006884765625,0.98804638671875,1.0227714809374386,-0.50830078125,-1.80810546875,1.96533203125,43.82411764705883,328.4599980693869
-0.18845751953125,0.16760791015625,1.00318310546875,1.0344007885306077,-0.3955078125,-1.58984375,2.01220703125,43.87117647058824,328.7556490539938
-0.18796923828125,0.14758837890625,1.01343701171875,1.0412345273038337,-0.29345703125,-1.560546875,2.34619140625,43.68294117647059,328.7556490539938
-0.15232470703125,0.14563525390625,1.01148388671875,1.033204769948418,-0.28515625,-1.6083984375,2.58203125,43.82411764705883,328.7556490539938
-0.12351611328125,0.14075244140625,1.02124951171875,1.0382764782020788,-0.3603515625,-1.748046875,2.55029296875,43.68294117647059,328.7556490539938
-0.13377001953125,0.16126025390625,1.02857373046875,1.0496967212608128,-0.380859375,-1.78466796875,2.48828125,43.68294117647059,328.77959955681933
-0.15232470703125,0.17200244140625,1.03052685546875,1.055828232272739,-0.40380859375,-1.56884765625,2.53515625,43.87117647058824,328.77959955681933
-0.15183642578125,0.17493212890625,1.01685498046875,1.0429044065597768,-0.41796875,-1.31494140625,2.60986328125,43.96529411764706,328.77959955681933
-0.12986376953125,0.19690478515625,1.00757763671875,1.034818238663214,-0.435546875,-1.3076171875,2.57470703125,43.82411764705883,328.77959955681933
-0.11521533203125,0.19836962890625,0.99585888671875,1.0219393351193515,-0.46435546875,-1.34814453125,2.42578125,43.82411764705883,328.77959955681933
-0.10496142578125,0.19836962890625,0.98169873046875,1.0070252270814228,-0.4609375,-1.33837890625,2.31640625,43.87117647058824,328.4144049548767
-0.09861376953125,0.19348681640625,0.97290966796875,0.9968525696868376,-0.46484375,-1.2431640625,2.19921875,43.82411764705883,328.4144049548767
-0.09568408203125,0.18713916015625,0.95337841796875,0.9762719481101289,-0.529296875,-1.13525390625,2.1728515625,43.49470588235295,328.4144049548767
-0.11179736328125,0.18811572265625,0.94068310546875,0.96580064219354,-0.59033203125,-1.02294921875,2.28955078125,43.87117647058824,328.4144049548767
-0.10496142578125,0.18665087890625,0.92994091796875,0.954277508071457,-0.673828125,-0.96875,2.47021484375,43.777058823529416,328.87930456884874
-0.08152392578125,0.17053759765625,0.92115185546875,0.9403456617237476,-0.73583984375,-0.86865234375,2.52490234375,43.82411764705883,328.87930456884874
-0.06980517578125,0.15979541015625,0.90796826171875,0.9245613554337124,-0.77978515625,-0.716796875,2.466796875,43.777058823529416,328.87930456884874
-0.06638720703125,0.14368212890625,0.90894482421875,0.9226226253991912,-0.91162109375,-0.67138671875,2.45703125,43.777058823529416,328.87930456884874
-0.07615283203125,0.13391650390625,0.90747998046875,0.9204633609201484,-1.10498046875,-0.94775390625,2.6376953125,44.01235294117648,328.87930456884874
-0.08884814453125,0.13440478515625,0.91822216796875,0.9322502822787316,-1.23681640625,-1.10693359375,2.99951171875,43.82411764705883,328.8468388626499
-0.08787158203125,0.12903369140625,0.93580029296875,0.94873246848993,-1.3740234375,-1.06982421875,3.283203125,43.87117647058824,328.8468388626499
-0.07761767578125,0.12122119140625,0.94312451171875,0.9540455573212236,-1.42822265625,-0.87744140625,3.49609375,43.96529411764706,328.8468388626499
-0.06638720703125,0.11682666015625,0.94410107421875,0.95361552426629,-1.50439453125,-0.75830078125,3.64208984375,43.82411764705883,328.8468388626499
-0.08152392578125,0.12805712890625,0.95874951171875,0.9706932599742516,-1.6171875,-0.78271484375,3.70166015625,43.49470588235295,328.9021025857906
-0.11912158203125,0.14905322265625,0.98218701171875,1.0005489195830704,-1.70166015625,-0.84130859375,3.78662109375,44.43588235294118,328.9021025857906
-0.14353564453125,0.18030322265625,1.05347607421875,1.0783893417048316,-1.75,-0.9091796875,3.9853515625,43.87117647058824,328.9021025857906
-0.13572314453125,0.19543994140625,1.10230419921875,1.1276932607201389,-1.64501953125,-0.8505859375,4.46826171875,43.777058823529416,328.9021025857906
-0.06101611328125,0.18176806640625,1.13746044921875,1.1535072039575385,-1.4150390625,-0.40478515625,4.8359375,43.68294117647059,328.9021025857906
0.00050732421875,0.14856494140625,1.14380810546875,1.1534161353687211,-1.2568359375,0.1669921875,4.72216796875,43.68294117647059,328.7772931114933
-0.01511767578125,0.11389697265625,1.12525341796875,1.131104026671128,-1.26611328125,0.5498046875,4.4091796875,43.777058823529416,328.7772931114933
-0.09031298828125,0.06751025390625,1.10523388671875,1.1109707532542026,-1.23388671875,0.583984375,4.599609375,43.82411764705883,328.7772931114933
-0.12156298828125,0.0172172851562499,1.07300732421875,1.0800086633240962,-1.193359375,0.49560546875,5.21630859375,43.87117647058824,328.7772931114933
-0.08298876953125,-0.00084912109375,1.04859326171875,1.0518724663175236,-1.1572265625,0.45166015625,5.6396484375,43.63588235294118,328.3927611894759
-0.03171923828125,0.00452197265625,1.03785107421875,1.0383455159872654,-1.166015625,0.48046875,5.61865234375,43.777058823529416,328.3927611894759
-0.0038872070312499,0.00940478515625,1.02906201171875,1.0291123283320338,-1.2265625,0.5439453125,5.11767578125,43.777058823529416,328.3927611894759
0.01417919921875,0.0240532226562499,1.01587841796875,1.0162620564132692,-1.34130859375,0.6669921875,4.48046875,43.87117647058824,328.3927611894759
0.04103466796875,0.03674853515625,0.98658154296875,0.9881181304571002,-1.4052734375,0.6943359375,4.0615234375,43.87117647058824,328.3927611894759
0.04591748046875,0.06018603515625,0.96460888671875,0.9675748437083374,-1.43896484375,0.748046875,3.80615234375,43.82411764705883,328.5813449207367
0.02687451171875,0.07629931640625,0.94312451171875,0.9465873808946076,-1.4345703125,0.39111328125,3.7529296875,43.63588235294118,328.5813449207367
-0.01023486328125,0.08557666015625,0.93042919921875,0.9344124420986316,-1.46826171875,0.07763671875,3.77978515625,43.777058823529416,328.5813449207367
-0.02976611328125,0.07239306640625,0.91724560546875,0.9205793166888476,-1.4765625,-0.1572265625,3.779296875,44.62411764705882,328.5813449207367
-0.03806689453125,0.06702197265625,0.8962495117187499,0.8995577916588161,-1.62255859375,-0.36767578125,3.78955078125,43.87117647058824,328.50443864515245
-0.03904345703125,0.06262744140625,0.8962495117187499,0.8992829227835597,-1.47900390625,-0.654296875,3.8623046875,43.82411764705883,328.50443864515245
-0.03806689453125,0.05823291015625,0.90308544921875,0.9057612758752444,-1.4248046875,-0.90234375,3.97265625,43.96529411764706,328.50443864515245
-0.02927783203125,0.05872119140625,0.92896435546875,0.9312787678778516,-1.3212890625,-0.97265625,4.119140625,43.87117647058824,328.50443864515245
-0.02634814453125,0.05042041015625,0.94703076171875,0.9487379544016143,-1.2001953125,-0.85888671875,4.130859375,43.87117647058824,328.50443864515245
-0.02097705078125,0.04016650390625,0.96119091796875,0.9622584712441548,-1.1240234375,-0.6318359375,4.05810546875,43.87117647058824,328.3386520140431
-0.02048876953125,0.0225883789062499,0.97681591796875,0.9772918510535368,-1.1337890625,-0.5,3.9453125,43.82411764705883,328.3386520140431
-0.04197314453125,0.00549853515625,0.98023388671875,0.9811475176661524,-1.18994140625,-0.2041015625,3.95556640625,43.777058823529416,328.3386520140431
-0.05613330078125,-0.01745068359375,0.97974560546875,0.981507475901134,-1.27783203125,-0.2041015625,4.0791015625,43.68294117647059,328.3386520140431
-0.05369189453125,-0.03161083984375,0.96851513671875,0.9705171996349786,-1.412109375,-0.3466796875,4.1416015625,43.87117647058824,328.7819078175549
-0.05515673828125,-0.03307568359375,0.97046826171875,0.9725969944568162,-1.57373046875,-0.5751953125,4.11376953125,43.30647058823529,328.7819078175549
-0.05515673828125,-0.03356396484375,0.98853466796875,0.9906410022252992,-1.693359375,-0.77294921875,4.13037109375,43.777058823529416,328.7819078175549
-0.04636767578125,-0.02623974609375,1.00855419921875,1.0099604241722513,-1.78271484375,-0.9599609375,4.0947265625,43.96529411764706,328.7819078175549
-0.04832080078125,-0.01696240234375,1.01636669921875,1.017656076561345,-1.7734375,-0.9638671875,3.94189453125,43.777058823529416,328.7819078175549
-0.04734423828125,-0.02086865234375,1.03589794921875,1.0371892492427253,-1.7509765625,-0.875,3.7529296875,43.87117647058824,328.6736904974023
-0.03953173828125,-0.02184521484375,1.03101513671875,1.0320039650535695,-1.69677734375,-0.5087890625,3.6162109375,44.71823529411765,328.6736904974023
-0.02048876953125,-0.01598583984375,1.02808544921875,1.028413840653525,-1.60693359375,-0.36474609375,3.5,43.777058823529416,328.6736904974023
-0.01365283203125,-0.00914990234375,1.02076123046875,1.0208935351756572,-1.50634765625,-0.3603515625,3.49755859375,43.82411764705883,328.6736904974023
-0.02244189453125,0.0001274414062499,1.02662060546875,1.0268658736390488,-1.4169921875,-0.3017578125,3.32763671875,43.82411764705883,328.36029564340504
-0.02146533203125,0.00989306640625,1.02027294921875,1.0205466790645377,-1.37646484375,-0.2451171875,3.32421875,43.96529411764706,328.36029564340504
-0.02048876953125,0.0196586914062499,1.00171826171875,1.0021206163359504,-1.345703125,-0.244140625,3.25537109375,43.777058823529416,328.36029564340504
-0.02439501953125,0.0250297851562499,1.00708935546875,1.0076956767900518,-1.31298828125,-0.2763671875,3.1826171875,44.71823529411765,328.36029564340504
-0.02830126953125,0.01233447265625,0.99488232421875,0.9953612108755746,-1.26708984375,-0.28466796875,3.091796875,43.96529411764706,328.36029564340504
-0.04978564453125,0.0006157226562499,0.99537060546875,0.9966150870556832,-1.2294921875,-0.2978515625,2.94091796875,43.82411764705883,328.6052961402075
-0.06736376953125,0.00403369140625,0.98902294921875,0.9913226226578178,-1.2255859375,-0.3095703125,2.85986328125,43.777058823529416,328.6052961402075
-0.06150439453125,-0.00231396484375,0.99537060546875,0.9972716717179824,-1.20361328125,-0.35595703125,2.8125,43.96529411764706,328.6052961402075
-0.05222705078125,-0.01793896484375,0.99976513671875,1.0012890690960494,-1.17431640625,-0.328125,2.92138671875,43.87117647058824,328.6052961402075
-0.05076220703125,-0.02721630859375,0.98951123046875,0.9911861602847032,-1.1318359375,-0.07666015625,3.00927734375,43.82411764705883,328.3939140362524
-0.06052783203125,-0.02868115234375,0.98267529296875,0.9849553077989818,-1.00146484375,0.06298828125,3.00537109375,43.447647058823534,328.3939140362524
-0.06980517578125,-0.03698193359375,0.97437451171875,0.9775715396150484,-1.1669921875,0.001953125,2.9091796875,43.777058823529416,328.3939140362524
-0.06980517578125,-0.03551708984375,0.97876904296875,0.9818976859687484,-1.20068359375,0.01171875,2.8193359375,43.87117647058824,328.3939140362524
-0.04099658203125,-0.03307568359375,0.98316357421875,0.984573681475402,-1.208984375,0.12890625,2.654296875,43.777058823529416,328.3939140362524
-0.02781298828125,-0.02038037109375,0.98755810546875,0.9881598724498372,-1.205078125,0.271484375,2.513671875,43.87117647058824,328.8924353627061
-0.02927783203125,-0.00426708984375,0.99976513671875,1.0002028434784844,-1.14599609375,0.42626953125,2.431640625,43.63588235294118,328.8924353627061
-0.03757861328125,0.0157524414062499,0.99830029296875,0.9991315061231384,-1.11669921875,0.548828125,2.35986328125,43.96529411764706,328.8924353627061
-0.05222705078125,0.0221000976562499,0.98414013671875,0.9857727364106408,-1.1044921875,0.5458984375,2.3017578125,43.30647058823529,328.8924353627061
-0.05613330078125,0.0284477539062499,0.99439404296875,0.9963833272644844,-1.14892578125,0.2685546875,2.23974609375,43.63588235294118,328.4275326419068
-0.05613330078125,0.03186572265625,0.99244091796875,0.994537755641111,-1.16162109375,-0.09765625,2.18603515625,44.01235294117648,328.4275326419068
-0.06296923828125,0.0308891601562499,1.00757763671875,1.010015821262529,-1.24951171875,-0.34033203125,2.0732421875,43.87117647058824,328.4275326419068
-0.07517626953125,0.03186572265625,1.03443310546875,1.037650589298133,-1.0439453125,-0.330078125,1.86572265625,43.87117647058824,328.4275326419068
-0.07664111328125,0.0211235351562499,1.04224560546875,1.0452731538221998,-0.912109375,-0.10595703125,1.66943359375,43.82411764705883,328.4275326419068
-0.08347705078125,0.01428759765625,1.03687451171875,1.0403274996393774,-0.79931640625,0.205078125,1.4873046875,43.87117647058824,328.5933203573281
-0.07566455078125,0.0001274414062499,1.01490185546875,1.017718485987236,-0.73291015625,0.46533203125,1.33154296875,43.82411764705883,328.5933203573281
-0.07859423828125,-0.01207958984375,0.99830029296875,1.0014621539146125,-0.72900390625,0.60498046875,1.154296875,43.777058823529416,328.5933203573281
-0.08640673828125,-0.02184521484375,0.97974560546875,0.983791029267548,-0.779296875,0.5712890625,1.05029296875,43.87117647058824,328.5933203573281
-0.10007861328125,-0.03063427734375,0.96851513671875,0.9741538676400204,-0.87744140625,0.43994140625,1.09228515625,44.01235294117648,328.1512235460632
-0.10349658203125,-0.02868115234375,0.96216748046875,0.9681427639886068,-0.9453125,0.3154296875,1.150390625,43.96529411764706,328.1512235460632
-0.10007861328125,-0.02526318359375,0.96167919921875,0.9672025845145398,-0.9970703125,0.28564453125,1.0810546875,43.82411764705883,328.1512235460632
-0.11033251953125,-0.02721630859375,0.96705029296875,0.9737044014743534,-1.04833984375,0.33740234375,0.95556640625,43.82411764705883,328.1512235460632
-0.12253955078125,-0.03649365234375,0.96656201171875,0.9749819745333008,-1.0498046875,0.3876953125,0.82470703125,43.87117647058824,328.1512235460632
-0.12546923828125,-0.04235302734375,0.96900341796875,0.9780101904965904,-1.04736328125,0.474609375,0.771484375,43.68294117647059,328.6161179111179
-0.12644580078125,-0.04967724609375,0.96412060546875,0.9736451669905724,-1.033203125,0.59765625,0.755859375,43.96529411764706,328.6161179111179
-0.11863330078125,-0.05700146484375,0.95240185546875,0.9614532340935286,-1.04296875,0.701171875,0.74755859375,43.68294117647059,328.6161179111179
-0.12156298828125,-0.06530224609375,0.94898388671875,0.9589642124274405,-1.06201171875,0.6806640625,0.775390625,43.68294117647059,328.6161179111179
-0.12156298828125,-0.07067333984375,0.94556591796875,0.95596400889815,-1.08349609375,0.51318359375,0.85595703125,43.82411764705883,328.3506269110144
-0.11033251953125,-0.07457958984375,0.93238232421875,0.941845092678692,-1.0986328125,0.22412109375,0.978515625,43.49470588235295,328.3506269110144
-0.09373095703125,-0.07409130859375,0.94458935546875,0.9521155732262742,-1.1337890625,-0.1328125,1.01416015625,43.777058823529416,328.3506269110144
-0.09275439453125,-0.07702099609375,0.94947216796875,0.9570961337772764,-1.1357421875,-0.40966796875,0.94970703125,44.01235294117648,328.3506269110144
-0.10056689453125,-0.08434521484375,0.98218701171875,0.990918332422862,-1.130859375,-0.3857421875,0.80908203125,43.82411764705883,328.3506269110144
-0.08884814453125,-0.08776318359375,1.00318310546875,1.0109266601881075,-1.10595703125,-0.2060546875,0.6630859375,43.82411764705883,328.6508921123855
-0.09275439453125,-0.08532177734375,1.01831982421875,1.026088908326594,-1.0986328125,-0.00390625,0.50927734375,43.96529411764706,328.6508921123855
-0.09275439453125,-0.08288037109375,1.02369091796875,1.0312204561339922,-1.05615234375,0.177734375,0.38671875,43.777058823529416,328.6508921123855
-0.09275439453125,-0.08336865234375,1.01831982421875,1.025928347544495,-1.02880859375,0.4677734375,0.23681640625,43.82411764705883,328.6508921123855
-0.08005908203125,-0.08483349609375,1.01734326171875,1.0240085404134671,-1.0009765625,0.701171875,0.09765625,43.96529411764706,328.7625745631614
-0.06101611328125,-0.08873974609375,1.00074169921875,1.0065195761493986,-1.04541015625,0.7109375,-0.0205078125,43.82411764705883,328.7625745631614
-0.05027392578125,-0.09557568359375,0.98414013671875,0.9900474673512736,-1.0908203125,0.5966796875,-0.14501953125,43.87117647058824,328.7625745631614
-0.04050830078125,-0.11413037109375,0.97046826171875,0.977995557782137,-1.08984375,0.42138671875,-0.28271484375,43.777058823529416,328.7625745631614
-0.04441455078125,-0.13073193359375,0.96412060546875,0.9739568946681828,-1.0771484375,0.2421875,-0.39697265625,43.82411764705883,328.7625745631614
-0.06541064453125,-0.14391552734375,0.97046826171875,0.983259313930987,-1.06689453125,0.02001953125,-0.39892578125,43.87117647058824,328.3962210913307
-0.09910205078125,-0.14196240234375,0.98267529296875,0.9978102382514806,-1.07421875,-0.1357421875,-0.4091796875,43.777058823529416,328.3962210913307
-0.12888720703125,-0.13122021484375,1.00220654296875,1.018944852133485,-1.10595703125,-0.1806640625,-0.3994140625,43.68294117647059,328.3962210913307
