AccX,AccY,AccZ,Magnitude,GyroX,GyroY,GyroZ,Temperature,Altitude
-0.23826220703125,0.0196586914062499,0.8298432617187499,0.8635943390662204,-2.33544921875,-2.8173828125,1.46240234375,44.81235294117647,310.0590444244916
-0.17966845703125,0.08899462890625,0.8308198242187499,0.8546709183896606,-2.2109375,-3.01611328125,1.30615234375,45.84764705882353,310.0590444244916
-0.24021533203125,0.11145556640625,0.8357026367187499,0.8766553747308532,-2.05810546875,-3.2607421875,1.33154296875,45.00058823529412,310.0590444244916
-0.20359423828125,0.13391650390625,0.8239838867187499,0.8592634575332136,-1.76953125,-3.1826171875,1.404296875,45.61235294117647,310.5396812539152
-0.38084033203125,0.11194384765625,0.8479096679687499,0.9362273167156756,-1.330078125,-2.76953125,1.05126953125,45.61235294117647,310.5396812539152
-0.39500048828125,0.05823291015625,0.8635346679687499,0.9513719463761746,-0.85546875,-2.48046875,0.4892578125,46.27117647058824,310.5396812539152
-0.35154345703125,0.0221000976562499,0.8718354492187499,0.9403022211035968,-0.42138671875,-2.55126953125,-0.00927734375,45.00058823529412,310.5396812539152
-0.28757861328125,0.0191704101562499,0.8703706054687499,0.9168500173454563,-0.05029296875,-2.7724609375,-0.6171875,45.61235294117647,310.5396812539152
-0.25144580078125,0.05481494140625,0.8757416992187499,0.9127722565253822,0.125,-3.13916015625,-1.22314453125,46.17705882352941,310.0727185412701
-0.22703173828125,0.07239306640625,0.8610932617187499,0.8934572019006513,0.546875,-3.53369140625,-2.04248046875,46.13,310.0727185412701
-0.22898486328125,0.08264697265625,0.8508393554687499,0.8849814678939064,0.66015625,-4.10693359375,-2.685546875,45.00058823529412,310.0727185412701
-0.19187548828125,0.09436572265625,0.8581635742187499,0.8844013866630379,0.73779296875,-4.46533203125,-3.2109375,44.85941176470588,310.0727185412701
-0.16941455078125,0.08997119140625,0.8542573242187499,0.875529372026348,0.87939453125,-4.92138671875,-3.79150390625,45.84764705882353,310.0820399831382
-0.17087939453125,0.09924853515625,0.8762299804687499,0.8982366157523829,0.95849609375,-5.43115234375,-4.56640625,44.85941176470588,310.0820399831382
-0.22459033203125,0.10510791015625,0.91382763671875,0.9468735077349544,1.0439453125,-5.95263671875,-5.3056640625,45.61235294117647,310.0820399831382
-0.29587939453125,0.09631884765625,0.94947216796875,0.9991593137579636,0.96044921875,-6.55029296875,-5.67578125,45.70647058823529,310.0820399831382
-0.25828173828125,0.07776416015625,0.99585888671875,1.0317420429502226,0.91357421875,-6.80859375,-5.9228515625,46.17705882352941,310.0820399831382
-0.14890673828125,0.05335009765625,0.99390576171875,1.006413489974782,1.0712890625,-6.3916015625,-6.33349609375,44.85941176470588,310.33996709160954
-0.05564501953125,-0.03844677734375,0.92652294921875,0.9289883197951216,1.240234375,-5.52001953125,-6.7255859375,45.00058823529412,310.33996709160954
-0.04343798828125,-0.13610302734375,0.8855073242187499,0.8969582566224059,1.12890625,-4.51953125,-6.97314453125,45.00058823529412,310.33996709160954
-0.06687548828125,-0.26989208984375,0.8513276367187499,0.8955851808366495,1.0859375,-4.177734375,-7.00927734375,45.518235294117645,310.33996709160954
-0.12498095703125,-0.24596630859375,0.8371674804687499,0.8814584816870717,0.77490234375,-4.3974609375,-6.62939453125,45.00058823529412,310.38450917351435
-0.21482470703125,-0.40368115234375,0.8752534179687499,0.9875103407937658,0.294921875,-4.98779296875,-5.82177734375,45.42411764705882,310.38450917351435
-0.17918017578125,-0.34459912109375,0.96412060546875,1.0394145619246506,0.0615234375,-5.02734375,-5.3212890625,45.61235294117647,310.38450917351435
-0.12839892578125,-0.30553662109375,0.99292919921875,1.0467794923632927,-0.04052734375,-4.61279296875,-5.27392578125,46.27117647058824,310.38450917351435
-0.09812548828125,-0.28942333984375,0.99195263671875,1.0379617115240931,-0.20654296875,-4.130859375,-4.93505859375,45.61235294117647,310.38450917351435
-0.06052783203125,-0.28209912109375,1.09742138671875,1.134714604030447,-0.26123046875,-3.818359375,-4.6708984375,45.7535294117647,310.2293387630198
-0.03611376953125,-0.28112255859375,0.93335888671875,0.9754449798512046,-0.28857421875,-3.7734375,-4.48388671875,45.7535294117647,310.2293387630198
0.00783154296875,-0.28795849609375,0.8806245117187499,0.9265424756468168,-0.22412109375,-3.85546875,-4.2900390625,45.565294117647056,310.2293387630198
-0.05369189453125,-0.27672802734375,0.8532807617187499,0.8986374569175537,-0.27734375,-4.0107421875,-3.8349609375,45.33,310.2293387630198
-0.02634814453125,-0.23131787109375,0.8801362304687499,0.910407582564713,-0.21728515625,-4.8662109375,-3.20654296875,45.565294117647056,310.23079121361167
-0.05222705078125,-0.15709912109375,0.8996674804687499,0.9147728538247758,-0.20947265625,-5.73486328125,-3.11181640625,46.17705882352941,310.23079121361167
-0.08884814453125,-0.11950146484375,0.93677685546875,0.948538596910198,-0.3212890625,-6.16845703125,-3.50732421875,45.70647058823529,310.23079121361167
-0.04294970703125,-0.12243115234375,0.97290966796875,0.981522942383596,-0.38916015625,-6.1298828125,-4.1767578125,45.565294117647056,310.23079121361167
0.01613232421875,-0.14538037109375,0.96021435546875,0.97129156932011,-0.4365234375,-5.57763671875,-4.43701171875,45.61235294117647,310.23079121361167
0.03371044921875,-0.18493115234375,0.93580029296875,0.9544936426263484,-0.6357421875,-5.001953125,-4.400390625,45.565294117647056,310.0756219573695
0.01124951171875,-0.18883740234375,0.92456982421875,0.9437242584005858,-0.8046875,-4.69970703125,-4.3115234375,45.61235294117647,310.0756219573695
0.01564404296875,-0.18053662109375,0.93140576171875,0.9488703286536264,-0.8818359375,-4.763671875,-4.3515625,44.85941176470588,310.0756219573695
0.03322216796875,-0.15954052734375,0.97095654296875,0.984537201249141,-0.857421875,-5.02294921875,-4.52685546875,45.565294117647056,310.0756219573695
-0.02146533203125,-0.10485302734375,1.00318310546875,1.0088762366714197,-0.7080078125,-5.38720703125,-4.51513671875,46.13,310.39964161837986
-0.07273486328125,-0.07360302734375,1.01490185546875,1.020163487978578,-0.59375,-5.44384765625,-4.48828125,45.70647058823529,310.39964161837986
-0.09031298828125,-0.04723583984375,1.03687451171875,1.0418715916417098,-0.47412109375,-5.11962890625,-4.74951171875,44.81235294117647,310.39964161837986
-0.05564501953125,-0.05944287109375,1.04517529296875,1.048342127434939,-0.3232421875,-4.01904296875,-4.98193359375,45.7535294117647,310.39964161837986
0.00294873046875,-0.09997021484375,1.05347607421875,1.058212917053384,-0.1015625,-2.92919921875,-5.21142578125,44.85941176470588,310.39964161837986
0.03761669921875,-0.13952099609375,1.06910107421875,1.078822613457278,0.06103515625,-2.2216796875,-5.48388671875,44.85941176470588,309.8191499417682
0.01124951171875,-0.15416943359375,1.10523388671875,1.1159913575471645,0.21142578125,-2.35009765625,-5.53466796875,44.85941176470588,309.8191499417682
-0.02097705078125,-0.12389599609375,1.13208935546875,1.1390419497424982,0.40478515625,-3.087890625,-5.21337890625,45.00058823529412,309.8191499417682
-0.01609423828125,-0.06676708984375,1.14331982421875,1.1453807616874183,0.6103515625,-3.8876953125,-4.91259765625,46.13,309.8191499417682
0.05080029296875,-0.05748974609375,1.13697216796875,1.1395575682725267,0.833984375,-4.23193359375,-5.19677734375,46.13,310.1891553087195
0.19874951171875,-0.11266552734375,1.11060498046875,1.1338599173187487,1.0166015625,-4.2216796875,-5.89892578125,45.70647058823529,310.1891553087195
0.31593701171875,-0.19323193359375,1.07593701171875,1.1378906927822314,1.1865234375,-3.7548828125,-6.330078125,44.81235294117647,310.1891553087195
0.43751904296875,-0.28600537109375,1.01246044921875,1.1394288685508185,1.162109375,-3.26025390625,-6.51611328125,45.565294117647056,310.1891553087195
0.49806591796875,-0.34850537109375,0.96314404296875,1.138934633694768,0.68408203125,-2.95751953125,-6.8779296875,44.95352941176471,310.1891553087195
0.50197216796875,-0.34020458984375,0.97437451171875,1.1476588820085667,0.01318359375,-3.06396484375,-7.521484375,44.95352941176471,310.1108437307324
0.52540966796875,-0.29625927734375,1.04322216796875,1.205046625798642,-0.470703125,-3.908203125,-7.85400390625,46.13,310.1108437307324
0.41310498046875,-0.26061474609375,1.12671826171875,1.2280349392668426,-0.66357421875,-4.6669921875,-7.6220703125,45.518235294117645,310.1108437307324
0.30275341796875,-0.22545849609375,1.18872998046875,1.2472249724960816,-0.9501953125,-4.80908203125,-7.0302734375,44.81235294117647,310.1108437307324
0.17580029296875,-0.19860302734375,1.23169873046875,1.259932803016229,-1.22998046875,-4.34521484375,-7.05029296875,45.61235294117647,310.07707434617686
0.38820263671875,-0.19811474609375,1.22974560546875,1.3046934482647192,-1.640625,-3.51513671875,-7.4296875,44.95352941176471,310.07707434617686
0.44874951171875,-0.20348583984375,1.20630810546875,1.3030586543223364,-2.087890625,-2.5078125,-7.8125,45.61235294117647,310.07707434617686
0.46779248046875,-0.26207958984375,1.17505810546875,1.291618003677396,-2.40380859375,-1.7041015625,-7.9453125,44.81235294117647,310.07707434617686
0.57521435546875,-0.35534130859375,1.15552685546875,1.3387984590818536,-2.576171875,-1.66650390625,-7.90869140625,45.98882352941177,310.07707434617686
0.58937451171875,-0.43590771484375,1.13453076171875,1.3507545669773404,-2.623046875,-1.77392578125,-6.77099609375,46.13,310.2983307350367
0.46046826171875,-0.43786083984375,1.10035107421875,1.270639847342007,-2.35546875,-1.65869140625,-4.4560546875,45.70647058823529,310.2983307350367
0.36476513671875,-0.35289990234375,1.09107373046875,1.2033427738423792,-2.1416015625,-1.3408203125,-2.67822265625,44.85941176470588,310.2983307350367
0.42335888671875,-0.19030224609375,1.07935498046875,1.1749276001927784,-2.0263671875,-1.12548828125,-1.9931640625,45.70647058823529,310.2983307350367
0.40822216796875,-0.05163037109375,1.09888623046875,1.1733976227836,-2.033203125,-1.08935546875,-1.7216796875,45.70647058823529,310.28901200133384
0.43947216796875,0.03918994140625,1.12085888671875,1.2045730703709818,-1.90234375,-0.93994140625,-1.81689453125,45.61235294117647,310.28901200133384
0.40871044921875,0.06262744140625,1.11402294921875,1.188281767555039,-1.69482421875,-0.4365234375,-1.99267578125,45.61235294117647,310.28901200133384
0.43751904296875,0.04065478515625,1.09546826171875,1.1803077721295796,-1.4873046875,0.4892578125,-2.21240234375,45.7535294117647,310.28901200133384
0.43996044921875,0.03186572265625,1.04761669921875,1.136697571757395,-1.259765625,1.5859375,-2.33349609375,45.565294117647056,310.28901200133384
0.43117138671875,0.05481494140625,0.96802685546875,1.0611264936071745,-1.0244140625,2.7880859375,-2.427734375,44.95352941176471,310.4657289160839
0.40773388671875,0.09973681640625,0.95728466796875,1.0452694822167496,-0.8525390625,3.51611328125,-2.47509765625,45.37705882352941,310.4657289160839
0.42140576171875,0.14514697265625,0.98023388671875,1.0768049648626166,-0.7490234375,3.45947265625,-2.73583984375,45.33,310.4657289160839
0.37746044921875,0.14661181640625,0.96753857421875,1.0488576204784,-0.5517578125,3.3486328125,-3.15576171875,46.17705882352941,310.4657289160839
0.36330029296875,0.10950244140625,0.93238232421875,1.006635329233316,-0.6181640625,3.5107421875,-3.74462890625,44.85941176470588,310.34578083096375
0.36818310546875,0.04749072265625,0.90113232421875,0.9746043472316916,-0.69677734375,4.01123046875,-4.32958984375,44.95352941176471,310.34578083096375
0.37355419921875,-0.06432568359375,0.7971284179687499,0.8826631566215545,-1.1142578125,4.47216796875,-4.68701171875,45.565294117647056,310.34578083096375
0.35744091796875,-0.14440380859375,0.7321870117187499,0.8274746460794771,-1.85400390625,4.75146484375,-4.69677734375,45.37705882352941,310.34578083096375
0.32863232421875,-0.19225537109375,0.7121674804687499,0.8075542411956118,-2.412109375,4.27587890625,-4.42333984375,45.89470588235295,310.34578083096375
0.28078076171875,-0.23131787109375,0.7439057617187499,0.8280951490964428,-2.80029296875,3.36962890625,-4.140625,45.09470588235294,310.1999274906853
0.29054638671875,-0.25036083984375,0.8039643554687499,0.8907617177600705,-2.81884765625,1.9443359375,-4.23828125,45.70647058823529,310.1999274906853
0.30421826171875,-0.25719677734375,0.8713471679687499,0.9580943691340374,-2.58837890625,0.82373046875,-4.32275390625,45.7535294117647,310.1999274906853
0.30324169921875,-0.25084912109375,0.96509716796875,1.0422539773586297,-2.279296875,-0.10205078125,-3.9853515625,45.61235294117647,310.1999274906853
0.32814404296875,-0.23082958984375,1.12867138671875,1.197856381909341,-1.77490234375,-0.67919921875,-3.4482421875,46.17705882352941,310.16761098550364
0.31447216796875,-0.20788037109375,1.32105419921875,1.3737871707024103,-1.14306640625,-0.794921875,-2.916015625,45.61235294117647,310.16761098550364
0.32814404296875,-0.24596630859375,1.21802685546875,1.285211017126061,-1.3349609375,0.73779296875,-2.88818359375,45.7535294117647,310.16761098550364
0.30568310546875,-0.20495068359375,0.95093701171875,1.0196706056031772,-2.45166015625,4.20849609375,-3.26123046875,45.7535294117647,310.16761098550364
0.46632763671875,-0.09215771484375,0.8962495117187499,1.014503669992876,-2.79296875,6.1650390625,-3.10498046875,45.37705882352941,310.16761098550364
0.33644482421875,-0.03209912109375,0.8630463867187499,0.926862740079062,-2.228515625,4.1201171875,-1.662109375,46.27117647058824,310.4549567104275
0.15724560546875,-0.07116162109375,1.19703076171875,1.209410104661316,-1.21044921875,-0.03369140625,-0.52490234375,45.84764705882353,310.4549567104275
0.19093701171875,-0.21227490234375,1.31714794921875,1.3477374732269982,-0.83056640625,-2.38818359375,-0.7041015625,45.7535294117647,310.4549567104275
0.34621044921875,-0.37340771484375,1.21851513671875,1.320633989819206,-1.7763671875,-1.80029296875,-1.48779296875,45.61235294117647,310.4549567104275
0.37794873046875,-0.40758740234375,1.13355419921875,1.2625045964188517,-3.0263671875,1.29345703125,-1.486328125,45.565294117647056,310.43486687976923
0.43849560546875,-0.41002880859375,1.08130810546875,1.2367818072904506,-3.205078125,3.5498046875,-0.71142578125,45.7535294117647,310.43486687976923
0.58156201171875,-0.41002880859375,0.93628857421875,1.1759992736238187,-3.39501953125,3.107421875,-0.17431640625,46.27117647058824,310.43486687976923
0.66164013671875,-0.36657177734375,0.90455029296875,1.1791326350211893,-3.5380859375,0.00732421875,0.009765625,45.7535294117647,310.43486687976923
0.66505810546875,-0.29479443359375,0.92505810546875,1.1768341175462986,-3.75830078125,-3.48388671875,0.32958984375,45.565294117647056,310.43486687976923
0.60988232421875,-0.23961865234375,0.98609326171875,1.1839567005396026,-3.99609375,-5.82421875,0.4111328125,46.17705882352941,310.34578083096375
0.62208935546875,-0.22008740234375,1.13257763671875,1.3107882109835187,-3.80517578125,-6.8720703125,0.11328125,45.61235294117647,310.34578083096375
0.53126904296875,-0.25084912109375,1.17115185546875,1.3102552217557977,-3.81298828125,-6.55908203125,-0.31005859375,45.7535294117647,310.34578083096375
0.54689404296875,-0.25817333984375,1.20728466796875,1.350289908557861,-3.86083984375,-6.017578125,-0.3359375,45.7535294117647,310.34578083096375
0.58400341796875,-0.27135693359375,1.18384716796875,1.3476604523084497,-3.759765625,-6.01611328125,-0.2978515625,45.70647058823529,310.35509890610655
0.62843701171875,-0.26696240234375,1.12622998046875,1.3170406109417354,-3.6669921875,-6.3193359375,-0.40771484375,45.61235294117647,310.35509890610655
0.69435498046875,-0.21471630859375,1.10914013671875,1.3260557209100876,-3.23828125,-6.76220703125,-0.787109375,44.81235294117647,310.35509890610655
0.68263623046875,-0.18346630859375,1.04419873046875,1.2609532498273484,-3.00830078125,-6.84619140625,-1.232421875,45.61235294117647,310.35509890610655
0.70607373046875,-0.13756787109375,0.99048779296875,1.2241450486096117,-2.92333984375,-6.84228515625,-1.537109375,46.17705882352941,310.35509890610655
0.76076123046875,-0.12438427734375,0.94117138671875,1.2165659363194203,-3.0068359375,-6.97314453125,-1.8291015625,45.61235294117647,310.3658711104397
0.78664013671875,-0.08727490234375,0.90845654296875,1.2048704925172402,-3.0,-7.44921875,-2.39111328125,45.70647058823529,310.3658711104397
0.84523388671875,-0.06530224609375,0.8845307617187499,1.225185445158946,-2.65234375,-8.076171875,-3.00439453125,46.27117647058824,310.3658711104397
0.86574169921875,-0.07457958984375,0.8845307617187499,1.2399457542224104,-2.486328125,-8.740234375,-3.72900390625,45.61235294117647,310.3658711104397
0.88917919921875,-0.09313427734375,0.8816010742187499,1.255601089519794,-2.4482421875,-9.1201171875,-4.244140625,45.37705882352941,310.2904659652016
0.87404248046875,-0.11168896484375,0.91675732421875,1.2715615101286115,-2.49609375,-9.16162109375,-4.57958984375,45.565294117647056,310.2904659652016
0.83937451171875,-0.12536083984375,0.96607373046875,1.285909547282089,-2.3779296875,-8.806640625,-4.7216796875,45.70647058823529,310.2904659652016
0.80031201171875,-0.16002880859375,0.99927685546875,1.2902181092965486,-2.24951171875,-8.072265625,-4.666015625,45.70647058823529,310.2904659652016
0.79054638671875,-0.19030224609375,1.01880810546875,1.3035139010348995,-1.90283203125,-6.80322265625,-4.60302734375,44.81235294117647,310.2904659652016
0.77882763671875,-0.18590771484375,1.03052685546875,1.3050363083062664,-1.62841796875,-5.47900390625,-4.55322265625,46.17705882352941,310.39818780487553
0.78761669921875,-0.18590771484375,0.99097607421875,1.2794277326213737,-1.5078125,-3.8173828125,-4.49072265625,45.70647058823529,310.39818780487553
0.78517529296875,-0.19616162109375,0.94996044921875,1.2479601265098894,-1.61328125,-2.51123046875,-4.326171875,45.7535294117647,310.39818780487553
0.81154248046875,-0.20739208984375,0.93140576171875,1.2526489410437445,-1.7509765625,-1.6884765625,-4.1318359375,45.565294117647056,310.39818780487553
0.81056591796875,-0.24645458984375,0.90747998046875,1.2414817305055827,-1.9453125,-1.19580078125,-3.94580078125,46.27117647058824,310.39964161837986
0.80665966796875,-0.28112255859375,0.8923432617187499,1.2353162387067562,-2.17578125,-0.939453125,-3.83984375,45.70647058823529,310.39964161837986
0.81544873046875,-0.29284130859375,0.8967377929687499,1.2469367800255395,-2.283203125,-0.7822265625,-3.78955078125,44.81235294117647,310.39964161837986
0.77150341796875,-0.27770458984375,0.8811127929687499,1.2036183436168375,-2.31591796875,-0.54248046875,-3.5791015625,44.95352941176471,310.39964161837986
0.72951123046875,-0.22838818359375,0.8664643554687499,1.15546885595552,-2.35498046875,-0.2236328125,-3.40576171875,44.85941176470588,310.39964161837986
0.70851513671875,-0.14977490234375,0.8503510742187499,1.116925767343851,-2.37890625,0.15234375,-3.35498046875,45.70647058823529,310.5469532018951
0.70412060546875,-0.08629833984375,0.8200776367187499,1.084324933196538,-2.431640625,0.46826171875,-3.345703125,45.565294117647056,310.5469532018951
0.69289013671875,-0.03649365234375,0.7971284179687499,1.056807571394564,-2.51806640625,0.75634765625,-3.27734375,45.565294117647056,310.5469532018951
0.70119091796875,0.0260063476562499,0.7854096679687499,1.053191995838868,-2.31103515625,0.84765625,-3.2861328125,45.61235294117647,310.5469532018951
0.70753857421875,0.06848681640625,0.7492768554687499,1.0328199669691245,-2.06982421875,0.86376953125,-3.64306640625,45.61235294117647,310.4363218735727
0.68214794921875,0.09680712890625,0.7199799804687499,0.996528282140652,-1.919921875,1.06591796875,-4.248046875,45.61235294117647,310.4363218735727
0.64503857421875,0.13098681640625,0.7238862304687499,0.9783882577814692,-1.7294921875,1.54052734375,-4.83740234375,46.08294117647059,310.4363218735727
0.61281201171875,0.14221728515625,0.7160737304687499,0.9531662527447284,-1.4814453125,2.5205078125,-5.33203125,45.37705882352941,310.4363218735727
0.63478466796875,0.11340869140625,0.7199799804687499,0.966532088577744,-1.2958984375,3.7939453125,-5.84228515625,45.42411764705882,310.4363218735727
0.64992138671875,0.07336962890625,0.7307221679687499,0.9806812928373896,-1.294921875,5.11181640625,-6.35595703125,45.565294117647056,310.8803083851806
0.65431591796875,0.0196586914062499,0.7522065429687499,0.9971612045903572,-1.3056640625,6.1865234375,-6.744140625,45.565294117647056,310.8803083851806
0.62648388671875,-0.03942333984375,0.7771088867187499,0.9989667070828347,-1.365234375,6.81396484375,-6.81201171875,46.17705882352941,310.8803083851806
0.60060498046875,-0.09459912109375,0.7976166992187499,1.0029295763652557,-1.49462890625,7.0390625,-6.6259765625,45.565294117647056,310.8803083851806
0.56447216796875,-0.14391552734375,0.7941987304687499,0.9849325514471254,-1.6162109375,6.81298828125,-6.3212890625,45.61235294117647,310.56063710981914
0.55080029296875,-0.19323193359375,0.8015229492187499,0.9915435346061025,-1.8154296875,6.32373046875,-5.94921875,45.70647058823529,310.56063710981914
0.49855419921875,-0.23961865234375,0.7790620117187499,0.955463764992137,-2.04443359375,5.6787109375,-5.55615234375,45.09470588235294,310.56063710981914
0.46095654296875,-0.25719677734375,0.7956635742187499,0.954835923140865,-2.1494140625,5.3095703125,-4.9873046875,46.17705882352941,310.56063710981914
0.47853466796875,-0.22399365234375,0.8024995117187499,0.9608194684992007,-2.029296875,4.98583984375,-4.19580078125,46.17705882352941,310.56063710981914
0.47316357421875,-0.18541943359375,0.7907807617187499,0.9399991209709592,-1.96044921875,5.2666015625,-3.5791015625,45.61235294117647,310.45932132930204
0.50734326171875,-0.12389599609375,0.7790620117187499,0.9379152526549231,-1.7353515625,5.8076171875,-3.13232421875,45.7535294117647,310.45932132930204
0.48878857421875,-0.06139599609375,0.7526948242187499,0.8995739197135703,-1.40966796875,6.7060546875,-2.73291015625,45.70647058823529,310.45932132930204
0.51466748046875,-0.00280224609375,0.7126557617187499,0.8790726379237115,-0.96533203125,7.3974609375,-2.658203125,45.61235294117647,310.45932132930204
0.52687451171875,0.05774462890625,0.6550385742187499,0.842618969036969,-0.54150390625,7.62841796875,-2.83935546875,45.7535294117647,310.90330950727446
0.52492138671875,0.09729541015625,0.5974213867187499,0.8011998329887261,-0.373046875,7.806640625,-3.09033203125,45.42411764705882,310.90330950727446
0.53761669921875,0.12854541015625,0.5578706054687499,0.7853503996288358,0.0146484375,7.69091796875,-3.34814453125,44.85941176470588,310.90330950727446
0.54103466796875,0.12610400390625,0.5529877929687499,0.7838470711291151,0.0400390625,7.64501953125,-3.4208984375,45.61235294117647,310.90330950727446
0.55958935546875,0.13098681640625,0.5622651367187499,0.8040148486163239,0.02685546875,7.4794921875,-3.38427734375,44.85941176470588,310.90330950727446
0.57716748046875,0.10657275390625,0.5793549804687499,0.8247013070074235,-0.0068359375,7.43408203125,-3.3408203125,45.565294117647056,310.5454979045903
0.58351513671875,0.07043994140625,0.5954682617187499,0.8366804353153999,0.0009765625,7.4873046875,-3.59130859375,46.13,310.5454979045903
0.54396435546875,0.0006157226562499,0.5398041992187499,0.7663459875468246,0.3828125,7.25244140625,-3.95458984375,45.84764705882353,310.5454979045903
0.48048779296875,-0.06432568359375,0.4914643554687499,0.6903213204429495,0.40771484375,6.6162109375,-3.79150390625,45.00058823529412,310.5454979045903
0.43214794921875,-0.13073193359375,0.4797456054687499,0.6587856513629524,0.22998046875,5.53662109375,-3.3466796875,45.00058823529412,310.84799229600594
0.39308544921875,-0.14733349609375,0.5310151367187499,0.6769050191002769,0.19189453125,4.8681640625,-2.9345703125,45.00058823529412,310.84799229600594
0.36427685546875,-0.15905224609375,0.5764252929687499,0.7001866628205485,0.31884765625,4.35205078125,-2.7880859375,45.84764705882353,310.84799229600594
0.34328076171875,-0.15807568359375,0.6076752929687499,0.7156108333406451,0.46044921875,4.49755859375,-2.755859375,45.09470588235294,310.84799229600594
0.33790966796875,-0.16881787109375,0.6325776367187499,0.7367746492544757,0.5546875,4.85595703125,-2.81103515625,44.81235294117647,310.84799229600594
0.32423779296875,-0.16686474609375,0.6604096679687499,0.7543970568770614,0.60498046875,5.30810546875,-2.80517578125,45.84764705882353,310.72512985300415
0.32179638671875,-0.16784130859375,0.6936127929687499,0.7828296915329768,0.63818359375,5.673828125,-2.841796875,45.565294117647056,310.72512985300415
0.31789013671875,-0.16930615234375,0.7131440429687499,0.7989324991927196,0.6455078125,6.013671875,-2.81005859375,45.09470588235294,310.72512985300415
0.31837841796875,-0.17614208984375,0.7448823242187499,0.8289997163909857,0.63623046875,6.20068359375,-2.7890625,45.565294117647056,310.72512985300415
0.33253857421875,-0.18786083984375,0.7326752929687499,0.8262485603116544,0.64208984375,6.23046875,-2.8154296875,45.09470588235294,311.101578453921
0.33693310546875,-0.19127880859375,0.7321870117187499,0.8283775228164348,0.52392578125,5.83056640625,-2.9365234375,45.61235294117647,311.101578453921
0.34181591796875,-0.19616162109375,0.7404877929687499,0.8388323282412745,0.40380859375,5.0751953125,-3.0947265625,46.13,311.101578453921
0.32423779296875,-0.21081005859375,0.7478120117187499,0.8418989440926922,0.205078125,4.14306640625,-3.23388671875,45.61235294117647,311.101578453921
0.42140576171875,-0.20006787109375,0.7692963867187499,0.8996815545915507,0.017578125,3.19482421875,-3.30517578125,46.17705882352941,311.101578453921
0.26271435546875,-0.18639599609375,0.8005463867187499,0.8629234132978362,-0.1865234375,2.3896484375,-3.390625,45.7535294117647,310.5807250302562
0.22560498046875,-0.17321240234375,0.8405854492187499,0.8874029755281903,-0.32275390625,1.939453125,-3.517578125,44.85941176470588,310.5807250302562
0.20021435546875,-0.16588818359375,0.8757416992187499,0.9135251509084706,-0.3818359375,1.8125,-3.7158203125,45.61235294117647,310.5807250302562
0.18068310546875,-0.15465771484375,0.91187451171875,0.9423802409244532,-0.3974609375,2.11279296875,-3.9345703125,46.17705882352941,310.5807250302562
0.14845654296875,-0.13561474609375,0.92603466796875,0.9476132706902628,-0.3974609375,2.68212890625,-4.146484375,45.70647058823529,310.8113066178221
0.13331982421875,-0.11461865234375,0.91138623046875,0.928189890099463,-0.4658203125,3.16748046875,-4.328125,44.85941176470588,310.8113066178221
0.12990185546875,-0.09069287109375,0.90259716796875,0.9163958405332596,-0.46533203125,3.62353515625,-4.38232421875,45.565294117647056,310.8113066178221
0.13917919921875,-0.06872021484375,0.8879487304687499,0.901413481907392,-0.40380859375,3.98486328125,-4.4267578125,45.61235294117647,310.8113066178221
0.15724560546875,-0.04577099609375,0.8693940429687499,0.8846847836784559,-0.28466796875,4.18310546875,-4.482421875,45.70647058823529,310.8113066178221
0.15968701171875,-0.02282177734375,0.8352143554687499,0.850649043268651,-0.1298828125,4.15966796875,-4.60693359375,44.85941176470588,311.1475822980403
0.16554638671875,-0.00475537109375,0.8059174804687499,0.8227582907725519,0.06103515625,3.8310546875,-4.8095703125,46.27117647058824,311.1475822980403
0.16017529296875,0.00452197265625,0.7937104492187499,0.8097239343834159,0.2333984375,3.4267578125,-5.04296875,46.17705882352941,311.1475822980403
0.16017529296875,-0.00524365234375,0.7868745117187499,0.8030287152774477,0.39794921875,3.10205078125,-5.26123046875,44.85941176470588,311.1475822980403
0.16994091796875,-0.01305615234375,0.7902924804687499,0.8084630995905342,0.53955078125,2.77587890625,-5.4189453125,45.7535294117647,310.8142193047398
0.16554638671875,-0.01256787109375,0.7981049804687499,0.8151902338647629,0.7138671875,2.28076171875,-5.41015625,46.27117647058824,310.8142193047398
0.16798779296875,-0.01061474609375,0.8205659179687499,0.8376520740456885,0.89208984375,1.7958984375,-5.45654296875,45.565294117647056,310.8142193047398
0.18117138671875,-0.01549755859375,0.8503510742187499,0.8695747208336634,1.0888671875,1.30029296875,-5.72216796875,46.13,310.8142193047398
0.17677685546875,-0.02086865234375,0.8806245117187499,0.8984347989253033,1.1923828125,0.96435546875,-6.21142578125,45.09470588235294,310.8142193047398
0.15578076171875,-0.04186474609375,0.91919873046875,0.9332452029250028,1.146484375,0.9501953125,-6.66748046875,45.84764705882353,310.8803083851806
0.14210888671875,-0.04723583984375,0.97730419921875,0.9887111095061027,1.14794921875,1.271484375,-6.9638671875,45.00058823529412,310.8803083851806
0.15675732421875,-0.07164990234375,0.99634716796875,1.0111450174536982,1.119140625,1.67919921875,-7.02490234375,44.85941176470588,310.8803083851806
0.18849560546875,-0.08336865234375,1.01294873046875,1.0337050140310322,1.1142578125,2.08056640625,-7.072265625,45.37705882352941,310.8803083851806
0.20802685546875,-0.09313427734375,0.99244091796875,1.0182770457352035,1.08447265625,2.23291015625,-7.2060546875,45.84764705882353,311.0247165354336
0.20119091796875,-0.09948193359375,0.95630810546875,0.9822930485195795,1.0478515625,1.94970703125,-7.51220703125,46.17705882352941,311.0247165354336
0.16408154296875,-0.10143505859375,0.90943310546875,0.92966682052091,0.94677734375,1.35595703125,-7.921875,45.61235294117647,311.0247165354336
0.14162060546875,-0.09752880859375,0.8908784179687499,0.9073216739401492,0.69580078125,0.7158203125,-8.1611328125,45.61235294117647,311.0247165354336
0.14601513671875,-0.05602490234375,0.94068310546875,0.9535952573015204,0.39697265625,0.72900390625,-8.15869140625,46.17705882352941,311.0247165354336
0.19874951171875,0.00452197265625,1.01246044921875,1.0317935732874957,0.2548828125,1.6025390625,-8.564453125,45.37705882352941,310.8573075295764
0.24855419921875,0.03723681640625,1.07593701171875,1.1049010017334675,0.048828125,2.56884765625,-9.31640625,46.27117647058824,310.8573075295764
0.20460888671875,0.07434619140625,1.14429638671875,1.1648203180570331,-0.18115234375,3.58251953125,-9.814453125,45.7535294117647,310.8573075295764
0.13039013671875,0.10999072265625,1.10865185546875,1.121698927278742,-0.4150390625,4.5185546875,-9.6220703125,45.00058823529412,310.8573075295764
0.08986279296875,0.16565478515625,1.02808544921875,1.045216016094581,-0.4345703125,4.181640625,-8.3271484375,45.00058823529412,310.9283460899553
0.15675732421875,0.21887744140625,0.97974560546875,1.0160618310359346,-0.15380859375,2.1318359375,-6.95361328125,45.61235294117647,310.9283460899553
0.30080029296875,0.25745166015625,0.95044873046875,1.0296188434643925,0.00634765625,-0.20849609375,-6.18994140625,45.89470588235295,310.9283460899553
0.40529248046875,0.25989306640625,0.96802685546875,1.081148645468916,0.4833984375,-2.30224609375,-6.26953125,46.17705882352941,310.9283460899553
0.39162060546875,0.20081103515625,1.00904248046875,1.1008444476213537,0.77099609375,-4.23486328125,-6.5771484375,45.61235294117647,310.9283460899553
0.27150341796875,0.15344775390625,1.06470654296875,1.1094414548717988,0.83837890625,-5.46826171875,-6.5234375,45.565294117647056,310.71435781848965
0.15480419921875,0.14026416015625,1.13160107421875,1.1507212372651885,0.85498046875,-5.43359375,-6.251953125,45.565294117647056,310.71435781848965
0.08693310546875,0.16028369140625,1.16578076171875,1.1799546647862382,0.78076171875,-4.49072265625,-6.15869140625,46.17705882352941,310.71435781848965
0.08449169921875,0.19397509765625,1.17310498046875,1.1920320805029578,0.65234375,-2.8447265625,-6.38720703125,46.08294117647059,310.71435781848965
0.11378857421875,0.21643603515625,1.15552685546875,1.1811158751987,0.47265625,-1.2294921875,-7.2197265625,45.61235294117647,310.86807961972147
0.15675732421875,0.23206103515625,1.09693310546875,1.1321163458794017,0.3330078125,0.14208984375,-8.0791015625,45.70647058823529,310.86807961972147
0.17872998046875,0.23792041015625,1.02808544921875,1.0702851107917914,0.32861328125,1.16162109375,-8.71875,45.37705882352941,310.86807961972147
0.17726513671875,0.24622119140625,0.95923779296875,1.0060740267261592,0.34521484375,1.71337890625,-9.0986328125,45.70647058823529,310.86807961972147
0.16652294921875,0.25891650390625,0.90210888671875,0.9531883822773376,0.390625,1.95947265625,-9.26806640625,45.565294117647056,310.86807961972147
0.16945263671875,0.26624072265625,0.8649995117187499,0.9207727590264247,0.359375,2.0654296875,-9.3720703125,45.61235294117647,311.1735025173837
0.16310498046875,0.26086962890625,0.8435151367187499,0.8978719194924448,0.3427734375,1.98095703125,-9.48388671875,46.27117647058824,311.1735025173837
0.14015576171875,0.38196337890625,0.8376557617187499,0.9312394082667796,0.29052734375,1.63427734375,-9.5751953125,46.13,311.1735025173837
0.10890576171875,0.24817431640625,0.8640229492187499,0.905531122069207,0.2099609375,1.16748046875,-9.5478515625,45.7535294117647,311.1735025173837
0.07033154296875,0.23938525390625,0.8982026367187499,0.9322123161236604,0.14599609375,0.88330078125,-9.4189453125,45.09470588235294,310.703585797552
-0.07419970703125,0.23743212890625,0.94751904296875,0.9796284750602614,0.14306640625,0.751953125,-9.1201171875,45.7535294117647,310.703585797552
0.06154248046875,0.23206103515625,0.99195263671875,1.0205928837853595,0.279296875,1.19287109375,-8.74072265625,45.61235294117647,310.703585797552
0.09376904296875,0.21301806640625,1.01050732421875,1.0369640217165064,0.52392578125,1.4736328125,-8.390625,44.85941176470588,310.703585797552
0.10548779296875,0.18713916015625,1.01929638671875,1.041687987694638,0.76171875,1.50048828125,-8.08447265625,44.85941176470588,310.703585797552
0.10109326171875,0.16321337890625,1.00660107421875,1.024745908621875,0.9619140625,1.3330078125,-7.7216796875,45.61235294117647,311.0506347275933
0.08302685546875,0.14465869140625,0.99488232421875,1.0087667890901737,1.04248046875,1.24853515625,-7.3837890625,45.7535294117647,311.0506347275933
0.06447216796875,0.13879931640625,0.98706982421875,0.9988637287241272,1.0078125,0.82958984375,-7.1494140625,46.17705882352941,311.0506347275933
0.03566357421875,0.12512744140625,0.97242138671875,0.9810872134866232,0.9072265625,0.578125,-7.06494140625,46.17705882352941,311.0506347275933
0.01076123046875,0.12708056640625,0.97779248046875,0.9860747483332922,0.7802734375,0.5859375,-6.9501953125,45.61235294117647,310.4485493184732
-0.01023486328125,0.13977587890625,0.97730419921875,0.9873021556549963,0.60791015625,0.7861328125,-6.79833984375,45.61235294117647,310.4485493184732
-0.01853564453125,0.15002978515625,0.99732373046875,1.0087155842497544,0.43603515625,0.99951171875,-6.66552734375,45.7535294117647,310.4485493184732
-0.01609423828125,0.15784228515625,1.00708935546875,1.0195107558960146,0.32177734375,1.31396484375,-6.53466796875,44.95352941176471,310.4485493184732
-0.01414111328125,0.16418994140625,1.02271435546875,1.0359068301858434,0.283203125,1.73876953125,-6.51806640625,45.7535294117647,310.4485493184732
-0.0048637695312499,0.16272509765625,1.00904248046875,1.0220909162358391,0.2666015625,2.158203125,-6.64453125,44.81235294117647,310.90330950727446
1.904296875000072e-05,0.15344775390625,0.98706982421875,0.998925948919509,0.20458984375,2.5625,-6.763671875,45.7535294117647,310.90330950727446
0.01857373046875,0.15588916015625,0.96558544921875,0.9782646234331086,0.17431640625,2.93896484375,-6.79443359375,46.27117647058824,310.90330950727446
0.05910107421875,0.16077197265625,0.94996044921875,0.9652799693588804,0.16162109375,3.0947265625,-6.859375,45.7535294117647,310.90330950727446
0.09132763671875,0.17053759765625,0.96070263671875,0.9799864109472924,0.13818359375,2.89208984375,-6.91357421875,45.7535294117647,311.06140662556226
0.10695263671875,0.18079150390625,0.99097607421875,1.0129945775075906,0.30322265625,2.6435546875,-6.9296875,46.17705882352941,311.06140662556226
0.10548779296875,0.17639697265625,1.00904248046875,1.029762251113448,0.51416015625,2.44677734375,-6.9111328125,44.95352941176471,311.06140662556226
0.09767529296875,0.15344775390625,1.01978466796875,1.0358800341060437,0.62158203125,2.109375,-6.728515625,45.235882352941175,311.06140662556226
0.08644482421875,0.12415087890625,1.05054638671875,1.0613829935585113,0.6962890625,2.37109375,-6.38671875,45.7535294117647,311.06140662556226
0.09181591796875,0.10022509765625,1.03687451171875,1.0457456603039983,0.92529296875,3.2919921875,-6.4208984375,45.37705882352941,310.6453575511549
0.13722607421875,0.03333056640625,0.94800732421875,0.958467427132944,1.04541015625,3.1669921875,-6.7470703125,45.565294117647056,310.6453575511549
0.11867138671875,-0.01354443359375,0.8488862304687499,0.85724802827803,0.8896484375,1.68212890625,-6.921875,44.85941176470588,310.6453575511549
0.11281201171875,-0.01940380859375,0.7766206054687499,0.7850112245150525,0.55859375,-0.13916015625,-6.7431640625,45.98882352941177,310.6453575511549
0.10060498046875,-0.00817333984375,0.7878510742187499,0.794290551830347,0.32373046875,-1.69482421875,-6.390625,45.61235294117647,311.0922641639356
0.17384716796875,0.00452197265625,0.8098237304687499,0.8282860378382465,0.15576171875,-2.1611328125,-5.97900390625,46.27117647058824,311.0922641639356
-0.02683642578125,0.0167290039062499,0.8703706054687499,0.8709449145522615,0.1025390625,-2.10595703125,-5.66552734375,44.85941176470588,311.0922641639356
-0.09421923828125,0.0186821289062499,0.93775341796875,0.9426599385328952,0.22509765625,-1.64453125,-5.55078125,45.565294117647056,311.0922641639356
-0.14597705078125,0.0172172851562499,0.98462841796875,0.9955394797468288,0.31201171875,-0.8017578125,-5.421875,45.565294117647056,311.0922641639356
-0.15867236328125,0.03870166015625,1.02613232421875,1.0390487400380606,0.41015625,0.22314453125,-5.1640625,46.27117647058824,310.8925374972475
-0.13084033203125,0.07385791015625,1.04419873046875,1.0549526871339994,0.43896484375,1.212890625,-4.9873046875,45.61235294117647,310.8925374972475
-0.07859423828125,0.11292041015625,1.04078076171875,1.049834590440193,0.43603515625,1.83447265625,-4.9921875,45.70647058823529,310.8925374972475
-0.03611376953125,0.13489306640625,1.02173779296875,1.0312363750832734,0.62353515625,2.13525390625,-5.0654296875,45.565294117647056,310.8925374972475
0.01124951171875,0.12073291015625,0.99244091796875,0.9998209653569796,0.6328125,2.06640625,-5.04931640625,45.37705882352941,311.0721785371129
0.04689404296875,0.09387744140625,0.96607373046875,0.9717563881821132,0.79833984375,1.63525390625,-4.978515625,45.84764705882353,311.0721785371129
0.06154248046875,0.06116259765625,0.95240185546875,0.9563459805711656,0.94677734375,0.94970703125,-4.8046875,46.27117647058824,311.0721785371129
0.05226513671875,0.0269829101562499,0.95191357421875,0.9537290887556306,1.09765625,0.2333984375,-4.60693359375,44.85941176470588,311.0721785371129
0.02199169921875,0.0006157226562499,0.97144482421875,0.971693912942916,1.15087890625,-0.1845703125,-4.4453125,45.98882352941177,311.0721785371129
-0.06736376953125,-0.05163037109375,1.04419873046875,1.0476423823888033,1.0654296875,-0.1240234375,-4.60693359375,45.00058823529412,310.8832230702689
-0.02439501953125,-0.05651318359375,1.03394482421875,1.0357754372577934,1.03125,0.00537109375,-4.64599609375,46.17705882352941,310.8832230702689
-0.05515673828125,-0.05065380859375,1.06031201171875,1.0629532615773571,0.99169921875,0.2646484375,-4.6923828125,45.7535294117647,310.8832230702689
-0.06882861328125,-0.05944287109375,1.07203076171875,1.0758814000629304,0.94970703125,0.466796875,-4.7080078125,45.7535294117647,310.8832230702689
-0.08591845703125,-0.06579052734375,1.06910107421875,1.0745638564750282,0.9970703125,0.80126953125,-4.7666015625,45.565294117647056,310.7359019010955
-0.11570361328125,-0.07018505859375,1.07203076171875,1.080538394804844,0.73486328125,0.9365234375,-4.791015625,45.7535294117647,310.7359019010955
-0.13523486328125,-0.06286083984375,1.07105419921875,1.0813866334927014,0.6962890625,1.0908203125,-4.6591796875,45.84764705882353,310.7359019010955
-0.12839892578125,-0.06872021484375,1.06958935546875,1.079458262927292,0.67822265625,1.2001953125,-4.5576171875,45.00058823529412,310.7359019010955
-0.10740283203125,-0.06286083984375,1.05787060546875,1.0651652789257704,0.65087890625,0.94873046875,-4.42578125,46.27117647058824,310.7359019010955
-0.10837939453125,-0.06041943359375,1.04664013671875,1.0539697229547886,0.57373046875,0.57177734375,-4.35888671875,45.61235294117647,311.0477182241094
-0.11277392578125,-0.04577099609375,1.02759716796875,1.0347796296975142,0.51416015625,0.162109375,-4.25048828125,45.235882352941175,311.0477182241094
-0.12156298828125,-0.02477490234375,0.99341748046875,1.001134180021284,0.46630859375,-0.1572265625,-4.06005859375,45.00058823529412,311.0477182241094
-0.14646533203125,-0.01354443359375,0.98609326171875,0.9970032427106358,0.45751953125,-0.48388671875,-3.90625,44.85941176470588,311.0477182241094
-0.14304736328125,-0.00817333984375,0.98609326171875,0.9964483290331928,0.509765625,-0.65576171875,-3.7763671875,46.27117647058824,310.8925374972475
-0.14500048828125,-0.00914990234375,0.98121044921875,0.9919086691680652,0.54248046875,-0.849609375,-3.68994140625,45.61235294117647,310.8925374972475
-0.14597705078125,-0.01745068359375,0.98609326171875,0.9969923502814872,0.55126953125,-0.8505859375,-3.60107421875,45.61235294117647,310.8925374972475
-0.16013720703125,-0.02721630859375,0.98999951171875,1.0032366050601438,0.59130859375,-0.71875,-3.50146484375,45.70647058823529,310.8925374972475
-0.18308642578125,-0.03649365234375,0.97828076171875,0.9959345735116124,0.630859375,-0.52490234375,-3.4345703125,46.27117647058824,310.8925374972475
-0.19041064453125,-0.03405224609375,0.97339794921875,0.9924310235770056,0.6650390625,-0.34130859375,-3.43359375,45.61235294117647,310.9155389190992
-0.17918017578125,-0.03551708984375,0.95874951171875,0.9759957096652168,0.67333984375,-0.18310546875,-3.486328125,45.61235294117647,310.9155389190992
-0.15720751953125,-0.02233349609375,0.95728466796875,0.9703643257936564,0.662109375,-0.06103515625,-3.490234375,45.7535294117647,310.9155389190992
-0.13230517578125,-0.00914990234375,0.96167919921875,0.9707807489136894,0.65283203125,0.02490234375,-3.46826171875,45.61235294117647,310.9155389190992
-0.11277392578125,-0.00377880859375,0.94507763671875,0.9517898807806272,0.611328125,-0.0517578125,-3.4580078125,46.13,310.8739092315756
-0.10154345703125,0.0006157226562499,0.94117138671875,0.946633525688976,0.60107421875,-0.28515625,-3.51220703125,46.13,310.8739092315756
-0.10447314453125,-0.00084912109375,0.93775341796875,0.9435554206547448,0.57958984375,-0.466796875,-3.6591796875,45.61235294117647,310.8739092315756
-0.10886767578125,-0.01159130859375,0.92408154296875,0.9305445864226134,0.484375,-0.70361328125,-3.693359375,45.7535294117647,310.8739092315756
-0.12937548828125,-0.01696240234375,0.94605419921875,0.9550100983344172,0.3759765625,-0.56689453125,-3.412109375,45.98882352941177,310.8739092315756
-0.13230517578125,-0.00084912109375,0.98121044921875,0.9900905646460836,0.3759765625,0.0126953125,-3.26953125,45.61235294117647,311.1289557716002
-0.11619189453125,-0.00280224609375,0.97095654296875,0.9778880392313616,0.61669921875,0.29150390625,-3.48779296875,45.565294117647056,311.1289557716002
-0.12498095703125,-0.00084912109375,0.97828076171875,0.986232330323893,0.69189453125,0.173828125,-3.5322265625,45.70647058823529,311.1289557716002
-0.12693408203125,-0.00329052734375,0.98316357421875,0.9913292603478944,0.79736328125,-0.21826171875,-3.38330078125,44.85941176470588,311.1289557716002
-0.09568408203125,-0.01012646484375,1.02124951171875,1.025772174525211,0.7587890625,-0.7939453125,-3.1943359375,45.61235294117647,311.12749680810253
-0.02683642578125,-0.00524365234375,1.05689404296875,1.0572477040416994,0.70849609375,-0.75537109375,-3.32177734375,44.81235294117647,311.12749680810253
-0.01121142578125,-0.00670849609375,1.04761669921875,1.047698166682503,0.61328125,-0.15625,-3.4521484375,45.7535294117647,311.12749680810253
-0.13718798828125,-0.00866162109375,1.02027294921875,1.029491359223648,0.77392578125,-0.33447265625,-3.10888671875,46.17705882352941,311.12749680810253
-0.23289111328125,-0.00524365234375,0.99683544921875,1.023692668409044,0.9423828125,-1.28125,-2.3369140625,45.7535294117647,311.12749680810253
-0.18796923828125,0.04309619140625,0.99195263671875,1.0105244924033447,0.84375,-1.380859375,-2.4697265625,45.89470588235295,310.77113129709824
-0.09275439453125,0.09436572265625,1.00855419921875,1.017197050762078,0.68310546875,-0.974609375,-3.0703125,45.61235294117647,310.77113129709824
-0.05857470703125,0.11926806640625,1.01831982421875,1.0269523515553136,0.4892578125,-0.71484375,-3.43017578125,45.00058823529412,310.77113129709824
-0.08103564453125,0.13684619140625,1.00513623046875,1.0176406524839303,0.3349609375,-0.5166015625,-3.32373046875,46.27117647058824,310.77113129709824
-0.05857470703125,0.15930712890625,0.97583935546875,0.9904908910766492,0.2998046875,-0.40380859375,-3.11181640625,46.17705882352941,310.9292269130748
-0.05613330078125,0.16223681640625,0.92115185546875,0.9370125254700464,0.310546875,-0.6328125,-2.8466796875,45.00058823529412,310.9292269130748
-0.08982470703125,0.15588916015625,0.8884370117187499,0.9064713078962914,0.3759765625,-1.12451171875,-2.5888671875,45.00058823529412,310.9292269130748
-0.06248095703125,0.14221728515625,0.8733002929687499,0.8870079074552039,0.4462890625,-1.7587890625,-2.56103515625,45.70647058823529,310.9292269130748
-0.04099658203125,0.13245166015625,0.8742768554687499,0.8852029044375742,0.5498046875,-2.3349609375,-2.7255859375,44.95352941176471,310.9292269130748
-0.04050830078125,0.12073291015625,0.8859956054687499,0.8951008719339503,0.6181640625,-2.58984375,-2.8984375,46.17705882352941,310.8832230702689
-0.03074267578125,0.11633837890625,0.8884370117187499,0.8965489692774552,0.6064453125,-2.74951171875,-3.01416015625,44.81235294117647,310.8832230702689
-0.02732470703125,0.11438525390625,0.8899018554687499,0.897639091334744,0.57373046875,-2.4697265625,-2.98291015625,44.85941176470588,310.8832230702689
0.00197216796875,0.12122119140625,0.8918549804687499,0.90005764975326,0.498046875,-2.32177734375,-2.9306640625,44.85941176470588,310.8832230702689
0.01662060546875,0.13001025390625,0.8859956054687499,0.8956378305748659,0.3837890625,-2.47265625,-3.0439453125,45.37705882352941,310.9169967611897
-0.00828173828125,0.15198291015625,0.8796479492187499,0.892719388572509,0.32421875,-2.72216796875,-3.09033203125,46.13,310.9169967611897
-0.01658251953125,0.15930712890625,0.9001557617187499,0.9142943380716188,0.31591796875,-2.87646484375,-2.98095703125,45.565294117647056,310.9169967611897
-0.0024223632812499,0.18176806640625,0.92164013671875,0.939396635835944,0.2939453125,-2.89697265625,-2.9775390625,44.95352941176471,310.9169967611897
0.00587841796875,0.20276416015625,0.94361279296875,0.9651699143135212,0.28369140625,-2.841796875,-3.08740234375,44.81235294117647,310.9169967611897
-0.0019340820312499,0.21594775390625,0.97193310546875,0.9956360452477532,0.3310546875,-2.77490234375,-3.19091796875,45.61235294117647,310.9830863962884
-0.0014458007812499,0.22327197265625,1.00318310546875,1.0277299291212831,0.3984375,-2.8564453125,-3.15869140625,46.17705882352941,310.9830863962884
-0.02537158203125,0.21594775390625,1.01636669921875,1.0393644292897175,0.43896484375,-2.857421875,-3.0712890625,45.7535294117647,310.9830863962884
-0.02000048828125,0.21545947265625,1.04273388671875,1.0649491830131563,0.4892578125,-2.72119140625,-3.03076171875,44.85941176470588,310.9830863962884
-0.0063286132812499,0.21399462890625,1.06031201171875,1.0817094409969112,0.595703125,-2.41748046875,-3.10986328125,45.61235294117647,311.06140662556226
0.01955029296875,0.20813525390625,1.05396435546875,1.0744967940726675,0.69287109375,-2.0576171875,-3.212890625,45.61235294117647,311.06140662556226
0.04152294921875,0.20422900390625,1.03882763671875,1.0595265452828568,0.76513671875,-1.90234375,-3.3291015625,45.70647058823529,311.06140662556226
0.05519482421875,0.19153369140625,1.00074169921875,1.0203997119361974,0.79345703125,-1.83935546875,-3.423828125,46.13,311.06140662556226
0.05568310546875,0.17249072265625,0.98414013671875,1.0006924933954082,0.7607421875,-1.9365234375,-3.541015625,45.7535294117647,311.06140662556226
0.04152294921875,0.16418994140625,0.96997998046875,0.984654078690058,0.68408203125,-2.00048828125,-3.6142578125,44.85941176470588,310.98162846284447
0.01613232421875,0.15198291015625,0.95728466796875,0.9694085786665504,0.6376953125,-1.85888671875,-3.58349609375,46.03588235294118,310.98162846284447
0.03322216796875,0.15149462890625,0.93921826171875,0.9519376440597233,0.5556640625,-1.67138671875,-3.57568359375,45.565294117647056,310.98162846284447
0.05861279296875,0.15247119140625,0.92798779296875,0.9422548846291274,0.48681640625,-1.599609375,-3.673828125,45.89470588235295,310.98162846284447
0.06642529296875,0.15149462890625,0.90113232421875,0.9161890677612962,0.40234375,-1.7333984375,-3.7333984375,45.00058823529412,310.99385833365966
0.07179638671875,0.15735400390625,0.8967377929687499,0.913265390250644,0.3388671875,-1.9267578125,-3.7587890625,45.565294117647056,310.99385833365966
0.08644482421875,0.16223681640625,0.8869721679687499,0.9058217920667564,0.2734375,-2.0986328125,-3.82470703125,45.7535294117647,310.99385833365966
0.06398388671875,0.16321337890625,0.8938081054687499,0.9108377869935288,0.23291015625,-2.30810546875,-3.8037109375,45.00058823529412,310.99385833365966
0.01906201171875,0.17151416015625,0.8977143554687499,0.9141507159323032,0.2138671875,-2.4736328125,-3.6123046875,46.13,310.99385833365966
0.00880810546875,0.18713916015625,0.91675732421875,0.9357043547481528,0.255859375,-2.3759765625,-3.2822265625,45.565294117647056,310.9385406074454
0.03224560546875,0.20422900390625,0.93775341796875,0.9602763862662969,0.26806640625,-2.06201171875,-3.06201171875,46.17705882352941,310.9385406074454
0.00392529296875,0.21838916015625,0.97535107421875,0.9995093552230074,0.28271484375,-2.02001953125,-3.0419921875,45.61235294117647,310.9385406074454
-0.0024223632812499,0.21838916015625,1.00757763671875,1.0309764241404165,0.39453125,-1.908203125,-2.96484375,45.42411764705882,310.9385406074454
0.02199169921875,0.22376025390625,1.04664013671875,1.070517567279193,0.45263671875,-1.51220703125,-2.822265625,45.14176470588235,310.8034472824691
0.07374951171875,0.22620166015625,1.07105419921875,1.0971614645075336,0.48779296875,-0.90673828125,-2.58935546875,45.61235294117647,310.8034472824691
0.10304638671875,0.21887744140625,1.06128857421875,1.0885124390376089,0.5283203125,-0.486328125,-2.47509765625,45.565294117647056,310.8034472824691
0.07863232421875,0.21741259765625,1.03540966796875,1.0609073760488417,0.5361328125,-0.5498046875,-2.51318359375,44.95352941176471,310.8034472824691
0.04298779296875,0.20764697265625,0.99146435546875,1.013886967942035,0.451171875,-1.02392578125,-2.40380859375,45.7535294117647,310.8034472824691
0.01857373046875,0.19739306640625,0.96851513671875,0.9886003116437536,0.34716796875,-1.595703125,-2.15869140625,45.565294117647056,310.7295010142649
0.03322216796875,0.19446337890625,0.96656201171875,0.9864896556365792,0.16796875,-2.1103515625,-2.119140625,45.61235294117647,310.7295010142649
0.03810498046875,0.19885791015625,0.95728466796875,0.9784632816290424,0.03271484375,-2.48974609375,-1.859375,45.565294117647056,310.7295010142649
0.02833935546875,0.19495166015625,0.96900341796875,0.9888260175082276,-0.0263671875,-2.69287109375,-1.67529296875,44.85941176470588,310.7295010142649
0.00197216796875,0.18762744140625,0.97193310546875,0.9898797440706022,-0.05712890625,-2.603515625,-1.52490234375,46.27117647058824,311.0046302845979
-0.0038872070312499,0.18127978515625,0.96656201171875,0.9834223880828608,-0.0986328125,-2.27197265625,-1.41259765625,46.27117647058824,311.0046302845979
-0.0053520507812499,0.18518603515625,0.96460888671875,0.9822386758834346,-0.18408203125,-1.8134765625,-1.35888671875,45.00058823529412,311.0046302845979
-0.0024223632812499,0.18713916015625,0.96753857421875,0.9854734018273168,-0.27392578125,-1.318359375,-1.3525390625,45.70647058823529,311.0046302845979
-0.01755908203125,0.18958056640625,0.96119091796875,0.9798658547506912,-0.3837890625,-0.86767578125,-1.36962890625,46.17705882352941,311.0046302845979
-0.04783251953125,0.19495166015625,0.96265576171875,0.9833616909828712,-0.494140625,-0.224609375,-1.41845703125,44.81235294117647,310.9399987825668
-0.06931689453125,0.20129931640625,0.96705029296875,0.990208319387403,-0.57958984375,0.32763671875,-1.49853515625,45.18882352941176,310.9399987825668
-0.05710986328125,0.20081103515625,0.97681591796875,0.9988773427812142,-0.6376953125,0.8359375,-1.19873046875,45.00058823529412,310.9399987825668
-0.02195361328125,0.20325244140625,0.97876904296875,0.9998911718520502,-0.66064453125,1.296875,-1.103515625,45.7535294117647,310.9399987825668
-0.00974658203125,0.19641650390625,0.97486279296875,0.9945008315646988,-0.6318359375,1.525390625,-0.95556640625,46.27117647058824,310.6037250525084
-0.01609423828125,0.18323291015625,0.96802685546875,0.9853473076935352,-0.61279296875,1.46240234375,-0.69921875,45.565294117647056,310.6037250525084
0.00636669921875,0.17249072265625,0.95289013671875,0.9683972309529264,-0.623046875,1.34326171875,-0.5029296875,46.17705882352941,310.6037250525084
0.03615185546875,0.18127978515625,0.94605419921875,0.9639439117602018,-0.65087890625,1.28173828125,-0.431640625,44.95352941176471,310.6037250525084
0.17042919921875,0.19543994140625,0.92456982421875,0.9602459281346174,-0.68115234375,1.1875,-0.326171875,45.61235294117647,310.6037250525084
0.04494091796875,0.20276416015625,0.92261669921875,0.9457032115992018,-0.73974609375,1.2109375,-0.1865234375,45.7535294117647,310.84944959287344
0.03664013671875,0.20911181640625,0.90210888671875,0.92675276901471,-0.86669921875,1.26123046875,-0.06005859375,45.61235294117647,310.84944959287344
0.01759716796875,0.20618212890625,0.8762299804687499,0.9003331101726182,-0.97216796875,1.0908203125,0.03662109375,45.84764705882353,310.84944959287344
-0.01316455078125,0.19348681640625,0.8513276367187499,0.8731375599305242,-1.12109375,0.71728515625,0.00048828125,45.61235294117647,310.84944959287344
-0.03220751953125,0.18323291015625,0.8181245117187499,0.8390109298177987,-1.322265625,0.20361328125,0.24755859375,45.61235294117647,311.15049952948846
-0.03513720703125,0.17883837890625,0.8112885742187499,0.8315088332336972,-1.50390625,-0.29736328125,0.4306640625,45.70647058823529,311.15049952948846
-0.03269580078125,0.17883837890625,0.8059174804687499,0.8261689696930287,-1.65625,-0.654296875,0.64892578125,45.61235294117647,311.15049952948846
-0.03074267578125,0.17932666015625,0.8127534179687499,0.8328693064202041,-1.75,-0.87353515625,0.86328125,45.565294117647056,311.15049952948846
-0.03513720703125,0.18860400390625,0.8142182617187499,0.8365150753714654,-1.84716796875,-1.02587890625,1.0341796875,45.70647058823529,311.15049952948846
-0.03953173828125,0.19006884765625,0.8274018554687499,0.8498721995771141,-1.86376953125,-1.17041015625,1.14794921875,45.84764705882353,311.0090064456755
-0.04050830078125,0.19885791015625,0.8308198242187499,0.8552467311710521,-1.91650390625,-1.32421875,1.2197265625,45.565294117647056,311.0090064456755
-0.05076220703125,0.21155322265625,0.8327729492187499,0.8607219949724899,-1.98974609375,-1.48876953125,1.2568359375,45.61235294117647,311.0090064456755
-0.03269580078125,0.23010791015625,0.8357026367187499,0.8674200612874219,-2.07080078125,-1.52734375,1.30029296875,45.7535294117647,311.0090064456755
-0.02585986328125,0.24036181640625,0.8376557617187499,0.8718427096992071,-2.19775390625,-1.384765625,1.345703125,45.61235294117647,310.97085647863315
-0.02390673828125,0.24866259765625,0.8288666992187499,0.8656931469534617,-2.32275390625,-1.16650390625,1.4111328125,46.13,310.97085647863315
-0.01169970703125,0.24524462890625,0.8171479492187499,0.8532365334796618,-2.3798828125,-1.20361328125,1.41650390625,45.565294117647056,310.97085647863315
-0.01218798828125,0.23450244140625,0.7937104492187499,0.8277174755210048,-2.3896484375,-1.5771484375,1.37890625,45.7535294117647,310.97085647863315
-0.03757861328125,0.21448291015625,0.7736909179687499,0.803749157058695,-2.55615234375,-2.13818359375,1.607421875,45.61235294117647,310.97085647863315
-0.05857470703125,0.21155322265625,0.8108002929687499,0.8399898079133177,-2.708984375,-2.52587890625,2.138671875,45.70647058823529,310.9723144724989
-0.05320361328125,0.21301806640625,0.8508393554687499,0.8787120858939611,-2.689453125,-2.150390625,2.47412109375,45.565294117647056,310.9723144724989
-0.01072314453125,0.21350634765625,0.8161713867187499,0.8437035491311843,-2.61279296875,-2.05517578125,2.57421875,45.70647058823529,310.9723144724989
1.904296875000072e-05,0.20813525390625,0.7580659179687499,0.7861197238761137,-2.55810546875,-2.904296875,2.515625,45.00058823529412,310.9723144724989
-0.0009575195312499,0.19446337890625,0.7214448242187499,0.7471944572675251,-2.7255859375,-4.55712890625,2.513671875,44.85941176470588,310.8509073436105
-0.02341845703125,0.19690478515625,0.7214448242187499,0.7481995408573681,-2.9638671875,-6.158203125,2.67138671875,45.00058823529412,310.8509073436105
-0.06736376953125,0.20032275390625,0.7429291992187499,0.7724059025084262,-3.1083984375,-6.9013671875,2.8857421875,44.95352941176471,310.8509073436105
-0.10886767578125,0.20325244140625,0.7854096679687499,0.8185548682320535,-3.1484375,-6.6298828125,3.09521484375,45.61235294117647,310.8509073436105
-0.13718798828125,0.19934619140625,0.8298432617187499,0.864406899079853,-3.1787109375,-5.4033203125,3.22509765625,45.565294117647056,310.8509073436105
-0.14011767578125,0.19397509765625,0.8562104492187499,0.8890194794988829,-3.2275390625,-3.66943359375,3.2255859375,45.565294117647056,310.9292269130748
-0.08933642578125,0.15149462890625,0.8566987304687499,0.8745652258954612,-3.30615234375,-2.0849609375,3.1279296875,45.61235294117647,310.9292269130748
0.03371044921875,0.09583056640625,0.8498627929687499,0.8559127634969097,-3.34716796875,-1.51904296875,3.15673828125,45.7535294117647,310.9292269130748
0.22316357421875,0.03430712890625,0.8239838867187499,0.8543584760064216,-3.3193359375,-2.169921875,3.39697265625,44.85941176470588,310.9292269130748
0.34767529296875,-0.00426708984375,0.8757416992187499,0.9422419228346742,-3.15966796875,-3.59326171875,3.984375,45.61235294117647,310.8739092315756
0.26222607421875,-0.09508740234375,0.96460888671875,1.00412869315713,-2.95947265625,-4.07177734375,4.9443359375,45.565294117647056,310.8739092315756
0.16115185546875,-0.19372021484375,0.97046826171875,1.002649534565065,-2.74853515625,-3.35595703125,5.77001953125,46.27117647058824,310.8739092315756
0.37941357421875,-0.23034130859375,0.95874951171875,1.056509538512109,-1.5576171875,-2.6318359375,6.11474609375,45.89470588235295,310.8739092315756
0.62355419921875,-0.29088818359375,0.7839448242187499,1.043074907251236,-0.759765625,-2.94677734375,5.29541015625,45.70647058823529,310.8739092315756
0.79542919921875,-0.36657177734375,0.4660737304687499,0.992122573650955,-1.681640625,-4.7119140625,3.31201171875,45.61235294117647,311.2165900629702
0.91896435546875,-0.35729443359375,0.2902924804687499,1.0278251422863098,-3.48779296875,-7.9111328125,1.5224609375,45.00058823529412,311.2165900629702
0.93849560546875,-0.30797802734375,0.2839448242187499,1.027739816301441,-4.6796875,-12.0478515625,0.73974609375,45.94176470588236,311.2165900629702
0.90285107421875,-0.27282177734375,0.3776948242187499,1.015984825010977,-5.23486328125,-15.9296875,0.87353515625,45.84764705882353,311.2165900629702
0.77687451171875,-0.27526318359375,0.5637299804687499,0.998546602858229,-5.40576171875,16.0,1.3720703125,45.89470588235295,310.79559001783423
0.58302685546875,-0.29674755859375,0.7722260742187499,1.012083266056915,-4.92724609375,16.0,1.978515625,45.565294117647056,310.79559001783423
0.43410107421875,-0.39196240234375,0.93433544921875,1.102298053684102,-3.82666015625,-14.09521484375,2.24072265625,45.89470588235295,310.79559001783423
0.42726513671875,-0.56090771484375,0.96900341796875,1.198390831766352,-2.80224609375,-9.8798828125,2.560546875,45.7535294117647,310.79559001783423
0.52003857421875,-0.61754833984375,0.8991791992187499,1.2084408562386968,-2.341796875,-6.82763671875,3.14404296875,45.7535294117647,310.79559001783423
0.63429638671875,-0.84997021484375,0.8112885742187499,1.3352791554517296,-2.21826171875,-5.23486328125,4.09130859375,45.61235294117647,310.79559001783423
0.72121044921875,-0.89147412109375,0.6984956054687499,1.342671490537183,-2.2626953125,-5.49169921875,5.0634765625,45.61235294117647,310.79559001783423
0.67824169921875,-0.86461865234375,0.6106049804687499,1.2571458382833325,-2.53662109375,-6.77294921875,5.95361328125,45.565294117647056,310.79559001783423
0.84181591796875,-0.77819287109375,0.5798432617187499,1.2847008961339377,-2.7587890625,-8.4306640625,6.5205078125,45.37705882352941,310.79559001783423
0.84035107421875,-0.69127880859375,0.5852143554687499,1.2355291016394985,-3.01611328125,-9.32373046875,6.69091796875,46.17705882352941,310.67272671816363
0.79689404296875,-0.62145458984375,0.6384370117187499,1.1953441934812377,-3.3134765625,-9.73486328125,6.73974609375,45.565294117647056,310.67272671816363
0.75490185546875,-0.57848583984375,0.7009370117187499,1.1814547696323805,-3.552734375,-9.9267578125,6.662109375,45.42411764705882,310.67272671816363
0.75197216796875,-0.55407177734375,0.7443940429687499,1.1943953143979782,-3.85498046875,-10.08203125,6.31005859375,45.7535294117647,310.67272671816363
0.77687451171875,-0.54674755859375,0.7727143554687499,1.2245629322064089,-4.1279296875,-10.25146484375,5.85400390625,45.14176470588235,310.67272671816363
0.78419873046875,-0.56188427734375,0.8000581054687499,1.2533054544368474,-4.326171875,-10.46630859375,5.51025390625,46.08294117647059,310.71727159297086
0.81789013671875,-0.60631787109375,0.7932221679687499,1.2906459794639724,-4.19580078125,-10.12158203125,5.32080078125,45.61235294117647,310.71727159297086
0.84767529296875,-0.62487255859375,0.7829682617187499,1.3122722338188963,-3.92138671875,-9.08984375,5.06494140625,46.08294117647059,310.71727159297086
0.82081982421875,-0.60436474609375,0.7453706054687499,1.2627665143043325,-3.60107421875,-8.4970703125,4.955078125,46.08294117647059,310.71727159297086
0.76808544921875,-0.58288037109375,0.7248627929687499,1.206288047250081,-3.1611328125,-8.2060546875,5.12451171875,45.7535294117647,310.75250260214256
0.80958935546875,-0.57946240234375,0.6950776367187499,1.214225893845465,-2.5771484375,-8.70703125,4.9833984375,45.565294117647056,310.75250260214256
0.87746044921875,-0.59850537109375,0.6691987304687499,1.255377417365879,-2.09814453125,-9.64990234375,4.54248046875,45.61235294117647,310.75250260214256
0.90724560546875,-0.66198193359375,0.6667573242187499,1.3060934110722042,-1.89990234375,-10.19677734375,4.48974609375,45.42411764705882,310.75250260214256
0.95900341796875,-0.75963818359375,0.6901948242187499,1.4046731367217455,-1.86962890625,-9.47705078125,4.6240234375,46.13,310.75250260214256
0.85451123046875,-0.82799755859375,0.6521088867187499,1.3568402264717814,-2.00927734375,-8.07568359375,4.16748046875,46.27117647058824,310.83082191916134
0.84474560546875,-0.90661083984375,0.5695893554687499,1.363807312909071,-2.30224609375,-6.83935546875,3.7587890625,45.09470588235294,310.83082191916134
0.82912060546875,-0.94909130859375,0.4885346679687499,1.3516217711580412,-2.86083984375,-6.404296875,3.251953125,44.81235294117647,310.83082191916134
0.83546826171875,-0.95104443359375,0.4421479492187499,1.340890577193886,-3.4501953125,-6.70849609375,3.400390625,44.85941176470588,310.83082191916134
0.88087841796875,-0.91149365234375,0.4480073242187499,1.3444247944975285,-3.8046875,-6.96923828125,3.69140625,45.7535294117647,310.85236554822217
0.88087841796875,-0.83385693359375,0.4724213867187499,1.3017089304352052,-3.7734375,-6.8525390625,3.9326171875,45.42411764705882,310.85236554822217
0.86378857421875,-0.77623974609375,0.5100190429687499,1.26838411711804,-3.490234375,-6.29248046875,3.83349609375,45.7535294117647,310.85236554822217
0.85011669921875,-0.76891552734375,0.5261323242187499,1.261247284662577,-3.0576171875,-5.5458984375,3.5048828125,45.70647058823529,310.85236554822217
0.83790966796875,-0.79039990234375,0.5256440429687499,1.2661462305788551,-2.58642578125,-4.8701171875,3.13623046875,45.518235294117645,310.85236554822217
0.85255810546875,-0.81969677734375,0.4987885742187499,1.2835685302154174,-2.15234375,-4.1416015625,2.80029296875,46.17705882352941,310.63109677223747
0.89357373046875,-0.85534130859375,0.4724213867187499,1.3241090335013856,-1.78515625,-3.82421875,2.4296875,45.61235294117647,310.63109677223747
0.92726513671875,-0.88561474609375,0.4406831054687499,1.3558523930422222,-1.5458984375,-4.02685546875,2.23876953125,45.7535294117647,310.63109677223747
0.90871044921875,-0.89489208984375,0.4235932617187499,1.3438816109902636,-1.34814453125,-4.4052734375,2.2958984375,46.13,310.63109677223747
0.85744091796875,-0.88561474609375,0.4055268554687499,1.2976788650556663,-1.14111328125,-4.63623046875,2.43603515625,46.27117647058824,310.5405499392218
0.85451123046875,-0.88414990234375,0.3986909179687499,1.292619410686086,-0.974609375,-4.3623046875,2.357421875,45.61235294117647,310.5405499392218
0.84035107421875,-0.90612255859375,0.3806245117187499,1.293105965516449,-0.9541015625,-3.79443359375,2.279296875,45.565294117647056,310.5405499392218
0.83497998046875,-0.92956005859375,0.3679291992187499,1.302553402342553,-0.96142578125,-2.94873046875,2.271484375,45.565294117647056,310.5405499392218
0.87599560546875,-0.95006787109375,0.3576752929687499,1.3408687018815275,-0.85791015625,-2.19970703125,2.07275390625,46.08294117647059,310.5405499392218
0.90773388671875,-0.91051708984375,0.3435151367187499,1.3307985682100658,-0.74560546875,-1.91455078125,1.83154296875,46.13,310.5190062244548
0.90675732421875,-0.84508740234375,0.3313081054687499,1.283022456301427,-0.54736328125,-1.9716796875,1.515625,44.95352941176471,310.5190062244548
0.94630810546875,-0.76891552734375,0.3171479492187499,1.2598860822946776,-0.21923828125,-2.43212890625,0.76708984375,45.565294117647056,310.5190062244548
0.94874951171875,-0.71422802734375,0.2775971679687499,1.2195521713703688,0.04931640625,-3.06396484375,-0.24462890625,45.565294117647056,310.5190062244548
0.92824169921875,-0.66247021484375,0.2146088867187499,1.1604121733170063,0.10205078125,-3.92529296875,-1.095703125,45.7535294117647,310.39614561115764
0.87941357421875,-0.63903271484375,0.1442963867187499,1.096609544177351,-0.01220703125,-4.90966796875,-1.7314453125,44.81235294117647,310.39614561115764
0.91701123046875,-0.67467724609375,0.0764252929687498,1.1410257703521935,-0.41650390625,-5.36572265625,-2.216796875,45.00058823529412,310.39614561115764
0.71388623046875,-0.71715771484375,0.0954682617187498,1.0163970321721676,-0.91357421875,-4.8515625,-2.3232421875,44.81235294117647,310.39614561115764
0.70949169921875,-0.73131787109375,0.1565034179687499,1.0308722615713866,-1.1767578125,-3.73681640625,-2.22119140625,45.00058823529412,310.39614561115764
0.72169873046875,-0.72204052734375,0.2136323242187499,1.042991059711516,-1.18359375,-2.22509765625,-2.32080078125,45.61235294117647,310.69572780634
0.69777294921875,-0.70397412109375,0.2614838867187499,1.0251051042916008,-0.890625,-0.87646484375,-2.3994140625,45.565294117647056,310.69572780634
0.64015576171875,-0.68639599609375,0.2858979492187499,0.9811607921654488,-0.3837890625,-0.37548828125,-1.95703125,45.565294117647056,310.69572780634
0.61574169921875,-0.66588818359375,0.2629487304687499,0.944291770620556,0.2734375,-0.48681640625,-1.24609375,45.565294117647056,310.69572780634
0.62404248046875,-0.64391552734375,0.2316987304687499,0.9261428213212044,0.7646484375,-0.7578125,-0.861328125,45.89470588235295,310.62818203105127
0.68605419921875,-0.61413037109375,0.2053315429687499,0.9433914985324784,1.46240234375,-1.03857421875,-1.2451171875,45.61235294117647,310.62818203105127
0.68605419921875,-0.60680615234375,0.2048432617187499,0.938533341261504,2.01171875,-1.232421875,-1.10498046875,46.13,310.62818203105127
0.66164013671875,-0.64098583984375,0.1794526367187499,0.93852744564169,2.283203125,-1.0244140625,-0.7421875,45.7535294117647,310.62818203105127
0.72072216796875,-0.67077099609375,0.1550385742187499,0.9967001214497564,2.35986328125,-0.3955078125,-0.81787109375,45.89470588235295,310.62818203105127
0.69923779296875,-0.67907177734375,0.1565034179687499,0.9872007342665976,2.4462890625,0.04052734375,-0.66650390625,45.565294117647056,310.68495593338986
0.75539013671875,-0.70153271484375,0.1403901367187499,1.0404190497755812,2.46240234375,0.09375,-0.69384765625,46.17705882352941,310.68495593338986
0.78273388671875,-0.75768505859375,0.0988862304687498,1.0938635527388112,2.2275390625,0.158203125,-0.93310546875,45.00058823529412,310.68495593338986
0.76613232421875,-0.80944287109375,0.0632416992187498,1.1163135815250982,1.84228515625,0.30322265625,-0.90234375,45.70647058823529,310.68495593338986
0.76808544921875,-0.85485302734375,0.0334565429687498,1.149716615487383,1.41455078125,0.34130859375,-0.75244140625,44.81235294117647,310.4069174936903
0.78810498046875,-0.86315380859375,0.0149018554687498,1.1689166021688444,1.048828125,0.1298828125,-0.61083984375,45.61235294117647,310.4069174936903
0.83693310546875,-0.85778271484375,0.0192963867187498,1.1985910726576765,0.73828125,-0.14111328125,-0.5068359375,45.37705882352941,310.4069174936903
0.84376904296875,-0.83288037109375,0.0666596679687498,1.1874676508264834,0.43115234375,-0.1494140625,-0.005859375,45.84764705882353,310.4069174936903
0.79494091796875,-0.73766552734375,0.1276948242187499,1.0919649543023755,0.44091796875,-0.06787109375,0.564453125,45.7535294117647,310.4069174936903
0.79201123046875,-0.64293896484375,0.1574799804687499,1.0322074626505149,0.73193359375,-0.09765625,0.65087890625,45.61235294117647,310.8631373831129
0.76173779296875,-0.57555615234375,0.1735932617187499,0.9703834140440564,1.0224609375,-0.20556640625,0.400390625,45.14176470588235,310.8631373831129
0.73195263671875,-0.52916943359375,0.1765229492187499,0.9202908798039596,1.09033203125,-0.25732421875,0.46044921875,46.27117647058824,310.8631373831129
0.72804638671875,-0.48815380859375,0.1638276367187499,0.8917315608475804,1.08984375,-0.40673828125,0.51318359375,45.37705882352941,310.8631373831129
0.77296826171875,-0.49303662109375,0.1281831054687499,0.9257407584694868,1.0517578125,-0.353515625,0.03515625,45.7535294117647,310.6404110402146
0.77882763671875,-0.54723583984375,0.0725190429687498,0.95461959110397,0.890625,-0.3720703125,-0.51416015625,45.70647058823529,310.6404110402146
0.77492138671875,-0.63170849609375,0.0471284179687498,1.0008895380667011,0.73388671875,-0.3779296875,-0.98046875,45.7535294117647,310.6404110402146
0.80617138671875,-0.70153271484375,0.0505463867187498,1.069866997327423,0.63916015625,-0.884765625,-1.04248046875,45.61235294117647,310.6404110402146
0.81740185546875,-0.75426708984375,0.0642182617187498,1.1140864514405031,0.47119140625,-1.740234375,-0.82568359375,45.00058823529412,310.6404110402146
0.77589794921875,-0.76940380859375,0.0822846679687498,1.0957967945121747,0.27685546875,-2.20068359375,-0.44091796875,45.565294117647056,310.60663821993296
0.70802685546875,-0.75914990234375,0.1106049804687498,1.043955968419159,0.1015625,-2.2314453125,-0.05517578125,44.95352941176471,310.60663821993296
0.69289013671875,-0.74498974609375,0.1345307617187499,1.0262577596274658,-0.080078125,-1.8134765625,0.31982421875,46.13,310.60663821993296
0.70607373046875,-0.72350537109375,0.1677338867187499,1.0247608460579185,-0.1953125,-1.18408203125,0.501953125,46.17705882352941,310.60663821993296
0.73195263671875,-0.69567333984375,0.1975190429687499,1.0289459803625158,-0.06005859375,-0.7021484375,1.064453125,46.17705882352941,310.6648700983398
0.77150341796875,-0.66442333984375,0.2077729492187499,1.0391561465408576,0.26123046875,-0.4384765625,1.4873046875,45.61235294117647,310.6648700983398
0.79787060546875,-0.62731396484375,0.2077729492187499,1.0359970617651928,0.662109375,-0.26416015625,1.728515625,45.7535294117647,310.6648700983398
0.80177685546875,-0.59118115234375,0.2287690429687499,1.0220942010757514,1.00244140625,-0.287109375,1.8984375,45.37705882352941,310.6648700983398
0.80763623046875,-0.56920849609375,0.2326752929687499,1.0150923035611954,1.68701171875,-0.2626953125,1.89892578125,45.70647058823529,310.6648700983398
0.79787060546875,-0.56481396484375,0.2243745117187499,1.0029736982905453,2.220703125,-0.2060546875,1.75732421875,45.61235294117647,310.6418685773231
0.78566357421875,-0.55993115234375,0.2185151367187499,0.9892113081614032,2.58984375,-0.19970703125,1.54443359375,45.518235294117645,310.6418685773231
0.79347607421875,-0.57018505859375,0.2107026367187499,0.999555342400505,2.8046875,-0.2548828125,1.29736328125,44.85941176470588,310.6418685773231
0.80958935546875,-0.59313427734375,0.2204682617187499,1.0275453517357205,2.951171875,-0.337890625,1.0693359375,45.565294117647056,310.6418685773231
0.84718701171875,-0.62194287109375,0.2341401367187499,1.07673598033685,3.11572265625,-0.5107421875,0.861328125,45.00058823529412,310.7280435066466
0.85402294921875,-0.64928662109375,0.2453706054687499,1.1005158100416963,3.3291015625,-0.76025390625,0.7919921875,44.85941176470588,310.7280435066466
0.83790966796875,-0.68053662109375,0.2497651367187499,1.107973523079561,3.5439453125,-1.05224609375,0.81005859375,45.7535294117647,310.7280435066466
0.82765576171875,-0.70055615234375,0.2448823242187499,1.111647576891031,3.63623046875,-1.2978515625,0.8017578125,45.61235294117647,310.7280435066466
0.80177685546875,-0.72399365234375,0.2316987304687499,1.104851680679461,3.5986328125,-1.3642578125,0.72509765625,46.08294117647059,310.7280435066466
0.78566357421875,-0.74401318359375,0.2111909179687499,1.1024629123231184,3.408203125,-1.22412109375,0.63134765625,45.7535294117647,310.4069174936903
0.77199169921875,-0.75670849609375,0.1838471679687499,1.0965303064180432,3.08349609375,-0.84716796875,0.62939453125,46.17705882352941,310.4069174936903
0.75636669921875,-0.76452099609375,0.1667573242187499,1.0882972674484872,2.68896484375,-0.3974609375,0.71337890625,44.95352941176471,310.4069174936903
0.77492138671875,-0.76159130859375,0.1662690429687499,1.0991678086486134,2.4951171875,-0.0556640625,0.771484375,45.84764705882353,310.4069174936903
0.81105419921875,-0.75426708984375,0.1721284179687499,1.120872851470742,2.10791015625,0.2431640625,0.7421875,46.27117647058824,310.33005809532403
0.80568310546875,-0.74889599609375,0.1877534179687499,1.115895078115307,1.962890625,0.509765625,0.697265625,44.95352941176471,310.33005809532403
0.77345654296875,-0.74401318359375,0.2165620117187499,1.0948469053443723,1.88427734375,0.69140625,0.63134765625,46.03588235294118,310.33005809532403
0.73195263671875,-0.75084912109375,0.2409760742187499,1.075917530944016,1.859375,0.9248046875,0.5419921875,45.84764705882353,310.33005809532403
0.76808544921875,-0.76110302734375,0.2907807617187499,1.1197260945959626,1.8984375,1.24658203125,0.39453125,46.17705882352941,310.33005809532403
0.82179638671875,-0.76549755859375,0.3313081054687499,1.1709401667832038,2.0703125,1.4521484375,0.17236328125,45.00058823529412,310.7740462828396
0.78810498046875,-0.76061474609375,0.3610932617187499,1.153270391483972,2.29541015625,1.39892578125,0.236328125,45.565294117647056,310.7740462828396
0.74513623046875,-0.74206005859375,0.3899018554687499,1.1215634575962752,2.6064453125,1.24365234375,0.6123046875,45.09470588235294,310.7740462828396
0.72609326171875,-0.70836865234375,0.4094331054687499,1.0939072356422448,2.9853515625,1.1474609375,0.91845703125,45.70647058823529,310.7740462828396
0.71388623046875,-0.68590771484375,0.4245698242187499,1.077201224921415,3.34814453125,1.2109375,0.865234375,46.13,310.76327443571006
0.70509716796875,-0.67711865234375,0.4494721679687499,1.0759539559887754,3.69775390625,1.451171875,0.8310546875,46.27117647058824,310.76327443571006
0.70314404296875,-0.71276318359375,0.4743745117187499,1.1079142919998548,4.1513671875,2.1005859375,0.931640625,44.85941176470588,310.76327443571006
0.64894482421875,-0.73473583984375,0.4821870117187499,1.0924607331622784,4.677734375,2.96826171875,1.05322265625,44.95352941176471,310.76327443571006
0.63331982421875,-0.74547802734375,0.4499604492187499,1.0767060392056582,5.00732421875,3.640625,0.99462890625,45.61235294117647,310.76327443571006
0.62648388671875,-0.75133740234375,0.4157807617187499,1.0629504194901611,5.341796875,4.02978515625,0.6298828125,45.00058823529412,310.7388154338992
0.60890576171875,-0.74791943359375,0.3664643554687499,1.031719840669265,5.33056640625,3.88427734375,0.740234375,45.7535294117647,310.7388154338992
0.60792919921875,-0.74743115234375,0.3313081054687499,1.01882103409085,5.0712890625,3.44482421875,1.193359375,45.7535294117647,310.7388154338992
0.61720654296875,-0.73229443359375,0.3303315429687499,1.0130735325907698,4.8994140625,2.92333984375,1.64697265625,45.7535294117647,310.7388154338992
0.58986279296875,-0.73180615234375,0.3469331054687499,1.0019186288353208,4.86083984375,2.52392578125,2.05078125,45.61235294117647,310.6404110402146
0.58009716796875,-0.74010693359375,0.3684174804687499,1.0099517005054497,4.93701171875,2.455078125,2.3212890625,46.27117647058824,310.6404110402146
0.56154248046875,-0.73522412109375,0.4201752929687499,1.0160864837357342,5.07080078125,2.80712890625,2.416015625,44.85941176470588,310.6404110402146
0.58302685546875,-0.70250927734375,0.3586518554687499,0.9808520542788264,5.27001953125,3.4306640625,2.349609375,45.518235294117645,310.6404110402146
0.62501904296875,-0.66051708984375,0.5412690429687499,1.0582550764941008,5.48046875,4.2451171875,2.00634765625,46.27117647058824,310.6404110402146
0.67580029296875,-0.60436474609375,0.5861909179687499,1.079621495991376,5.6025390625,5.2275390625,1.35009765625,45.70647058823529,310.3085144130381
0.70412060546875,-0.52477490234375,0.6149995117187499,1.072100239991519,5.689453125,6.11962890625,0.5673828125,45.565294117647056,310.3085144130381
0.71632763671875,-0.46276318359375,0.5983979492187499,1.041803797673102,5.69580078125,6.716796875,-0.22314453125,45.00058823529412,310.3085144130381
0.70656201171875,-0.42223583984375,0.5774018554687499,1.0054381550107192,5.6669921875,6.82763671875,-0.96826171875,45.61235294117647,310.3085144130381
0.65675732421875,-0.43297802734375,0.5437104492187499,0.9562537360277932,5.501953125,6.5869140625,-1.54638671875,45.7535294117647,310.97523182185404
0.60792919921875,-0.46911083984375,0.5666596679687499,0.954330168560186,5.3525390625,6.05712890625,-2.0576171875,45.61235294117647,310.97523182185404
0.57912060546875,-0.51891552734375,0.5998627929687499,0.982084197299398,5.23828125,5.4736328125,-2.447265625,45.61235294117647,310.97523182185404
0.55861279296875,-0.58971630859375,0.6565034179687499,1.0444186492467653,5.1865234375,5.0439453125,-2.81494140625,46.13,310.97523182185404
0.54494091796875,-0.63366162109375,0.7175385742187499,1.1015213387019154,5.1259765625,4.9765625,-3.056640625,46.08294117647059,310.97523182185404
0.54689404296875,-0.66979443359375,0.7561127929687499,1.148661931639976,5.00634765625,5.3486328125,-3.12841796875,45.70647058823529,310.53123530863013
0.55470654296875,-0.65856396484375,0.7697846679687499,1.1549780429267131,4.84716796875,6.02685546875,-3.16552734375,45.61235294117647,310.53123530863013
0.60011669921875,-0.61071240234375,0.7365815429687499,1.129452106332936,4.57763671875,6.6298828125,-3.2919921875,45.565294117647056,310.53123530863013
0.59669873046875,-0.53747021484375,0.6677338867187499,1.0444099531600286,4.2978515625,7.15966796875,-3.48046875,45.565294117647056,310.53123530863013
0.58156201171875,-0.46422802734375,0.6189057617187499,0.9678669209837142,4.12841796875,7.072265625,-3.82373046875,45.7535294117647,310.8631373831129
0.56496044921875,-0.40465771484375,0.6023041992187499,0.9196186838905336,4.16943359375,6.5771484375,-4.3583984375,45.565294117647056,310.8631373831129
0.59132763671875,-0.34362255859375,0.6521088867187499,0.9449819240913896,4.36376953125,6.01220703125,-4.87841796875,45.61235294117647,310.8631373831129
0.57667919921875,-0.30260693359375,0.6975190429687499,0.9542864718598036,4.53369140625,5.60791015625,-5.52001953125,45.565294117647056,310.8631373831129
0.58302685546875,-0.27819287109375,0.7605073242187499,0.9978391543307596,4.51708984375,5.59228515625,-5.7568359375,45.70647058823529,310.8631373831129
0.60597607421875,-0.24206005859375,0.8122651367187499,1.0419091739785704,4.462890625,5.865234375,-5.91943359375,45.61235294117647,310.7769630840596
0.63624951171875,-0.20250927734375,0.8557221679687499,1.08539572383798,4.2607421875,6.45947265625,-6.1826171875,45.7535294117647,310.7769630840596
0.66164013671875,-0.16784130859375,0.90503857421875,1.1335930470021314,3.91943359375,7.48388671875,-6.60400390625,45.33,310.7769630840596
0.66798779296875,-0.17077099609375,0.92994091796875,1.1576530290094154,3.5771484375,8.65771484375,-6.91162109375,45.70647058823529,310.7769630840596
0.66847607421875,-0.18151318359375,0.93531201171875,1.1638796573901553,3.3154296875,9.6083984375,-6.9130859375,46.08294117647059,310.78773482393217
0.66456982421875,-0.20299755859375,0.93580029296875,1.1655827934460776,3.24853515625,10.02197265625,-6.765625,45.7535294117647,310.78773482393217
0.66994091796875,-0.19957958984375,0.93677685546875,1.1688471770051592,2.853515625,9.8740234375,-6.5078125,46.17705882352941,310.78773482393217
0.66115185546875,-0.18541943359375,0.94019482421875,1.1642458717262965,2.4462890625,9.00146484375,-6.3427734375,45.61235294117647,310.78773482393217
0.62892529296875,-0.15905224609375,0.8566987304687499,1.0746056746128148,2.0537109375,7.9765625,-6.18212890625,44.85941176470588,310.78773482393217
0.58644482421875,-0.12975537109375,1.01685498046875,1.180994512893578,1.77880859375,6.458984375,-5.8291015625,44.85941176470588,310.73241739110057
0.54982373046875,-0.09557568359375,1.02857373046875,1.170215691610477,1.7568359375,4.9267578125,-5.40185546875,45.7535294117647,310.73241739110057
0.51515576171875,-0.06774365234375,1.01294873046875,1.13843743430333,2.01416015625,3.32177734375,-5.009765625,45.00058823529412,310.73241739110057
0.50441357421875,-0.03747021484375,1.00611279296875,1.1260994729738356,2.32763671875,1.67626953125,-4.7529296875,45.7535294117647,310.73241739110057
0.48927685546875,-0.00914990234375,1.02417919921875,1.1350852805506062,2.51123046875,0.30078125,-4.60400390625,46.27117647058824,310.8875985019409
0.47072216796875,0.0172172851562499,1.06568310546875,1.165142169697274,2.5751953125,-0.20849609375,-4.5322265625,44.85941176470588,310.8875985019409
0.45509716796875,0.04504931640625,1.09351513671875,1.1852924649363437,2.84130859375,0.2021484375,-4.716796875,45.7535294117647,310.8875985019409
0.48292919921875,0.05335009765625,1.03785107421875,1.1459501283367477,3.11181640625,0.7802734375,-4.98095703125,45.61235294117647,310.8875985019409
0.45216748046875,0.05823291015625,0.97144482421875,1.073103698959295,3.23046875,1.15625,-5.18359375,45.61235294117647,310.8875985019409
0.42433544921875,0.05823291015625,0.90845654296875,1.004362950208577,3.2490234375,1.56005859375,-5.466796875,45.61235294117647,310.9536882566732
0.38527294921875,0.06604541015625,0.8742768554687499,0.9576832783393192,2.7763671875,2.21337890625,-5.634765625,45.84764705882353,310.9536882566732
0.34181591796875,0.08167041015625,0.8523041992187499,0.921916821452903,2.43212890625,3.2900390625,-5.70361328125,45.42411764705882,310.9536882566732
0.35646435546875,0.09631884765625,0.8366791992187499,0.9145360788612484,2.1279296875,4.40283203125,-5.732421875,45.7535294117647,310.9536882566732
0.37941357421875,0.00891650390625,0.8205659179687499,0.904081074945856,1.9599609375,5.1318359375,-5.89404296875,46.13,310.6555567109483
0.41017529296875,0.13831103515625,0.8117768554687499,0.9199757477687794,1.8447265625,5.576171875,-6.1943359375,45.565294117647056,310.6555567109483
0.41749951171875,0.14417041015625,0.8005463867187499,0.9143114714026408,1.669921875,5.4306640625,-6.3759765625,46.27117647058824,310.6555567109483
0.39210888671875,0.15442431640625,0.8064057617187499,0.909882685336166,1.61181640625,4.97314453125,-6.32421875,44.85941176470588,310.6555567109483
0.36720654296875,0.17297900390625,0.8142182617187499,0.9097877547580874,1.62841796875,4.31982421875,-6.00732421875,45.61235294117647,310.6555567109483
0.34376904296875,0.19446337890625,0.8278901367187499,0.9172759885200726,1.578125,3.5966796875,-5.6884765625,44.95352941176471,310.87682676073524
0.32326123046875,0.20618212890625,0.8405854492187499,0.9239008555265936,1.5810546875,2.91943359375,-5.42041015625,45.94176470588236,310.87682676073524
0.30812451171875,0.21008837890625,0.8703706054687499,0.9469017016234644,1.66650390625,2.40234375,-5.17822265625,46.17705882352941,310.87682676073524
0.33400341796875,0.19739306640625,0.91578076171875,0.9945736319721348,1.7353515625,1.8193359375,-4.8935546875,45.33,310.87682676073524
0.25441357421875,0.18665087890625,0.92701123046875,0.9792418693859146,1.81884765625,1.93701171875,-4.4404296875,45.98882352941177,310.65409832653216
0.25148388671875,0.16956103515625,0.95142529296875,0.9986016112660242,1.87841796875,1.92822265625,-4.02783203125,46.27117647058824,310.65409832653216
0.24904248046875,0.15442431640625,0.97193310546875,1.0151467815452568,1.99951171875,1.83837890625,-3.70947265625,44.95352941176471,310.65409832653216
0.24806591796875,0.14270556640625,0.98218701171875,1.0230312333110925,2.07080078125,1.75146484375,-3.48095703125,45.565294117647056,310.65409832653216
0.21046826171875,0.13342822265625,1.00025341796875,1.0308282494917789,2.115234375,1.951171875,-3.39111328125,45.61235294117647,310.65409832653216
0.17482373046875,0.11877978515625,0.99537060546875,1.0175630773215,2.02490234375,2.33740234375,-3.3359375,45.70647058823529,311.0090064456755
0.17238232421875,0.12512744140625,0.98853466796875,1.011223680533649,1.9345703125,2.697265625,-3.26220703125,46.27117647058824,311.0090064456755
0.17775341796875,0.11585009765625,0.99927685546875,1.0215535994758418,1.841796875,3.2998046875,-3.14990234375,45.37705882352941,311.0090064456755
0.17726513671875,0.12366259765625,0.98218701171875,1.0056871743957043,1.759765625,4.0390625,-3.0263671875,44.95352941176471,311.0090064456755
0.17628857421875,0.13245166015625,0.94507763671875,0.9704601192754516,1.67724609375,4.49951171875,-2.95458984375,46.17705882352941,310.7647326697972
0.18165966796875,0.14270556640625,0.91040966796875,0.9392608142474668,1.65185546875,4.52783203125,-2.876953125,45.94176470588236,310.7647326697972
0.17335888671875,0.14319384765625,0.8757416992187499,0.904146727783444,1.58349609375,4.224609375,-3.1005859375,45.565294117647056,310.7647326697972
0.15919873046875,0.15442431640625,0.8444916992187499,0.8731307664546993,1.47314453125,3.78125,-3.09716796875,44.85941176470588,310.7647326697972
0.15089794921875,0.15686572265625,0.8322846679687499,0.8602760106842131,1.37646484375,3.32080078125,-2.95751953125,44.81235294117647,310.7647326697972
0.15333935546875,0.16321337890625,0.8410737304687499,0.8703772659451683,1.2705078125,2.94384765625,-2.8095703125,45.61235294117647,310.9874629198822
0.15431591796875,0.15784228515625,0.8459565429687499,0.874282598542098,1.1943359375,2.6865234375,-2.720703125,44.85941176470588,310.9874629198822
0.14943310546875,0.15002978515625,0.8630463867187499,0.8886440542041313,1.1591796875,2.4931640625,-2.74072265625,45.70647058823529,310.9874629198822
0.13771435546875,0.13635791015625,0.8454682617187499,0.8673957026283204,1.10595703125,2.29296875,-2.7578125,45.565294117647056,310.9874629198822
0.10597607421875,0.12805712890625,0.8371674804687499,0.8535097813879609,0.984375,2.05859375,-2.67041015625,44.85941176470588,310.80781989810885
0.08595654296875,0.12854541015625,0.8610932617187499,0.8748680215488577,0.8740234375,1.89404296875,-2.4443359375,45.94176470588236,310.80781989810885
0.09669873046875,0.13049853515625,0.8791596679687499,0.89403704282044,0.8310546875,1.875,-2.27978515625,45.7535294117647,310.80781989810885
0.12648388671875,0.13391650390625,0.90552685546875,0.9240728811046652,0.83837890625,2.16943359375,-2.30712890625,45.565294117647056,310.80781989810885
0.12746044921875,0.13098681640625,0.91236279296875,0.930488892024525,0.8857421875,2.3515625,-2.3818359375,45.09470588235294,310.80781989810885
0.12208935546875,0.13196337890625,0.90747998046875,0.9251162408274388,0.8955078125,2.34521484375,-2.462890625,45.00058823529412,310.9536882566732
0.11281201171875,0.14612353515625,0.8933198242187499,0.912194576752575,0.76025390625,2.15234375,-2.49072265625,45.61235294117647,310.9536882566732
0.10695263671875,0.16711962890625,0.8869721679687499,0.9088935381099592,0.494140625,1.98779296875,-2.431640625,44.81235294117647,310.9536882566732
0.08595654296875,0.20422900390625,0.96119091796875,0.9864005241793444,0.25,2.375,-2.42041015625,45.565294117647056,310.9536882566732
0.10451123046875,0.21008837890625,0.96509716796875,0.9932131029476252,0.5126953125,3.4765625,-2.69970703125,46.27117647058824,310.91845505715474
0.09962841796875,0.19836962890625,0.8986909179687499,0.9257006521434852,0.53271484375,3.13330078125,-2.94482421875,45.00058823529412,310.91845505715474
0.07912060546875,0.18030322265625,0.8747651367187499,0.8966511956879019,0.46044921875,1.74072265625,-2.99267578125,46.13,310.91845505715474
0.06593701171875,0.17297900390625,0.8625581054687499,0.8821994732579679,0.2763671875,0.12890625,-2.89794921875,46.17705882352941,310.91845505715474
0.03273388671875,0.17493212890625,0.91040966796875,0.92764137499055,0.18701171875,-0.66943359375,-2.6005859375,44.85941176470588,310.91845505715474
-0.01218798828125,0.18225634765625,0.96509716796875,0.982231371388962,0.21826171875,-0.52099609375,-2.318359375,45.7535294117647,311.05501288690544
-0.04441455078125,0.17786181640625,0.99732373046875,1.0140325938610328,0.302734375,0.03759765625,-2.193359375,45.7535294117647,311.05501288690544
-0.06492236328125,0.15979541015625,1.00708935546875,1.0217526394678358,0.4150390625,0.61181640625,-2.17529296875,46.17705882352941,311.05501288690544
-0.08005908203125,0.13879931640625,1.00122998046875,1.0139705028451185,0.494140625,0.9365234375,-2.10791015625,46.17705882352941,311.05501288690544
-0.09275439453125,0.12073291015625,0.99634716796875,1.0079124428337038,0.55810546875,0.95751953125,-1.93017578125,44.85941176470588,310.87682676073524
-0.08347705078125,0.10803759765625,1.00611279296875,1.015334177839911,0.58837890625,0.96044921875,-1.6826171875,45.70647058823529,310.87682676073524
-0.06638720703125,0.10461962890625,1.01636669921875,1.0238914958581835,0.6083984375,1.07080078125,-1.5400390625,45.7535294117647,310.87682676073524
-0.05076220703125,0.11536181640625,1.02271435546875,1.0304512619377464,0.5712890625,1.25927734375,-1.39892578125,45.61235294117647,310.87682676073524
-0.03904345703125,0.11829150390625,1.03931591796875,1.04675443575682,0.51904296875,1.5791015625,-1.244140625,45.70647058823529,310.87682676073524
-0.03025439453125,0.12122119140625,1.02417919921875,1.0317717469221397,0.50341796875,1.89013671875,-1.02685546875,45.61235294117647,311.14410707629713
-0.02488330078125,0.11633837890625,1.00025341796875,1.0073036767640986,0.4638671875,1.99267578125,-0.728515625,45.00058823529412,311.14410707629713
-0.01414111328125,0.10266650390625,0.97144482421875,0.9769572296731128,0.42041015625,1.80615234375,-0.6171875,45.518235294117645,311.14410707629713
0.00099560546875,0.08118212890625,0.93140576171875,0.9349375499181136,0.33642578125,1.38818359375,-0.62353515625,45.61235294117647,311.14410707629713
-0.0053520507812499,0.06311572265625,0.90210888671875,0.9043299632274318,0.21533203125,0.99169921875,-0.67724609375,46.27117647058824,310.9874629198822
-0.01658251953125,0.04504931640625,0.8889252929687499,0.8902205329817171,0.08203125,0.330078125,-0.66552734375,45.37705882352941,310.9874629198822
-0.04636767578125,0.0304008789062499,0.8996674804687499,0.9013743674015896,-0.00927734375,-0.01513671875,-0.5888671875,45.7535294117647,310.9874629198822
-0.08054736328125,0.0225883789062499,0.90894482421875,0.9127862871818508,-0.1025390625,-0.115234375,-0.498046875,45.84764705882353,310.9874629198822
-0.09373095703125,0.01233447265625,0.93140576171875,0.9361913930840138,-0.2158203125,0.07080078125,-0.32373046875,45.7535294117647,310.9874629198822
-0.08250048828125,-0.00280224609375,0.95337841796875,0.9569454482876288,-0.2646484375,0.6904296875,-0.05908203125,45.61235294117647,310.78773482393217
-0.04978564453125,-0.01793896484375,0.95972607421875,0.9611839336965587,-0.3359375,1.35986328125,0.21630859375,44.85941176470588,310.78773482393217
-0.03220751953125,-0.02331005859375,0.93824169921875,0.939083685993366,-0.380859375,1.75439453125,0.52587890625,44.95352941176471,310.78773482393217
-0.03367236328125,-0.02819287109375,0.91724560546875,0.9182963393051216,-0.41015625,1.5810546875,0.791015625,45.70647058823529,310.78773482393217
-0.04587939453125,-0.02623974609375,0.8972260742187499,0.8987814369331446,-0.50244140625,1.01318359375,1.05712890625,45.565294117647056,311.01192615577645
-0.04685595703125,-0.01549755859375,0.8967377929687499,0.8980948303882756,-0.5517578125,0.4501953125,1.27587890625,45.7535294117647,311.01192615577645
-0.05076220703125,-0.00622021484375,0.92212841796875,0.9235455115807424,-0.65966796875,0.14111328125,1.50244140625,44.95352941176471,311.01192615577645
-0.06394580078125,0.01282275390625,0.94458935546875,0.9468381799020168,-0.67919921875,0.07421875,1.72802734375,45.98882352941177,311.01192615577645
-0.07810595703125,0.0250297851562499,0.97632763671875,0.9797666481818794,-0.69091796875,0.2998046875,1.935546875,45.61235294117647,311.01192615577645
-0.08103564453125,0.04065478515625,0.99537060546875,0.9994909851879216,-0.728515625,0.61083984375,2.0927734375,46.13,310.91060128919906
-0.07566455078125,0.06604541015625,0.99927685546875,1.0043113831492445,-0.751953125,0.8740234375,2.2412109375,46.13,310.91060128919906
-0.06394580078125,0.07776416015625,1.00562451171875,1.01065176426499,-0.77880859375,0.91455078125,2.369140625,45.565294117647056,310.91060128919906
-0.05418017578125,0.08948291015625,0.99488232421875,1.0003666936182054,-0.7919921875,0.8408203125,2.5234375,45.61235294117647,310.91060128919906
-0.05759814453125,0.09973681640625,0.99976513671875,1.0063773186029967,-0.75634765625,0.81787109375,2.70361328125,44.85941176470588,310.6325548236326
-0.04734423828125,0.10852587890625,0.98999951171875,0.997054851296642,-0.740234375,0.7509765625,2.7685546875,46.17705882352941,310.6325548236326
-0.02341845703125,0.11487353515625,0.97486279296875,0.9818868663567358,-0.76611328125,0.92578125,2.650390625,45.84764705882353,310.6325548236326
-0.02048876953125,0.11487353515625,0.96460888671875,0.971640892044476,-0.7578125,0.9091796875,2.47802734375,45.7535294117647,310.6325548236326
-0.04880908203125,0.11487353515625,0.94556591796875,0.9537678757392242,-0.8017578125,0.58447265625,2.50927734375,46.17705882352941,310.6325548236326
-0.06589892578125,0.12366259765625,0.93921826171875,0.949613631759888,-0.931640625,0.134765625,2.796875,45.61235294117647,311.14410707629713
-0.06492236328125,0.13733447265625,0.96509716796875,0.976979126826717,-1.0107421875,0.20849609375,3.11328125,45.565294117647056,311.14410707629713
-0.03318408203125,0.15295947265625,0.97730419921875,0.9897581933917682,-0.87548828125,0.9189453125,3.03125,46.17705882352941,311.14410707629713
-0.03464892578125,0.15833056640625,0.94605419921875,0.9598373113063216,-1.0380859375,0.98779296875,2.81396484375,45.7535294117647,311.14410707629713
-0.08347705078125,0.14661181640625,0.91822216796875,0.9335927337261716,-1.0390625,0.416015625,2.83447265625,46.17705882352941,311.1871939756362
-0.09568408203125,0.13928759765625,0.90357373046875,0.9192398842566752,-1.10888671875,-0.16015625,3.0439453125,46.27117647058824,311.1871939756362
-0.09031298828125,0.14417041015625,0.91724560546875,0.9328885484175716,-1.10888671875,-0.40087890625,3.21728515625,45.61235294117647,311.1871939756362
-0.07859423828125,0.16223681640625,0.93335888671875,0.9506085683947464,-1.1376953125,-0.3447265625,3.11572265625,45.70647058823529,311.1871939756362
-0.10203173828125,0.17493212890625,0.95191357421875,0.9732169224393304,-1.15234375,-0.39306640625,3.00146484375,45.235882352941175,311.1871939756362
-0.13230517578125,0.17835009765625,0.96802685546875,0.9931713899328845,-1.10595703125,-0.56103515625,3.04052734375,46.13,310.9199138069943
-0.15134814453125,0.18518603515625,1.00318310546875,1.031298439622532,-1.0458984375,-0.65234375,3.20166015625,46.27117647058824,310.9199138069943
-0.14451220703125,0.18811572265625,1.03052685546875,1.0574766677964278,-0.919921875,-0.4609375,3.4384765625,45.565294117647056,310.9199138069943
-0.11228564453125,0.18909228515625,1.04419873046875,1.0671058743095552,-0.79150390625,-0.16015625,3.5458984375,45.565294117647056,310.9199138069943
-0.10886767578125,0.18372119140625,1.06617138671875,1.0873486436555324,-0.6611328125,0.1455078125,3.5810546875,45.84764705882353,311.1196433908227
-0.10544970703125,0.17688525390625,1.06226513671875,1.082042168517734,-0.53857421875,0.416015625,3.521484375,45.84764705882353,311.1196433908227
-0.10544970703125,0.16516650390625,1.04517529296875,1.0633865749377798,-0.50439453125,0.7001953125,3.49365234375,44.95352941176471,311.1196433908227
-0.08005908203125,0.16077197265625,1.00855419921875,1.0244211324300387,-0.5048828125,0.8095703125,3.45947265625,44.95352941176471,311.1196433908227
-0.05125048828125,0.14661181640625,1.10083935546875,1.1117413925045068,-0.56005859375,0.64794921875,3.4697265625,46.17705882352941,311.1196433908227
-0.04441455078125,0.14075244140625,0.95581982421875,0.9671480954085996,-0.58251953125,0.373046875,3.5029296875,45.7535294117647,310.9213730107085
-0.05125048828125,0.12952197265625,0.94165966796875,0.9519062370994578,-0.6240234375,-0.09423828125,3.5224609375,45.565294117647056,310.9213730107085
-0.07127001953125,0.12073291015625,0.93287060546875,0.9433469233672276,-0.6435546875,-0.31298828125,3.5283203125,45.09470588235294,310.9213730107085
-0.09861376953125,0.11243212890625,0.93287060546875,0.9447821048787842,-0.61962890625,-0.3994140625,3.58056640625,45.00058823529412,310.9213730107085
-0.11033251953125,0.09729541015625,0.93189404296875,0.9434331820665568,-0.63330078125,-0.29833984375,3.65869140625,46.27117647058824,310.6907896537662
-0.10398486328125,0.09387744140625,0.93042919921875,0.9409167447523976,-0.623046875,-0.2216796875,3.681640625,45.7535294117647,310.6907896537662
-0.10154345703125,0.09436572265625,0.93335888671875,0.9435967224906824,-0.66455078125,-0.37060546875,3.7197265625,45.94176470588236,310.6907896537662
-0.10056689453125,0.09827197265625,0.93287060546875,0.9434079962736388,-0.72216796875,-0.5263671875,3.85302734375,45.565294117647056,310.6907896537662
-0.09324267578125,0.09973681640625,0.95142529296875,0.961172053918742,-0.72607421875,-0.52880859375,3.943359375,45.14176470588235,310.6907896537662
-0.10105517578125,0.09143603515625,0.96460888671875,0.9741883808658672,-0.728515625,-0.40869140625,4.013671875,45.7535294117647,310.95660766321384
-0.11375048828125,0.08655322265625,0.96997998046875,0.980454892611874,-0.67724609375,-0.291015625,4.0693359375,45.00058823529412,310.95660766321384
-0.11765673828125,0.07141650390625,0.97583935546875,0.9854977791831088,-0.61572265625,-0.2646484375,4.16796875,46.27117647058824,310.95660766321384
-0.11179736328125,0.06409228515625,0.98169873046875,0.9901206334872256,-0.5673828125,-0.28857421875,4.32421875,45.565294117647056,310.95660766321384
-0.10642626953125,0.06067431640625,0.97144482421875,0.9791388920981036,-0.56396484375,-0.37353515625,4.5009765625,45.61235294117647,310.8121965985803
-0.08884814453125,0.06067431640625,0.97437451171875,0.9802964115741544,-0.60888671875,-0.4189453125,4.57958984375,45.61235294117647,310.8121965985803
-0.09226611328125,0.06555712890625,0.97388623046875,0.9804413101798036,-0.666015625,-0.41064453125,4.54345703125,45.61235294117647,310.8121965985803
-0.08689501953125,0.06751025390625,0.97828076171875,0.9844499111437008,-0.73193359375,-0.48095703125,4.4775390625,45.565294117647056,310.8121965985803
-0.09812548828125,0.07581103515625,0.97583935546875,0.9836861146644093,-0.8125,-0.55224609375,4.51025390625,45.7535294117647,310.8121965985803
-0.10105517578125,0.08460009765625,1.10132763671875,1.1091852363226502,-0.880859375,-0.666015625,4.541015625,45.94176470588236,310.909142025068
-0.10740283203125,0.09485400390625,0.98169873046875,0.9921013293960124,-0.912109375,-0.61962890625,4.51953125,45.565294117647056,310.909142025068
-0.10154345703125,0.10852587890625,0.98658154296875,0.9977134262827332,-0.92431640625,-0.462890625,4.53515625,45.70647058823529,310.909142025068
-0.10300830078125,0.11194384765625,0.98706982421875,0.9987236719639522,-0.93310546875,-0.40771484375,4.44970703125,45.565294117647056,310.909142025068
-0.10007861328125,0.11096728515625,0.98121044921875,0.9925237593464992,-0.92822265625,-0.47412109375,4.4375,46.17705882352941,311.1578005510391
-0.09666064453125,0.10608447265625,0.98267529296875,0.993100159576651,-0.89306640625,-0.52685546875,4.31982421875,45.61235294117647,311.1578005510391
-0.06882861328125,0.10657275390625,0.97242138671875,0.9806622676688436,-0.85107421875,-0.54248046875,4.04052734375,45.565294117647056,311.1578005510391
-0.08250048828125,0.10315478515625,0.95289013671875,0.9620014828071496,-0.92333984375,-0.7060546875,3.7841796875,45.61235294117647,311.1578005510391
-0.10056689453125,0.11487353515625,0.95923779296875,0.9713118823604044,-0.9921875,-0.86474609375,3.73779296875,45.00058823529412,311.1578005510391
-0.07908251953125,0.11829150390625,0.96802685546875,0.9784288005269104,-0.98583984375,-0.54541015625,3.7861328125,45.70647058823529,310.8552833190544
-0.05564501953125,0.13440478515625,0.95923779296875,0.97020521433926,-0.970703125,-0.0146484375,3.70849609375,46.08294117647059,310.8552833190544
-0.08494189453125,0.14221728515625,0.94165966796875,0.956119141071231,-0.9541015625,-0.3017578125,3.4970703125,45.00058823529412,310.8552833190544
-0.09470751953125,0.13831103515625,0.93287060546875,0.9478117024226844,-0.93994140625,-0.669921875,3.3662109375,45.518235294117645,310.8552833190544
-0.07517626953125,0.12952197265625,0.91968701171875,0.9318001998419864,-0.95458984375,-0.796875,3.30029296875,45.61235294117647,311.03492990922314
-0.04392626953125,0.12952197265625,0.93726513671875,0.947191319145248,-0.953125,-0.6708984375,3.3125,45.42411764705882,311.03492990922314
-0.03220751953125,0.13049853515625,0.93775341796875,0.947337672060156,-0.978515625,-0.4189453125,3.27587890625,45.84764705882353,311.03492990922314
-0.04636767578125,0.13879931640625,0.94654248046875,0.9577880135625686,-0.99658203125,-0.2900390625,3.21875,45.70647058823529,311.03492990922314
-0.07078173828125,0.13928759765625,0.94165966796875,0.9545334041373204,-1.125,-0.34912109375,3.14453125,45.70647058823529,311.03492990922314
-0.06882861328125,0.13879931640625,0.92896435546875,0.941794776993657,-0.99951171875,-0.451171875,3.1025390625,45.84764705882353,310.7676504995952
-0.05369189453125,0.13293994140625,0.93824169921875,0.9491329378502988,-0.9873046875,-0.5400390625,3.03125,45.565294117647056,310.7676504995952
-0.04832080078125,0.12708056640625,0.94263623046875,0.952390378541598,-1.02685546875,-0.62548828125,2.921875,45.61235294117647,310.7676504995952
-0.06101611328125,0.11926806640625,0.96119091796875,0.9704822608012184,-1.0927734375,-0.88720703125,2.80029296875,45.61235294117647,310.7676504995952
-0.10642626953125,0.11633837890625,0.99781201171875,1.010193040949645,-1.1181640625,-0.9443359375,2.72021484375,45.70647058823529,310.867514538915
-0.14011767578125,0.11243212890625,1.07349560546875,1.088423980642401,-1.13671875,-1.01611328125,2.6103515625,46.17705882352941,310.867514538915
-0.15378955078125,0.10217822265625,1.17456982421875,1.1889936446760152,-1.15673828125,-0.95361328125,2.51025390625,45.565294117647056,310.867514538915
-0.12986376953125,0.10706103515625,1.27320263671875,1.28427863722526,-1.1953125,-0.13916015625,2.55810546875,45.70647058823529,310.867514538915
-0.02781298828125,0.14270556640625,1.31910107421875,1.3270893281936684,-1.0498046875,1.291015625,2.37646484375,45.37705882352941,310.867514538915
0.06837841796875,0.14172900390625,1.28101513671875,1.2906442186345255,-1.080078125,2.78125,1.97021484375,45.7535294117647,311.07947713450994
0.15040966796875,0.15247119140625,1.21021435546875,1.229019657536019,-1.09521484375,3.072265625,1.2998046875,45.7535294117647,311.07947713450994
0.20802685546875,0.14758837890625,1.10474560546875,1.1338079003900556,-1.19140625,2.33984375,0.7294921875,45.61235294117647,311.07947713450994
0.25734326171875,0.13440478515625,1.00708935546875,1.048102652664998,-1.4326171875,1.1943359375,0.3251953125,45.7535294117647,311.07947713450994
0.28175732421875,0.13489306640625,0.96705029296875,1.0162527236107837,-1.6005859375,-0.3095703125,-0.02783203125,46.13,310.9458360218176
0.24269482421875,0.14514697265625,0.97730419921875,1.0173946722803526,-1.59130859375,-1.9013671875,-0.2451171875,45.61235294117647,310.9458360218176
0.17140576171875,0.16126025390625,1.02320263671875,1.0499183017875704,-1.40966796875,-2.82470703125,-0.3310546875,45.7535294117647,310.9458360218176
0.09718701171875,0.18518603515625,1.06080029296875,1.081219887176655,-1.140625,-2.83642578125,-0.26416015625,46.17705882352941,310.9458360218176
0.04982373046875,0.18079150390625,1.07398388671875,1.090233626767226,-0.9287109375,-2.18310546875,-0.42626953125,45.61235294117647,310.9458360218176
0.00685498046875,0.15100634765625,1.06617138671875,1.0768339396803437,-0.7724609375,-1.26416015625,-0.673828125,45.565294117647056,310.8121965985803
-0.01804736328125,0.09778369140625,1.04468701171875,1.0494085525095982,-0.64111328125,-0.4189453125,-0.7548828125,46.13,310.8121965985803
-0.0077934570312499,0.03821337890625,0.99927685546875,1.0000376163802258,-0.57470703125,0.169921875,-0.66357421875,46.17705882352941,310.8121965985803
0.03224560546875,-0.01940380859375,0.94605419921875,0.9468024264435634,-0.55908203125,0.2890625,-0.484375,45.98882352941177,310.8121965985803
0.06544873046875,-0.06188427734375,0.91040966796875,0.9148546133858092,-0.53515625,-0.052734375,-0.2685546875,44.85941176470588,310.66778720020307
0.08937451171875,-0.10241162109375,0.90162060546875,0.9118090039508548,-0.525390625,-0.74560546875,0.0458984375,45.70647058823529,310.66778720020307
0.08790966796875,-0.12877880859375,0.92017529296875,0.9332923770476892,-0.56689453125,-1.25244140625,0.46875,46.27117647058824,310.66778720020307
0.08156201171875,-0.13659130859375,0.94068310546875,0.954041011829834,-0.5625,-1.76806640625,0.75537109375,45.7535294117647,310.66778720020307
0.08595654296875,-0.14196240234375,0.97193310546875,0.985999904900845,-0.59716796875,-1.83984375,1.013671875,45.61235294117647,310.66778720020307
0.08156201171875,-0.14098583984375,1.01197216796875,1.024996115863582,-0.5517578125,-1.5615234375,1.09814453125,45.518235294117645,310.80142495239767
0.07912060546875,-0.14684521484375,1.02271435546875,1.0362278900966282,-0.5029296875,-1.033203125,1.21484375,45.09470588235294,310.80142495239767
0.09132763671875,-0.15319287109375,1.02466748046875,1.0400731890173665,-0.5556640625,-0.46240234375,1.31005859375,44.85941176470588,310.80142495239767
0.12794873046875,-0.15270458984375,1.01539013671875,1.0347495828139457,-0.6943359375,-0.134765625,1.423828125,46.27117647058824,310.80142495239767
0.17482373046875,-0.14293896484375,0.99732373046875,1.0225700502956834,-0.8701171875,-0.068359375,1.43896484375,45.61235294117647,311.09024875754307
0.20265576171875,-0.12096630859375,0.99634716796875,1.0239188857970896,-0.98046875,-0.291015625,1.306640625,45.94176470588236,311.09024875754307
0.18263623046875,-0.10534130859375,0.99781201171875,1.01984390703004,-1.14306640625,-0.740234375,1.2880859375,45.00058823529412,311.09024875754307
0.15822216796875,-0.09313427734375,1.02515576171875,1.041466554354111,-1.0498046875,-0.8603515625,1.6064453125,45.61235294117647,311.09024875754307
0.18019482421875,-0.08141552734375,1.03199169921875,1.0507642599671394,-0.96435546875,-0.36279296875,1.90576171875,45.7535294117647,311.09024875754307
0.14894482421875,-0.06383740234375,1.01783154296875,1.030650680134496,-0.8251953125,-0.15869140625,1.93994140625,45.61235294117647,310.744647945893
0.11476513671875,-0.07946240234375,0.98951123046875,0.9993086536281436,-0.6005859375,-0.201171875,1.8701171875,46.27117647058824,310.744647945893
0.12306591796875,-0.09362255859375,0.93726513671875,0.9499349136396388,-0.49755859375,0.04052734375,1.92626953125,45.37705882352941,310.744647945893
0.15138623046875,-0.09215771484375,0.91871044921875,0.9356493599017084,-0.384765625,0.31884765625,2.1865234375,45.61235294117647,310.744647945893
0.17921826171875,-0.10680615234375,0.8899018554687499,0.9140306624390072,-0.28369140625,0.3291015625,2.41357421875,45.61235294117647,310.95660766321384
0.19484326171875,-0.10241162109375,0.8591401367187499,0.8868899657191772,-0.19482421875,0.0458984375,2.49462890625,46.17705882352941,310.95660766321384
0.18507763671875,-0.09606396484375,0.8571870117187499,0.8821856890781096,-0.1103515625,-0.560546875,2.482421875,45.565294117647056,310.95660766321384
0.15822216796875,-0.08532177734375,0.8654877929687499,0.8839588112031835,-0.09521484375,-1.27001953125,2.3857421875,45.565294117647056,310.95660766321384
0.15089794921875,-0.07067333984375,0.90210888671875,0.9173687129720728,-0.12451171875,-1.65380859375,2.23291015625,45.61235294117647,310.95660766321384
0.15138623046875,-0.04674755859375,0.95093701171875,0.96404581077177,-0.16162109375,-1.60986328125,2.0693359375,45.70647058823529,310.85674288527497
0.15236279296875,-0.02623974609375,1.00269482421875,1.0145441614199813,-0.14404296875,-1.3701171875,1.93603515625,45.7535294117647,310.85674288527497
0.14210888671875,-0.01989208984375,1.04029248046875,1.0501424074108323,-0.07275390625,-0.6005859375,1.828125,45.7535294117647,310.85674288527497
0.12697216796875,-0.03649365234375,1.06568310546875,1.0738408631550531,0.03466796875,0.154296875,1.67724609375,45.37705882352941,310.85674288527497
0.13087841796875,-0.05700146484375,1.07300732421875,1.08246156749855,0.1376953125,0.849609375,1.4814453125,45.7535294117647,310.64624391183713
0.14015576171875,-0.08825146484375,1.06763623046875,1.0804069044575533,0.22119140625,1.216796875,1.25439453125,45.61235294117647,310.64624391183713
0.13087841796875,-0.10875927734375,1.06226513671875,1.0758089799710924,0.2822265625,1.3251953125,1.16064453125,45.70647058823529,310.64624391183713
0.11378857421875,-0.13366162109375,1.05933544921875,1.0737806398644167,0.30810546875,1.4814453125,1.1298828125,45.94176470588236,310.64624391183713
0.11037060546875,-0.13219677734375,1.03980419921875,1.0539688947993473,0.2890625,1.55419921875,1.1513671875,45.00058823529412,310.64624391183713
0.12794873046875,-0.12194287109375,1.02857373046875,1.0436497786372363,0.26953125,1.27392578125,1.2060546875,45.565294117647056,310.6907896537662
0.10890576171875,-0.10485302734375,1.00220654296875,1.0135445609582558,0.244140625,0.7646484375,1.275390625,45.61235294117647,310.6907896537662
0.05372998046875,-0.08581005859375,0.98951123046875,0.9946772100439492,0.23095703125,0.32080078125,1.3212890625,46.17705882352941,310.6907896537662
0.01613232421875,-0.07116162109375,0.97681591796875,0.97953742439915,0.2783203125,0.09326171875,1.30712890625,46.17705882352941,310.6907896537662
0.01857373046875,-0.05846630859375,0.98169873046875,0.9836135878016634,0.35546875,0.08740234375,1.16015625,45.61235294117647,311.07801650726964
0.01369091796875,-0.06041943359375,0.97193310546875,0.9739054937193572,0.48974609375,0.27392578125,1.03466796875,45.7535294117647,311.07801650726964
0.01076123046875,-0.05797802734375,0.96412060546875,0.9659222523709158,0.65380859375,0.541015625,0.92236328125,46.17705882352941,311.07801650726964
0.00343701171875,-0.05944287109375,0.94507763671875,0.9469514282154712,0.814453125,0.72314453125,0.80810546875,45.61235294117647,311.07801650726964
0.00587841796875,-0.05309521484375,0.93287060546875,0.93439885711871,0.904296875,0.81201171875,0.63232421875,44.85941176470588,311.07801650726964
0.00636669921875,-0.03844677734375,0.93189404296875,0.9327085272836868,0.94677734375,0.8447265625,0.40380859375,45.565294117647056,311.07016666660024
0.00831982421875,-0.02819287109375,0.92408154296875,0.924548947060698,0.9541015625,0.8486328125,0.15478515625,45.565294117647056,311.07016666660024
0.00880810546875,-0.01696240234375,0.92505810546875,0.9252555346003896,0.94189453125,0.8408203125,-0.14013671875,45.84764705882353,311.07016666660024
0.00831982421875,-0.01989208984375,0.93872998046875,0.9389775774448728,0.9599609375,0.8740234375,-0.42822265625,45.7535294117647,311.07016666660024
-0.0009575195312499,-0.02135693359375,0.93726513671875,0.9375089183386992,0.96630859375,1.00146484375,-0.61181640625,45.00058823529412,311.03492990922314
0.00294873046875,-0.02184521484375,0.95728466796875,0.9575384294904234,1.00927734375,1.12451171875,-0.806640625,45.61235294117647,311.03492990922314
0.01417919921875,-0.03454052734375,0.95826123046875,0.9589883646526436,0.9833984375,1.12060546875,-1.0869140625,46.17705882352941,311.03492990922314
-0.0019340820312499,-0.04381787109375,0.95484326171875,0.9558500933463328,0.92578125,0.86376953125,-1.35009765625,44.81235294117647,311.03492990922314
-0.0068168945312499,-0.04625927734375,0.96949169921875,0.9706186406851433,0.8603515625,0.54931640625,-1.57763671875,45.70647058823529,311.03492990922314
-0.0029106445312499,-0.05358349609375,0.98218701171875,0.9836518636663196,0.8583984375,0.36181640625,-1.8701171875,45.7535294117647,310.936524898924
-0.01218798828125,-0.06725537109375,1.00464794921875,1.006970373878369,0.8544921875,0.35009765625,-2.10546875,45.70647058823529,310.936524898924
-0.01658251953125,-0.08239208984375,1.01929638671875,1.022755376617852,0.90234375,0.3408203125,-2.24267578125,46.17705882352941,310.936524898924
-0.01951220703125,-0.09704052734375,1.00904248046875,1.0138857517299034,0.9638671875,0.33056640625,-2.31396484375,45.7535294117647,310.936524898924
-0.04978564453125,-0.10631787109375,0.98218701171875,0.9891781569082018,1.0029296875,0.1689453125,-2.32275390625,45.42411764705882,311.08239975063884
-0.08689501953125,-0.10582958984375,0.98365185546875,0.9931372610434808,1.1005859375,0.1845703125,-2.21142578125,46.13,311.08239975063884
-0.05808642578125,-0.11803662109375,0.96558544921875,0.9745059961448392,1.162109375,0.78857421875,-2.1923828125,45.00058823529412,311.08239975063884
-0.03562548828125,-0.10778271484375,0.94507763671875,0.9518708045004132,1.119140625,1.3037109375,-2.287109375,45.7535294117647,311.08239975063884
-0.05271533203125,-0.10924755859375,0.92408154296875,0.932008923425825,1.27099609375,0.89208984375,-2.314453125,44.81235294117647,311.08239975063884
-0.04197314453125,-0.13219677734375,0.90455029296875,0.9151223772325564,1.27490234375,0.58203125,-2.31201171875,46.17705882352941,310.8919780184691
-0.01755908203125,-0.14586865234375,0.90650341796875,0.9183324190549892,1.2744140625,0.80517578125,-2.31494140625,44.95352941176471,310.8919780184691
-0.01218798828125,-0.15709912109375,0.91382763671875,0.927313124320878,1.27392578125,1.04541015625,-2.35302734375,44.81235294117647,310.8919780184691
-0.01560595703125,-0.18883740234375,0.90406201171875,0.9237051647856852,1.251953125,1.09375,-2.322265625,45.94176470588236,310.8919780184691
-0.02390673828125,-0.20055615234375,0.8942963867187499,0.9168207729302328,1.19091796875,0.71533203125,-2.2802734375,45.61235294117647,310.9796112499656
-0.04441455078125,-0.20543896484375,0.8903901367187499,0.9148619656337266,1.11572265625,-0.0830078125,-2.08935546875,45.61235294117647,310.9796112499656
-0.06150439453125,-0.20055615234375,0.90162060546875,0.9257025856048045,0.953125,-0.79052734375,-1.94775390625,45.7535294117647,310.9796112499656
-0.06150439453125,-0.18786083984375,0.93238232421875,0.9531061243161816,0.78759765625,-1.02197265625,-1.9638671875,45.61235294117647,310.9796112499656
-0.06199267578125,-0.18737255859375,0.97046826171875,0.9903333855666482,0.66162109375,-0.91357421875,-1.94091796875,44.95352941176471,310.9796112499656
-0.07859423828125,-0.19030224609375,0.99488232421875,1.015963994540278,0.5927734375,-0.65380859375,-1.7314453125,45.61235294117647,310.8934387650626
-0.09373095703125,-0.19616162109375,1.00660107421875,1.0298109518326477,0.59765625,-0.4306640625,-1.51220703125,46.17705882352941,310.8934387650626
-0.11326220703125,-0.20446240234375,0.99390576171875,1.0210200118957002,0.57763671875,-0.142578125,-1.341796875,44.95352941176471,310.8934387650626
-0.13181689453125,-0.20543896484375,0.98902294921875,1.018698805359704,0.5146484375,0.06591796875,-1.34814453125,45.61235294117647,310.8934387650626
-0.15574267578125,-0.19518505859375,0.98511669921875,1.016271567661614,0.50634765625,0.0263671875,-1.35888671875,45.7535294117647,310.7921132485287
-0.19138720703125,-0.17174755859375,1.03492138671875,1.066390436747253,0.48388671875,-0.0810546875,-1.205078125,45.84764705882353,310.7921132485287
-0.20896533203125,-0.09264599609375,1.19458935546875,1.2162621094083206,0.5498046875,-0.42431640625,-1.10595703125,45.00058823529412,310.7921132485287
-0.12302783203125,-0.04186474609375,1.39478466796875,1.4008257473435088,0.359375,-0.22265625,-2.01806640625,45.70647058823529,310.7921132485287
-0.04685595703125,-0.02868115234375,1.50757763671875,1.5085782776984331,-0.1259765625,2.9697265625,-3.609375,45.33,310.7921132485287
-0.14109423828125,0.0206352539062499,1.53785107421875,1.544447902732787,-0.384765625,6.8046875,-2.87939453125,45.7535294117647,310.8797461053833
-0.16062548828125,0.07727587890625,1.41773388671875,1.4288951964706778,-0.23779296875,7.341796875,-0.4833984375,45.565294117647056,310.8797461053833
-0.08835986328125,0.18860400390625,1.32740185546875,1.343642296755513,-0.0390625,4.9697265625,0.92578125,45.565294117647056,310.8797461053833
0.08107373046875,0.25891650390625,1.27564404296875,1.304177300112532,0.14990234375,1.8759765625,-0.08251953125,46.13,310.8797461053833
0.27443310546875,0.22913134765625,1.21265576171875,1.2642581620403617,-0.072265625,1.0087890625,-1.75830078125,46.27117647058824,311.0687055250537
0.29542919921875,0.21301806640625,1.18287060546875,1.237674423121241,-0.18603515625,1.21240234375,-2.29248046875,44.81235294117647,311.0687055250537
0.14308544921875,0.22522509765625,1.14039013671875,1.171191467830008,-0.0283203125,0.20849609375,-1.09765625,45.70647058823529,311.0687055250537
0.02638623046875,0.26624072265625,1.08374951171875,1.116285518901639,0.259765625,-1.62548828125,0.22607421875,45.7535294117647,311.0687055250537
-0.01316455078125,0.34680712890625,1.06031201171875,1.1156657439630078,0.52880859375,-3.22314453125,0.03271484375,45.61235294117647,311.0687055250537
