AccX,AccY,AccZ,Magnitude,GyroX,GyroY,GyroZ,Temperature,Altitude
0.26808544921875,0.95520556640625,-0.0651762695312501,0.9942511897334164,-1.3583984375,1.07080078125,-4.18896484375,47.82411764705883,337.9764549178578
0.20705029296875,0.89514697265625,-0.0900786132812501,0.9231858334294172,-1.544921875,1.177734375,-4.0830078125,48.01235294117648,337.9764549178578
0.17189404296875,0.86438525390625,-0.1203520507812501,0.8894908910753203,-1.90576171875,1.1904296875,-3.8349609375,48.1064705882353,337.9764549178578
0.19142529296875,0.87659228515625,-0.1330473632812501,0.9070607907189688,-2.31591796875,0.9921875,-3.66162109375,47.96529411764706,337.9764549178578
0.20167919921875,0.91223681640625,-0.1452543945312501,0.9454889463844444,-2.71240234375,0.2099609375,-3.57568359375,47.96529411764706,338.100456886184
0.16359326171875,0.98450244140625,-0.1203520507812501,1.0052325246140312,-2.869140625,-0.60546875,-3.35498046875,48.1064705882353,338.100456886184
0.14992138671875,1.04016650390625,-0.0925200195312501,1.0549799676099478,-2.8076171875,-1.21875,-3.27294921875,48.1064705882353,338.100456886184
0.14699169921875,1.07043994140625,-0.0568754882812501,1.081981076065687,-2.8330078125,-1.703125,-3.474609375,48.1064705882353,338.100456886184
0.08253857421875,1.07483447265625,-0.0173247070312501,1.0781381661540517,-2.6259765625,-1.8818359375,-3.64697265625,48.20058823529412,338.100456886184
0.03322216796875,1.05627978515625,-0.0036528320312501,1.056808421690576,-2.46923828125,-1.90966796875,-3.751953125,48.1064705882353,337.965756495719
-0.01121142578125,1.05627978515625,0.0227143554687498,1.0565834669074388,-2.40380859375,-1.7900390625,-3.7724609375,48.1064705882353,337.965756495719
-0.02683642578125,1.06165087890625,0.0383393554687498,1.062681837902994,-2.26904296875,-1.42626953125,-3.6171875,48.1064705882353,337.965756495719
-0.02878955078125,1.07776416015625,0.0529877929687498,1.0794499197995209,-2.03271484375,-1.05810546875,-3.48388671875,48.1064705882353,337.965756495719
-0.01365283203125,1.09729541015625,0.0412690429687498,1.0981560685439948,-1.869140625,-0.7138671875,-3.5673828125,47.96529411764706,337.63217040148703
-0.01658251953125,1.13098681640625,0.0031831054687498,1.1311128551118026,-1.771484375,-0.64697265625,-3.7666015625,48.1064705882353,337.63217040148703
-0.01902392578125,1.14807666015625,-0.0261137695312501,1.1485311734153285,-1.7412109375,-0.8603515625,-3.880859375,48.20058823529412,337.63217040148703
0.01417919921875,1.16370166015625,-0.0236723632812501,1.1640287729795242,-1.72705078125,-1.21435546875,-3.94775390625,48.01235294117648,337.63217040148703
0.03712841796875,1.15051806640625,-0.0334379882812501,1.1516025527968994,-1.751953125,-1.50146484375,-4.1845703125,48.1064705882353,337.63217040148703
0.03615185546875,1.14710009765625,-0.0285551757812501,1.1480248206204906,-1.74609375,-1.8779296875,-4.41015625,47.96529411764706,337.84596812846803
0.03322216796875,1.12805712890625,-0.0183012695312501,1.1286946154683344,-1.6982421875,-2.3515625,-4.46435546875,48.1064705882353,337.84596812846803
0.04738232421875,1.10754931640625,-0.0100004882812501,1.1086074971269977,-1.70166015625,-2.71630859375,-4.5078125,48.1064705882353,337.84596812846803
-0.07322314453125,1.08313525390625,0.0066010742187498,1.0856275518475214,-1.82568359375,-3.07080078125,-4.697265625,48.48294117647059,337.84596812846803
0.00294873046875,1.03186572265625,0.0070893554687498,1.031894288948846,-2.05322265625,-3.24951171875,-4.78125,47.96529411764706,337.6684766293271
-0.03318408203125,0.99133837890625,0.0358979492187498,0.9925430104286868,-2.28857421875,-3.31982421875,-4.44482421875,48.1064705882353,337.6684766293271
-0.06345751953125,0.95911181640625,0.0524995117187498,0.9626414347439354,-2.43603515625,-3.171875,-4.119140625,48.1064705882353,337.6684766293271
-0.06150439453125,0.93713916015625,0.0559174804687498,0.9408184525544716,-2.55078125,-3.1455078125,-3.67724609375,48.1064705882353,337.6684766293271
-0.05320361328125,0.92883837890625,0.0612885742187498,0.932377417103792,-2.71923828125,-3.10546875,-3.55322265625,48.01235294117648,337.6684766293271
-0.06736376953125,0.88196337890625,0.0778901367187498,0.8879550397262547,-2.8984375,-2.96728515625,-3.62353515625,48.29470588235294,337.87368566415245
-0.08005908203125,0.85559619140625,0.0676362304687498,0.8619912754991135,-3.1455078125,-2.81689453125,-3.28857421875,48.1064705882353,337.87368566415245
-0.06980517578125,0.87122119140625,0.0691010742187498,0.8767406032455449,-3.39697265625,-2.9765625,-2.73876953125,48.1064705882353,337.87368566415245
-0.07761767578125,0.90686572265625,0.0559174804687498,0.911897311732247,-3.67919921875,-3.59375,-2.140625,48.15352941176471,337.87368566415245
-0.07615283203125,0.98206103515625,0.0788666992187498,0.9881614680021712,-4.033203125,-4.21533203125,-1.94384765625,48.1064705882353,338.0683617555558
-0.07224658203125,1.04260791015625,0.1032807617187498,1.0501989043399285,-4.2294921875,-4.38916015625,-2.2626953125,48.20058823529412,338.0683617555558
-0.10203173828125,1.06751025390625,0.1252534179687499,1.0796652428065534,-4.345703125,-4.18896484375,-2.44921875,48.1064705882353,338.0683617555558
-0.10496142578125,1.07434619140625,0.1477143554687499,1.0895210740057744,-4.3125,-3.9619140625,-2.12646484375,48.1064705882353,338.0683617555558
-0.09226611328125,1.08313525390625,0.1682221679687499,1.0999971416829644,-4.2021484375,-4.13818359375,-1.9296875,47.96529411764706,338.0683617555558
-0.09910205078125,1.09338916015625,0.1618745117187499,1.1097407037503957,-4.1376953125,-4.4375,-2.28564453125,48.1064705882353,337.83526980843106
-0.14109423828125,1.10364306640625,0.1960541992187499,1.1297667242108265,-4.3017578125,-4.45654296875,-2.615234375,47.96529411764706,337.83526980843106
-0.07712939453125,1.10706103515625,0.2390229492187499,1.1351938377718644,-4.35595703125,-4.24072265625,-2.42529296875,48.1064705882353,337.83526980843106
-0.17136767578125,1.13245166015625,0.2639252929687499,1.1753596058917266,-4.25390625,-3.779296875,-2.509765625,47.96529411764706,337.83526980843106
-0.13767626953125,1.14319384765625,0.2692963867187499,1.182525886571164,-4.2236328125,-3.16748046875,-3.3984375,48.20058823529412,337.65988461655814
-0.13718798828125,1.10950244140625,0.2883393554687499,1.154537048139738,-4.14013671875,-2.86572265625,-3.7470703125,48.34176470588236,337.65988461655814
-0.15281298828125,1.05530322265625,0.2873627929687499,1.1043523332337886,-3.8974609375,-2.73486328125,-3.7666015625,48.01235294117648,337.65988461655814
-0.12498095703125,1.00647509765625,0.2756440429687499,1.0509957184721368,-3.79833984375,-3.00927734375,-4.16015625,47.96529411764706,337.65988461655814
-0.24558642578125,1.01135791015625,0.3073823242187499,1.0851918762162511,-3.80126953125,-3.48291015625,-4.2138671875,48.1064705882353,337.65988461655814
-0.30369189453125,1.05383837890625,0.3498627929687499,1.151176819417255,-3.419921875,-3.5625,-3.92578125,48.1064705882353,337.70689102273
-0.29441455078125,1.07874072265625,0.3400971679687499,1.168771816091155,-3.15185546875,-3.3271484375,-4.47021484375,48.1064705882353,337.70689102273
-0.30369189453125,1.09729541015625,0.3425385742187499,1.188956962543963,-3.00732421875,-2.76123046875,-5.1279296875,48.1064705882353,337.70689102273
-0.26804736328125,1.08264697265625,0.3835541992187499,1.17944380116312,-2.77392578125,-2.4794921875,-5.591796875,48.01235294117648,337.70689102273
-0.20408251953125,1.05432666015625,0.4079682617187499,1.1487786922050192,-2.5986328125,-2.17578125,-6.24462890625,47.96529411764706,337.6256835737871
-0.19724658203125,0.98596728515625,0.4123627929687499,1.0867754020709084,-2.62841796875,-1.9423828125,-6.85986328125,48.1064705882353,337.6256835737871
-0.24021533203125,0.93567431640625,0.4494721679687499,1.0654647164048725,-2.52734375,-1.9189453125,-7.08447265625,48.1064705882353,337.6256835737871
-0.26804736328125,0.86047900390625,0.4797456054687499,1.0209942953278923,-2.4169921875,-2.029296875,-7.0791015625,48.01235294117648,337.6256835737871
-0.25877001953125,0.75403369140625,0.5212495117187499,0.9524861071170404,-2.33935546875,-2.328125,-6.96337890625,48.1064705882353,337.6256835737871
-0.34421923828125,0.67932666015625,0.5617768554687499,0.9463428715546632,-2.2275390625,-2.58642578125,-6.564453125,47.96529411764706,337.7838853882193
-0.42673876953125,0.66126025390625,0.5817963867187499,0.9787022715903936,-2.26025390625,-2.54296875,-5.9912109375,47.91823529411765,337.7838853882193
-0.46189501953125,0.70911181640625,0.5915620117187499,1.0325367746203906,-2.47021484375,-2.296875,-5.072265625,48.1064705882353,337.7838853882193
-0.44089892578125,0.77112353515625,0.5896088867187499,1.0661435215413806,-2.56982421875,-1.81787109375,-4.4130859375,48.34176470588236,337.7838853882193
-0.32127001953125,0.80627978515625,0.5642182617187499,1.035202281806868,-2.5400390625,-1.18896484375,-4.15869140625,48.15352941176471,337.9164784657318
-0.19919970703125,0.79895556640625,0.5129487304687499,0.970116962258866,-2.39208984375,-0.74072265625,-4.63818359375,48.34176470588236,337.9164784657318
-0.17087939453125,0.74866259765625,0.4607026367187499,0.8955123517207225,-2.294921875,-0.67724609375,-5.3173828125,47.96529411764706,337.9164784657318
-0.22166064453125,0.71448291015625,0.3952729492187499,0.8460850871061619,-2.2431640625,-0.78369140625,-5.44091796875,48.01235294117648,337.9164784657318
-0.28562548828125,0.68665087890625,0.3288666992187499,0.8131572141435282,-2.259765625,-1.13818359375,-5.33935546875,48.43588235294118,337.9164784657318
-0.33494189453125,0.68860400390625,0.2810151367187499,0.8156782784731732,-2.359375,-1.63134765625,-5.25439453125,48.15352941176471,337.9399824500686
-0.32322314453125,0.71106494140625,0.2634370117187499,0.8243091720956693,-2.44091796875,-2.53369140625,-5.2294921875,48.1064705882353,337.9399824500686
-0.23826220703125,0.71936572265625,0.3191010742187499,0.8222417027855684,-2.45458984375,-3.2275390625,-5.302734375,48.15352941176471,337.9399824500686
-0.19187548828125,0.69788134765625,0.3703706054687499,0.8130368772724643,-2.35009765625,-3.4853515625,-5.20947265625,48.1064705882353,337.9399824500686
-0.18943408203125,0.66614306640625,0.4045502929687499,0.8020553571277018,-2.2255859375,-3.33544921875,-5.17578125,48.1064705882353,337.8950820378992
-0.21726611328125,0.64856494140625,0.4167573242187499,0.8009542524336866,-2.02587890625,-3.111328125,-5.35107421875,47.96529411764706,337.8950820378992
-0.28513720703125,0.62903369140625,0.4362885742187499,0.8169053383052316,-1.82373046875,-3.19580078125,-5.662109375,48.15352941176471,337.8950820378992
-0.34031298828125,0.57776416015625,0.4533784179687499,0.8094296415586827,-1.650390625,-3.35498046875,-5.6787109375,47.35352941176471,337.8950820378992
-0.34666064453125,0.52063525390625,0.4690034179687499,0.7817920926584107,-1.68701171875,-3.41796875,-5.3837890625,48.01235294117648,337.8950820378992
-0.34031298828125,0.49963916015625,0.4997651367187499,0.7843579617968238,-1.78759765625,-3.4912109375,-4.96923828125,48.34176470588236,338.00627945668697
-0.35544970703125,0.49963916015625,0.5158784179687499,0.8013203645959489,-1.90185546875,-3.64208984375,-4.54345703125,48.43588235294118,338.00627945668697
-0.31589892578125,0.52454150390625,0.5622651367187499,0.831311015564772,-2.03955078125,-3.7724609375,-4.32373046875,48.1064705882353,338.00627945668697
-0.30369189453125,0.54114306640625,0.5759370117187499,0.8466215368103166,-2.21240234375,-3.75830078125,-4.251953125,48.1064705882353,338.00627945668697
-0.33347705078125,0.55432666015625,0.5798432617187499,0.8687365525395957,-2.31884765625,-3.58984375,-4.134765625,48.1064705882353,337.9313922809403
-0.33494189453125,0.58118212890625,0.5793549804687499,0.8863469597545476,-2.43408203125,-3.49365234375,-3.97021484375,48.1064705882353,337.9313922809403
-0.33250048828125,0.59827197265625,0.5788666992187499,0.8964221011541834,-2.451171875,-3.5576171875,-4.033203125,48.1064705882353,337.9313922809403
-0.36228564453125,0.59485400390625,0.5803315429687499,0.9065797670151314,-2.46533203125,-3.7900390625,-4.1962890625,48.20058823529412,337.9313922809403
-0.35935595703125,0.59241259765625,0.5798432617187499,0.90349742549512,-2.4560546875,-3.9931640625,-4.32958984375,47.96529411764706,337.9313922809403
-0.37302783203125,0.58215869140625,0.5725190429687499,0.897683997858726,-2.54833984375,-4.05029296875,-4.3935546875,48.15352941176471,337.96348670369895
-0.37791064453125,0.56458056640625,0.5774018554687499,0.8916056156801515,-2.6982421875,-3.8779296875,-4.203125,47.91823529411765,337.96348670369895
-0.36033251953125,0.55188525390625,0.5764252929687499,0.8756043492839753,-2.94287109375,-3.83642578125,-4.00439453125,48.20058823529412,337.96348670369895
-0.37009814453125,0.54407275390625,0.6047456054687499,0.8937029962254629,-3.26123046875,-4.0732421875,-3.861328125,48.1064705882353,337.96348670369895
-0.42332080078125,0.55139697265625,0.6291596679687499,0.937593200501744,-3.48046875,-4.28955078125,-3.65673828125,48.1064705882353,337.7731872094797
-0.45554736328125,0.55774462890625,0.6565034179687499,0.9744738113828,-3.63427734375,-4.333984375,-3.47705078125,48.01235294117648,337.7731872094797
-0.46287158203125,0.53918994140625,0.6809174804687499,0.984187232986538,-3.77392578125,-4.13623046875,-3.29296875,48.01235294117648,337.7731872094797
-0.47410205078125,0.50549853515625,0.7111909179687499,0.9930226812119322,-3.84912109375,-3.81298828125,-2.94677734375,48.1064705882353,337.7731872094797
-0.44773486328125,0.48743212890625,0.7326752929687499,0.9873548870666524,-3.798828125,-3.46435546875,-2.64892578125,48.15352941176471,337.7731872094797
-0.41062548828125,0.46692431640625,0.7502534179687499,0.9744289610081645,-3.73193359375,-3.18701171875,-2.482421875,47.96529411764706,337.8864916474882
-0.39255908203125,0.45667041015625,0.7605073242187499,0.9700628261034736,-3.7294921875,-3.0029296875,-2.4267578125,48.20058823529412,337.8864916474882
-0.39890673828125,0.46448291015625,0.7702729492187499,0.9839671620392396,-3.791015625,-2.962890625,-2.3125,48.1064705882353,337.8864916474882
-0.39109423828125,0.46741259765625,0.7966401367187499,1.003027789792398,-4.0,-3.00341796875,-2.36181640625,48.1064705882353,337.8864916474882
-0.41550830078125,0.46057666015625,0.8274018554687499,1.0341043652997204,-3.951171875,-3.14990234375,-2.40625,48.15352941176471,337.837376484748
-0.44529345703125,0.43616259765625,0.8791596679687499,1.0777039464769589,-3.9736328125,-3.19775390625,-2.2314453125,48.1064705882353,337.837376484748
-0.44089892578125,0.39710009765625,0.91138623046875,1.0875225107563065,-3.9619140625,-3.01953125,-2.10498046875,48.1064705882353,337.837376484748
-0.45066455078125,0.37659228515625,0.94898388671875,1.1160155481989922,-3.8271484375,-2.6787109375,-2.0859375,47.96529411764706,337.837376484748
-0.46335986328125,0.33997119140625,0.94361279296875,1.104847445098412,-3.6767578125,-2.17724609375,-2.072265625,47.96529411764706,337.837376484748
-0.44724658203125,0.31116259765625,0.92652294921875,1.0748471718099422,-3.6357421875,-1.64453125,-1.90234375,48.20058823529412,337.8159800055693
-0.39207080078125,0.30530322265625,0.90113232421875,1.0290622120850754,-3.65380859375,-1.21435546875,-1.63134765625,48.29470588235294,337.8159800055693
-0.34470751953125,0.31116259765625,0.8830659179687499,0.9977228330952256,-3.7392578125,-0.9765625,-1.33349609375,48.15352941176471,337.8159800055693
-0.30418017578125,0.31946337890625,0.8508393554687499,0.9583892938754,-3.7158203125,-0.98583984375,-1.13671875,48.1064705882353,337.8159800055693
-0.32761767578125,0.33069384765625,0.8142182617187499,0.9378929257001068,-3.6279296875,-1.28125,-1.09423828125,48.34176470588236,338.12169482694657
-0.35691455078125,0.32434619140625,0.7971284179687499,0.9316663368247686,-3.46533203125,-1.91748046875,-1.14990234375,47.96529411764706,338.12169482694657
-0.38523486328125,0.30969775390625,0.7761323242187499,0.9201630199910764,-3.41259765625,-2.45361328125,-1.16015625,47.96529411764706,338.12169482694657
-0.35740283203125,0.28430712890625,0.7844331054687499,0.9076908200737848,-3.48193359375,-2.76953125,-1.13720703125,48.15352941176471,338.12169482694657
-0.32664111328125,0.24817431640625,0.8078706054687499,0.906057295864764,-3.5400390625,-3.0,-0.9794921875,48.29470588235294,338.12169482694657
-0.32566455078125,0.23254931640625,0.8122651367187499,0.9054895010574652,-3.55810546875,-3.072265625,-0.8076171875,48.1064705882353,337.86298749755827
-0.34617236328125,0.21106494140625,0.8186127929687499,0.9135155277293576,-3.56884765625,-3.0322265625,-0.755859375,48.20058823529412,337.86298749755827
-0.37937548828125,0.18811572265625,0.8161713867187499,0.9194830170903252,-3.634765625,-2.75048828125,-0.65283203125,48.15352941176471,337.86298749755827
-0.37644580078125,0.15784228515625,0.8083588867187499,0.9055770081259574,-3.69384765625,-2.486328125,-0.72119140625,48.1064705882353,337.86298749755827
-0.40134814453125,0.13928759765625,0.7932221679687499,0.8998237470397024,-3.8125,-2.30615234375,-0.95703125,48.1064705882353,338.0404820360753
-0.37156298828125,0.14661181640625,0.7824799804687499,0.8785379893919257,-3.88134765625,-2.44189453125,-1.08837890625,48.1064705882353,338.0404820360753
-0.32712939453125,0.16418994140625,0.7658784179687499,0.8488472941204944,-3.97509765625,-2.9853515625,-1.13916015625,48.53,338.0404820360753
-0.28025439453125,0.19202197265625,0.7815034179687499,0.8521517211938927,-4.03662109375,-3.83056640625,-0.95654296875,47.96529411764706,338.0404820360753
-0.26707080078125,0.19690478515625,0.7946870117187499,0.8611769583783833,-3.99365234375,-4.5546875,-0.5595703125,48.1064705882353,338.0404820360753
-0.26658251953125,0.20032275390625,0.8147065429687499,0.8803080123503959,-3.81884765625,-4.8798828125,-0.43017578125,48.15352941176471,337.9014066346677
-0.25925830078125,0.21448291015625,0.8161713867187499,0.8828100122741486,-3.58740234375,-4.79931640625,-0.67333984375,48.1064705882353,337.9014066346677
-0.26121142578125,0.23987353515625,0.8166596679687499,0.8903391124250687,-3.44287109375,-4.46533203125,-1.01171875,47.35352941176471,337.9014066346677
-0.26609423828125,0.25989306640625,0.8186127929687499,0.899153743485851,-3.38427734375,-4.01806640625,-1.376953125,48.01235294117648,337.9014066346677
-0.27732470703125,0.27844775390625,0.8200776367187499,0.90937862028509,-3.37158203125,-3.6376953125,-1.74169921875,47.96529411764706,337.95278854925505
-0.30222705078125,0.27356494140625,0.8449799804687499,0.9381738297264032,-3.3662109375,-3.29833984375,-2.17626953125,48.15352941176471,337.95278854925505
-0.33201220703125,0.25940478515625,0.8816010742187499,0.9771097186311144,-3.361328125,-2.97216796875,-2.623046875,47.96529411764706,337.95278854925505
-0.35105517578125,0.26965869140625,0.92994091796875,1.0299250735885097,-3.2841796875,-2.74951171875,-2.92236328125,48.1064705882353,337.95278854925505
-0.32468798828125,0.28723681640625,0.98462841796875,1.0758347456300927,-3.0078125,-2.52880859375,-3.1689453125,47.96529411764706,337.95278854925505
-0.30027392578125,0.30188525390625,1.00122998046875,1.0880076336219238,-2.611328125,-2.73486328125,-3.2626953125,48.20058823529412,337.66409852688025
-0.27830126953125,0.29114306640625,1.00708935546875,1.0846404250430657,-2.09619140625,-3.03515625,-2.88037109375,48.15352941176471,337.66409852688025
-0.21287158203125,0.25208056640625,0.98902294921875,1.042605062560861,-1.4443359375,-3.15576171875,-2.466796875,48.1064705882353,337.66409852688025
-0.15183642578125,0.21448291015625,0.92701123046875,0.9635388110285464,-0.9814453125,-3.259765625,-2.517578125,48.1064705882353,337.66409852688025
-0.13816455078125,0.17590869140625,0.8830659179687499,0.9109548431633891,-0.7958984375,-3.51806640625,-2.78271484375,48.15352941176471,337.5058971287945
-0.10252001953125,0.11877978515625,0.8547456054687499,0.8690276415825866,-0.92724609375,-3.79296875,-3.10009765625,48.1064705882353,337.5058971287945
-0.05710986328125,0.07971728515625,0.8366791992187499,0.8424063535147479,-1.412109375,-3.921875,-3.50439453125,48.29470588235294,337.5058971287945
-0.04929736328125,0.06311572265625,0.8269135742187499,0.8307826934283912,-2.02001953125,-4.33251953125,-4.00634765625,48.1064705882353,337.5058971287945
-0.05271533203125,0.06946337890625,0.8728120117187499,0.8771572692743128,-2.5,-5.224609375,-4.11474609375,48.1064705882353,337.5058971287945
-0.09519580078125,0.08997119140625,0.94214794921875,0.9512096582702152,-2.5732421875,-6.3515625,-4.15234375,48.1064705882353,337.929284262514
-0.16794970703125,0.09778369140625,1.04224560546875,1.0602097228925214,-2.201171875,-7.140625,-4.01220703125,48.20058823529412,337.929284262514
-0.21726611328125,0.11145556640625,1.15210888671875,1.1777019122509722,-1.5888671875,-7.2509765625,-3.94189453125,48.1064705882353,337.929284262514
-0.22019580078125,0.12659228515625,1.17310498046875,1.200286254417405,-0.966796875,-6.54345703125,-3.93505859375,48.1064705882353,337.929284262514
-0.15427783203125,0.11975634765625,1.13501904296875,1.1516993792487364,-0.56201171875,-5.41455078125,-4.09033203125,47.96529411764706,338.23289440421007
-0.10789111328125,0.09583056640625,1.04224560546875,1.0521881447259,-0.44873046875,-4.63720703125,-4.16650390625,48.15352941176471,338.23289440421007
-0.02634814453125,0.07678759765625,0.93775341796875,0.9412608739271652,-0.44921875,-4.619140625,-4.3525390625,48.29470588235294,338.23289440421007
0.05763623046875,0.05335009765625,0.8703706054687499,0.8739068364800773,-0.515625,-5.58984375,-4.65087890625,47.82411764705883,338.23289440421007
0.09181591796875,0.04065478515625,0.8547456054687499,0.860623625295451,-0.63818359375,-7.0810546875,-4.84326171875,47.82411764705883,338.23289440421007
0.09523388671875,0.06213916015625,0.8850190429687499,0.8922945000513036,-0.76513671875,-8.16162109375,-4.76708984375,48.01235294117648,337.97418487167045
0.10451123046875,0.05139697265625,0.95386669921875,0.9609505325305734,-0.794921875,-8.77978515625,-4.68798828125,48.15352941176471,337.97418487167045
0.08839794921875,0.04651416015625,1.01783154296875,1.0227212789334486,-0.5986328125,-8.71923828125,-4.62890625,48.20058823529412,337.97418487167045
0.07716748046875,0.01477587890625,1.03540966796875,1.038386405516995,-0.48291015625,-8.26611328125,-5.0390625,47.96529411764706,337.97418487167045
0.06154248046875,-0.02086865234375,1.01929638671875,1.0213658020174703,-0.423828125,-7.990234375,-5.28759765625,48.20058823529412,338.1323929435672
0.09767529296875,-0.01842724609375,0.98999951171875,0.9949769140329306,-0.4482421875,-7.5673828125,-5.384765625,48.01235294117648,338.1323929435672
0.15919873046875,-0.00670849609375,0.97779248046875,0.9906903525138075,-0.3896484375,-7.55810546875,-5.291015625,47.96529411764706,338.1323929435672
0.19191357421875,0.0011040039062499,0.94996044921875,0.969152667990926,-0.328125,-7.56298828125,-5.18408203125,48.20058823529412,338.1323929435672
0.21242138671875,0.00598681640625,0.94117138671875,0.9648638591450576,-0.283203125,-7.841796875,-5.3203125,48.20058823529412,338.1323929435672
0.21290966796875,-0.01110302734375,0.95826123046875,0.9816915960474766,-0.43017578125,-8.03857421875,-5.51123046875,48.1064705882353,337.59569555648767
0.22023388671875,-0.00524365234375,0.99878857421875,1.0227947383219531,-0.8271484375,-8.07958984375,-5.49462890625,48.15352941176471,337.59569555648767
0.23439404296875,0.0304008789062499,1.08570263671875,1.1111323036414498,-1.53857421875,-7.87890625,-5.576171875,48.43588235294118,337.59569555648767
0.17970654296875,0.0035454101562499,1.15064404296875,1.164598095970634,-2.36572265625,-7.61328125,-5.5439453125,48.1064705882353,337.59569555648767
0.11037060546875,-0.10045849609375,1.19507763671875,1.204360468370757,-3.10498046875,-7.58154296875,-5.1552734375,48.1064705882353,338.1238041019139
0.09083935546875,-0.20934521484375,1.20337841796875,1.2248252219451254,-3.31591796875,-7.0390625,-4.72509765625,48.1064705882353,338.1238041019139
0.17726513671875,-0.28844677734375,1.06177685546875,1.1144480978785056,-2.83935546875,-5.57666015625,-4.56591796875,48.15352941176471,338.1238041019139
0.34132763671875,-0.24938427734375,0.8825776367187499,0.9785910066060924,-2.001953125,-3.6005859375,-4.294921875,48.1064705882353,338.1238041019139
0.52833935546875,-0.21081005859375,0.7292573242187499,0.924878154282025,-1.05810546875,-2.404296875,-3.61083984375,48.01235294117648,338.1238041019139
0.65236279296875,-0.09459912109375,0.7053315429687499,0.9654112040308916,-0.67578125,-4.048828125,-2.322265625,48.20058823529412,337.8864916474882
0.55714794921875,0.08801806640625,0.8186127929687499,0.9941267133241372,-0.66943359375,-6.21337890625,-1.7548828125,48.1064705882353,337.8864916474882
0.53615185546875,0.16809619140625,0.97144482421875,1.1222389176059029,-0.93701171875,-6.70849609375,-2.45361328125,48.20058823529412,337.8864916474882
0.31007763671875,0.12512744140625,1.05933544921875,1.1108540009188654,-1.37255859375,-5.953125,-2.68896484375,48.01235294117648,337.8864916474882
0.34181591796875,0.01184619140625,1.02955029296875,1.0848743059818922,-1.75048828125,-5.3154296875,-2.634765625,48.1064705882353,337.6619913437932
0.33302685546875,-0.01452099609375,0.99927685546875,1.053409692221631,-1.2353515625,-4.546875,-2.796875,48.15352941176471,337.6619913437932
0.28615185546875,-0.04625927734375,0.96363232421875,1.006285278341984,-0.64208984375,-3.9951171875,-2.9306640625,48.1064705882353,337.6619913437932
0.36330029296875,-0.05456005859375,0.93628857421875,1.005783374826564,-0.17578125,-3.67529296875,-2.69873046875,47.96529411764706,337.6619913437932
0.54982373046875,0.0230766601562499,0.8923432617187499,1.0483869340875045,0.37353515625,-3.56494140625,-2.27978515625,48.1064705882353,337.6619913437932
0.75539013671875,0.05627978515625,0.8352143554687499,1.1275480887528857,0.6337890625,-4.08447265625,-1.6318359375,48.01235294117648,337.79669095330485
0.75685498046875,0.06751025390625,0.8220307617187499,1.1194291710754845,0.7060546875,-4.82861328125,-1.20458984375,47.91823529411765,337.79669095330485
0.71437451171875,0.03333056640625,0.94312451171875,1.1836070776465872,0.736328125,-5.41943359375,-1.2802734375,48.20058823529412,337.79669095330485
0.66164013671875,-0.03893505859375,1.07007763671875,1.258709560585956,0.75927734375,-5.4267578125,-1.701171875,48.20058823529412,337.79669095330485
0.63234326171875,-0.14440380859375,1.20630810546875,1.3696312298925917,1.22314453125,-4.92822265625,-2.009765625,48.1064705882353,337.95278854925505
0.67872998046875,-0.29088818359375,1.28296826171875,1.4803033075418064,1.61962890625,-4.6298828125,-1.55029296875,48.53,337.95278854925505
0.74415966796875,-0.30211865234375,1.19165966796875,1.4370462956316876,1.34521484375,-3.93994140625,-0.9541015625,48.20058823529412,337.95278854925505
0.81251904296875,-0.19909130859375,1.16236279296875,1.4321004876832275,1.4189453125,-3.80419921875,-0.1552734375,48.1064705882353,337.95278854925505
0.81056591796875,-0.11608349609375,1.15113232421875,1.4126564031282098,1.51171875,-4.83935546875,0.51708984375,48.01235294117648,337.95278854925505
0.77492138671875,0.0020805664062499,1.15699169921875,1.3925290935602646,1.7646484375,-5.8134765625,0.97021484375,48.20058823529412,337.9548969032211
0.91798779296875,0.05823291015625,1.08081982421875,1.4192477416889386,1.51611328125,-6.15283203125,1.001953125,48.1064705882353,337.9548969032211
1.00148388671875,0.05823291015625,1.04859326171875,1.451174998304659,1.21826171875,-5.5634765625,1.07373046875,48.01235294117648,337.9548969032211
1.06740185546875,0.03186572265625,1.08130810546875,1.5197333201226302,0.9736328125,-5.02490234375,0.921875,48.1064705882353,337.9548969032211
1.06251904296875,-0.03063427734375,1.11451123046875,1.5401365064371957,0.52392578125,-5.08447265625,0.904296875,48.20058823529412,337.8757935275422
0.98927685546875,-0.06481396484375,1.16236279296875,1.527729298430523,0.03173828125,-4.689453125,1.2861328125,48.1064705882353,337.8757935275422
0.98976513671875,-0.10875927734375,1.16675732421875,1.5338794802364095,-0.53515625,-3.767578125,1.37158203125,48.01235294117648,337.8757935275422
1.02003857421875,0.08801806640625,1.12867138671875,1.5238520177844508,-0.9677734375,-2.416015625,0.7890625,47.82411764705883,337.8757935275422
1.03664013671875,0.07190478515625,1.06763623046875,1.489845693954296,-1.38330078125,-1.81640625,0.4267578125,48.1064705882353,337.8757935275422
1.02052685546875,0.05530322265625,1.01587841796875,1.4410213285249431,-1.7783203125,-1.6748046875,0.30078125,48.20058823529412,338.11958600784607
0.98048779296875,0.05042041015625,1.01197216796875,1.409959644338953,-1.919921875,-1.51513671875,0.37890625,48.1064705882353,338.11958600784607
1.00148388671875,0.03430712890625,1.09790966796875,1.4864563880149109,-2.0166015625,-1.14599609375,0.1337890625,48.15352941176471,338.11958600784607
1.03126904296875,0.01282275390625,0.91578076171875,1.379251487415401,-2.2412109375,-0.75537109375,-0.0537109375,47.35352941176471,338.11958600784607
1.05031201171875,0.0177055664062499,0.8781831054687499,1.3691874874439918,-2.24658203125,-0.84716796875,0.005859375,48.15352941176471,338.0532885068833
1.06447216796875,0.04456103515625,0.8747651367187499,1.378513955915159,-2.0869140625,-1.68212890625,-0.09716796875,48.1064705882353,338.0532885068833
1.06251904296875,0.05090869140625,0.8733002929687499,1.3762964118354846,-1.88525390625,-2.75634765625,-0.27099609375,48.20058823529412,338.0532885068833
1.04689404296875,0.07288134765625,0.8566987304687499,1.354707179735316,-1.8740234375,-4.16357421875,-0.3095703125,48.15352941176471,338.0532885068833
1.00001904296875,0.07874072265625,0.8444916992187499,1.3112606215981375,-1.83251953125,-4.888671875,-0.2333984375,48.53,338.0532885068833
0.94044873046875,0.06702197265625,0.8591401367187499,1.2755616543233537,-1.908203125,-5.27880859375,-0.1201171875,48.1064705882353,337.8971897809617
0.89943310546875,0.05237353515625,0.8742768554687499,1.255421410684973,-1.89208984375,-5.44921875,-0.15869140625,48.15352941176471,337.8971897809617
0.92970654296875,0.04114306640625,0.8713471679687499,1.274869756123885,-1.859375,-5.4697265625,-0.25244140625,48.01235294117648,337.8971897809617
0.96535107421875,0.04114306640625,0.8811127929687499,1.3076525541372963,-1.61083984375,-5.84228515625,-0.25146484375,47.96529411764706,337.8971897809617
0.99122998046875,0.0294243164062499,0.8361909179687499,1.2971576295383205,-1.388671875,-6.3828125,-0.24853515625,48.1064705882353,337.9548969032211
0.97658154296875,-0.00719677734375,0.8083588867187499,1.2677568352836976,-1.2158203125,-7.08984375,-0.07373046875,48.1064705882353,337.9548969032211
0.91408154296875,-0.03063427734375,0.7956635742187499,1.2122557690038274,-1.1767578125,-7.4287109375,0.08056640625,47.96529411764706,337.9548969032211
0.88136669921875,-0.04284130859375,0.8034760742187499,1.193405395519793,-1.3076171875,-7.5859375,0.01171875,47.82411764705883,337.9548969032211
0.85451123046875,-0.04137646484375,0.8103120117187499,1.1783492738470502,-1.52734375,-7.5244140625,-0.13134765625,48.1064705882353,337.9548969032211
0.83986279296875,-0.02623974609375,0.7976166992187499,1.1585553220114038,-1.958984375,-6.9345703125,-0.5244140625,48.01235294117648,338.0896005582064
0.83400341796875,-0.00133740234375,0.8093354492187499,1.1621477355270724,-2.14404296875,-5.92919921875,-0.7412109375,48.1064705882353,338.0896005582064
0.83009716796875,0.00842822265625,0.8288666992187499,1.1730952000075134,-2.154296875,-4.82763671875,-0.9033203125,48.1064705882353,338.0896005582064
0.85988232421875,0.0025688476562499,0.8239838867187499,1.1909465378656836,-2.126953125,-3.9814453125,-0.87841796875,47.96529411764706,338.0896005582064
0.91310498046875,-0.00622021484375,0.8298432617187499,1.2338716446411888,-2.0625,-3.18017578125,-0.9794921875,48.01235294117648,337.97629310529953
0.93312451171875,-0.00866162109375,0.8278901367187499,1.247476836068116,-1.998046875,-2.681640625,-0.94189453125,47.96529411764706,337.97629310529953
0.93556591796875,-0.02477490234375,0.8220307617187499,1.2456451966201132,-1.7099609375,-2.22314453125,-1.0224609375,48.1064705882353,337.97629310529953
0.94581982421875,-0.05065380859375,0.8015229492187499,1.2407981247304345,-1.7763671875,-1.9794921875,-1.185546875,48.53,337.97629310529953
0.92335888671875,-0.05846630859375,0.7849213867187499,1.2133060315730546,-1.78466796875,-1.79150390625,-1.34228515625,48.20058823529412,337.97629310529953
0.88478466796875,-0.06725537109375,0.7771088867187499,1.1795191458517251,-1.78466796875,-1.525390625,-1.3564453125,48.1064705882353,338.3355065730863
0.85402294921875,-0.07702099609375,0.7736909179687499,1.1549394218654463,-1.75537109375,-1.3095703125,-1.2529296875,48.1064705882353,338.3355065730863
0.83497998046875,-0.08288037109375,0.7663666992187499,1.1363884201133314,-1.74658203125,-0.96142578125,-1.1181640625,48.1064705882353,338.3355065730863
0.81593701171875,-0.06579052734375,0.7668549804687499,1.121672038365234,-1.66015625,-0.6240234375,-1.12353515625,48.1064705882353,338.3355065730863
0.82619091796875,-0.03795849609375,0.7619721679687499,1.1245594093327136,-1.5107421875,-0.2470703125,-0.8828125,48.1064705882353,338.269208104356
0.83888623046875,-0.00768505859375,0.7668549804687499,1.1365983146500724,-1.42138671875,0.17236328125,-0.81982421875,48.01235294117648,338.269208104356
0.84376904296875,0.01477587890625,0.7712495117187499,1.1432367794102245,-1.3251953125,0.42236328125,-0.90771484375,47.40058823529412,338.269208104356
0.82863232421875,0.0191704101562499,0.7692963867187499,1.130847453896524,-1.1630859375,0.66455078125,-1.0380859375,47.96529411764706,338.269208104356
0.80324169921875,-0.00036083984375,0.7590424804687499,1.1051438117844077,-1.0986328125,0.87158203125,-1.06298828125,48.01235294117648,338.269208104356
0.77540966796875,-0.01598583984375,0.7351166992187499,1.0686029485852953,-0.96728515625,1.14208984375,-1.052734375,48.15352941176471,338.1772945194288
0.74171826171875,-0.00280224609375,0.7229096679687499,1.035737524855087,-0.86962890625,1.61181640625,-1.10302734375,48.1064705882353,338.1772945194288
0.70412060546875,0.00842822265625,0.6941010742187499,0.9887533379030612,-0.5439453125,2.00439453125,-1.15625,48.1064705882353,338.1772945194288
0.68605419921875,0.00696337890625,0.6618745117187499,0.9533083038421548,-0.400390625,2.5439453125,-1.15771484375,48.15352941176471,338.1772945194288
0.68165966796875,0.00989306640625,0.6418549804687499,0.9363415998719292,-0.24169921875,2.9326171875,-1.20068359375,47.82411764705883,338.5151178891244
0.69191357421875,0.01135791015625,0.6247651367187499,0.9323115747272912,-0.13427734375,3.3095703125,-1.28173828125,47.96529411764706,338.5151178891244
0.70070263671875,-0.00475537109375,0.6101166992187499,0.9291120413192536,-0.08447265625,3.603515625,-1.3271484375,48.01235294117648,338.5151178891244
0.68898388671875,-0.03014599609375,0.5764252929687499,0.8988179435306511,-0.16162109375,3.7763671875,-1.359375,48.1064705882353,338.5151178891244
0.64747998046875,-0.04821240234375,0.5647065429687499,0.8604930217725679,-0.25634765625,3.92578125,-1.4638671875,48.15352941176471,338.5151178891244
0.59767529296875,-0.05163037109375,0.5578706054687499,0.8192075826618239,-0.3017578125,4.1611328125,-1.5859375,48.01235294117648,338.4958332252765
0.53468701171875,-0.05358349609375,0.5422456054687499,0.7634079435036858,-0.37353515625,4.7451171875,-1.62158203125,48.01235294117648,338.4958332252765
0.49708935546875,-0.03795849609375,0.5446870117187499,0.7383919118470476,-0.33740234375,5.37890625,-1.642578125,48.1064705882353,338.4958332252765
0.47951123046875,-0.01452099609375,0.5241791992187499,0.7105671765335205,-0.27490234375,6.275390625,-1.6640625,48.20058823529412,338.4958332252765
0.48488232421875,-0.00573193359375,0.5114838867187499,0.7048116697213654,-0.1650390625,6.9384765625,-1.5595703125,48.29470588235294,338.3718217491768
0.51076123046875,0.00989306640625,0.5012299804687499,0.7156859650947288,-0.08349609375,7.6982421875,-1.4755859375,48.1064705882353,338.3718217491768
0.55812451171875,0.01379931640625,0.4978120117187499,0.7480041381744099,0.04541015625,8.38525390625,-1.38232421875,48.43588235294118,338.3718217491768
0.57081982421875,0.00940478515625,0.4895112304687499,0.7520272378444742,0.1767578125,8.97607421875,-1.31591796875,48.1064705882353,338.3718217491768
0.57765576171875,-0.00475537109375,0.4577729492187499,0.7370650348765302,0.34521484375,9.2900390625,-1.34228515625,48.1064705882353,338.3718217491768
0.58205029296875,-0.02331005859375,0.4221284179687499,0.7193874502890993,0.49365234375,9.2431640625,-1.3994140625,47.96529411764706,338.5621326828136
0.57423779296875,-0.04430615234375,0.3923432617187499,0.6968825676003354,0.56982421875,8.59130859375,-1.29736328125,48.1064705882353,338.5621326828136
0.56007763671875,-0.06676708984375,0.3835541992187499,0.6820986931353848,0.72119140625,7.78857421875,-1.06298828125,47.96529411764706,338.5621326828136
0.54347607421875,-0.10143505859375,0.3752534179687499,0.6681844371559181,0.7265625,7.15234375,-0.654296875,48.20058823529412,338.5621326828136
0.50685498046875,-0.12731396484375,0.3913666992187499,0.6529002298418894,0.77685546875,6.7392578125,-0.1748046875,48.1064705882353,338.37604449001947
0.46193310546875,-0.16198193359375,0.4128510742187499,0.6403642324664527,0.81005859375,6.66357421875,0.27294921875,47.96529411764706,338.37604449001947
0.43996044921875,-0.17321240234375,0.4524018554687499,0.6543968001404232,0.888671875,6.82177734375,0.76708984375,48.20058823529412,338.37604449001947
0.43996044921875,-0.19518505859375,0.4919526367187499,0.6882439979756745,1.02783203125,7.02734375,1.23486328125,47.96529411764706,338.37604449001947
0.44533154296875,-0.20153271484375,0.5608002929687499,0.743930498708754,1.2578125,7.32958984375,1.6376953125,48.1064705882353,338.37604449001947
0.41164013671875,-0.21813427734375,0.5979096679687499,0.7579750234411501,1.48291015625,7.56103515625,2.00634765625,48.20058823529412,338.33761698430675
0.39845654296875,-0.21569287109375,0.6296479492187499,0.7757239014176692,1.69140625,7.763671875,2.3427734375,48.20058823529412,338.33761698430675
0.38380810546875,-0.21959912109375,0.6462495117187499,0.7830522761638468,1.73779296875,7.865234375,2.53076171875,48.1064705882353,338.33761698430675
0.39015576171875,-0.18590771484375,0.6716401367187499,0.7986761985262514,1.8173828125,7.7265625,2.58251953125,48.34176470588236,338.33761698430675
0.40773388671875,-0.16149365234375,0.6818940429687499,0.8107444776021417,1.84375,7.234375,2.5283203125,48.1064705882353,338.6284323610824
0.38527294921875,-0.13073193359375,0.7024018554687499,0.8117231365600076,1.7109375,6.7275390625,2.416015625,48.1064705882353,338.6284323610824
0.37746044921875,-0.09655224609375,0.7409760742187499,0.8371644220311796,1.58203125,6.107421875,2.41162109375,48.1064705882353,338.6284323610824
0.36085888671875,-0.07506787109375,0.7688081054687499,0.8525961672614368,1.3759765625,5.642578125,2.39306640625,48.1064705882353,338.6284323610824
0.35890576171875,0.0167290039062499,0.8835541992187499,0.9538140428425752,0.986328125,6.10546875,1.3662109375,47.447647058823534,338.4167247040217
0.35109326171875,0.0157524414062499,0.8674409179687499,0.9359318158931426,0.9404296875,6.28466796875,1.16455078125,48.29470588235294,338.4167247040217
0.35206982421875,0.0274711914062499,0.8903901367187499,0.9578634678537096,0.890625,6.484375,1.009765625,47.96529411764706,338.4167247040217
0.34669873046875,0.0308891601562499,0.8879487304687499,0.9537332425080224,0.80615234375,6.65966796875,0.8623046875,48.1064705882353,338.4167247040217
0.35255810546875,0.04553759765625,0.90992138671875,0.9768970368161578,0.724609375,7.30224609375,0.53271484375,48.1064705882353,338.4167247040217
0.35890576171875,0.04016650390625,0.90601513671875,0.9753410284584884,0.734375,7.4990234375,0.2412109375,48.1064705882353,338.3825197421449
0.35304638671875,0.03137744140625,0.8791596679687499,0.9479177268029596,0.8642578125,7.69287109375,0.05908203125,47.82411764705883,338.3825197421449
0.33205029296875,-0.00133740234375,0.8537690429687499,0.916068100327392,0.94580078125,7.28271484375,-0.06787109375,48.01235294117648,338.3825197421449
0.28322216796875,-0.03893505859375,0.8234956054687499,0.8717085220662698,0.99560546875,6.74267578125,0.01171875,47.96529411764706,338.3825197421449
0.25441357421875,-0.07897412109375,0.8068940429687499,0.8497300601530726,1.00732421875,5.8232421875,0.2685546875,48.29470588235294,338.3825197421449
0.26906201171875,-0.10973583984375,0.8122651367187499,0.8626766329425432,1.06591796875,5.02294921875,0.466796875,47.35352941176471,338.57283066501367
0.27492138671875,-0.24059521484375,0.8298432617187499,0.9067015304393636,1.2109375,4.37939453125,0.57177734375,47.96529411764706,338.57283066501367
0.27882763671875,-0.13561474609375,0.8523041992187499,0.9069501961861798,1.26318359375,3.904296875,0.662109375,48.20058823529412,338.57283066501367
0.23781201171875,-0.13805615234375,0.8645112304687499,0.9071900141228804,1.22509765625,3.763671875,0.8388671875,47.82411764705883,338.57283066501367
0.21339794921875,-0.13610302734375,0.8737885742187499,0.909708300071038,1.15771484375,3.984375,1.04736328125,47.96529411764706,338.66263826880703
0.21290966796875,-0.14000927734375,0.8708588867187499,0.907374412816398,1.11279296875,4.08154296875,1.10302734375,48.1064705882353,338.66263826880703
0.19581982421875,-0.13366162109375,0.8733002929687499,0.9049111747623496,1.0634765625,4.08251953125,1.05419921875,48.15352941176471,338.66263826880703
0.19679638671875,-0.14684521484375,0.8591401367187499,0.8935402114449998,0.9921875,3.86572265625,0.89404296875,47.96529411764706,338.66263826880703
0.18117138671875,-0.15905224609375,0.8581635742187499,0.8913839848622823,0.86474609375,3.56396484375,0.802734375,48.20058823529412,338.66263826880703
0.15089794921875,-0.17125927734375,0.8733002929687499,0.902636877628004,0.77685546875,3.2705078125,0.87060546875,47.96529411764706,338.35042580380383
0.13283154296875,-0.17907177734375,0.8899018554687499,0.917407342795572,0.72216796875,2.96337890625,1.01220703125,48.01235294117648,338.35042580380383
0.12501904296875,-0.17956005859375,0.92261669921875,0.9482052253728168,0.62939453125,2.74658203125,1.04296875,48.34176470588236,338.35042580380383
0.10206982421875,-0.20250927734375,0.93482373046875,0.9619374529946552,0.77880859375,2.57666015625,0.9873046875,47.96529411764706,338.35042580380383
0.07130810546875,-0.20641552734375,0.98560498046875,1.0095094815597057,0.63232421875,2.9501953125,1.04296875,48.1064705882353,338.46162784979816
0.04347607421875,-0.18786083984375,1.05152294921875,1.0690567697320714,0.60498046875,3.587890625,1.17529296875,48.1064705882353,338.46162784979816
0.04640576171875,-0.15416943359375,1.10914013671875,1.1207647174388575,0.54443359375,4.44287109375,1.2197265625,48.1064705882353,338.46162784979816
0.08693310546875,-0.11852490234375,1.16285107421875,1.172104149857741,0.396484375,5.38037109375,0.8154296875,48.29470588235294,338.46162784979816
0.09376904296875,-0.06676708984375,1.20386669921875,1.2093574770072442,0.2333984375,6.55615234375,0.2724609375,47.96529411764706,338.46162784979816
0.05714794921875,-0.01549755859375,1.21314404296875,1.2145882147513372,-0.044921875,7.38525390625,0.22314453125,47.82411764705883,338.39321774864555
0.01564404296875,0.03479541015625,1.20923779296875,1.209839450750505,-0.17236328125,7.26953125,0.88818359375,47.96529411764706,338.39321774864555
0.00343701171875,0.09387744140625,1.15796826171875,1.1617724743694362,-0.27490234375,6.5849609375,1.6181640625,48.15352941176471,338.39321774864555
0.01613232421875,0.14954150390625,1.09742138671875,1.107680736179404,-0.298828125,5.73681640625,2.0556640625,47.96529411764706,338.39321774864555
0.01076123046875,0.18030322265625,1.05152294921875,1.066923412862952,-0.302734375,5.0400390625,2.4677734375,48.1064705882353,338.7459747427315
0.01076123046875,0.17590869140625,0.99927685546875,1.014698923656162,-0.2421875,4.55029296875,2.8466796875,47.96529411764706,338.7459747427315
0.03908154296875,0.16614306640625,0.94605419921875,0.961326912852813,-0.15380859375,4.13720703125,3.0869140625,48.15352941176471,338.7459747427315
0.06886669921875,0.14465869140625,0.8879487304687499,0.9022869317471685,-0.00537109375,3.7626953125,3.025390625,47.96529411764706,338.7459747427315
0.07912060546875,0.12366259765625,0.8454682617187499,0.858119507902342,0.173828125,3.435546875,2.912109375,47.96529411764706,338.7459747427315
0.07033154296875,0.09436572265625,0.8303315429687499,0.838630959837321,0.36572265625,3.2431640625,2.8232421875,48.15352941176471,338.3846308244693
0.03224560546875,0.06116259765625,0.8147065429687499,0.8176352448250981,0.53369140625,2.81787109375,2.736328125,47.82411764705883,338.3846308244693
0.00294873046875,0.0196586914062499,0.8064057617187499,0.8066507371176083,0.587890625,2.55517578125,2.68896484375,48.01235294117648,338.3846308244693
-0.00974658203125,-0.00231396484375,0.8078706054687499,0.8079327109821922,0.55322265625,2.2294921875,2.6494140625,48.20058823529412,338.3846308244693
-0.0077934570312499,-0.02721630859375,0.8244721679687499,0.8249580723776565,0.43408203125,1.94140625,2.58984375,47.96529411764706,338.5749425480859
0.00587841796875,-0.05456005859375,0.8396088867187499,0.8414002843169637,0.20458984375,1.6806640625,2.4111328125,48.01235294117648,338.5749425480859
0.01515576171875,-0.05260693359375,0.8689057617187499,0.870628743680941,-0.06298828125,1.48681640625,2.02490234375,48.34176470588236,338.5749425480859
-0.0004692382812499,-0.04039990234375,0.8967377929687499,0.8976475041086082,-0.3525390625,1.37255859375,1.65966796875,47.96529411764706,338.5749425480859
-0.02341845703125,-0.01452099609375,0.92310498046875,0.9235161549336808,-0.609375,1.3544921875,1.64892578125,48.20058823529412,338.5749425480859
-0.03562548828125,0.01233447265625,0.93140576171875,0.9321684437878542,-0.8115234375,1.4501953125,1.77001953125,48.01235294117648,338.7075423571159
-0.04099658203125,0.04749072265625,0.93189404296875,0.9340035309340646,-0.96533203125,1.68115234375,1.93408203125,48.15352941176471,338.7075423571159
-0.04978564453125,0.08508837890625,0.92798779296875,0.9332095083770294,-1.0517578125,1.876953125,2.2109375,48.34176470588236,338.7075423571159
-0.06003955078125,0.11292041015625,0.91675732421875,0.9256347866175904,-1.03076171875,2.3271484375,2.56201171875,48.1064705882353,338.7075423571159
-0.06785205078125,0.14514697265625,0.90601513671875,0.9200733516573506,-1.01611328125,2.59765625,2.861328125,48.29470588235294,338.6498283809361
-0.07761767578125,0.17932666015625,0.8947846679687499,0.9158723473652998,-0.9296875,2.77783203125,3.0341796875,47.96529411764706,338.6498283809361
-0.09373095703125,0.21252978515625,0.8918549804687499,0.9216071332576968,-0.845703125,2.73876953125,3.19482421875,48.1064705882353,338.6498283809361
-0.12595751953125,0.24866259765625,0.8816010742187499,0.924618212162876,-0.75146484375,2.46533203125,3.4326171875,48.1064705882353,338.6498283809361
-0.16355517578125,0.26086962890625,0.8825776367187499,0.9347441059704916,-0.66552734375,1.92333984375,3.57373046875,48.01235294117648,338.6498283809361
-0.20017626953125,0.26624072265625,0.8962495117187499,0.956147398961095,-0.556640625,1.2568359375,3.68701171875,47.82411764705883,338.55143471414107
-0.22459033203125,0.24866259765625,0.92066357421875,0.979742477188932,-0.48291015625,0.8525390625,3.7421875,48.1064705882353,338.55143471414107
-0.23435595703125,0.23645556640625,0.96412060546875,1.0199816132509265,-0.37744140625,1.0791015625,3.9423828125,48.1064705882353,338.55143471414107
-0.22166064453125,0.21594775390625,1.02173779296875,1.067574349322714,-0.25830078125,1.8603515625,4.2783203125,48.01235294117648,338.55143471414107
-0.20701220703125,0.19495166015625,1.05152294921875,1.089293677752389,-0.15087890625,2.61669921875,4.5908203125,48.1064705882353,338.4316457418896
-0.20896533203125,0.17053759765625,1.05494091796875,1.0888755312752898,-0.13525390625,2.9736328125,4.8857421875,48.1064705882353,338.4316457418896
-0.21775439453125,0.14954150390625,1.02124951171875,1.0548602764887869,-0.19384765625,2.75390625,5.19970703125,48.1064705882353,338.4316457418896
-0.21335986328125,0.14710009765625,1.00367138671875,1.0365891773059426,-0.3271484375,2.13037109375,5.42724609375,48.1064705882353,338.4316457418896
-0.20554736328125,0.15442431640625,0.98169873046875,1.0148049001918384,-0.52099609375,1.42919921875,5.4404296875,48.1064705882353,338.4316457418896
-0.22410205078125,0.17297900390625,0.96167919921875,1.0024820931900862,-0.748046875,0.9873046875,5.234375,47.96529411764706,338.72035280323087
-0.21921923828125,0.17639697265625,0.94800732421875,0.9888836398521796,-0.7509765625,0.89794921875,4.82958984375,48.29470588235294,338.72035280323087
-0.16209033203125,0.17444384765625,0.90796826171875,0.9386747551797088,-1.02880859375,1.17578125,4.27099609375,48.1064705882353,338.72035280323087
-0.07322314453125,0.17786181640625,0.8581635742187499,0.87945504418718,-1.1513671875,1.615234375,3.740234375,48.01235294117648,338.72035280323087
-0.0048637695312499,0.17102587890625,0.8322846679687499,0.8496889289884626,-1.24609375,1.498046875,2.9716796875,48.01235294117648,338.85718041156144
-0.03953173828125,0.16077197265625,0.7976166992187499,0.8146181831974615,-1.29345703125,0.31689453125,2.87353515625,48.15352941176471,338.85718041156144
-0.10398486328125,0.25696337890625,0.7829682617187499,0.8305915535023325,-1.3232421875,-0.705078125,3.3955078125,48.01235294117648,338.85718041156144
-0.14646533203125,0.11536181640625,0.8059174804687499,0.8272021684550105,-1.32958984375,-1.25390625,4.1572265625,47.82411764705883,338.85718041156144
-0.17673876953125,0.11194384765625,0.8571870117187499,0.8823477719940286,-1.2685546875,-1.78369140625,4.6962890625,48.1064705882353,338.85718041156144
-0.20798876953125,0.11877978515625,0.8923432617187499,0.9239288188749964,-1.2490234375,-2.10400390625,4.99560546875,47.96529411764706,338.67544850576
-0.22703173828125,0.11047900390625,0.90992138671875,0.9443018323074968,-0.95751953125,-2.4404296875,5.20361328125,47.82411764705883,338.67544850576
-0.25291064453125,0.10217822265625,0.92212841796875,0.9616262280782236,-0.76611328125,-2.74072265625,5.3310546875,47.96529411764706,338.67544850576
-0.28123095703125,0.09827197265625,0.93042919921875,0.9769578939551632,-0.60498046875,-2.93115234375,5.53857421875,48.15352941176471,338.67544850576
-0.30125048828125,0.11780322265625,0.95874951171875,1.0118448903754127,-0.52685546875,-3.04150390625,5.67529296875,48.1064705882353,339.00048049235244
-0.27781298828125,0.17688525390625,0.94654248046875,1.002203131525326,-0.54638671875,-2.9775390625,5.60888671875,47.96529411764706,339.00048049235244
-0.16843798828125,0.23499072265625,0.91236279296875,0.95707777198328,-0.7421875,-2.81884765625,5.14111328125,48.1064705882353,339.00048049235244
-0.05320361328125,0.27600634765625,0.8982026367187499,0.9411578534025192,-0.97705078125,-2.8720703125,4.3720703125,48.01235294117648,339.00048049235244
-0.05515673828125,0.28430712890625,0.91480419921875,0.959551735047673,-1.076171875,-2.9990234375,3.5439453125,48.53,339.00048049235244
-0.08103564453125,0.27551806640625,0.94605419921875,0.9886837353068292,-1.091796875,-2.505859375,3.03271484375,47.96529411764706,338.4958332252765
-0.11082080078125,0.26868212890625,0.97242138671875,1.0149259527805017,-1.10107421875,-2.0341796875,2.6845703125,48.1064705882353,338.4958332252765
-0.14695361328125,0.24231494140625,0.98169873046875,1.0217848563612033,-1.07568359375,-1.7822265625,2.78759765625,47.96529411764706,338.4958332252765
-0.19382861328125,0.20667041015625,0.96607373046875,1.0067674222294305,-0.9833984375,-1.7333984375,3.474609375,48.1064705882353,338.4958332252765
-0.19822314453125,0.17688525390625,0.95435498046875,0.9906433449142246,-0.99755859375,-1.6923828125,4.04150390625,48.20058823529412,338.39744024882907
-0.15085986328125,0.17200244140625,0.96900341796875,0.995646102907086,-1.04296875,-1.55810546875,3.93115234375,48.53,338.39744024882907
-0.16355517578125,0.15344775390625,0.98023388671875,1.005562022639805,-0.96875,-1.15234375,4.19140625,48.1064705882353,338.39744024882907
-0.15916064453125,0.12366259765625,0.99097607421875,1.0112656072964707,-0.890625,-0.69970703125,4.84521484375,47.96529411764706,338.39744024882907
-0.13718798828125,0.10413134765625,1.01148388671875,1.026042657390536,-0.87158203125,-0.185546875,5.0703125,48.20058823529412,338.39744024882907
-0.11570361328125,0.09827197265625,1.01880810546875,1.0300556599062556,-0.89892578125,-0.11376953125,4.7783203125,48.1064705882353,338.6647505823535
-0.19919970703125,0.09534228515625,1.04419873046875,1.0672964271151202,-0.98681640625,-0.5166015625,4.671875,48.1064705882353,338.6647505823535
-0.29050830078125,0.07971728515625,1.08033154296875,1.1215463258861549,-0.951171875,-0.57421875,5.19384765625,48.1064705882353,338.6647505823535
-0.26609423828125,0.08460009765625,1.12427685546875,1.1584307350517884,-0.763671875,-0.447265625,5.73828125,47.96529411764706,338.6647505823535
-0.23044970703125,0.07288134765625,1.19605419921875,1.220231291917965,-0.828125,0.037109375,6.1689453125,47.96529411764706,338.6219590239498
-0.16746142578125,0.05042041015625,1.27759716796875,1.2895115627580795,-0.60009765625,0.376953125,6.5478515625,48.1064705882353,338.6219590239498
-0.02195361328125,-0.01989208984375,1.29712841796875,1.297466681297276,-0.33984375,0.9619140625,6.76513671875,47.96529411764706,338.6219590239498
0.15431591796875,-0.07555615234375,1.25074169921875,1.2624883891981489,-0.2548828125,1.2099609375,6.47265625,48.1064705882353,338.6219590239498
0.19386669921875,-0.11998974609375,1.17408154296875,1.196013923737302,-0.36474609375,1.42236328125,6.208984375,48.1064705882353,338.6219590239498
0.13331982421875,-0.14245068359375,1.06763623046875,1.0853172316864628,-0.6484375,1.66162109375,6.58837890625,48.1064705882353,338.2606204426034
0.10548779296875,-0.12438427734375,0.98023388671875,0.9937090095130928,-0.9892578125,1.5322265625,7.0205078125,48.01235294117648,338.2606204426034
0.15529248046875,-0.07457958984375,0.91040966796875,0.9265655040213664,-1.32568359375,0.646484375,6.93701171875,48.15352941176471,338.2606204426034
0.14699169921875,-0.02282177734375,0.8845307617187499,0.8969515380370865,-1.5634765625,-0.6337890625,6.91455078125,48.29470588235294,338.2606204426034
0.15431591796875,0.01526416015625,0.91675732421875,0.9297797527546702,-1.6943359375,-2.0830078125,6.90771484375,48.29470588235294,338.6861464426893
0.23488232421875,0.06360400390625,0.97486279296875,1.0047749203966727,-1.82080078125,-2.65283203125,6.32666015625,48.01235294117648,338.6861464426893
0.20949169921875,0.10754931640625,1.03638623046875,1.062802919739232,-1.85546875,-2.3857421875,5.93798828125,48.20058823529412,338.6861464426893
0.13185498046875,0.11877978515625,1.05835888671875,1.073134617060102,-1.728515625,-1.4599609375,6.54638671875,47.35352941176471,338.6861464426893
0.11525341796875,0.12415087890625,1.01734326171875,1.0313506209098915,-1.5498046875,-0.50537109375,7.1376953125,48.1064705882353,338.6861464426893
0.17287060546875,0.14661181640625,0.94703076171875,0.973779510252022,-1.3603515625,0.208984375,6.7236328125,48.29470588235294,338.5877527624404
0.25343701171875,0.14807666015625,0.8659760742187499,0.9143694971461358,-1.12109375,0.54638671875,5.974609375,48.01235294117648,338.5877527624404
0.24074169921875,0.25549853515625,0.8068940429687499,0.8799511712522322,-0.986328125,0.3310546875,5.7802734375,48.1064705882353,338.5877527624404
0.12550732421875,0.09094775390625,0.7497651367187499,0.7656182747375012,-0.9990234375,-0.4033203125,6.16552734375,48.20058823529412,338.5877527624404
0.04640576171875,0.04163134765625,0.7448823242187499,0.7474866826652498,-0.87451171875,-1.00927734375,6.39111328125,48.1064705882353,338.5642446260568
0.02589794921875,-0.01452099609375,0.7746674804687499,0.7752362661776683,-0.48388671875,-1.646484375,6.2509765625,48.20058823529412,338.5642446260568
0.04640576171875,-0.06432568359375,0.8313081054687499,0.8350835015185863,-0.18115234375,-1.7646484375,5.90869140625,48.1064705882353,338.5642446260568
0.08302685546875,-0.08971630859375,0.91236279296875,0.9205152582931234,0.060546875,-1.62890625,5.30810546875,47.96529411764706,338.5642446260568
0.07667919921875,-0.09215771484375,0.99732373046875,1.0045035427285234,0.0830078125,-1.49072265625,4.95654296875,48.01235294117648,338.5642446260568
0.04835888671875,-0.07311474609375,1.05201123046875,1.0556571304421736,-0.0693359375,-1.10986328125,4.9140625,48.34176470588236,338.4914723707072
0.02882763671875,-0.03551708984375,1.08033154296875,1.081299560271342,-0.40771484375,-0.900390625,5.01513671875,48.1064705882353,338.4914723707072
0.03761669921875,0.0216118164062499,1.07837841796875,1.0792507118409862,-0.75732421875,-0.44873046875,4.75244140625,48.1064705882353,338.4914723707072
0.07912060546875,0.05969775390625,1.10279248046875,1.1072376199396456,-1.34765625,-0.0380859375,4.216796875,47.96529411764706,338.4914723707072
0.07814404296875,0.06604541015625,1.10816357421875,1.112876900146411,-1.6259765625,-0.03955078125,3.7919921875,48.01235294117648,338.57705488704966
0.06056591796875,0.05530322265625,1.11011669921875,1.1131422922249865,-2.013671875,-0.15478515625,3.81396484375,48.29470588235294,338.57705488704966
0.07863232421875,0.03674853515625,1.10474560546875,1.108149967310692,-2.0517578125,-0.24609375,3.7060546875,47.96529411764706,338.57705488704966
0.06544873046875,0.03137744140625,1.11011669921875,1.112486928477592,-1.8095703125,-0.4130859375,3.66796875,48.01235294117648,338.57705488704966
0.02345654296875,0.0240532226562499,1.08912060546875,1.0896386833188387,-1.33642578125,-0.61962890625,3.77392578125,48.1064705882353,338.57705488704966
0.00539013671875,0.04553759765625,1.06763623046875,1.068620534606963,-0.9140625,-0.892578125,3.8056640625,48.1064705882353,338.3183319871574
-0.0024223632812499,0.08167041015625,1.02662060546875,1.029866880384052,-0.54248046875,-1.00634765625,3.7890625,48.29470588235294,338.3183319871574
-0.01316455078125,0.09973681640625,0.98316357421875,0.9882971980202684,-0.18798828125,-0.82470703125,3.7412109375,48.15352941176471,338.3183319871574
0.01662060546875,0.09631884765625,0.95435498046875,0.9593471705725116,0.15185546875,-0.2939453125,3.486328125,48.1064705882353,338.3183319871574
0.00392529296875,0.07922900390625,0.92456982421875,0.9279665957569578,0.44482421875,-0.05810546875,2.9287109375,48.53,338.70965488589945
-0.05759814453125,0.05090869140625,0.9001557617187499,0.90343214270337,0.6337890625,0.02783203125,2.560546875,48.01235294117648,338.70965488589945
-0.07810595703125,0.0157524414062499,0.8772065429687499,0.880817801228614,0.68798828125,0.11572265625,2.341796875,48.34176470588236,338.70965488589945
-0.05125048828125,-0.00914990234375,0.8693940429687499,0.8709513965839398,0.6123046875,0.10400390625,2.216796875,47.82411764705883,338.70965488589945
-0.02000048828125,-0.03405224609375,0.8859956054687499,0.8868752944498197,0.42919921875,0.02734375,2.04150390625,48.1064705882353,338.70965488589945
-0.00828173828125,-0.04430615234375,0.92066357421875,0.9217662606201804,0.2216796875,-0.00634765625,1.82568359375,47.96529411764706,338.6198464697539
-0.00925830078125,-0.06286083984375,0.96705029296875,0.9691354242055972,0.0830078125,0.009765625,1.728515625,48.53,338.6198464697539
-0.00925830078125,-0.07897412109375,0.98804638671875,0.991240783182302,0.05615234375,0.5537109375,1.65185546875,48.1064705882353,338.6198464697539
-0.03367236328125,-0.08434521484375,1.00025341796875,1.0043678825381417,0.14794921875,0.91943359375,1.60546875,48.1064705882353,338.6198464697539
-0.08933642578125,-0.08141552734375,0.99244091796875,0.999774204869622,0.34033203125,0.95458984375,1.60546875,48.43588235294118,338.765257291648
-0.12253955078125,-0.07653271484375,0.97095654296875,0.981646477241604,0.57373046875,0.7099609375,1.85400390625,48.1064705882353,338.765257291648
-0.07517626953125,-0.10192333984375,0.95728466796875,0.9656261047805096,0.76318359375,0.05859375,2.27197265625,47.96529411764706,338.765257291648
-0.03660205078125,-0.12877880859375,0.8552338867187499,0.8656492896411794,0.85888671875,-0.9765625,2.3603515625,48.20058823529412,338.765257291648
-0.09275439453125,-0.13756787109375,1.02710888671875,1.0404234532337089,0.91015625,-1.72607421875,2.1630859375,48.15352941176471,338.765257291648
-0.12595751953125,-0.14196240234375,1.07349560546875,1.0901428508990885,0.95458984375,-1.6044921875,1.7900390625,48.20058823529412,338.70965488589945
-0.11375048828125,-0.13854443359375,1.10718701171875,1.1216045705072406,1.013671875,-0.40966796875,1.71337890625,48.34176470588236,338.70965488589945
-0.05515673828125,-0.14684521484375,1.11451123046875,1.125495919913218,1.0478515625,1.1650390625,1.7724609375,48.15352941176471,338.70965488589945
0.00929638671875,-0.13463818359375,1.08716748046875,1.0955122061739977,1.02490234375,2.439453125,1.744140625,48.1064705882353,338.70965488589945
-0.02097705078125,-0.11071240234375,1.01587841796875,1.022108718672771,0.9033203125,3.21875,1.34619140625,48.1064705882353,338.5877527624404
-0.06931689453125,-0.11120068359375,0.95777294921875,0.9666951154083464,0.81884765625,3.30322265625,1.24169921875,48.34176470588236,338.5877527624404
-0.08494189453125,-0.11510693359375,0.90601513671875,0.9172394232540428,0.701171875,2.78076171875,1.17578125,48.15352941176471,338.5877527624404
-0.11277392578125,-0.09997021484375,0.8781831054687499,0.891020521044694,0.564453125,1.9765625,1.2861328125,48.15352941176471,338.5877527624404
-0.14158251953125,-0.09313427734375,0.8899018554687499,0.9058945390164812,0.54248046875,0.89599609375,1.74951171875,48.20058823529412,338.5877527624404
-0.13523486328125,-0.09020458984375,0.91333935546875,0.9276928988213984,0.7177734375,0.4130859375,2.32958984375,48.1064705882353,338.55354671754054
-0.09519580078125,-0.08971630859375,0.94019482421875,0.9492510542537196,0.90234375,0.3837890625,2.57421875,47.96529411764706,338.55354671754054
-0.09666064453125,-0.08776318359375,0.97437451171875,0.9830825731762614,1.10693359375,0.5791015625,2.61962890625,48.34176470588236,338.55354671754054
-0.12644580078125,-0.09704052734375,0.99878857421875,1.0114267252116131,1.31787109375,0.92431640625,2.65576171875,48.34176470588236,338.55354671754054
-0.14402392578125,-0.09411083984375,1.00757763671875,1.022160670046192,1.490234375,1.33984375,2.73876953125,48.29470588235294,338.60914855379497
-0.17966845703125,-0.07750927734375,1.05005810546875,1.0681341055255942,1.57177734375,1.43310546875,2.8203125,48.1064705882353,338.60914855379497
-0.17429736328125,-0.01989208984375,0.98316357421875,0.998692084556464,1.62841796875,0.89794921875,2.73193359375,48.1064705882353,338.60914855379497
-0.07859423828125,0.04114306640625,1.13208935546875,1.1355598244786442,1.48583984375,0.25927734375,1.9501953125,48.1064705882353,338.60914855379497
0.00734326171875,0.06311572265625,1.14087841796875,1.1426465256263498,1.37109375,0.9306640625,0.69140625,48.1064705882353,338.60914855379497
-0.07712939453125,0.09045947265625,1.17896435546875,1.1849425349610203,1.166015625,2.11572265625,0.55859375,48.29470588235294,338.6989569820908
-0.18796923828125,0.09680712890625,1.19654248046875,1.215079405764666,1.2412109375,2.42626953125,1.5869140625,48.29470588235294,338.6989569820908
-0.14890673828125,0.09387744140625,1.16724560546875,1.1804441935969077,1.1962890625,2.22998046875,2.12841796875,48.1064705882353,338.6989569820908
-0.02927783203125,0.10510791015625,1.16480419921875,1.1699032809354362,1.0419921875,1.87939453125,1.876953125,48.15352941176471,338.6989569820908
0.09914013671875,0.13049853515625,1.15943310546875,1.170958479384922,0.853515625,1.0009765625,1.34033203125,48.1064705882353,338.50864297466865
0.17677685546875,0.14417041015625,1.16285107421875,1.1850138330862394,0.65478515625,-0.2275390625,1.22412109375,48.1064705882353,338.50864297466865
0.18312451171875,0.16858447265625,1.14722607421875,1.1739177895322916,0.42822265625,-1.26318359375,2.2900390625,48.34176470588236,338.50864297466865
0.16310498046875,0.20422900390625,1.11988232421875,1.1499778870864603,0.13037109375,-1.7158203125,3.2724609375,48.1064705882353,338.50864297466865
0.17140576171875,0.24280322265625,1.11304638671875,1.1520440959747638,-0.197265625,-0.91357421875,2.5546875,47.96529411764706,338.50864297466865
0.15089794921875,0.23987353515625,1.08423779296875,1.120661008355572,-0.26708984375,0.5537109375,0.939453125,48.1064705882353,338.74386148265336
0.05275341796875,0.18860400390625,1.02466748046875,1.043215145081316,-0.20751953125,1.68115234375,0.25537109375,48.1064705882353,338.74386148265336
-0.05027392578125,0.11047900390625,0.95337841796875,0.9610741312542816,-0.1533203125,1.9697265625,0.984375,48.1064705882353,338.74386148265336
-0.06199267578125,0.04895556640625,0.8845307617187499,0.8880509038109402,-0.08447265625,1.60791015625,2.05419921875,48.15352941176471,338.74386148265336
-0.01414111328125,-0.00719677734375,0.8669526367187499,0.8670978255090722,0.029296875,1.0888671875,2.509765625,48.01235294117648,338.5877527624404
0.03712841796875,-0.04821240234375,0.8850190429687499,0.8871085962710201,0.1962890625,0.88720703125,2.3115234375,48.29470588235294,338.5877527624404
0.05275341796875,-0.07848583984375,0.92115185546875,0.9259933536461724,0.2646484375,1.0224609375,1.830078125,48.1064705882353,338.5877527624404
0.01662060546875,-0.09801708984375,0.93970654296875,0.944950782488625,0.2744140625,1.42919921875,1.5185546875,48.1064705882353,338.5877527624404
-0.01560595703125,-0.08678662109375,0.92994091796875,0.9341121851299728,0.11767578125,1.90673828125,1.51904296875,48.1064705882353,338.5877527624404
-0.0033989257812499,-0.03063427734375,0.92310498046875,0.9236194111272518,-0.15966796875,2.04736328125,1.77001953125,47.96529411764706,338.912783534462
0.03273388671875,0.03137744140625,0.90601513671875,0.9071490942135222,-0.33056640625,1.826171875,2.150390625,47.96529411764706,338.912783534462
0.07667919921875,0.09290087890625,0.8982026367187499,0.9062440341888586,-0.474609375,1.2978515625,2.3671875,48.01235294117648,338.912783534462
0.06447216796875,0.16028369140625,0.90162060546875,0.9180235500134188,-0.583984375,0.6708984375,2.4296875,47.91823529411765,338.912783534462
0.02589794921875,0.22180712890625,0.90406201171875,0.931234249391808,-0.66748046875,0.19775390625,2.5615234375,48.20058823529412,338.55354671754054
0.00539013671875,0.27551806640625,0.90796826171875,0.9488654397640658,-0.70703125,0.17529296875,2.7822265625,48.34176470588236,338.55354671754054
-0.0073051757812499,0.30139697265625,0.90845654296875,0.9571764681511344,-0.63232421875,0.5224609375,2.87890625,48.1064705882353,338.55354671754054
0.00246044921875,0.31653369140625,0.8942963867187499,0.9486651985309872,-0.49169921875,0.79345703125,2.88232421875,48.01235294117648,338.55354671754054
0.02785107421875,0.31262744140625,0.8776948242187499,0.9321264956623316,-0.3427734375,0.7607421875,2.83203125,48.15352941176471,338.55354671754054
0.06349560546875,0.30335009765625,0.8664643554687499,0.9202246752613058,-0.09423828125,0.37841796875,2.69384765625,48.1064705882353,338.72035280323087
0.04982373046875,0.28723681640625,0.8894135742187499,0.9359721677601274,0.17431640625,-0.166015625,2.7021484375,48.53,338.72035280323087
0.00343701171875,0.27454150390625,0.94117138671875,0.9804021774734872,0.451171875,-0.63818359375,2.90625,47.96529411764706,338.72035280323087
-0.04002001953125,0.27063525390625,0.99781201171875,1.034637063588194,0.65283203125,-0.79052734375,3.22265625,47.91823529411765,338.72035280323087
-0.06687548828125,0.27063525390625,1.06812451171875,1.1039047713114454,0.77685546875,-0.4921875,3.4482421875,48.1064705882353,338.60914855379497
-0.07810595703125,0.26282275390625,1.12915966796875,1.1619715557026045,0.802734375,0.12890625,3.40673828125,47.96529411764706,338.60914855379497
-0.08005908203125,0.23547900390625,1.16089794921875,1.1872421262727606,0.7724609375,1.00439453125,3.4072265625,48.15352941176471,338.60914855379497
-0.07517626953125,0.19543994140625,1.15747998046875,1.176268739439866,0.66162109375,1.85205078125,3.5185546875,48.1064705882353,338.60914855379497
-0.05515673828125,0.15247119140625,1.13697216796875,1.148475267788657,0.58447265625,2.24169921875,3.80029296875,48.1064705882353,338.60914855379497
-0.04734423828125,0.12512744140625,1.09790966796875,1.1060307375975396,0.45947265625,2.4287109375,4.0712890625,48.43588235294118,339.04750049147856
-0.04636767578125,0.11829150390625,1.04810498046875,1.0557778607913486,0.20751953125,2.60986328125,4.26513671875,48.1064705882353,339.04750049147856
-0.04783251953125,0.12903369140625,1.01587841796875,1.0251568677706455,-0.021484375,2.73779296875,4.4091796875,48.1064705882353,339.04750049147856
-0.04685595703125,0.13586962890625,0.99781201171875,1.00810954141832,-0.20703125,2.8017578125,4.50732421875,48.20058823529412,339.04750049147856
-0.05076220703125,0.14954150390625,0.97779248046875,0.9904633248709702,-0.39501953125,2.8359375,4.85400390625,48.1064705882353,338.5621326828136
-0.04978564453125,0.16711962890625,0.95777294921875,0.973517643919378,-0.505859375,2.91796875,4.876953125,48.1064705882353,338.5621326828136
-0.05857470703125,0.19251025390625,0.94165966796875,0.9629195835799904,-0.64404296875,3.1123046875,4.7216796875,48.15352941176471,338.5621326828136
-0.07371142578125,0.22278369140625,0.92261669921875,0.9519913450891248,-0.7470703125,3.38720703125,4.54638671875,48.15352941176471,338.5621326828136
-0.08152392578125,0.24231494140625,0.8986909179687499,0.934348996544126,-0.75048828125,3.611328125,4.404296875,47.91823529411765,338.5621326828136
-0.07517626953125,0.24426806640625,0.8664643554687499,0.9033708203525058,-0.9443359375,3.72265625,4.283203125,47.96529411764706,338.3311412956517
-0.06492236328125,0.24475634765625,0.8469331054687499,0.883977526926443,-0.90380859375,3.466796875,4.220703125,48.15352941176471,338.3311412956517
-0.05857470703125,0.24329150390625,0.8293549804687499,0.8662860011595952,-0.78173828125,2.8330078125,4.14501953125,48.29470588235294,338.3311412956517
-0.07175830078125,0.23352587890625,0.8239838867187499,0.8594376274181196,-0.697265625,2.05859375,4.07177734375,48.01235294117648,338.3311412956517
-0.09275439453125,0.23108447265625,0.8405854492187499,0.8766911135890243,-0.61572265625,1.40380859375,4.119140625,48.15352941176471,338.4872471860638
-0.10984423828125,0.23352587890625,0.8674409179687499,0.9050159329917856,-0.55615234375,1.07666015625,4.2587890625,48.29470588235294,338.4872471860638
-0.13181689453125,0.23840869140625,0.8996674804687499,0.9400084963631402,-0.453125,1.08935546875,4.56640625,48.20058823529412,338.4872471860638
-0.14451220703125,0.22961962890625,0.93482373046875,0.9733983557658172,-0.43115234375,1.2099609375,4.97998046875,47.35352941176471,338.4872471860638
-0.16404345703125,0.22473681640625,0.94117138671875,0.981437961167834,-0.46533203125,1.26953125,5.34912109375,48.1064705882353,338.4872471860638
-0.17234423828125,0.22815478515625,0.93970654296875,0.982245147280819,-0.50146484375,1.11572265625,5.419921875,48.1064705882353,338.70965488589945
-0.18064501953125,0.23596728515625,0.92945263671875,0.9758049941709118,-0.7978515625,0.8232421875,5.23974609375,48.29470588235294,338.70965488589945
-0.19089892578125,0.22815478515625,0.93531201171875,0.9814813116506624,-1.02734375,0.6630859375,5.0517578125,48.29470588235294,338.70965488589945
-0.20798876953125,0.22083056640625,0.95874951171875,1.0055973814262693,-1.1962890625,0.7099609375,4.9580078125,48.53,338.70965488589945
-0.20701220703125,0.20276416015625,0.97290966796875,1.015145595730426,-1.3271484375,0.88525390625,4.90087890625,47.96529411764706,338.56635702517667
-0.20652392578125,0.18762744140625,0.98316357421875,1.021991586246845,-1.44921875,1.1044921875,4.82275390625,48.20058823529412,338.56635702517667
-0.21091845703125,0.18518603515625,0.97583935546875,1.015402831793865,-1.57080078125,1.36279296875,4.79736328125,47.91823529411765,338.56635702517667
-0.21238330078125,0.17493212890625,0.97876904296875,1.0167087860584143,-1.66748046875,1.60595703125,4.85595703125,48.01235294117648,338.56635702517667
-0.20750048828125,0.16711962890625,0.97339794921875,1.0092021554406174,-1.73486328125,1.82177734375,4.97802734375,48.20058823529412,338.56635702517667
-0.20359423828125,0.15295947265625,0.96753857421875,1.0004889338407756,-1.7919921875,2.01318359375,5.201171875,47.96529411764706,338.64546766586875
-0.22117236328125,0.14221728515625,0.96900341796875,1.0040471077154434,-1.771484375,2.13671875,5.4580078125,48.1064705882353,338.64546766586875
-0.23826220703125,0.13635791015625,0.94898388671875,0.9878930995879096,-1.80517578125,1.9931640625,5.771484375,47.82411764705883,338.64546766586875
-0.25339892578125,0.14368212890625,0.93335888671875,0.9777598790965948,-1.8115234375,1.6669921875,6.0068359375,47.82411764705883,338.64546766586875
-0.24119189453125,0.15100634765625,0.91724560546875,0.9603728170725092,-1.8740234375,1.36181640625,6.39453125,48.20058823529412,338.40813814851543
-0.22556689453125,0.15637744140625,0.8952729492187499,0.936401613460846,-1.93212890625,0.75634765625,6.48681640625,48.1064705882353,338.40813814851543
-0.21628955078125,0.16809619140625,0.8957612304687499,0.9367100305608616,-2.01318359375,0.25732421875,6.4189453125,48.1064705882353,338.40813814851543
-0.21140673828125,0.17493212890625,0.90503857421875,0.945721354066988,-2.06201171875,-0.1044921875,6.25146484375,48.01235294117648,338.40813814851543
-0.20603564453125,0.18274462890625,0.91040966796875,0.951153010688848,-2.10009765625,-0.18212890625,6.0283203125,48.01235294117648,338.40813814851543
-0.22507861328125,0.18616259765625,0.92749951171875,0.9724053882827124,-2.15380859375,-0.1181640625,5.845703125,48.1064705882353,338.73316359843767
-0.25095751953125,0.19006884765625,0.94703076171875,0.9979845224752978,-2.2236328125,0.0390625,5.85009765625,48.01235294117648,338.73316359843767
-0.25486376953125,0.19299853515625,0.95289013671875,1.0050888459474685,-2.29248046875,0.3701171875,5.99951171875,47.96529411764706,338.73316359843767
-0.23289111328125,0.20813525390625,0.96412060546875,1.0134530558705854,-2.322265625,1.14453125,6.138671875,47.96529411764706,338.73316359843767
-0.18210986328125,0.21985400390625,0.98462841796875,1.0251794510277543,-2.2109375,2.01806640625,6.13134765625,48.1064705882353,338.78876617416233
-0.15134814453125,0.22034228515625,0.98072216796875,1.0165003463975086,-2.08056640625,2.6787109375,5.98779296875,48.1064705882353,338.78876617416233
-0.14988330078125,0.21790087890625,0.95581982421875,0.9917345074417652,-2.08935546875,2.60302734375,5.79248046875,48.15352941176471,338.78876617416233
-0.15378955078125,0.22620166015625,0.95289013671875,0.9913717918333264,-2.140625,2.169921875,5.70361328125,48.1064705882353,338.78876617416233
-0.17771533203125,0.22131884765625,0.95826123046875,0.9994145072923198,-2.1318359375,1.69921875,5.61767578125,48.1064705882353,338.78876617416233
-0.19187548828125,0.22034228515625,0.97095654296875,1.0139642666114383,-2.09228515625,1.4150390625,5.533203125,48.01235294117648,338.67544850576
-0.22019580078125,0.22083056640625,0.98706982421875,1.035161421047092,-2.04541015625,1.322265625,5.5634765625,48.1064705882353,338.67544850576
-0.24558642578125,0.22376025390625,0.98951123046875,1.0437977864414056,-1.97021484375,1.30712890625,5.6494140625,48.1064705882353,338.67544850576
-0.26169970703125,0.23352587890625,0.99195263671875,1.0521364485048783,-1.91357421875,1.3447265625,5.65234375,48.20058823529412,338.67544850576
-0.25828173828125,0.23889697265625,1.02320263671875,1.082000395407556,-1.8603515625,1.29638671875,5.58740234375,48.1064705882353,338.87448985502965
-0.24119189453125,0.23499072265625,1.06519482421875,1.117154502861844,-1.8134765625,1.2578125,5.57373046875,48.01235294117648,338.87448985502965
-0.23191455078125,0.21497119140625,1.11353466796875,1.157564870219793,-1.7919921875,1.38232421875,5.9013671875,48.1064705882353,338.87448985502965
-0.22996142578125,0.20178759765625,1.16724560546875,1.20667427063037,-1.72705078125,2.1904296875,6.41943359375,48.01235294117648,338.87448985502965
-0.21775439453125,0.19543994140625,1.22242138671875,1.2569517865622142,-1.6259765625,2.84765625,6.75634765625,48.15352941176471,338.87448985502965
-0.19529345703125,0.18372119140625,1.24048779296875,1.269134734784069,-1.60205078125,2.9912109375,6.69287109375,48.15352941176471,338.51286791865766
-0.15427783203125,0.15295947265625,1.23267529296875,1.2516735307687603,-1.767578125,2.9638671875,6.1728515625,48.01235294117648,338.51286791865766
-0.09714892578125,0.10999072265625,1.23072216796875,1.2394405704109397,-1.984375,3.03466796875,5.47265625,48.1064705882353,338.51286791865766
-0.07664111328125,0.05579150390625,1.18384716796875,1.1876365897279944,-2.14208984375,3.0478515625,5.0947265625,48.20058823529412,338.51286791865766
-0.02634814453125,0.0030571289062499,1.10523388671875,1.1055521313392798,-2.21337890625,2.5771484375,5.01416015625,47.447647058823534,338.89138785519003
0.03419873046875,-0.03112255859375,0.97779248046875,0.9788852341721812,-2.3681640625,1.6943359375,4.9111328125,47.96529411764706,338.89138785519003
0.06056591796875,-0.04137646484375,0.90113232421875,0.9041126633413832,-2.5908203125,0.8359375,4.7763671875,47.82411764705883,338.89138785519003
0.05763623046875,-0.03795849609375,0.8479096679687499,0.8507135754901421,-2.83544921875,0.150390625,4.7080078125,47.96529411764706,338.89138785519003
0.03371044921875,-0.01207958984375,0.8205659179687499,0.8213469039384153,-3.00830078125,-0.203125,4.67431640625,47.82411764705883,338.89138785519003
0.00050732421875,0.03723681640625,0.8024995117187499,0.8033631209999421,-3.13818359375,-0.2275390625,4.5166015625,48.15352941176471,338.5214530731428
-0.03806689453125,0.09876025390625,0.7834565429687499,0.790573735290659,-3.18896484375,-0.18896484375,4.283203125,48.1064705882353,338.5214530731428
-0.09959033203125,0.13928759765625,0.7824799804687499,0.8009957483840467,-3.13916015625,-0.25341796875,4.11474609375,48.1064705882353,338.5214530731428
-0.15183642578125,0.14758837890625,0.7810151367187499,0.8092102777189668,-3.00439453125,-0.75,4.2314453125,47.96529411764706,338.5214530731428
-0.18503955078125,0.12170947265625,0.8122651367187499,0.8419189292421918,-2.7353515625,-1.0859375,4.74365234375,48.15352941176471,338.4230601447899
-0.19529345703125,0.08167041015625,0.8278901367187499,0.8545242353090385,-2.3837890625,-1.2109375,5.67236328125,48.1064705882353,338.4230601447899
-0.19871142578125,0.05139697265625,0.8542573242187499,0.8785689816489215,-2.01416015625,-1.10302734375,6.78515625,48.01235294117648,338.4230601447899
-0.18308642578125,0.0162407226562499,0.8640229492187499,0.8833572647317828,-1.68896484375,-0.77490234375,7.86083984375,48.1064705882353,338.4230601447899
-0.15525439453125,-0.00963818359375,0.8718354492187499,0.8856036766628237,-1.46240234375,-0.3486328125,8.5830078125,48.01235294117648,338.4230601447899
-0.09617236328125,-0.02086865234375,0.8733002929687499,0.8788276428339344,-1.3701171875,0.015625,8.861328125,48.29470588235294,338.9576889958463
-0.03464892578125,-0.02135693359375,0.8752534179687499,0.8761992994383764,-1.42724609375,0.23095703125,8.68408203125,48.1064705882353,338.9576889958463
-0.0019340820312499,-0.01989208984375,0.8786713867187499,0.8788986527182223,-1.50439453125,0.25439453125,8.30615234375,48.20058823529412,338.9576889958463
0.00783154296875,-0.02526318359375,0.8986909179687499,0.8990800451295075,-1.86181640625,0.0380859375,7.86474609375,48.20058823529412,338.9576889958463
0.03419873046875,-0.03747021484375,0.92749951171875,0.928885845733818,-2.05517578125,-0.38525390625,7.345703125,47.40058823529412,339.04961531847096
0.06007763671875,-0.03405224609375,0.97046826171875,0.9729221576781728,-2.19140625,-0.89697265625,6.6259765625,48.15352941176471,339.04961531847096
0.08058544921875,-0.02672802734375,1.01148388671875,1.0150409130489004,-2.27294921875,-1.3388671875,5.8876953125,48.1064705882353,339.04961531847096
0.06496044921875,-0.01256787109375,1.05689404296875,1.0589630916180983,-2.28857421875,-1.62841796875,5.27783203125,47.96529411764706,339.04961531847096
0.04152294921875,0.0196586914062499,1.08277294921875,1.083747147179405,-2.2021484375,-1.95361328125,4.806640625,48.34176470588236,339.04961531847096
0.02003857421875,0.04456103515625,1.11353466796875,1.1146060681151846,-2.11865234375,-1.80419921875,4.39306640625,48.15352941176471,338.4872471860638
-0.0014458007812499,0.07336962890625,1.13453076171875,1.1369015973565466,-2.041015625,-1.22314453125,3.92578125,48.53,338.4872471860638
-0.03562548828125,0.10510791015625,1.15064404296875,1.1559838068987658,-1.96435546875,-0.349609375,3.45947265625,48.1064705882353,338.4872471860638
-0.07517626953125,0.11731494140625,1.13501904296875,1.14353945925774,-1.92333984375,0.53515625,3.13330078125,48.20058823529412,338.4872471860638
-0.12400439453125,0.10999072265625,1.10376904296875,1.1161456666357024,-1.85400390625,0.98046875,3.00341796875,48.1064705882353,338.7138813111408
-0.17625048828125,0.08313525390625,1.07203076171875,1.089598852391429,-1.74072265625,0.88671875,3.056640625,48.1064705882353,338.7138813111408
-0.20896533203125,0.04456103515625,1.04566357421875,1.06726965022578,-1.63330078125,0.61865234375,3.1337890625,48.1064705882353,338.7138813111408
-0.23337939453125,0.00842822265625,1.04517529296875,1.0709474168983408,-1.4658203125,0.11376953125,3.2783203125,48.1064705882353,338.7138813111408
-0.25974658203125,-0.02819287109375,1.04859326171875,1.080653021732412,-1.28466796875,-0.4775390625,3.53759765625,48.1064705882353,338.7138813111408
-0.26951220703125,-0.03795849609375,1.05103466796875,1.0857032515548324,-1.12841796875,-0.72216796875,3.8154296875,48.1064705882353,338.5193408892551
-0.22898486328125,-0.02770458984375,1.05152294921875,1.0765231649361018,-1.0546875,-0.5654296875,4.00439453125,48.1064705882353,338.5193408892551
-0.16892626953125,-0.01305615234375,1.04810498046875,1.0617111649291284,-0.951171875,0.2744140625,3.8876953125,47.96529411764706,338.5193408892551
-0.11912158203125,0.01135791015625,1.05005810546875,1.0568542843218105,-0.83056640625,1.134765625,3.5634765625,47.96529411764706,338.5193408892551
-0.10984423828125,0.03186572265625,1.00904248046875,1.0155037707239305,-0.84814453125,1.27734375,3.21923828125,48.20058823529412,338.7566725803088
-0.12742236328125,0.04114306640625,0.95630810546875,0.9656367863553654,-0.93505859375,1.115234375,3.02880859375,48.15352941176471,338.7566725803088
-0.12546923828125,0.0304008789062499,0.92798779296875,0.9369248033285068,-0.99755859375,0.70751953125,3.06689453125,48.15352941176471,338.7566725803088
-0.13084033203125,0.01526416015625,0.90308544921875,0.9126420523195032,-1.02880859375,0.16943359375,3.0576171875,48.20058823529412,338.7566725803088
-0.12009814453125,-0.00426708984375,0.8952729492187499,0.9033025107783228,-0.98974609375,-0.359375,2.77294921875,47.91823529411765,338.7566725803088
-0.14500048828125,-0.02868115234375,0.8967377929687499,0.908837950043918,-0.93115234375,-0.8427734375,2.3955078125,48.1064705882353,338.7117678705745
-0.16843798828125,-0.05748974609375,0.90259716796875,0.919977214080526,-0.90234375,-1.10009765625,2.0634765625,48.15352941176471,338.7117678705745
-0.19334033203125,-0.07702099609375,0.91480419921875,0.938178789324021,-0.85986328125,-1.07177734375,1.82958984375,47.96529411764706,338.7117678705745
-0.21189501953125,-0.09459912109375,0.93042919921875,0.958930126637339,-0.7705078125,-0.8515625,1.693359375,48.34176470588236,338.7117678705745
-0.23142626953125,-0.09557568359375,0.94312451171875,0.975795405875788,-0.67236328125,-0.50830078125,1.62744140625,48.29470588235294,338.867878264029
-0.22947314453125,-0.08776318359375,0.95191357421875,0.9831071931572292,-0.60009765625,-0.142578125,1.662109375,48.34176470588236,338.867878264029
-0.21287158203125,-0.08092724609375,0.96460888671875,0.9911275568430088,-0.49609375,0.2119140625,1.748046875,48.01235294117648,338.867878264029
-0.18796923828125,-0.07409130859375,0.97925732421875,0.9998834249977512,-0.3955078125,0.6337890625,1.7802734375,48.1064705882353,338.867878264029
-0.15525439453125,-0.07067333984375,0.99537060546875,1.009881819926055,-0.271484375,1.0654296875,1.72802734375,48.15352941176471,338.867878264029
-0.13718798828125,-0.07116162109375,1.00611279296875,1.0179132932724309,-0.13818359375,1.41357421875,1.5947265625,48.01235294117648,338.5193408892551
-0.13621142578125,-0.08239208984375,1.00660107421875,1.01911124593958,-0.0576171875,1.56591796875,1.44189453125,48.01235294117648,338.5193408892551
-0.14939501953125,-0.09362255859375,1.00122998046875,1.016634412720638,-0.00927734375,1.52490234375,1.39599609375,48.48294117647059,338.5193408892551
-0.15867236328125,-0.09948193359375,0.99878857421875,1.016194956674521,-0.01708984375,1.3876953125,1.4970703125,48.01235294117648,338.5193408892551
-0.16111376953125,-0.09801708984375,0.99439404296875,1.012118821742656,-0.05029296875,1.0888671875,1.69189453125,48.1064705882353,338.72035280323087
-0.14548876953125,-0.09704052734375,1.01636669921875,1.0313026293419831,-0.0322265625,0.84619140625,1.7744140625,48.20058823529412,338.72035280323087
-0.11423876953125,-0.07506787109375,1.03296826171875,1.0419736615926614,0.005859375,0.74462890625,1.630859375,48.29470588235294,338.72035280323087
-0.09959033203125,-0.04967724609375,1.05884716796875,1.0646799463355154,0.080078125,0.759765625,1.31591796875,48.1064705882353,338.72035280323087
-0.10007861328125,-0.02184521484375,1.04956982421875,1.0545566642710318,0.11083984375,0.732421875,0.95751953125,48.1064705882353,338.72035280323087
-0.10496142578125,0.0289360351562499,1.05152294921875,1.0571446011621564,0.12109375,0.64794921875,0.615234375,47.91823529411765,338.55565917683134
-0.15232470703125,0.08948291015625,1.04712841796875,1.061926518785516,0.1357421875,0.51416015625,0.5712890625,48.1064705882353,338.55565917683134
-0.22263720703125,0.14465869140625,1.03345654296875,1.0670172862512417,0.16064453125,0.52880859375,0.97265625,47.96529411764706,338.55565917683134
-0.26951220703125,0.18469775390625,1.02759716796875,1.078288472373819,0.240234375,0.98193359375,1.53271484375,48.1064705882353,338.55565917683134
-0.28074267578125,0.20276416015625,1.01587841796875,1.0732840792368887,0.4013671875,1.58642578125,2.095703125,48.15352941176471,338.55354671754054
-0.27195361328125,0.19104541015625,0.97925732421875,1.0341189600595104,0.60009765625,2.01806640625,2.60400390625,48.1064705882353,338.55354671754054
-0.22947314453125,0.16223681640625,0.94019482421875,0.9812976185370172,0.6279296875,2.126953125,2.88720703125,48.1064705882353,338.55354671754054
-0.17625048828125,0.11731494140625,0.8957612304687499,0.9204429434285536,0.89208984375,1.9033203125,2.88232421875,48.1064705882353,338.55354671754054
-0.13230517578125,0.08264697265625,0.8684174804687499,0.8823174610147088,0.98876953125,1.3466796875,2.66845703125,48.1064705882353,338.55354671754054
-0.12107470703125,0.05627978515625,0.8645112304687499,0.8747606338344958,1.00146484375,0.59716796875,2.23388671875,47.96529411764706,338.73527691868185
-0.14890673828125,0.03235400390625,0.8742768554687499,0.8874570515144109,0.962890625,0.11376953125,1.8154296875,47.96529411764706,338.73527691868185
-0.07712939453125,0.01331103515625,0.90992138671875,0.9132814775116492,0.88427734375,-0.19970703125,1.4765625,48.1064705882353,338.73527691868185
-0.23630908203125,0.00549853515625,0.94996044921875,0.9789264891804724,0.8291015625,0.04150390625,1.26708984375,47.96529411764706,338.73527691868185
-0.25828173828125,0.0186821289062499,0.97046826171875,1.0044237777320215,0.826171875,0.49365234375,1.140625,48.1064705882353,338.51075521872235
-0.24802783203125,0.0201469726562499,0.98218701171875,1.013220130059772,0.810546875,0.9580078125,0.99267578125,48.1064705882353,338.51075521872235
-0.22459033203125,0.0260063476562499,0.98609326171875,1.0116803191559316,0.798828125,1.12060546875,0.87451171875,48.1064705882353,338.51075521872235
-0.20994189453125,0.0289360351562499,0.96460888671875,0.9876149034652728,0.7578125,0.94580078125,0.630859375,48.1064705882353,338.51075521872235
-0.19578173828125,0.0294243164062499,0.96949169921875,0.9895000931250396,0.7353515625,0.59814453125,0.6201171875,48.15352941176471,338.51075521872235
-0.17332080078125,0.03821337890625,0.97876904296875,0.994730718227224,0.6943359375,0.44580078125,0.68408203125,48.01235294117648,338.4851352775744
-0.15818408203125,0.05579150390625,0.99341748046875,1.0074786281688906,0.6279296875,0.6083984375,0.759765625,48.1064705882353,338.4851352775744
-0.17185595703125,0.07874072265625,0.99537060546875,1.0131619878394476,0.595703125,0.927734375,0.8515625,47.96529411764706,338.4851352775744
-0.18845751953125,0.11292041015625,0.97730419921875,1.001693942034357,0.54931640625,1.2119140625,0.9111328125,48.15352941176471,338.4851352775744
-0.18406298828125,0.14368212890625,0.95093701171875,0.9791858547173982,0.4638671875,1.3466796875,0.83251953125,48.01235294117648,338.9362933287246
-0.18259814453125,0.17200244140625,0.92261669921875,0.956111131570628,0.427734375,1.27294921875,0.61279296875,48.15352941176471,338.9362933287246
-0.20017626953125,0.18909228515625,0.90308544921875,0.944134397095928,0.423828125,1.0263671875,0.45654296875,48.15352941176471,338.9362933287246
-0.23777392578125,0.19446337890625,0.8889252929687499,0.9405001977653386,0.47265625,0.69091796875,0.53076171875,48.15352941176471,338.9362933287246
-0.24363330078125,0.19006884765625,0.8830659179687499,0.9355686867231784,0.572265625,0.35546875,0.69970703125,48.1064705882353,338.9362933287246
-0.22166064453125,0.18372119140625,0.8816010742187499,0.92741973861321,0.67236328125,0.47509765625,0.83203125,48.01235294117648,338.8464825726117
-0.18992236328125,0.17102587890625,0.9001557617187499,0.9357354063438302,0.8095703125,0.86767578125,0.8251953125,48.01235294117648,338.8464825726117
-0.18064501953125,0.16663134765625,0.8947846679687499,0.9279214574171296,0.8681640625,0.796875,0.54541015625,48.1064705882353,338.8464825726117
-0.20261767578125,0.17151416015625,0.8825776367187499,0.921636758440739,0.830078125,0.603515625,0.333984375,48.15352941176471,338.8464825726117
-0.21433642578125,0.16663134765625,0.90308544921875,0.943010836644548,0.7734375,0.234375,0.43408203125,48.1064705882353,338.84436894220573
-0.22996142578125,0.16663134765625,0.90943310546875,0.9527417471128352,0.72509765625,-0.11767578125,0.576171875,48.1064705882353,338.84436894220573
-0.21775439453125,0.16663134765625,0.93628857421875,0.9756122572887186,0.716796875,-0.23876953125,0.5302734375,48.53,338.84436894220573
-0.21335986328125,0.17151416015625,0.95289013671875,0.9914328777327164,0.68994140625,-0.1982421875,0.30859375,48.15352941176471,338.84436894220573
-0.21433642578125,0.17786181640625,0.95679638671875,0.9965110409775034,0.6318359375,-0.01318359375,0.125,47.96529411764706,338.84436894220573
-0.19675830078125,0.19006884765625,0.96753857421875,1.005470481106706,0.5986328125,0.2734375,-0.1005859375,48.01235294117648,338.7908796494824
-0.19627001953125,0.21204150390625,0.96997998046875,1.0120991465542186,0.59326171875,0.5810546875,-0.24658203125,48.1064705882353,338.7908796494824
-0.20408251953125,0.22522509765625,0.96607373046875,1.0127558798122562,0.64306640625,0.7890625,-0.298828125,48.43588235294118,338.7908796494824
-0.20750048828125,0.23450244140625,0.95191357421875,1.0020914631132052,0.6826171875,0.9541015625,-0.34912109375,47.96529411764706,338.7908796494824
-0.21384814453125,0.23645556640625,0.93726513671875,0.990004141563244,0.71826171875,0.96044921875,-0.32861328125,48.1064705882353,338.35253706661155
-0.22361376953125,0.22327197265625,0.91871044921875,0.9715360936174762,0.7626953125,0.89013671875,-0.296875,48.20058823529412,338.35253706661155
-0.23484423828125,0.20764697265625,0.90601513671875,0.9587139873135788,0.7919921875,0.7392578125,-0.271484375,47.96529411764706,338.35253706661155
-0.24460986328125,0.19495166015625,0.90113232421875,0.95387609298275,0.82421875,0.5966796875,-0.22216796875,47.96529411764706,338.35253706661155
-0.25339892578125,0.18323291015625,0.9006440429687499,0.9533860745188778,0.82421875,0.42919921875,-0.1728515625,48.20058823529412,338.35253706661155
-0.22849658203125,0.17053759765625,0.8967377929687499,0.9409741917570288,0.7822265625,0.3505859375,-0.1611328125,48.1064705882353,338.64546766586875
-0.19334033203125,0.16956103515625,0.91285107421875,0.948382049775057,0.732421875,0.30908203125,-0.21875,48.15352941176471,338.64546766586875
-0.16453173828125,0.16956103515625,0.91236279296875,0.9424582237631792,0.71337890625,0.26708984375,-0.28515625,48.20058823529412,338.64546766586875
-0.14988330078125,0.16663134765625,0.91138623046875,0.938539221856422,0.669921875,0.18310546875,-0.3232421875,48.1064705882353,338.64546766586875
-0.14500048828125,0.17200244140625,0.91333935546875,0.9406374220174226,0.63232421875,-0.037109375,-0.3349609375,47.96529411764706,338.7715980785948
-0.14548876953125,0.17981494140625,0.8967377929687499,0.9260880436282044,0.6025390625,-0.30859375,-0.32763671875,48.53,338.7715980785948
-0.15867236328125,0.19006884765625,0.8962495117187499,0.9298205595569122,0.6103515625,-0.5361328125,-0.34423828125,47.96529411764706,338.7715980785948
-0.16892626953125,0.21057666015625,0.90308544921875,0.9425719828909284,0.6171875,-0.74560546875,-0.49072265625,48.20058823529412,338.7715980785948
-0.21384814453125,0.22913134765625,0.91089794921875,0.9633105819460056,0.66845703125,-0.9677734375,-0.55419921875,48.1064705882353,338.7715980785948
-0.24998095703125,0.23596728515625,0.91040966796875,0.9731478829413543,0.66162109375,-1.04833984375,-0.453125,48.1064705882353,338.4188360617295
-0.25486376953125,0.24231494140625,0.92359326171875,0.9882796086840362,0.67041015625,-0.88232421875,-0.3525390625,47.96529411764706,338.4188360617295
-0.24705126953125,0.23987353515625,0.93726513671875,0.9985186924408456,0.6962890625,-0.5322265625,-0.32470703125,48.1064705882353,338.4188360617295
-0.25046923828125,0.24182666015625,0.93287060546875,0.9957221195871608,0.697265625,-0.2666015625,-0.3408203125,47.96529411764706,338.4188360617295
-0.25095751953125,0.23303759765625,0.93287060546875,0.9937473346270198,0.69873046875,-0.15576171875,-0.33935546875,48.01235294117648,338.84436894220573
-0.25144580078125,0.21985400390625,0.93140576171875,0.9894834342863038,0.71728515625,-0.1943359375,-0.2744140625,47.82411764705883,338.84436894220573
-0.25193408203125,0.20764697265625,0.93287060546875,0.9883499448524627,0.70458984375,-0.3037109375,-0.15966796875,47.96529411764706,338.84436894220573
-0.25974658203125,0.19788134765625,0.93726513671875,0.992517632657268,0.6865234375,-0.419921875,-0.0546875,47.96529411764706,338.84436894220573
-0.25681689453125,0.19299853515625,0.93189404296875,0.9857128685422424,0.65869140625,-0.53125,0.0224609375,48.01235294117648,338.84436894220573
-0.24705126953125,0.19006884765625,0.93091748046875,0.9817167881159324,0.6259765625,-0.57666015625,0.060546875,48.1064705882353,338.84859665891884
-0.23630908203125,0.19836962890625,0.93287060546875,0.982568093554074,0.60302734375,-0.56005859375,0.06689453125,47.96529411764706,338.84859665891884
-0.22996142578125,0.19983447265625,0.93384716796875,0.9822864179720706,0.55810546875,-0.517578125,0.091796875,48.1064705882353,338.84859665891884
-0.21482470703125,0.20129931640625,0.93384716796875,0.9791535133266592,0.48974609375,-0.474609375,0.0947265625,48.1064705882353,338.84859665891884
-0.20652392578125,0.20569384765625,0.93335888671875,0.9778143496086544,0.45166015625,-0.48974609375,-0.00439453125,47.96529411764706,338.5214530731428
-0.20603564453125,0.21399462890625,0.92212841796875,0.968795751045431,0.3916015625,-0.5546875,-0.16796875,48.15352941176471,338.5214530731428
-0.20212939453125,0.21155322265625,0.92164013671875,0.966970319999932,0.34130859375,-0.67431640625,-0.27197265625,48.1064705882353,338.5214530731428
-0.20457080078125,0.20764697265625,0.92115185546875,0.9661714229985836,0.3056640625,-0.7021484375,-0.236328125,48.01235294117648,338.5214530731428
-0.21433642578125,0.20276416015625,0.92408154296875,0.9700412909335644,0.28759765625,-0.7666015625,-0.11181640625,48.20058823529412,338.5214530731428
-0.23289111328125,0.20422900390625,0.91773388671875,0.9685985977244764,0.27490234375,-0.85009765625,0.05712890625,47.16529411764706,338.7373906948173
-0.25828173828125,0.20032275390625,0.91333935546875,0.9700656886573402,0.25927734375,-0.904296875,0.25732421875,48.01235294117648,338.7373906948173
-0.24998095703125,0.21155322265625,0.90601513671875,0.963383969587412,0.26220703125,-0.880859375,0.345703125,48.1064705882353,338.7373906948173
-0.23923876953125,0.21887744140625,0.90406201171875,0.960453353493196,0.2802734375,-0.7861328125,0.30029296875,47.96529411764706,338.7373906948173
-0.23435595703125,0.22961962890625,0.91724560546875,0.9741598376687528,0.25927734375,-0.6962890625,0.169921875,48.1064705882353,338.74386148265336
-0.26169970703125,0.23743212890625,0.91089794921875,0.9770341991906528,0.2265625,-0.673828125,0.1728515625,48.29470588235294,338.74386148265336
-0.26072314453125,0.24622119140625,0.91871044921875,0.986220220181828,0.18798828125,-0.7578125,0.31494140625,48.1064705882353,338.74386148265336
-0.23826220703125,0.23694384765625,0.94019482421875,0.9984375662650502,0.17626953125,-0.46923828125,0.40380859375,48.1064705882353,338.74386148265336
-0.19089892578125,0.22620166015625,0.96314404296875,1.0075991457063012,0.2451171875,0.10009765625,0.2431640625,47.91823529411765,338.74386148265336
-0.19968798828125,0.23010791015625,0.94800732421875,0.9957624364037254,0.31005859375,0.33154296875,0.095703125,48.01235294117648,338.611261168152
-0.21140673828125,0.23108447265625,0.91431591796875,0.9664711275276524,0.22265625,0.43896484375,0.068359375,47.91823529411765,338.611261168152
-0.32322314453125,0.23206103515625,0.90601513671875,0.989539768357975,0.14794921875,0.4052734375,0.068359375,48.29470588235294,338.611261168152
-0.19089892578125,0.23792041015625,0.91089794921875,0.9606162580990796,0.064453125,0.31201171875,0.13232421875,47.82411764705883,338.611261168152
-0.18210986328125,0.22913134765625,0.92164013671875,0.9669983032012212,0.0703125,0.2060546875,0.185546875,47.96529411764706,338.45304151559435
-0.19578173828125,0.22571337890625,0.93628857421875,0.9828088891917308,0.08203125,-0.07861328125,0.22509765625,47.82411764705883,338.45304151559435
-0.22703173828125,0.23206103515625,0.91773388671875,0.9734635180923318,0.0908203125,-0.45703125,0.2998046875,48.1064705882353,338.45304151559435
-0.23923876953125,0.23840869140625,0.90992138671875,0.9705827234157014,0.06298828125,-0.77490234375,0.38525390625,48.20058823529412,338.45304151559435
-0.22605517578125,0.24280322265625,0.91919873046875,0.9772311157168062,0.03173828125,-0.921875,0.3486328125,47.96529411764706,338.45304151559435
-0.21482470703125,0.23840869140625,0.92603466796875,0.9800655922789534,0.0107421875,-0.94091796875,0.29296875,48.1064705882353,338.6347698431916
-0.21921923828125,0.22327197265625,0.93824169921875,0.9890424330428456,0.0166015625,-0.94482421875,0.34814453125,47.96529411764706,338.6347698431916
-0.22849658203125,0.21204150390625,0.92896435546875,0.979870941047982,0.00146484375,-0.97412109375,0.45068359375,48.43588235294118,338.6347698431916
-0.22214892578125,0.21350634765625,0.93628857421875,0.9856832147946186,-0.02099609375,-0.95703125,0.52978515625,48.01235294117648,338.6347698431916
-0.19871142578125,0.20911181640625,0.93970654296875,0.9829864543293654,-0.03857421875,-0.80615234375,0.5361328125,48.15352941176471,338.6219590239498
-0.18064501953125,0.21204150390625,0.93482373046875,0.9754432989711804,-0.03662109375,-0.54736328125,0.48681640625,47.96529411764706,338.6219590239498
-0.16843798828125,0.21448291015625,0.93580029296875,0.9747289176821043,-0.04248046875,-0.310546875,0.49267578125,48.34176470588236,338.6219590239498
-0.16062548828125,0.21350634765625,0.93384716796875,0.971316653362,-0.0380859375,-0.1376953125,0.5693359375,48.15352941176471,338.6219590239498
-0.16550830078125,0.21155322265625,0.93872998046875,0.9764024477000256,-0.03125,-0.0498046875,0.74169921875,47.96529411764706,338.6219590239498
-0.16990283203125,0.21350634765625,0.94214794921875,0.9808642571930364,-0.0244140625,-0.03857421875,0.90087890625,48.01235294117648,338.74386148265336
-0.18162158203125,0.21790087890625,0.94312451171875,0.9848609225126056,-0.02001953125,-0.08154296875,0.96044921875,48.15352941176471,338.74386148265336
-0.18992236328125,0.22376025390625,0.93921826171875,0.9840071638197126,-0.01025390625,-0.16162109375,1.041015625,48.1064705882353,338.74386148265336
-0.18406298828125,0.22668994140625,0.92701123046875,0.9719142629908146,-0.0263671875,-0.18017578125,0.9912109375,48.1064705882353,338.74386148265336
-0.17380908203125,0.23840869140625,0.91871044921875,0.9649234117992492,-0.078125,-0.14111328125,0.81396484375,48.34176470588236,338.60914855379497
-0.18308642578125,0.24329150390625,0.91040966796875,0.9599776865684366,-0.13037109375,-0.267578125,0.66015625,48.1064705882353,338.60914855379497
-0.20945361328125,0.24963916015625,0.90455029296875,0.9614581420477653,-0.20849609375,-0.46630859375,0.732421875,48.1064705882353,338.60914855379497
-0.19968798828125,0.25061572265625,0.90552685546875,0.9605531838901212,-0.255859375,-0.4794921875,0.89306640625,48.1064705882353,338.60914855379497
-0.16550830078125,0.24475634765625,0.91040966796875,0.957154340154446,-0.212890625,-0.35107421875,0.96875,48.20058823529412,338.60914855379497
-0.14548876953125,0.25208056640625,0.92066357421875,0.9655739282481982,-0.16552734375,-0.3056640625,0.9287109375,47.91823529411765,338.67967438019514
-0.16599658203125,0.26379931640625,0.91431591796875,0.9659806118310552,-0.138671875,-0.44482421875,0.99658203125,48.1064705882353,338.67967438019514
-0.19480517578125,0.26819384765625,0.90552685546875,0.9642903517130874,-0.1259765625,-0.673828125,1.11474609375,48.01235294117648,338.67967438019514
-0.19675830078125,0.27063525390625,0.91480419921875,0.97407596854223,-0.126953125,-0.8291015625,1.13916015625,48.1064705882353,338.67967438019514
-0.19138720703125,0.27454150390625,0.92847607421875,0.9869498066158124,-0.15087890625,-0.78759765625,1.01953125,47.82411764705883,338.8550668413166
-0.20457080078125,0.27210009765625,0.94458935546875,1.0040601207804694,-0.154296875,-0.6376953125,0.93212890625,48.29470588235294,338.8550668413166
-0.23875048828125,0.25842822265625,0.95533154296875,1.018059575324969,-0.11865234375,-0.52001953125,1.0234375,48.1064705882353,338.8550668413166
-0.26560595703125,0.24036181640625,0.95972607421875,1.0243995630279874,-0.06982421875,-0.5,1.2314453125,48.1064705882353,338.8550668413166
-0.27976611328125,0.23401416015625,0.95044873046875,1.0180297120142372,-0.0615234375,-0.58447265625,1.44775390625,48.1064705882353,338.8550668413166
-0.27146533203125,0.23108447265625,0.94019482421875,1.005514677906484,-0.07568359375,-0.767578125,1.6171875,47.91823529411765,338.72457910814995
-0.24168017578125,0.22961962890625,0.92603466796875,0.984212724782957,-0.08154296875,-1.046875,1.7841796875,48.1064705882353,338.72457910814995
-0.21091845703125,0.22766650390625,0.91529248046875,0.9664776031134784,-0.06396484375,-1.46728515625,1.94287109375,48.1064705882353,338.72457910814995
-0.20994189453125,0.23450244140625,0.92554638671875,0.9776006894806264,-0.080078125,-1.79443359375,2.00341796875,47.96529411764706,338.72457910814995
-0.20603564453125,0.23547900390625,0.92701123046875,0.978391981525438,-0.10888671875,-1.841796875,2.23583984375,48.53,338.8721066518903
-0.19919970703125,0.24133837890625,0.94703076171875,0.9973926007626226,-0.14208984375,-1.48095703125,2.2763671875,48.01235294117648,338.8721066518903
-0.19236376953125,0.24085009765625,0.96265576171875,1.0108010214377523,-0.16650390625,-0.84912109375,2.33544921875,48.20058823529412,338.8721066518903
-0.19871142578125,0.23352587890625,0.97828076171875,1.0252091570035704,-0.14453125,-0.1279296875,2.43212890625,48.20058823529412,338.8721066518903
-0.20261767578125,0.22766650390625,0.97437451171875,1.0209268576284212,-0.00439453125,0.36474609375,2.57275390625,48.29470588235294,338.8721066518903
-0.21384814453125,0.22571337890625,0.95337841796875,1.0028000629164977,-0.08935546875,0.49853515625,2.71826171875,48.1064705882353,338.60056332587686
-0.22654345703125,0.23303759765625,0.91968701171875,0.9754243483577956,-0.14208984375,0.2607421875,2.78857421875,48.29470588235294,338.60056332587686
-0.23728564453125,0.24085009765625,0.9001557617187499,0.9615579244107444,-0.24658203125,-0.19189453125,2.8486328125,48.1064705882353,338.60056332587686
-0.22654345703125,0.24670947265625,0.8772065429687499,0.9389775401196666,-0.3623046875,-0.69091796875,2.9365234375,48.29470588235294,338.60056332587686
-0.19334033203125,0.24426806640625,0.8772065429687499,0.9308805999068772,-0.46875,-1.00390625,2.93212890625,48.15352941176471,338.9683868496912
-0.17332080078125,0.22913134765625,0.8781831054687499,0.9239842212900394,-0.54443359375,-1.03564453125,2.85986328125,48.1064705882353,338.9683868496912
-0.17527392578125,0.21399462890625,0.8864838867187499,0.9286378904995618,-0.56396484375,-1.025390625,2.9052734375,48.15352941176471,338.9683868496912
-0.18113330078125,0.20471728515625,0.8825776367187499,0.9239381604467422,-0.57373046875,-1.04296875,3.0625,48.1064705882353,338.9683868496912
-0.16599658203125,0.20178759765625,0.8679291992187499,0.9064073006493486,-0.66748046875,-1.05322265625,3.16943359375,48.1064705882353,338.9683868496912
-0.14011767578125,0.20569384765625,0.8689057617187499,0.9038474123313144,-0.728515625,-1.10791015625,3.31201171875,47.96529411764706,338.523565712917
-0.12205126953125,0.21350634765625,0.8635346679687499,0.8978717033449715,-0.775390625,-1.06982421875,3.5458984375,48.20058823529412,338.523565712917
-0.09959033203125,0.22131884765625,0.8674409179687499,0.9007519151955506,-0.82080078125,-0.96142578125,3.79833984375,48.1064705882353,338.523565712917
-0.08982470703125,0.23206103515625,0.8635346679687499,0.8986728686318172,-0.8642578125,-0.99853515625,4.009765625,48.1064705882353,338.523565712917
-0.09470751953125,0.24133837890625,0.8562104492187499,0.8946005034316895,-0.890625,-1.232421875,4.13037109375,48.1064705882353,339.1031043613608
-0.10154345703125,0.24670947265625,0.8547456054687499,0.895414254762745,-0.880859375,-1.6357421875,4.21484375,48.15352941176471,339.1031043613608
-0.09714892578125,0.25012744140625,0.8610932617187499,0.901933066309426,-0.888671875,-2.11669921875,4.31591796875,48.1064705882353,339.1031043613608
-0.08738330078125,0.24377978515625,0.8786713867187499,0.9160392080825496,-0.8818359375,-2.61865234375,4.46630859375,48.15352941176471,339.1031043613608
-0.07664111328125,0.24231494140625,0.90406201171875,0.9391051656266496,-0.87158203125,-3.029296875,4.65576171875,48.1064705882353,339.1031043613608
-0.06980517578125,0.23840869140625,0.92164013671875,0.9545323505857974,-0.90234375,-3.31494140625,4.85400390625,48.1064705882353,338.8464825726117
-0.06003955078125,0.24768603515625,0.94703076171875,0.9807244176174228,-1.0107421875,-3.2919921875,5.08642578125,48.1064705882353,338.8464825726117
-0.04636767578125,0.25989306640625,0.97632763671875,1.0113901430922776,-1.10009765625,-2.9404296875,5.23828125,48.15352941176471,338.8464825726117
-0.03074267578125,0.26526416015625,0.99878857421875,1.0338707863014194,-1.224609375,-2.37841796875,5.33740234375,48.1064705882353,338.8464825726117
-0.02781298828125,0.26917041015625,0.99878857421875,1.034797027445837,-1.2958984375,-1.81005859375,5.2529296875,48.1064705882353,338.8592944377026
-0.02585986328125,0.26819384765625,0.98414013671875,1.0203570361154906,-1.38720703125,-1.37744140625,5.0419921875,48.29470588235294,338.8592944377026
-0.02000048828125,0.26135791015625,0.95581982421875,0.9911102426583496,-1.4990234375,-1.1435546875,4.806640625,48.1064705882353,338.8592944377026
-0.01658251953125,0.25012744140625,0.92212841796875,0.9555938133558582,-1.6435546875,-1.056640625,4.669921875,48.1064705882353,338.8592944377026
-0.01755908203125,0.22717822265625,0.8806245117187499,0.9096250858738008,-1.8095703125,-1.13134765625,4.73095703125,47.82411764705883,338.8592944377026
-0.03416064453125,0.19739306640625,0.8571870117187499,0.8802843548305133,-1.994140625,-1.45751953125,5.06640625,48.1064705882353,338.7224657277447
-0.04148486328125,0.17981494140625,0.8337495117187499,0.853927781094895,-2.00048828125,-1.7080078125,5.513671875,47.96529411764706,338.7224657277447
-0.00828173828125,0.16956103515625,0.8103120117187499,0.827904033187365,-2.25537109375,-1.90380859375,5.7861328125,48.15352941176471,338.7224657277447
0.03517529296875,0.16711962890625,0.7946870117187499,0.8128306823660612,-2.462890625,-2.16748046875,5.79541015625,48.1064705882353,338.7224657277447
0.05861279296875,0.16565478515625,0.7951752929687499,0.8143590816664956,-2.67724609375,-2.34716796875,5.8076171875,48.1064705882353,338.60056332587686
0.07472607421875,0.16321337890625,0.7878510742187499,0.8080420214133541,-2.875,-2.38525390625,5.9765625,48.20058823529412,338.60056332587686
0.09718701171875,0.16614306640625,0.7805268554687499,0.80390982446393,-3.07958984375,-2.4072265625,6.26708984375,48.20058823529412,338.60056332587686
0.10548779296875,0.17981494140625,0.7736909179687499,0.8012856695122395,-3.18701171875,-2.41015625,6.666015625,48.15352941176471,338.60056332587686
0.11476513671875,0.18713916015625,0.7819916992187499,0.8122211026051267,-3.26220703125,-2.54150390625,7.0546875,48.1064705882353,338.60056332587686
0.13283154296875,0.19251025390625,0.7868745117187499,0.8208994541715379,-3.31982421875,-2.74755859375,7.28271484375,48.20058823529412,338.65827878755914
0.14796826171875,0.19446337890625,0.8059174804687499,0.8421482040215974,-3.435546875,-3.021484375,7.26171875,48.20058823529412,338.65827878755914
0.15138623046875,0.19495166015625,0.8186127929687499,0.8550151141268281,-3.57568359375,-3.2470703125,7.13525390625,48.15352941176471,338.65827878755914
0.15822216796875,0.19446337890625,0.8508393554687499,0.8870049994147974,-3.626953125,-3.3837890625,7.11767578125,48.15352941176471,338.65827878755914
0.16115185546875,0.17786181640625,0.97681591796875,1.0058698145652265,-3.921875,-3.85009765625,7.36376953125,48.1064705882353,338.67756121503186
0.17238232421875,0.14612353515625,0.8630463867187499,0.8921417033509352,-4.04296875,-4.25634765625,7.81005859375,47.96529411764706,338.67756121503186
0.19533154296875,0.11096728515625,0.8513276367187499,0.880469701406376,-4.08349609375,-4.78076171875,8.2177734375,48.01235294117648,338.67756121503186
0.22511669921875,0.08801806640625,0.8415620117187499,0.8755862766450543,-4.0966796875,-5.29345703125,8.466796875,47.91823529411765,338.67756121503186
0.23878857421875,0.05627978515625,0.8249604492187499,0.8606666835482008,-4.1630859375,-5.77685546875,8.5341796875,48.1064705882353,338.67756121503186
0.27980419921875,0.03723681640625,0.8000581054687499,0.8483925639247223,-4.29833984375,-6.39404296875,8.54345703125,48.1064705882353,338.5321509410909
0.33693310546875,0.0186821289062499,0.7766206054687499,0.8467659088201019,-4.478515625,-6.91748046875,8.59228515625,48.01235294117648,338.5321509410909
0.41408154296875,0.0011040039062499,0.7727143554687499,0.8766711003560522,-4.7138671875,-7.0302734375,8.7216796875,47.96529411764706,338.5321509410909
0.50831982421875,-0.03307568359375,0.7829682617187499,0.9340890446835652,-5.0595703125,-6.51904296875,8.6904296875,48.1064705882353,338.5321509410909
0.60206982421875,-0.07311474609375,0.8088471679687499,1.0109735804966504,-5.5244140625,-5.6064453125,8.3720703125,48.1064705882353,338.6903721968021
0.64552685546875,-0.10485302734375,0.8215424804687499,1.0500624389479265,-5.8857421875,-4.73974609375,7.6220703125,48.20058823529412,338.6903721968021
0.61427685546875,-0.15270458984375,0.8195893554687499,1.0355585249137802,-6.08251953125,-4.2802734375,6.90234375,48.20058823529412,338.6903721968021
0.53273388671875,-0.19713818359375,0.8098237304687499,0.989183163989072,-6.10400390625,-4.52734375,6.67578125,48.1064705882353,338.6903721968021
0.45412060546875,-0.21178662109375,0.7898041992187499,0.9353447333946894,-6.00634765625,-5.2998046875,6.673828125,48.20058823529412,338.6903721968021
0.39992138671875,-0.19372021484375,0.7541596679687499,0.8753407576394988,-5.93798828125,-6.15283203125,6.4970703125,47.82411764705883,338.55777209200375
0.39601513671875,-0.10436474609375,0.7326752929687499,0.8393646845468462,-5.9794921875,-6.845703125,5.330078125,48.29470588235294,338.55777209200375
0.41505810546875,0.0264946289062499,0.7307221679687499,0.8407913433409848,-6.11279296875,-7.236328125,3.5810546875,48.15352941176471,338.55777209200375
0.42775341796875,0.13049853515625,0.7443940429687499,0.8684039068712417,-6.25927734375,-6.96630859375,1.73486328125,48.29470588235294,338.55777209200375
0.45265576171875,0.17200244140625,0.7927338867187499,0.9289290035406946,-6.22705078125,-6.001953125,0.36962890625,48.01235294117648,338.2648425631963
0.51759716796875,0.17590869140625,0.8410737304687499,1.0031229815362366,-5.90576171875,-4.3984375,-0.21044921875,47.96529411764706,338.2648425631963
0.58693310546875,0.25549853515625,0.8479096679687499,1.0624127149074676,-5.46337890625,-2.72607421875,-0.0732421875,48.1064705882353,338.2648425631963
0.60451123046875,0.04504931640625,0.8215424804687499,1.0209776275150493,-4.97802734375,-1.744140625,-0.13037109375,48.1064705882353,338.2648425631963
0.55812451171875,-0.04918896484375,0.7663666992187499,0.9493368435466596,-4.6357421875,-1.9384765625,-1.103515625,48.20058823529412,338.2648425631963
0.39650341796875,-0.14538037109375,0.7072846679687499,0.8237730356742217,-4.40673828125,-3.0634765625,-2.0185546875,47.96529411764706,339.1223856673084
0.23537060546875,-0.23864208984375,0.6399018554687499,0.7223736938704698,-4.23486328125,-4.43017578125,-2.275390625,47.82411764705883,339.1223856673084
0.16798779296875,-0.32506787109375,0.5979096679687499,0.7009885808302695,-4.123046875,-5.60693359375,-1.84716796875,48.1064705882353,339.1223856673084
0.21828076171875,-0.39733349609375,0.5798432617187499,0.736028943870578,-4.03759765625,-6.49462890625,-1.1279296875,47.96529411764706,339.1223856673084
0.35695263671875,-0.46422802734375,0.6071870117187499,0.8435632243239879,-3.90625,-6.78466796875,-0.61865234375,48.29470588235294,338.5342635206991
0.50294873046875,-0.53209912109375,0.6286713867187499,0.9650464302963586,-3.8876953125,-6.5537109375,-0.46728515625,48.1064705882353,338.5342635206991
0.60206982421875,-0.58727490234375,0.6623627929687499,1.0705626341634669,-3.990234375,-6.16650390625,-0.3759765625,48.15352941176471,338.5342635206991
0.60695263671875,-0.60485302734375,0.7282807617187499,1.1245583825646337,-3.986328125,-6.01806640625,-0.21240234375,48.1064705882353,338.5342635206991
0.55324169921875,-0.60582958984375,0.7775971679687499,1.1303818935730157,-3.99658203125,-6.05859375,0.3369140625,47.35352941176471,338.5342635206991
0.48048779296875,-0.59899365234375,0.8093354492187499,1.1156548678252614,-3.7080078125,-5.95947265625,1.00732421875,48.1064705882353,338.51075521872235
0.50001904296875,-0.58581005859375,0.8508393554687499,1.1476585192885012,-3.50048828125,-5.75146484375,1.80517578125,47.96529411764706,338.51075521872235
0.57472607421875,-0.59362255859375,0.8933198242187499,1.2168476119878382,-3.2666015625,-5.58642578125,2.10546875,48.15352941176471,338.51075521872235
0.66115185546875,-0.62584912109375,0.93433544921875,1.3045273588661883,-3.20361328125,-5.3291015625,2.10986328125,48.01235294117648,338.51075521872235
0.73488232421875,-0.65465771484375,0.97437451171875,1.3849312052014515,-3.3046875,-4.9091796875,1.98291015625,48.53,338.6368832490042
0.76466748046875,-0.67174755859375,1.00415966796875,1.4297894169905585,-3.4248046875,-4.396484375,1.86279296875,48.1064705882353,338.6368832490042
0.78224560546875,-0.66637646484375,0.99732373046875,1.4319987442483768,-3.4990234375,-4.00732421875,1.7041015625,48.01235294117648,338.6368832490042
0.80665966796875,-0.63903271484375,0.96412060546875,1.4101741638739012,-3.521484375,-4.09912109375,1.7431640625,47.96529411764706,338.6368832490042
0.81886669921875,-0.62047802734375,0.91285107421875,1.374348113546247,-3.47314453125,-4.578125,2.017578125,47.91823529411765,338.6368832490042
0.84376904296875,-0.61706005859375,0.8664643554687499,1.3577443769288822,-3.42041015625,-5.15380859375,2.26806640625,48.29470588235294,338.43375795119454
0.89015576171875,-0.62682568359375,0.8498627929687499,1.381142456304383,-3.306640625,-5.6962890625,2.3857421875,48.15352941176471,338.43375795119454
0.91456982421875,-0.65856396484375,0.8488862304687499,1.410940215403076,-3.107421875,-6.072265625,2.30810546875,48.01235294117648,338.43375795119454
0.88624951171875,-0.72692333984375,0.8357026367187499,1.4185396138458686,-2.93896484375,-6.029296875,2.1572265625,48.29470588235294,338.43375795119454
0.85646435546875,-0.79577099609375,0.8444916992187499,1.4422027944994116,-2.82080078125,-5.51318359375,2.04736328125,48.20058823529412,338.7373906948173
0.85939404296875,-0.84997021484375,0.8537690429687499,1.479840892104107,-2.65966796875,-4.72314453125,1.9345703125,48.29470588235294,338.7373906948173
0.90138623046875,-0.90270458984375,0.8357026367187499,1.5250480681022178,-2.50439453125,-3.68603515625,1.65869140625,48.1064705882353,338.7373906948173
0.92531201171875,-0.91637646484375,0.8034760742187499,1.5302032368912644,-2.38232421875,-2.58203125,1.38134765625,48.15352941176471,338.7373906948173
0.95900341796875,-0.92370068359375,0.7756440429687499,1.5409523645915255,-2.18994140625,-2.10888671875,1.41552734375,48.20058823529412,338.7373906948173
0.96290966796875,-0.90221630859375,0.7502534179687499,1.51791616610866,-2.0556640625,-2.2607421875,1.74560546875,48.1064705882353,338.4102500222709
0.97706982421875,-0.85973583984375,0.7536713867187499,1.5039387337485728,-1.90380859375,-2.6455078125,2.12255859375,47.96529411764706,338.4102500222709
0.97414013671875,-0.80504833984375,0.7873627929687499,1.4889566827826637,-1.7021484375,-2.8408203125,2.22607421875,48.1064705882353,338.4102500222709
0.96583935546875,-0.75084912109375,0.8283784179687499,1.4774406473953383,-1.42041015625,-2.560546875,2.0439453125,48.1064705882353,338.4102500222709
0.93263623046875,-0.69860302734375,0.8781831054687499,1.459130595569687,-1.109375,-1.927734375,1.658203125,48.20058823529412,338.4893595504447
0.90529248046875,-0.65075146484375,0.91871044921875,1.4446663399184136,-0.8203125,-0.966796875,1.17236328125,48.20058823529412,338.4893595504447
0.91554638671875,-0.61022412109375,0.92261669921875,1.435903979336954,-0.50146484375,-0.0537109375,0.724609375,47.96529411764706,338.4893595504447
0.94044873046875,-0.59850537109375,0.91138623046875,1.4398879661127766,-0.14013671875,0.6474609375,0.296875,48.34176470588236,338.4893595504447
