AccX,AccY,AccZ,Magnitude,GyroX,GyroY,GyroZ,Temperature,Altitude
-0.63474658203125,-0.71715771484375,-0.0578520507812501,0.959460927364872,0.34912109375,-1.74853515625,-4.0712890625,45.94176470588236,167.1320722124263
-0.64402392578125,-0.74352490234375,-0.0461333007812501,0.9847458447868412,0.318359375,-1.833984375,-4.05126953125,45.94176470588236,167.08896181439093
-0.65720751953125,-0.76159130859375,-0.0324614257812501,1.0064774161488723,0.35595703125,-1.63232421875,-4.0712890625,45.84764705882353,167.08896181439093
-0.65281298828125,-0.78014599609375,-0.0104887695312501,1.0173016205511936,0.36083984375,-1.181640625,-4.10205078125,45.89470588235295,167.08896181439093
-0.63328173828125,-0.79284130859375,-0.0056059570312501,1.0147287950025898,0.3095703125,-0.61376953125,-4.10546875,45.94176470588236,167.08896181439093
-0.58347705078125,-0.80309521484375,0.0070893554687498,0.9927021969625516,0.27001953125,-0.08447265625,-4.06591796875,45.84764705882353,167.04585163400796
-0.54002001953125,-0.81188427734375,0.0036713867187498,0.9750852169800102,0.33154296875,0.1181640625,-4.08349609375,45.94176470588236,167.04585163400796
-0.52390673828125,-0.81188427734375,-0.0197661132812501,0.9664497138748236,0.34814453125,-0.0458984375,-4.1484375,46.03588235294118,167.04585163400796
-0.51707080078125,-0.80797802734375,-0.0329497070312501,0.9598314377453502,0.34326171875,-0.45654296875,-4.166015625,46.08294117647059,167.04585163400796
-0.50486376953125,-0.80260693359375,-0.0319731445312501,0.9487294649209972,0.21435546875,-0.87109375,-4.06689453125,45.84764705882353,167.04585163400796
-0.48923876953125,-0.79772412109375,-0.0285551757812501,0.936233808966086,0.2080078125,-1.08740234375,-3.9970703125,45.94176470588236,167.18860829151265
-0.48630908203125,-0.79870068359375,-0.0207426757812501,0.935333931725866,0.23681640625,-1.1708984375,-3.74169921875,45.94176470588236,167.18860829151265
-0.48875048828125,-0.80016552734375,-0.0163481445312501,0.937768187119864,0.291015625,-1.1826171875,-3.6884765625,45.89470588235295,167.18860829151265
-0.49851611328125,-0.80211865234375,-0.0124418945312501,0.9444932230452078,0.380859375,-1.2177734375,-3.72119140625,45.89470588235295,167.18860829151265
-0.49802783203125,-0.79528271484375,-0.0139067382812501,0.9384560274070468,0.48193359375,-1.31103515625,-3.7021484375,46.08294117647059,167.3331351139377
-0.48142626953125,-0.78258740234375,-0.0070708007812501,0.9188385557461128,0.548828125,-1.40380859375,-3.66455078125,45.89470588235295,167.3331351139377
-0.47849658203125,-0.78698193359375,0.0061127929687498,0.921052066419931,0.64501953125,-1.39404296875,-3.6064453125,46.03588235294118,167.3331351139377
-0.47117236328125,-0.80797802734375,0.0188081054687498,0.9355135666689498,0.78076171875,-1.36669921875,-3.5654296875,46.08294117647059,167.3331351139377
-0.47214892578125,-0.82506787109375,0.0178315429687498,0.9507783989722356,0.93701171875,-1.2705078125,-3.61083984375,46.03588235294118,167.3331351139377
-0.47459033203125,-0.83776318359375,0.0349213867187498,0.96348463313798,1.10791015625,-1.24267578125,-3.6533203125,45.89470588235295,167.2002692403594
-0.46677783203125,-0.85729443359375,0.0490815429687498,0.9773659950125212,1.21240234375,-1.1689453125,-3.6591796875,46.08294117647059,167.2002692403594
-0.44919970703125,-0.86901318359375,0.0637299804687498,0.9803192339576188,1.271484375,-1.05029296875,-3.62890625,45.94176470588236,167.2002692403594
-0.44334033203125,-0.86657177734375,0.0676362304687498,0.9757417460405732,1.3515625,-0.8544921875,-3.6279296875,45.84764705882353,167.2002692403594
-0.43064501953125,-0.86510693359375,0.0661713867187498,0.968629852843352,1.3173828125,-0.65087890625,-3.67236328125,45.84764705882353,167.11228256822142
-0.41599658203125,-0.87340771484375,0.0798432617187498,0.9707054852282192,1.2666015625,-0.4970703125,-3.68701171875,46.13,167.11228256822142
-0.39207080078125,-0.86950146484375,0.0691010742187498,0.9563091909256456,1.22705078125,-0.1064453125,-3.734375,45.7535294117647,167.11228256822142
-0.35544970703125,-0.86803662109375,0.0691010742187498,0.9405355007901836,1.21337890625,0.07177734375,-3.765625,46.08294117647059,167.11228256822142
-0.33152392578125,-0.87243115234375,0.0588471679687498,0.935150906604489,1.1826171875,0.06298828125,-3.7529296875,45.89470588235295,167.11228256822142
-0.30222705078125,-0.89147412109375,0.0515229492187498,0.9427204851386248,1.17041015625,-0.05322265625,-3.74658203125,45.94176470588236,167.13560468744365
-0.30906298828125,-0.89928662109375,0.0461518554687498,0.9520327470033572,1.21142578125,-0.36376953125,-3.76708984375,45.84764705882353,167.13560468744365
-0.31150439453125,-0.89538037109375,0.0344331054687498,0.9486446307782932,1.255859375,-0.8203125,-3.68310546875,45.94176470588236,167.13560468744365
-0.31785205078125,-0.89782177734375,0.0373627929687498,0.9531578297202212,1.2529296875,-1.42578125,-3.66064453125,45.89470588235295,167.13560468744365
-0.32517626953125,-0.89245068359375,0.0471284179687498,0.9510146774332398,1.2412109375,-1.94775390625,-3.60302734375,45.7535294117647,167.09249525756937
-0.31785205078125,-0.90368115234375,0.0578706054687498,0.9596971179828008,1.1689453125,-2.1015625,-3.67724609375,46.03588235294118,167.09249525756937
-0.31785205078125,-0.91100537109375,0.0944916992187498,0.9694789288936372,1.201171875,-2.03759765625,-3.7685546875,45.7535294117647,167.09249525756937
-0.30125048828125,-0.91491162109375,0.1130463867187498,0.9698425731283662,1.17724609375,-1.8896484375,-3.8037109375,46.03588235294118,167.09249525756937
-0.29685595703125,-0.91198193359375,0.1272065429687499,0.9674792044278756,1.0986328125,-1.73193359375,-3.748046875,46.27117647058824,167.09249525756937
-0.28318408203125,-0.90661083984375,0.1423432617187499,0.960415557659706,1.09423828125,-1.4580078125,-3.673828125,46.03588235294118,166.99373112784227
-0.28367236328125,-0.93200146484375,0.1482026367187499,0.9854241531903178,0.97705078125,-1.14208984375,-3.6083984375,46.03588235294118,166.99373112784227
-0.26609423828125,-0.93444287109375,0.1701752929687499,0.9863819003415508,0.97216796875,-0.90673828125,-3.58642578125,45.94176470588236,166.99373112784227
-0.24216845703125,-0.93297802734375,0.1711518554687499,0.9789721746390586,1.10205078125,-0.85009765625,-3.6875,46.08294117647059,166.99373112784227
-0.21921923828125,-0.93004833984375,0.1823823242187499,0.972784817452534,1.2138671875,-0.65234375,-3.78173828125,45.7535294117647,167.20115311797147
-0.19871142578125,-0.93248974609375,0.1696870117187499,0.9684095410785888,1.18994140625,-0.47314453125,-3.8203125,46.03588235294118,167.20115311797147
-0.21043017578125,-0.94420849609375,0.1696870117187499,0.9821426703493684,1.20361328125,0.55615234375,-2.5400390625,45.84764705882353,167.20115311797147
0.17140576171875,-1.23229443359375,0.2868745117187499,1.27680323139096,1.83544921875,10.208984375,9.185546875,45.61235294117647,167.20115311797147
0.58205029296875,-0.97057568359375,0.0066010742187498,1.1317434670937243,1.11865234375,3.07958984375,3.0078125,45.94176470588236,167.20115311797147
-0.29880908203125,-0.94860302734375,0.0280854492187498,0.994948925044851,1.4619140625,2.82861328125,1.50244140625,45.7535294117647,167.2675861729553
-0.26707080078125,-0.93004833984375,-0.0060942382812501,0.9676537949164888,1.76416015625,1.60107421875,2.08544921875,46.03588235294118,167.2675861729553
-0.22019580078125,-0.91393505859375,-0.0392973632812501,0.9409079470220856,2.0478515625,0.46142578125,1.6796875,45.94176470588236,167.2675861729553
-0.24558642578125,-0.89147412109375,0.0061127929687498,0.9247032861116924,2.43212890625,0.60791015625,0.767578125,45.89470588235295,167.2675861729553
-0.28904345703125,-0.88073193359375,0.0861909179687498,0.9309477607495802,2.6640625,0.55712890625,-0.15087890625,45.84764705882353,167.08083383965774
-0.31101611328125,-0.89586865234375,0.1677338867187499,0.9630401454386834,2.640625,-0.115234375,-0.52392578125,45.89470588235295,167.08083383965774
-0.30662158203125,-0.92565380859375,0.2038666992187499,0.9961994775052884,2.58837890625,0.0732421875,-0.8115234375,46.224117647058826,167.08083383965774
-0.28123095703125,-0.95397412109375,0.2478120117187499,1.0249723255100107,2.44189453125,0.06640625,-1.3056640625,45.94176470588236,167.08083383965774
-0.29294970703125,-0.98864208984375,0.2541596679687499,1.061993337776795,2.36865234375,-0.29150390625,-1.3681640625,45.61235294117647,167.08083383965774
-0.30418017578125,-1.00182568359375,0.2414643554687499,1.0744697830131544,2.30859375,-0.54833984375,-1.33056640625,46.08294117647059,167.1894917808666
-0.31492236328125,-1.01012646484375,0.2365815429687499,1.0842058828220098,2.18310546875,-0.50341796875,-1.1689453125,45.89470588235295,167.1894917808666
-0.29197314453125,-1.00670849609375,0.2331635742187499,1.07381356183337,2.03564453125,-0.5302734375,-1.01611328125,45.89470588235295,167.1894917808666
-0.27927783203125,-0.99645458984375,0.2395112304687499,1.062206894444489,1.8154296875,-0.7060546875,-0.97900390625,45.89470588235295,167.1894917808666
-0.25632861328125,-0.99303662109375,0.2307221679687499,1.0512177736378798,1.71240234375,-0.7587890625,-0.90625,46.224117647058826,167.10238862120252
-0.27390673828125,-0.99450146484375,0.2107026367187499,1.052831261870805,1.63134765625,-0.6923828125,-0.7431640625,46.03588235294118,167.10238862120252
-0.25681689453125,-0.99987255859375,0.2165620117187499,1.0547981587323516,1.53564453125,-0.60546875,-0.60498046875,46.13,167.10238862120252
-0.24900439453125,-0.95641552734375,0.2067963867187499,1.009702230858201,1.4443359375,-0.53125,-0.53466796875,45.94176470588236,167.10238862120252
-0.24753955078125,-0.92760693359375,0.2204682617187499,0.9850567023666555,1.39111328125,-0.5634765625,-0.5087890625,46.03588235294118,167.10238862120252
-0.23337939453125,-0.90905224609375,0.2253510742187499,0.965207249543542,1.33056640625,-0.64501953125,-0.52978515625,46.08294117647059,167.09161122362696
-0.22166064453125,-0.90514599609375,0.2448823242187499,0.9635300038365868,1.2392578125,-0.677734375,-0.4765625,46.08294117647059,167.09161122362696
-0.20994189453125,-0.92418896484375,0.2702729492187499,0.985519309246518,1.115234375,-0.57275390625,-0.4521484375,46.03588235294118,167.09161122362696
-0.18552783203125,-0.94616162109375,0.2697846679687499,1.0012123434916178,1.03076171875,-0.52001953125,-0.4521484375,45.94176470588236,167.09161122362696
-0.19578173828125,-0.93981396484375,0.2219331054687499,0.9853096370495726,1.00830078125,-0.8251953125,-0.44140625,45.94176470588236,167.08171793411054
-0.22654345703125,-0.94762646484375,0.2287690429687499,1.0008262235856784,1.16845703125,-0.6904296875,-0.509765625,45.94176470588236,167.08171793411054
-0.21873095703125,-0.95543896484375,0.2487885742187499,1.0112381528439784,1.20947265625,-0.69677734375,-0.56787109375,46.27117647058824,167.08171793411054
-0.21531298828125,-0.96666943359375,0.2712495117187499,1.026832885320062,1.15087890625,-0.6103515625,-0.58544921875,45.89470588235295,167.08171793411054
-0.19627001953125,-0.95641552734375,0.2839448242187499,1.016797543619986,1.0498046875,-0.48046875,-0.625,46.03588235294118,167.08171793411054
-0.17673876953125,-0.93932568359375,0.2761323242187499,0.9948961719660676,1.068359375,-0.38623046875,-0.38623046875,45.7535294117647,167.01616982149707
-0.16209033203125,-0.93444287109375,0.2800385742187499,0.9888773220811578,1.14453125,-0.33642578125,-0.27783203125,45.89470588235295,167.01616982149707
-0.16062548828125,-0.93248974609375,0.2834565429687499,0.9877678299111442,1.240234375,-0.31005859375,-0.14111328125,45.94176470588236,167.01616982149707
-0.18406298828125,-0.91051708984375,0.2834565429687499,0.9712199371431528,1.3359375,-0.228515625,-0.015625,45.84764705882353,167.01616982149707
-0.18650439453125,-0.90123974609375,0.2858979492187499,0.9637191533253252,1.36279296875,-0.19189453125,0.14990234375,45.89470588235295,166.92818335552525
-0.19382861328125,-0.89928662109375,0.2951752929687499,0.9661337442527994,1.3408203125,-0.14306640625,0.33984375,45.84764705882353,166.92818335552525
-0.18406298828125,-0.91002880859375,0.2937104492187499,0.973805650068772,1.3017578125,-0.216796875,0.50830078125,46.224117647058826,166.92818335552525
-0.21043017578125,-0.90123974609375,0.2985932617187499,0.9724566184474744,1.13671875,-0.42236328125,0.61962890625,46.03588235294118,166.92818335552525
-0.21433642578125,-0.90172802734375,0.2985932617187499,0.9737615081003016,0.982421875,-0.5146484375,0.68017578125,46.03588235294118,166.92818335552525
-0.21677783203125,-0.89049755859375,0.3005463867187499,0.9645240592599515,0.8203125,-0.5068359375,0.78515625,45.61235294117647,166.96228351378912
-0.23240283203125,-0.87926708984375,0.3029877929687499,0.9586048687058274,0.6435546875,-0.57470703125,0.755859375,46.224117647058826,166.96228351378912
-0.22361376953125,-0.87584912109375,0.2976166992187499,0.9516777293278084,0.5341796875,-0.47607421875,0.7490234375,45.61235294117647,166.96228351378912
-0.21482470703125,-0.87780224609375,0.2971284179687499,0.9513000235272292,0.4580078125,-0.615234375,0.7578125,45.89470588235295,166.96228351378912
-0.24412158203125,-0.88707958984375,0.2907807617187499,0.9649139842061222,0.341796875,-0.74072265625,0.76171875,46.08294117647059,166.9389606700706
-0.23630908203125,-0.90172802734375,0.3000581054687499,0.9792804931199224,0.275390625,-0.76123046875,0.7001953125,45.84764705882353,166.9389606700706
-0.24363330078125,-0.90856396484375,0.2995698242187499,0.9872121064110868,0.18310546875,-0.736328125,0.69189453125,45.94176470588236,166.9389606700706
-0.23728564453125,-0.90075146484375,0.3068940429687499,0.9807352507830424,0.10107421875,-0.70751953125,0.72607421875,45.94176470588236,166.9389606700706
-0.23435595703125,-0.89928662109375,0.2981049804687499,0.9759639956753122,0.0703125,-0.79296875,0.84375,45.94176470588236,166.9389606700706
-0.24070361328125,-0.89440380859375,0.3049409179687499,0.9751335117435348,0.0546875,-0.818359375,0.98095703125,46.03588235294118,167.3896774998768
-0.22556689453125,-0.91149365234375,0.3156831054687499,0.9906346073350228,0.02392578125,-0.919921875,0.99267578125,45.7535294117647,167.3896774998768
-0.25535205078125,-0.90514599609375,0.2995698242187499,0.9870339526405308,-0.02685546875,-1.15869140625,0.982421875,45.94176470588236,167.3896774998768
-0.26853564453125,-0.89831005859375,0.2858979492187499,0.9802091568241992,-0.001953125,-1.26513671875,0.9150390625,46.27117647058824,167.3896774998768
-0.25339892578125,-0.89440380859375,0.3034760742187499,0.9778890100810628,-0.228515625,-1.23681640625,0.86962890625,46.03588235294118,166.9613992025005
-0.24412158203125,-0.89000927734375,0.3122651367187499,0.9742799270134656,-0.32275390625,-1.1259765625,0.82421875,45.89470588235295,166.9613992025005
-0.23093798828125,-0.87438427734375,0.2883393554687499,0.949220629152926,-0.3828125,-1.47900390625,0.81103515625,46.03588235294118,166.9613992025005
-0.24412158203125,-0.87291943359375,0.2893159179687499,0.9514659136034112,-0.3212890625,-1.62646484375,0.83203125,46.27117647058824,166.9613992025005
-0.24656298828125,-0.87731396484375,0.2839448242187499,0.9545144123064132,-0.2421875,-1.82861328125,0.90185546875,45.84764705882353,166.9613992025005
-0.25339892578125,-0.87780224609375,0.2834565429687499,0.9566061940977169,-0.10595703125,-2.01171875,1.0107421875,45.84764705882353,166.95062192125775
-0.25535205078125,-0.87780224609375,0.2985932617187499,0.9617168965081484,0.00390625,-2.28173828125,0.87548828125,45.7535294117647,166.95062192125775
-0.23972705078125,-0.87487255859375,0.3049409179687499,0.957005755525156,0.05078125,-2.513671875,0.9052734375,45.89470588235295,166.95062192125775
-0.23826220703125,-0.88366162109375,0.3117768554687499,0.9668668716526688,0.0810546875,-2.88525390625,0.63623046875,46.08294117647059,166.95062192125775
-0.25730517578125,-0.88561474609375,0.3200776367187499,0.9762013754907218,-0.005859375,-3.06494140625,0.31201171875,45.89470588235295,166.8078657202987
-0.25339892578125,-0.89245068359375,0.3186127929687499,0.9809145477957756,-0.224609375,-3.1083984375,-0.00390625,46.08294117647059,166.8078657202987
-0.25828173828125,-0.88854443359375,0.3220307617187499,0.9797573568456532,-0.3818359375,-3.15087890625,-0.48583984375,46.03588235294118,166.8078657202987
-0.25095751953125,-0.87975537109375,0.3132416992187499,0.9669899439534152,-0.51513671875,-2.8466796875,-0.77099609375,45.89470588235295,166.8078657202987
-0.23142626953125,-0.88707958984375,0.3342377929687499,0.9757987595785964,-0.54833984375,-2.59033203125,-0.88671875,46.08294117647059,166.8078657202987
-0.22507861328125,-0.87682568359375,0.3142182617187499,0.9582362848294832,-0.5810546875,-2.240234375,-0.8583984375,45.94176470588236,166.73065797454194
-0.20359423828125,-0.88219677734375,0.3151948242187499,0.9586811487826956,-0.60400390625,-1.8828125,-0.7568359375,45.84764705882353,166.73065797454194
-0.21287158203125,-0.89391552734375,0.3269135742187499,0.9753316182054286,-0.697265625,-1.60009765625,-0.99755859375,45.94176470588236,166.73065797454194
-0.21189501953125,-0.89782177734375,0.3347260742187499,0.9813383656704424,-0.77880859375,-1.3203125,-0.99267578125,46.03588235294118,166.73065797454194
-0.20652392578125,-0.89782177734375,0.3283784179687499,0.9780431796093916,-0.77587890625,-1.13671875,-1.06884765625,46.224117647058826,167.26847103382042
-0.23435595703125,-0.90075146484375,0.3151948242187499,0.98266153543755,-0.76025390625,-0.9853515625,-0.8779296875,46.03588235294118,167.26847103382042
-0.24265673828125,-0.90807568359375,0.3234956054687499,0.9940488652602268,-0.77685546875,-0.54150390625,-1.02392578125,45.84764705882353,167.26847103382042
-0.19822314453125,-0.91051708984375,0.3137299804687499,0.983239689277396,-0.74267578125,-0.6181640625,-0.91552734375,45.89470588235295,167.26847103382042
-0.21189501953125,-0.91979443359375,0.3127534179687499,0.9943520502434396,-0.755859375,-0.5703125,-0.86572265625,46.03588235294118,167.26847103382042
-0.21384814453125,-0.91442333984375,0.3039643554687499,0.9870640317456558,-0.6650390625,-0.49365234375,-0.73583984375,46.03588235294118,166.95963192619922
-0.21335986328125,-0.91442333984375,0.2912690429687499,0.9831226429608482,-0.53173828125,-0.37841796875,-0.669921875,46.08294117647059,166.95963192619922
-0.20701220703125,-0.90465771484375,0.2995698242187499,0.9751931677717588,-0.4423828125,-0.27978515625,-0.65087890625,46.03588235294118,166.95963192619922
-0.21824267578125,-0.91344677734375,0.3034760742187499,0.9869714323095002,-0.5068359375,-0.0068359375,-0.85546875,45.7535294117647,166.95963192619922
-0.20554736328125,-0.90661083984375,0.3054291992187499,0.9785090337904248,-0.5322265625,0.115234375,-0.96923828125,46.08294117647059,167.1490359657069
-0.20017626953125,-0.89098583984375,0.2985932617187499,0.960772731518418,-0.47119140625,0.06494140625,-0.84814453125,45.84764705882353,167.1490359657069
-0.18503955078125,-0.88756787109375,0.2761323242187499,0.9477686540657836,-0.2880859375,-0.1064453125,-0.48291015625,46.03588235294118,167.1490359657069
-0.20066455078125,-0.87682568359375,0.2902924804687499,0.945176843541243,-0.19775390625,-0.15087890625,-0.43701171875,45.7535294117647,167.1490359657069
-0.20359423828125,-0.88170849609375,0.2971284179687499,0.9524420101559132,-0.16455078125,-0.01318359375,-0.57275390625,45.89470588235295,167.1490359657069
-0.19187548828125,-0.88170849609375,0.2912690429687499,0.9481897122828332,-0.17333984375,0.09619140625,-0.626953125,45.89470588235295,166.83030399688397
-0.17332080078125,-0.88512646484375,0.2868745117187499,0.9464596896984674,-0.20263671875,0.119140625,-0.416015625,45.70647058823529,166.83030399688397
-0.17283251953125,-0.88903271484375,0.2961518554687499,0.9528673409071968,-0.12646484375,0.2392578125,-0.455078125,45.94176470588236,166.83030399688397
-0.17527392578125,-0.88219677734375,0.3166596679687499,0.9535541140032632,-0.3642578125,0.39404296875,-0.484375,46.03588235294118,166.83030399688397
-0.14793017578125,-0.87536083984375,0.2844331054687499,0.9322242907826548,-0.44873046875,0.3564453125,-0.43603515625,45.7535294117647,166.98383799606307
-0.16697314453125,-0.88463818359375,0.2561127929687499,0.9359799728567684,-0.41845703125,0.16357421875,-0.36669921875,46.03588235294118,166.98383799606307
-0.17087939453125,-0.90172802734375,0.2673432617187499,0.955921347370712,-0.42919921875,0.1923828125,-0.20068359375,46.08294117647059,166.98383799606307
-0.17185595703125,-0.90612255859375,0.2756440429687499,0.9625862037156822,-0.4970703125,0.2822265625,-0.13330078125,45.89470588235295,166.98383799606307
-0.16062548828125,-0.91735302734375,0.2751557617187499,0.9711064913125432,-0.57080078125,0.3740234375,-0.11767578125,45.89470588235295,166.98383799606307
-0.16111376953125,-0.92028271484375,0.2697846679687499,0.9724513813264704,-0.60595703125,0.39111328125,-0.15380859375,46.03588235294118,167.09161122362696
-0.16306689453125,-0.92370068359375,0.2736909179687499,0.9770979907574284,-0.6025390625,0.4794921875,-0.3134765625,46.03588235294118,167.09161122362696
-0.16209033203125,-0.92614208984375,0.2898041992187499,0.9838693613498544,-0.61279296875,0.501953125,-0.58447265625,46.08294117647059,167.09161122362696
-0.15964892578125,-0.93151318359375,0.2849213867187499,0.9871093086998044,-0.63671875,0.4609375,-0.7763671875,45.89470588235295,167.09161122362696
-0.15964892578125,-0.93151318359375,0.2810151367187499,0.9859888933335548,-0.65283203125,0.39306640625,-0.7158203125,45.7535294117647,166.9631682738462
-0.16648486328125,-0.91832958984375,0.2824799804687499,0.975110960173247,-0.64306640625,0.36474609375,-0.646484375,45.89470588235295,166.9631682738462
-0.17039111328125,-0.90563427734375,0.2868745117187499,0.9651443214665004,-0.6328125,0.34033203125,-0.48779296875,46.08294117647059,166.9631682738462
-0.16941455078125,-0.88659130859375,0.2878510742187499,0.9474194843992176,-0.63818359375,0.37939453125,-0.29052734375,45.94176470588236,166.9631682738462
-0.15232470703125,-0.90270458984375,0.2805268554687499,0.9574830074399828,-0.60693359375,0.41015625,-0.044921875,46.03588235294118,166.9631682738462
-0.16648486328125,-0.94079052734375,0.2932221679687499,0.9993914477469784,-0.50390625,0.13525390625,0.1826171875,46.64764705882353,167.18313881582412
-0.19871142578125,-0.99254833984375,0.3073823242187499,1.0578857834873867,-0.544921875,-0.20068359375,0.263671875,45.89470588235295,167.18313881582412
-0.21140673828125,-0.99694287109375,0.3020112304687499,1.062919884349058,-0.5810546875,-0.5302734375,0.150390625,45.61235294117647,167.18313881582412
-0.23191455078125,-0.98961865234375,0.2937104492187499,1.0580147749020374,-0.61376953125,-0.76318359375,-0.06005859375,45.7535294117647,167.18313881582412
-0.25242236328125,-0.96520458984375,0.2844331054687499,1.0374194625254194,-0.62939453125,-0.76171875,-0.0458984375,46.13,167.171475831864
-0.24607470703125,-0.94127880859375,0.2683198242187499,1.0092344053870568,-0.5283203125,-0.642578125,-0.0205078125,46.08294117647059,167.171475831864
-0.23191455078125,-0.91784130859375,0.2507416992187499,0.9793306011517574,-0.34619140625,-0.5947265625,-0.0615234375,45.70647058823529,167.171475831864
-0.22654345703125,-0.90514599609375,0.2487885742187499,0.9656640030725052,-0.1533203125,-0.513671875,-0.009765625,46.08294117647059,167.171475831864
-0.22752001953125,-0.91247021484375,0.2707612304687499,0.9786106969522922,-0.0205078125,-0.38037109375,0.072265625,46.03588235294118,167.171475831864
-0.21091845703125,-0.91832958984375,0.2732026367187499,0.981048169973886,0.015625,-0.2548828125,0.2158203125,46.03588235294118,166.83030399688397
-0.19480517578125,-0.91344677734375,0.2805268554687499,0.9752073565093892,0.0693359375,-0.2607421875,0.3369140625,45.7535294117647,166.83030399688397
-0.18894580078125,-0.91002880859375,0.2800385742187499,0.9707082729398664,0.07421875,-0.29150390625,0.4833984375,46.08294117647059,166.83030399688397
-0.17576220703125,-0.90905224609375,0.2702729492187499,0.9645288003102804,0.03857421875,-0.3349609375,0.52734375,45.89470588235295,166.83030399688397
-0.15574267578125,-0.89391552734375,0.2551362304687499,0.9425684310348832,0.01708984375,-0.37646484375,0.451171875,46.08294117647059,167.0502707700901
-0.14500048828125,-0.89635693359375,0.2395112304687499,0.9390668365585304,-0.01171875,-0.7197265625,0.4140625,45.7535294117647,167.0502707700901
-0.14402392578125,-0.89440380859375,0.2116791992187499,0.930327440961697,-0.07421875,-0.921875,0.26025390625,45.84764705882353,167.0502707700901
-0.13425830078125,-0.89440380859375,0.2028901367187499,0.9269022989147384,-0.11572265625,-1.15625,0.005859375,45.89470588235295,167.0502707700901
-0.15183642578125,-0.90612255859375,0.2028901367187499,0.9408914915994628,-0.1748046875,-1.390625,0.0048828125,45.94176470588236,167.0502707700901
-0.15623095703125,-0.91735302734375,0.2087495117187499,0.9536881289784728,-0.27734375,-1.482421875,0.0537109375,46.03588235294118,166.95239111361929
-0.14109423828125,-0.92467724609375,0.2238862304687499,0.9618007266129476,-0.314453125,-1.4326171875,-0.01171875,46.03588235294118,166.95239111361929
-0.13572314453125,-0.92125927734375,0.2263276367187499,0.9583129067251852,-0.31494140625,-1.3095703125,-0.05810546875,45.89470588235295,166.95239111361929
-0.13865283203125,-0.91442333984375,0.2199799804687499,0.9506765191632304,-0.263671875,-1.1513671875,-0.06982421875,45.70647058823529,166.95239111361929
-0.13718798828125,-0.91539990234375,0.2165620117187499,0.9506190773697294,-0.21923828125,-0.935546875,-0.22998046875,45.89470588235295,166.70998685112198
-0.14744189453125,-0.91686474609375,0.2204682617187499,0.9544560384416916,-0.14404296875,-0.68994140625,-0.14501953125,45.89470588235295,166.70998685112198
-0.16160205078125,-0.92516552734375,0.2326752929687499,0.9675661567872444,-0.0869140625,-0.45849609375,-0.0185546875,46.224117647058826,166.70998685112198
-0.16941455078125,-0.93541943359375,0.2360932617187499,0.9795156124280322,-0.05322265625,-0.25634765625,0.03955078125,46.08294117647059,166.70998685112198
-0.16941455078125,-0.94762646484375,0.2429291992187499,0.9928301983328968,-0.1005859375,-0.14501953125,-0.1240234375,46.03588235294118,166.70998685112198
-0.19480517578125,-0.95592724609375,0.2771088867187499,1.0141672896687457,-0.11572265625,-0.095703125,-0.2529296875,45.89470588235295,167.18225302211243
-0.19822314453125,-0.95690380859375,0.2868745117187499,1.018456822552116,-0.1396484375,-0.09814453125,-0.4638671875,45.94176470588236,167.18225302211243
-0.20066455078125,-0.95592724609375,0.2854096679687499,1.0176059356817126,-0.146484375,-0.14013671875,-0.634765625,45.7535294117647,167.18225302211243
-0.20652392578125,-0.94420849609375,0.2863862304687499,1.0080669070145198,-0.08935546875,-0.16552734375,-0.67431640625,46.03588235294118,167.18225302211243
-0.20505908203125,-0.92077099609375,0.2751557617187499,0.9826388693604589,-0.076171875,-0.22314453125,-0.6220703125,45.61235294117647,167.11670437666726
-0.18845751953125,-0.90709912109375,0.2649018554687499,0.9635964119836228,-0.06103515625,-0.2861328125,-0.5693359375,45.94176470588236,167.11670437666726
-0.16843798828125,-0.89440380859375,0.2819916992187499,0.9528110238402564,-0.025390625,-0.37451171875,-0.6669921875,46.03588235294118,167.11670437666726
-0.16209033203125,-0.88805615234375,0.2785737304687499,0.944732940444474,-0.04833984375,-0.455078125,-0.7099609375,45.89470588235295,167.11670437666726
-0.15818408203125,-0.89049755859375,0.2634370117187499,0.9420229109808336,-0.01123046875,-0.54541015625,-0.6611328125,46.03588235294118,167.11670437666726
-0.14695361328125,-0.89440380859375,0.2468354492187499,0.9394047457163728,0.03857421875,-0.63818359375,-0.47802734375,45.89470588235295,167.0628186670041
-0.13718798828125,-0.90368115234375,0.2512299804687499,0.9479328416698688,0.05712890625,-0.70849609375,-0.35107421875,46.03588235294118,167.0628186670041
-0.14255908203125,-0.91979443359375,0.2453706054687499,0.962575517020738,0.12060546875,-0.79833984375,-0.3134765625,45.84764705882353,167.0628186670041
-0.13328173828125,-0.92711865234375,0.2517182617187499,0.9698840655282835,0.11669921875,-0.80615234375,-0.240234375,45.61235294117647,167.0628186670041
-0.12937548828125,-0.93200146484375,0.2590424804687499,0.9759445445958036,0.162109375,-0.80615234375,-0.298828125,45.7535294117647,166.95150629306164
-0.13718798828125,-0.93981396484375,0.2575776367187499,0.9840818419123492,0.2392578125,-0.80078125,-0.3447265625,46.03588235294118,166.95150629306164
-0.14353564453125,-0.95250927734375,0.2619721679687499,0.9982513819009524,0.2880859375,-0.78759765625,-0.34228515625,45.94176470588236,166.95150629306164
-0.14890673828125,-0.95446240234375,0.2512299804687499,0.9981423732512772,0.3232421875,-0.740234375,-0.37646484375,45.84764705882353,166.95150629306164
-0.14402392578125,-0.95446240234375,0.2502534179687499,0.997180095013076,0.35205078125,-0.67529296875,-0.40380859375,45.89470588235295,166.95150629306164
-0.14207080078125,-0.94664990234375,0.2424409179687499,0.9874754420984792,0.341796875,-0.662109375,-0.4443359375,45.94176470588236,167.1508074674093
-0.14304736328125,-0.94323193359375,0.2473237304687499,0.985554694750982,0.34521484375,-0.65966796875,-0.49755859375,46.03588235294118,167.1508074674093
-0.13767626953125,-0.94274365234375,0.2443940429687499,0.9835897505896888,0.35205078125,-0.6728515625,-0.548828125,46.08294117647059,167.1508074674093
-0.15867236328125,-0.94567333984375,0.2609956054687499,0.9937774854737296,0.38525390625,-0.7412109375,-0.54296875,46.03588235294118,167.1508074674093
-0.16648486328125,-0.94176708984375,0.2688081054687499,0.9934285373293044,0.39306640625,-0.7529296875,-0.482421875,45.84764705882353,167.0960358809993
-0.17820361328125,-0.93786083984375,0.2746674804687499,0.9933688678058964,0.38916015625,-0.748046875,-0.3818359375,45.94176470588236,167.0960358809993
-0.16306689453125,-0.93541943359375,0.2771088867187499,0.9891358167286344,0.3837890625,-0.50048828125,-0.439453125,46.03588235294118,167.0960358809993
-0.15232470703125,-0.93834912109375,0.2844331054687499,0.992272180863782,0.326171875,-0.458984375,-0.57080078125,45.84764705882353,167.0960358809993
-0.14500048828125,-0.92907177734375,0.2790620117187499,0.9808542783935804,0.2294921875,-0.4853515625,-0.673828125,46.08294117647059,167.0960358809993
-0.13914111328125,-0.92516552734375,0.2868745117187499,0.978564503680905,0.14501953125,-0.4873046875,-0.70751953125,45.7535294117647,166.84373483390505
-0.12791064453125,-0.91539990234375,0.2951752929687499,0.970281695063106,0.1044921875,-0.505859375,-0.7646484375,46.03588235294118,166.84373483390505
-0.12742236328125,-0.91735302734375,0.3010346679687499,0.9738556909316582,0.08935546875,-0.552734375,-0.78857421875,45.89470588235295,166.84373483390505
-0.13084033203125,-0.91930615234375,0.3068940429687499,0.977970831790408,0.06494140625,-0.5927734375,-0.73583984375,45.7535294117647,166.84373483390505
-0.11960986328125,-0.92467724609375,0.3181245117187499,0.9851587353284617,-0.02880859375,-0.51513671875,-0.81884765625,45.89470588235295,166.91917471248294
-0.11619189453125,-0.91881787109375,0.3264252929687499,0.981977753559492,-0.099609375,-0.49462890625,-0.92529296875,45.7535294117647,166.91917471248294
-0.11277392578125,-0.91832958984375,0.3088471679687499,0.9754146641716138,-0.17431640625,-0.57373046875,-1.1376953125,45.84764705882353,166.91917471248294
-0.10154345703125,-0.92907177734375,0.3132416992187499,0.9857006661517388,-0.27734375,-0.56298828125,-1.31884765625,45.89470588235295,166.91917471248294
-0.10105517578125,-0.93541943359375,0.2990815429687499,0.9872544933509292,-0.38427734375,-0.623046875,-1.38671875,45.89470588235295,166.91917471248294
-0.08982470703125,-0.93786083984375,0.3024995117187499,0.9895238185590868,-0.494140625,-0.59375,-1.451171875,45.84764705882353,167.10592720753178
-0.07664111328125,-0.94420849609375,0.3186127929687499,0.9994586815791626,-0.64892578125,-0.5478515625,-1.505859375,46.03588235294118,167.10592720753178
-0.06882861328125,-0.93883740234375,0.3024995117187499,0.9887664034724596,-0.73974609375,-0.5458984375,-1.51220703125,46.08294117647059,167.10592720753178
-0.06248095703125,-0.94567333984375,0.3137299804687499,0.9983127948332104,-0.7998046875,-0.63623046875,-1.52734375,46.03588235294118,167.10592720753178
-0.07273486328125,-0.95543896484375,0.3161713867187499,1.0090184942100398,-0.8134765625,-0.689453125,-1.52587890625,45.94176470588236,167.33667759290276
-0.08445361328125,-0.96032177734375,0.3191010742187499,1.0154682783841542,-0.8525390625,-0.72900390625,-1.4833984375,45.84764705882353,167.33667759290276
-0.09177783203125,-0.95153271484375,0.3249604492187499,1.009671714680928,-0.84619140625,-0.6767578125,-1.45458984375,46.224117647058826,167.33667759290276
-0.06345751953125,-0.94469677734375,0.3210541992187499,0.9997773035755104,-0.86181640625,-0.6025390625,-1.41015625,45.89470588235295,167.33667759290276
-0.05662158203125,-0.93200146484375,0.3264252929687499,0.9891340687249386,-0.8564453125,-0.587890625,-1.33251953125,45.7535294117647,167.33667759290276
-0.06199267578125,-0.92614208984375,0.3088471679687499,0.9782478395544684,-0.8056640625,-0.53759765625,-1.240234375,45.94176470588236,166.95327638295032
-0.06394580078125,-0.92467724609375,0.2990815429687499,0.9739439635962868,-0.7529296875,-0.48876953125,-1.12158203125,45.84764705882353,166.95327638295032
-0.05808642578125,-0.94372021484375,0.2849213867187499,0.9875029485396536,-0.6806640625,-0.41845703125,-0.9677734375,45.7535294117647,166.95327638295032
-0.04929736328125,-0.95983349609375,0.2805268554687499,1.001202220777211,-0.75,-0.3603515625,-0.91796875,46.08294117647059,166.95327638295032
-0.04978564453125,-0.94762646484375,0.2985932617187499,0.9948027257790848,-0.76708984375,-0.36181640625,-0.88232421875,45.89470588235295,166.9407290859258
-0.07078173828125,-0.94372021484375,0.2839448242187499,0.9880498780828152,-0.740234375,-0.5009765625,-0.419921875,45.89470588235295,166.9407290859258
-0.07078173828125,-0.96471630859375,0.2683198242187499,1.0038342186883489,-0.72802734375,-0.78466796875,0.0537109375,46.03588235294118,166.9407290859258
-0.01902392578125,-0.97887646484375,0.2805268554687499,1.0184578340885364,-0.82470703125,-1.10009765625,0.09716796875,45.7535294117647,166.9407290859258
-0.02048876953125,-0.98668896484375,0.2736909179687499,1.0241492184246943,-0.92724609375,-1.38134765625,0.046875,46.08294117647059,166.9407290859258
-0.03855517578125,-0.95543896484375,0.2722260742187499,0.994211824816911,-0.91259765625,-1.517578125,0.07275390625,45.94176470588236,167.2711283090561
-0.03513720703125,-0.96520458984375,0.2453706054687499,0.9965245895618932,-0.93310546875,-1.734375,0.15771484375,45.94176470588236,167.2711283090561
-0.06785205078125,-0.97497021484375,0.2316987304687499,1.0044178026740267,-0.90185546875,-2.01416015625,0.52734375,46.224117647058826,167.2711283090561
-0.07127001953125,-1.00866162109375,0.2253510742187499,1.0359830057500947,-0.97119140625,-2.2158203125,0.89111328125,46.03588235294118,167.2711283090561
-0.05906298828125,-1.02038037109375,0.2331635742187499,1.0483462169725193,-1.1376953125,-2.2890625,0.88232421875,46.08294117647059,167.26123790797186
-0.06101611328125,-1.02184521484375,0.2356049804687499,1.0504286344158271,-1.275390625,-2.46875,0.81494140625,45.89470588235295,167.26123790797186
-0.08396533203125,-1.00231396484375,0.2585541992187499,1.0385247878782504,-1.37841796875,-2.42919921875,0.55810546875,45.89470588235295,167.26123790797186
-0.08201220703125,-0.96959912109375,0.2805268554687499,1.0126913519760568,-1.4306640625,-2.40576171875,0.28125,46.17705882352941,167.26123790797186
-0.07175830078125,-0.97204052734375,0.2473237304687499,1.005574993813344,-1.55078125,-2.30078125,0.05810546875,46.03588235294118,167.26123790797186
-0.07859423828125,-0.95446240234375,0.2263276367187499,0.9840730312946832,-1.67578125,-2.25,-0.08740234375,45.84764705882353,167.29445610361154
-0.08689501953125,-0.96862255859375,0.1784760742187499,0.9887538189582764,-1.94873046875,-2.36669921875,-0.1494140625,46.08294117647059,167.29445610361154
-0.09421923828125,-0.93932568359375,0.1921479492187499,0.9633954738891688,-2.0244140625,-2.150390625,-0.10107421875,45.94176470588236,167.29445610361154
-0.06931689453125,-0.95836865234375,0.2243745117187499,0.9867214536897732,-1.95068359375,-2.083984375,-0.16015625,46.03588235294118,167.29445610361154
-0.05027392578125,-0.99254833984375,0.2463471679687499,1.0238977496343404,-2.0185546875,-2.189453125,-0.19091796875,46.03588235294118,166.93260806343687
-0.06296923828125,-0.96715771484375,0.2483002929687499,1.000505974914629,-1.83837890625,-2.35888671875,-0.326171875,46.03588235294118,166.93260806343687
-0.07029345703125,-0.95934521484375,0.2204682617187499,0.9868589898107492,-1.98583984375,-2.42138671875,-0.61376953125,45.84764705882353,166.93260806343687
-0.11570361328125,-0.96911083984375,0.1975190429687499,0.995779553096109,-2.12548828125,-2.19140625,-0.78173828125,45.89470588235295,166.93260806343687
-0.08884814453125,-0.95885693359375,0.1755463867187499,0.978834585503324,-2.048828125,-2.07373046875,-0.8759765625,46.03588235294118,166.93260806343687
-0.05369189453125,-0.97252880859375,0.2248627929687499,0.9996291205966544,-2.59228515625,-1.880859375,-0.91015625,46.03588235294118,167.2827920356494
-0.02000048828125,-0.91930615234375,0.2219331054687499,0.9459271243449792,-2.244140625,-2.3291015625,-0.75048828125,46.08294117647059,167.2827920356494
-0.02634814453125,-0.91637646484375,0.2321870117187499,0.9457012522200924,-2.2275390625,-2.3369140625,-0.8349609375,46.08294117647059,167.2827920356494
0.01173779296875,-0.95836865234375,0.1838471679687499,0.9759139463851731,-2.75146484375,-2.44287109375,-0.71923828125,46.03588235294118,167.2827920356494
0.07033154296875,-0.92370068359375,0.1276948242187499,0.9351339192544476,-2.501953125,-3.04833984375,-0.65966796875,46.224117647058826,167.0960358809993
0.06593701171875,-0.92760693359375,0.1623627929687499,0.9440148247279868,-2.943359375,-3.39892578125,-0.68212890625,46.03588235294118,167.0960358809993
0.07326123046875,-0.98571240234375,0.1540620117187499,1.0003655589227922,-2.7861328125,-3.87255859375,-0.71533203125,46.13,167.0960358809993
0.08253857421875,-0.95495068359375,0.1770112304687499,0.974718626087701,-2.7958984375,-4.1318359375,-0.759765625,45.94176470588236,167.0960358809993
0.10695263671875,-0.99206005859375,0.1613862304687499,1.0107757128775108,-3.12353515625,-4.6708984375,-0.861328125,45.84764705882353,167.0960358809993
0.08790966796875,-0.89440380859375,0.1452729492187499,0.910379323317536,-3.08056640625,-5.0859375,-0.89990234375,45.7535294117647,167.0960358809993
0.11867138671875,-0.95348583984375,0.1340424804687499,0.9701471699585108,-3.1015625,-5.619140625,-1.00244140625,45.94176470588236,167.0960358809993
0.10695263671875,-0.96422802734375,0.1179291992187498,0.977282892127294,-3.0625,-6.03759765625,-1.0791015625,46.13,167.0960358809993
0.08937451171875,-0.88463818359375,0.0774018554687498,0.8925040988404589,-2.876953125,-6.21728515625,-1.00244140625,45.84764705882353,167.0960358809993
0.10304638671875,-0.97838818359375,0.0710541992187498,0.9863623547349551,-2.89404296875,-6.119140625,-0.9482421875,45.94176470588236,167.4156659095495
0.13087841796875,-1.04039990234375,0.0334565429687498,1.0491331933335764,-3.05615234375,-6.22509765625,-0.90234375,46.27117647058824,167.4156659095495
0.07570263671875,-1.01110302734375,0.0183198242187498,1.0140985342013236,-2.64404296875,-6.19677734375,-0.84716796875,46.08294117647059,167.4156659095495
0.04542919921875,-0.92028271484375,-0.0300200195312501,0.9218922328312004,-1.869140625,-5.04736328125,-0.60400390625,46.224117647058826,167.07448173175624
-0.01072314453125,-0.91149365234375,0.0090424804687498,0.9116015744526854,-1.765625,-4.81787109375,-0.60498046875,46.03588235294118,167.07448173175624
0.02833935546875,-0.92907177734375,-0.0046293945312501,0.9295154209687888,-1.71923828125,-4.6640625,-0.59716796875,46.224117647058826,167.07448173175624
0.03371044921875,-0.91735302734375,0.0085541992187498,0.918012061733149,-1.6142578125,-4.51953125,-0.57373046875,46.08294117647059,167.07448173175624
0.01808544921875,-0.91002880859375,-0.0187895507812501,0.910402418253909,-1.50244140625,-3.93505859375,-0.48486328125,45.89470588235295,167.07448173175624
-0.0014458007812499,-0.90221630859375,-0.0119536132812501,0.902296651164632,-1.2802734375,-3.36474609375,-0.43115234375,46.224117647058826,167.07448173175624
-0.01511767578125,-0.90026318359375,-0.0187895507812501,0.9005861375093125,-1.06396484375,-2.41650390625,-0.3134765625,45.84764705882353,167.07448173175624
0.00539013671875,-0.91393505859375,-0.0226958007812501,0.914232707943503,-0.912109375,-1.728515625,-0.2666015625,46.08294117647059,167.1041570168302
0.00392529296875,-0.91735302734375,-0.0241606445312501,0.9176795309070586,-0.7314453125,-1.36962890625,-0.3134765625,45.94176470588236,167.1041570168302
-0.02830126953125,-0.91979443359375,-0.0324614257812501,0.9208020993084668,-0.6455078125,-0.6708984375,-0.30322265625,46.03588235294118,167.1041570168302
-0.0019340820312499,-0.91491162109375,-0.0314848632812501,0.9154552483336016,-0.529296875,-0.296875,-0.2109375,46.224117647058826,167.1041570168302
0.00148388671875,-0.91051708984375,-0.0280668945312501,0.9109507798920607,-0.42529296875,-0.10400390625,-0.095703125,46.08294117647059,167.02871636661095
0.00392529296875,-0.93248974609375,-0.0353911132812501,0.9331693658678274,-0.283203125,0.14599609375,0.0078125,45.94176470588236,167.02871636661095
0.00539013671875,-0.93688427734375,-0.0397856445312501,0.9377441549903336,-0.1640625,0.34716796875,0.09326171875,46.03588235294118,167.02871636661095
1.904296875000072e-05,-0.94323193359375,-0.0534575195312501,0.9447455674985056,-0.083984375,0.640625,0.14892578125,46.03588235294118,167.02871636661095
0.00685498046875,-0.94860302734375,-0.0500395507812501,0.9499466568630808,0.01220703125,0.91796875,0.2626953125,45.94176470588236,167.02871636661095
0.01955029296875,-0.96666943359375,-0.0568754882812501,0.968538501540778,0.1669921875,1.1142578125,0.27734375,46.08294117647059,166.9407290859258
0.01857373046875,-0.97643505859375,-0.0432036132812501,0.9775668566983342,0.349609375,1.33935546875,0.296875,45.94176470588236,166.9407290859258
0.02638623046875,-0.97350537109375,-0.0432036132812501,0.9748207491161056,0.5224609375,1.53564453125,0.26611328125,45.84764705882353,166.9407290859258
0.03517529296875,-0.98034130859375,-0.0256254882812501,0.9813068063660804,0.6982421875,1.66357421875,0.23974609375,46.03588235294118,166.9407290859258
0.05910107421875,-0.99596630859375,-0.0075590820312501,0.9977469441440682,0.89111328125,1.70263671875,0.23828125,45.94176470588236,166.6884324439141
0.04591748046875,-1.00475537109375,0.0017182617187498,1.0058055096178742,1.0234375,1.7578125,0.12548828125,46.03588235294118,166.6884324439141
0.02540966796875,-1.00524365234375,-0.0090239257812501,1.005605232206053,1.15283203125,1.89111328125,0.380859375,45.89470588235295,166.6884324439141
0.04249951171875,-1.01207958984375,0.0095307617187498,1.0130163572685118,1.28759765625,2.16064453125,0.525390625,46.08294117647059,166.6884324439141
0.07667919921875,-1.02233349609375,0.0144135742187498,1.025306406860826,1.45263671875,2.19921875,0.4970703125,46.03588235294118,166.6884324439141
0.08302685546875,-1.03014599609375,0.0085541992187498,1.033521846078392,1.4833984375,2.201171875,0.41015625,45.70647058823529,167.0412644783587
0.07960888671875,-1.00817333984375,0.0012299804687498,1.0113123013531744,1.47021484375,2.38818359375,0.3779296875,45.84764705882353,167.0412644783587
0.08888623046875,-0.99010693359375,0.0090424804687498,0.9941299051785888,1.453125,2.58154296875,0.41357421875,46.13,167.0412644783587
0.10353466796875,-0.98473583984375,0.0163666992187498,0.9902989299133328,1.5625,2.7294921875,0.41796875,45.94176470588236,167.0412644783587
0.10841748046875,-0.99303662109375,0.0178315429687498,0.9990966143617592,1.63671875,2.85107421875,0.3583984375,45.7535294117647,167.0412644783587
0.10499951171875,-0.99206005859375,0.0236909179687498,0.997882416376004,1.62841796875,3.07421875,0.38232421875,46.03588235294118,167.0412644783587
0.09962841796875,-0.97399365234375,0.0622651367187498,0.9810537211200406,1.63623046875,3.21923828125,0.5400390625,46.03588235294118,167.0412644783587
0.10939404296875,-1.00133740234375,0.0568940429687498,1.008900679995265,1.70556640625,3.40185546875,0.61669921875,45.94176470588236,167.0412644783587
0.10353466796875,-1.01989208984375,0.0813081054687498,1.0283532031418818,1.779296875,3.380859375,0.71533203125,46.03588235294118,167.0412644783587
0.09669873046875,-1.03454052734375,0.1047456054687498,1.0443162303899942,1.75537109375,3.66259765625,0.837890625,45.89470588235295,166.97571619305378
0.09035107421875,-1.04088818359375,0.1184174804687498,1.051491429845315,1.728515625,3.654296875,0.86962890625,45.7535294117647,166.97571619305378
0.06789013671875,-1.04870068359375,0.0993745117187498,1.0555839559282003,1.4814453125,3.666015625,0.6552734375,45.89470588235295,166.97571619305378
0.04689404296875,-1.02233349609375,0.1106049804687498,1.0293679080900653,1.35595703125,3.9541015625,0.8408203125,46.03588235294118,166.97571619305378
0.08156201171875,-1.02819287109375,0.1233002929687498,1.0387665301547784,1.2314453125,3.95654296875,1.12060546875,45.70647058823529,167.05292763692378
0.07130810546875,-1.03747021484375,0.1179291992187498,1.0465832927301366,1.10302734375,3.7587890625,1.39013671875,45.89470588235295,167.05292763692378
0.06886669921875,-1.05260693359375,0.1071870117187498,1.060289127734562,0.96240234375,3.22265625,1.59619140625,45.7535294117647,167.05292763692378
0.06789013671875,-1.09118115234375,0.1213471679687498,1.1000047786568752,0.87744140625,2.66162109375,1.62841796875,46.08294117647059,167.05292763692378
0.02101513671875,-1.08532177734375,0.1276948242187499,1.09301004774895,0.76611328125,2.3037109375,1.73095703125,45.7535294117647,167.05292763692378
-0.02634814453125,-1.07262646484375,0.1794526367187499,1.0878533939041382,0.583984375,2.24951171875,1.79248046875,46.03588235294118,167.20646580781153
-0.01365283203125,-1.05358349609375,0.1721284179687499,1.067638878711349,0.28662109375,2.0986328125,1.90380859375,46.03588235294118,167.20646580781153
0.00197216796875,-1.02721630859375,0.1945893554687499,1.0454866098373574,0.04638671875,1.6669921875,2.3115234375,45.89470588235295,167.20646580781153
-0.02097705078125,-1.00133740234375,0.1931245117187499,1.020006719104641,-0.154296875,1.11474609375,2.64501953125,46.08294117647059,167.20646580781153
-0.01462939453125,-0.99840771484375,0.1643159179687499,1.0119445168297434,-0.447265625,0.76025390625,2.82861328125,45.7535294117647,167.4147782450927
0.03566357421875,-1.02038037109375,0.1535737304687499,1.0324886841653826,-0.81396484375,-0.12646484375,3.0390625,45.84764705882353,167.4147782450927
0.00783154296875,-1.03209912109375,0.1545502929687499,1.0436358186093888,-1.30224609375,-1.140625,3.0458984375,45.70647058823529,167.4147782450927
-0.08152392578125,-1.08190380859375,0.1584565429687499,1.096480951742462,-1.85986328125,-1.673828125,3.19580078125,45.89470588235295,167.4147782450927
-0.07712939453125,-1.08922802734375,0.1394135742187499,1.1008191421520437,-2.42724609375,-1.92333984375,3.6708984375,46.224117647058826,167.4147782450927
-0.09763720703125,-1.09850537109375,0.1267182617187499,1.11009215490053,-2.84130859375,-2.36083984375,4.6396484375,45.94176470588236,166.82306625198484
-0.08005908203125,-1.17907177734375,0.1506440429687499,1.191349377985403,-3.4423828125,-2.70654296875,6.12060546875,46.13,166.82306625198484
-0.16306689453125,-1.17711865234375,0.3137299804687499,1.2290751134216955,-3.13330078125,-2.1103515625,7.732421875,45.89470588235295,166.82306625198484
-0.23972705078125,-1.36413037109375,0.4172456054687499,1.4465181034123396,-2.52880859375,2.70751953125,10.62060546875,45.84764705882353,166.82306625198484
-0.19382861328125,-1.13512646484375,0.5505463867187499,1.2763945105038148,-0.6640625,6.7626953125,11.28271484375,45.89470588235295,167.031373596502
-0.28367236328125,-1.04625927734375,0.4543549804687499,1.175400754378775,1.34033203125,9.15478515625,10.64306640625,46.03588235294118,167.031373596502
-0.03709033203125,-1.04039990234375,0.1545502929687499,1.052470162324709,2.16943359375,11.70947265625,10.6279296875,45.7535294117647,167.031373596502
-0.18064501953125,-0.80944287109375,0.2819916992187499,0.8759849902105724,2.9619140625,14.03662109375,10.63916015625,46.03588235294118,167.031373596502
-0.29734423828125,-0.85534130859375,0.2956635742187499,0.9525960840491272,4.66064453125,15.708984375,11.7294921875,45.94176470588236,167.031373596502
-0.57175830078125,-0.84606396484375,0.4397065429687499,1.1117884830528322,8.73974609375,15.99951171875,15.31103515625,45.84764705882353,167.45966188416062
0.29054638671875,-0.90026318359375,-0.4064848632812501,1.0296217493072162,4.00048828125,15.99951171875,9.71337890625,46.03588235294118,167.45966188416062
0.10597607421875,-0.58336865234375,-0.3625395507812501,0.6949711063956916,2.14013671875,13.61669921875,6.51904296875,46.03588235294118,167.45966188416062
0.12648388671875,-0.69469677734375,-0.5720122070312501,0.908735248047546,1.40869140625,7.04931640625,6.21240234375,45.84764705882353,167.45966188416062
0.12404248046875,-0.77575146484375,-0.6418364257812501,1.014460876341574,0.4189453125,0.5986328125,5.7470703125,46.03588235294118,167.1750219413631
-0.08201220703125,-0.77331005859375,-0.4997465820312501,0.924381466212041,-0.1416015625,-3.7021484375,4.75,46.03588235294118,167.1750219413631
-0.34910205078125,-0.78942333984375,-0.2653715820312501,0.903041265889607,-0.3505859375,-5.54248046875,4.9755859375,46.08294117647059,167.1750219413631
-0.46921923828125,-0.75963818359375,-0.0290434570312501,0.8933422557694081,-0.18798828125,-5.5458984375,5.19287109375,46.27117647058824,167.1750219413631
-0.49998095703125,-0.72204052734375,0.1677338867187499,0.8941242292179,0.10546875,-4.25146484375,4.6845703125,46.03588235294118,167.1750219413631
-0.51804736328125,-0.69127880859375,0.2419526367187499,0.8970956137606544,0.48583984375,-2.35986328125,4.04296875,45.89470588235295,167.28456657287612
-0.58835986328125,-0.69713818359375,0.2204682617187499,0.938496260072469,0.73828125,-0.48583984375,3.85546875,45.84764705882353,167.28456657287612
-0.57224658203125,-0.71911083984375,0.1569916992187499,0.9323266295943832,0.9814453125,0.86328125,3.59619140625,46.08294117647059,167.28456657287612
-0.52976611328125,-0.66051708984375,0.0861909179687498,0.851095667417638,1.06982421875,1.4951171875,3.71337890625,46.224117647058826,167.28456657287612
-0.48093798828125,-0.76940380859375,0.0002534179687498,0.9073497856236318,1.0458984375,0.9404296875,2.81201171875,45.94176470588236,167.22890681847116
-0.43308642578125,-0.79674755859375,-0.0129301757812501,0.9069386493952132,1.02880859375,0.7197265625,2.59130859375,45.94176470588236,167.22890681847116
-0.43748095703125,-0.81774365234375,-0.0305083007812501,0.92791434148311,1.1162109375,0.806640625,2.43896484375,46.08294117647059,167.22890681847116
-0.50681689453125,-0.81725537109375,-0.0441801757812501,0.9626638011766856,1.18798828125,0.4833984375,2.3896484375,45.84764705882353,167.22890681847116
-0.62791064453125,-0.79235302734375,-0.0417387695312501,1.0118484186568846,1.15625,-0.15869140625,2.2587890625,46.13,167.22890681847116
-0.67918017578125,-0.77965771484375,-0.0217192382812501,1.0342260820541829,1.06884765625,-0.69482421875,2.330078125,45.84764705882353,167.3070083336952
-0.66355517578125,-0.78307568359375,0.0290620117187498,1.0268191652219223,1.0859375,-0.8388671875,2.33935546875,46.03588235294118,167.3070083336952
-0.62937548828125,-0.79723583984375,0.0583588867187498,1.0174007318847786,1.0625,-0.71484375,2.474609375,45.7535294117647,167.3070083336952
-0.54685595703125,-0.81627880859375,0.0524995117187498,0.9839302464252756,0.97998046875,-0.57275390625,2.41943359375,46.224117647058826,167.3070083336952
-0.50828173828125,-0.80504833984375,0.0441987304687498,0.9531037103749184,1.0244140625,-0.88232421875,2.142578125,45.7535294117647,166.9766022388961
-0.61814501953125,-0.78161083984375,0.0012299804687498,0.996504030591194,1.150390625,-1.43701171875,2.16943359375,46.03588235294118,166.9766022388961
-0.69675830078125,-0.75280224609375,-0.0163481445312501,1.0258901565279708,1.255859375,-2.04638671875,2.34912109375,46.03588235294118,166.9766022388961
-0.70701220703125,-0.72008740234375,0.0217377929687498,1.0093882600607762,1.43896484375,-2.18115234375,2.33935546875,46.08294117647059,166.9766022388961
-0.64890673828125,-0.74840771484375,0.0383393554687498,0.991294087948785,1.41455078125,-1.8134765625,2.0087890625,45.94176470588236,166.9766022388961
-0.62302783203125,-0.78112255859375,0.0534760742187498,1.0005877380537176,1.33642578125,-1.080078125,1.7236328125,46.224117647058826,166.95327638295032
-0.61130908203125,-0.81481396484375,0.0402924804687498,1.019433212653289,1.34912109375,-0.70361328125,1.78955078125,45.94176470588236,166.95327638295032
-0.58396533203125,-0.81041943359375,-0.0065825195312501,0.9989186638181118,1.58935546875,-0.77685546875,1.63037109375,46.08294117647059,166.95327638295032
-0.58201220703125,-0.83141552734375,-0.0856840820312501,1.0184948454239768,1.5126953125,-1.41552734375,1.7607421875,46.08294117647059,166.95327638295032
-0.65037158203125,-0.74840771484375,-0.0920317382812501,0.9957746447879376,1.45556640625,-2.4287109375,1.9140625,45.84764705882353,167.1525807641954
-0.65574267578125,-0.69420849609375,-0.0700590820312501,0.95751353403728,1.7412109375,-3.18603515625,1.94482421875,46.03588235294118,167.1525807641954
-0.57175830078125,-0.69176708984375,-0.0392973632812501,0.8983281938490029,1.9833984375,-3.29638671875,1.81689453125,45.94176470588236,167.1525807641954
-0.54783251953125,-0.67321240234375,0.0026948242187498,0.8679531497742091,2.17529296875,-3.017578125,1.74658203125,46.27117647058824,167.1525807641954
-0.58640673828125,-0.67956005859375,0.0061127929687498,0.8976146735517831,2.54638671875,-2.72119140625,1.54248046875,45.84764705882353,167.1525807641954
-0.62449267578125,-0.69811474609375,-0.0148833007812501,0.936790698854398,2.87451171875,-2.64111328125,1.18359375,45.7535294117647,167.3608931193564
-0.70750048828125,-0.69518505859375,-0.0129301757812501,0.9919709653290952,2.859375,-2.818359375,1.39013671875,45.7535294117647,167.3608931193564
-0.64744189453125,-0.68786083984375,0.0451752929687498,0.9457136717207676,2.87158203125,-2.98876953125,1.384765625,45.70647058823529,167.3608931193564
-0.62937548828125,-0.68590771484375,0.0925385742187498,0.9354925367152194,3.05712890625,-2.92529296875,1.19921875,45.7535294117647,167.3608931193564
-0.58396533203125,-0.70104443359375,0.1369721679687499,0.9226267835290765,3.15478515625,-2.83740234375,0.80029296875,46.13,167.09780888533257
-0.57761767578125,-0.72204052734375,0.1633393554687499,0.9389698863897182,3.125,-3.03955078125,0.54052734375,46.03588235294118,167.09780888533257
-0.61277392578125,-0.75133740234375,0.1814057617187499,0.9863609008181432,3.20458984375,-3.53857421875,0.498046875,45.94176470588236,167.09780888533257
-0.64500048828125,-0.76793896484375,0.2204682617187499,1.026821375913858,3.05419921875,-3.748046875,0.04638671875,46.13,167.09780888533257
-0.67332080078125,-0.76354443359375,0.2649018554687499,1.051919196453554,3.0458984375,-3.7470703125,0.1533203125,46.60058823529412,167.09780888533257
-0.62742236328125,-0.76256787109375,0.2976166992187499,1.031379794073816,3.09130859375,-3.39599609375,0.33642578125,45.84764705882353,166.9433850754402
-0.64548876953125,-0.77672802734375,0.3039643554687499,1.0546831322476968,3.1904296875,-3.35205078125,0.25390625,46.13,166.9433850754402
-0.66502001953125,-0.82018505859375,0.2922456054687499,1.0956106291167376,3.04638671875,-3.2470703125,0.5244140625,45.7535294117647,166.9433850754402
-0.62839892578125,-0.85094677734375,0.2839448242187499,1.095271788642143,2.86083984375,-3.3466796875,0.75537109375,45.84764705882353,166.9433850754402
-0.57224658203125,-0.85485302734375,0.2707612304687499,1.063744091842664,2.6767578125,-3.521484375,0.56787109375,45.89470588235295,167.11936284695955
-0.59275439453125,-0.85729443359375,0.2692963867187499,1.076490623278583,2.4365234375,-3.7880859375,0.8486328125,45.84764705882353,167.11936284695955
-0.64304736328125,-0.80114208984375,0.2834565429687499,1.065685775120403,2.32421875,-4.16748046875,1.28271484375,46.27117647058824,167.11936284695955
-0.71726611328125,-0.72106396484375,0.3195893554687499,1.0660868983280447,2.26953125,-4.35205078125,1.71875,46.08294117647059,167.11936284695955
-0.67771533203125,-0.65563427734375,0.3757416992187499,1.0150547775514789,2.2451171875,-4.34716796875,1.94970703125,46.03588235294118,167.11936284695955
-0.65525439453125,-0.64586865234375,0.4377534179687499,1.0188879686089978,2.265625,-3.947265625,1.9189453125,45.84764705882353,166.82129560740378
-0.70359423828125,-0.68786083984375,0.4372651367187499,1.0767535404737654,2.35009765625,-3.28759765625,1.619140625,45.61235294117647,166.82129560740378
-0.62156298828125,-0.77575146484375,0.4216401367187499,1.0797737209714575,2.396484375,-2.7607421875,0.72900390625,46.03588235294118,166.82129560740378
-0.55906298828125,-0.83776318359375,0.3903901367187499,1.080186574392767,2.447265625,-2.64404296875,0.47900390625,46.08294117647059,166.82129560740378
-0.60496142578125,-0.85387646484375,0.3361909179687499,1.0991395167229745,2.27490234375,-2.82568359375,0.75634765625,45.61235294117647,167.06370467753683
-0.66209033203125,-0.79674755859375,0.3337495117187499,1.0883744835610838,1.99560546875,-3.24853515625,1.54736328125,45.7535294117647,167.06370467753683
-0.61521533203125,-0.70348583984375,0.3752534179687499,1.0070736613198743,1.70556640625,-3.50146484375,1.7060546875,46.08294117647059,167.06370467753683
-0.57664111328125,-0.69372021484375,0.3952729492187499,0.9848875135735992,1.62255859375,-3.5615234375,1.79248046875,46.27117647058824,167.06370467753683
-0.57224658203125,-0.73278271484375,0.4196870117187499,1.0200852148843444,1.68896484375,-3.654296875,1.6572265625,46.03588235294118,167.06370467753683
-0.64597705078125,-0.77233349609375,0.4358002929687499,1.0971359417483708,1.81298828125,-3.90966796875,1.79052734375,46.03588235294118,167.1633577457148
-0.69822314453125,-0.76891552734375,0.4519135742187499,1.1326837715411084,1.94775390625,-4.20556640625,2.2294921875,45.94176470588236,167.1633577457148
-0.66257861328125,-0.72155224609375,0.4543549804687499,1.0798548564031176,1.99462890625,-4.4482421875,2.287109375,46.03588235294118,167.1633577457148
-0.58494189453125,-0.68639599609375,0.4743745117187499,1.0189836410854405,1.87890625,-4.6240234375,2.15625,45.84764705882353,167.1633577457148
-0.60544970703125,-0.63073193359375,0.4641206054687499,0.9898485016505384,1.8330078125,-4.66552734375,2.31640625,45.94176470588236,166.87695137294958
-0.62253955078125,-0.58727490234375,0.4646088867187499,0.9738114400785288,1.83935546875,-4.837890625,2.41796875,46.03588235294118,166.87695137294958
-0.58835986328125,-0.55211865234375,0.4484956054687499,0.92312005888237,1.8212890625,-5.20751953125,2.29736328125,45.89470588235295,166.87695137294958
-0.58884814453125,-0.51696240234375,0.4406831054687499,0.8989960301361172,1.78515625,-5.53515625,2.35693359375,46.08294117647059,166.87695137294958
-0.57859423828125,-0.49889599609375,0.4304291992187499,0.8768909869708601,1.78125,-5.93701171875,2.4248046875,45.84764705882353,166.87695137294958
-0.59812548828125,-0.48766552734375,0.4392182617187499,0.8879664676767821,1.7734375,-6.1181640625,2.45166015625,45.7535294117647,167.31778526362754
-0.58933642578125,-0.48620068359375,0.4543549804687499,0.8889021182089774,1.7822265625,-6.0048828125,2.4189453125,45.84764705882353,167.31778526362754
-0.59861376953125,-0.48473583984375,0.4699799804687499,0.902323922736644,1.7666015625,-5.62841796875,2.30224609375,46.03588235294118,167.31778526362754
-0.60642626953125,-0.47155224609375,0.4709565429687499,0.9010629315085183,1.705078125,-5.53857421875,2.17529296875,46.08294117647059,167.31778526362754
-0.52244189453125,-0.46325146484375,0.4807221679687499,0.8477271115269682,1.6748046875,-5.85791015625,1.7578125,46.08294117647059,167.09780888533257
-0.52390673828125,-0.44323193359375,0.4885346679687499,0.8423769578882659,1.49365234375,-6.1279296875,1.5673828125,45.89470588235295,167.09780888533257
-0.55222705078125,-0.43151318359375,0.5217377929687499,0.8737097160050773,1.419921875,-6.513671875,1.72705078125,46.224117647058826,167.09780888533257
-0.51414111328125,-0.42858349609375,0.5627534179687499,0.8744805926523099,1.54052734375,-6.37548828125,1.595703125,46.08294117647059,167.09780888533257
-0.46189501953125,-0.42711865234375,0.5739838867187499,0.8516072184173158,1.72314453125,-5.90478515625,1.43017578125,46.224117647058826,167.09780888533257
-0.43455126953125,-0.42858349609375,0.5891206054687499,0.848281619960629,1.8017578125,-5.72119140625,1.4248046875,46.08294117647059,167.142691178341
-0.47166064453125,-0.41295849609375,0.6115815429687499,0.8758027556451754,1.80908203125,-5.99951171875,1.45068359375,46.03588235294118,167.142691178341
-0.48337939453125,-0.39635693359375,0.6413666992187499,0.8956035399282389,1.775390625,-6.12158203125,1.41455078125,46.08294117647059,167.142691178341
-0.43259814453125,-0.38268505859375,0.6657807617187499,0.8813926658405895,1.79638671875,-6.03076171875,1.06982421875,45.89470588235295,167.142691178341
-0.44480517578125,-0.37438427734375,0.6677338867187499,0.8853721110338403,1.71533203125,-5.97216796875,0.69091796875,46.03588235294118,167.1202499012606
-0.40232470703125,-0.38463818359375,0.6633393554687499,0.8659277121560305,1.64892578125,-6.11083984375,0.35009765625,45.7535294117647,167.1202499012606
-0.32224658203125,-0.39245068359375,0.6892182617187499,0.8560853993443879,1.6796875,-6.2392578125,0.22900390625,46.224117647058826,167.1202499012606
-0.32615283203125,-0.38610302734375,0.6960541992187499,0.8601992012412407,1.70654296875,-6.2353515625,0.25830078125,45.94176470588236,167.1202499012606
-0.34031298828125,-0.37829052734375,0.6897065429687499,0.8570949588492693,1.78369140625,-6.00146484375,0.33740234375,46.03588235294118,167.1202499012606
-0.31101611328125,-0.37975537109375,0.6926362304687499,0.8489346926313509,1.82763671875,-6.2197265625,0.3583984375,46.224117647058826,167.0672532073772
-0.28025439453125,-0.37194287109375,0.7058198242187499,0.8456155446015207,1.8896484375,-6.38037109375,0.30810546875,45.84764705882353,167.0672532073772
-0.28904345703125,-0.34801708984375,0.7370698242187499,0.8648317412362637,1.9189453125,-6.89501953125,0.3603515625,46.13,167.0672532073772
-0.26462939453125,-0.33727490234375,0.7629487304687499,0.8751421836049496,2.04931640625,-7.1982421875,0.27392578125,45.89470588235295,167.0672532073772
-0.27390673828125,-0.33239208984375,0.7922456054687499,0.9017552340026171,2.19921875,-7.52099609375,0.150390625,46.03588235294118,167.1741347408356
-0.29343798828125,-0.32360302734375,0.8254487304687499,0.9339113335349656,2.26708984375,-7.66162109375,0.21435546875,45.94176470588236,167.1741347408356
-0.24363330078125,-0.29967724609375,0.8713471679687499,0.9531052010156392,2.39111328125,-7.3544921875,0.2724609375,46.03588235294118,167.1741347408356
-0.16111376953125,-0.24791943359375,0.93775341796875,0.9832614938042104,2.5361328125,-6.9560546875,0.1044921875,45.61235294117647,167.1741347408356
-0.10984423828125,-0.17858349609375,0.99244091796875,1.0143455019958976,2.560546875,-6.32177734375,-0.09619140625,45.89470588235295,167.1741347408356
-0.03562548828125,-0.10534130859375,1.01441357421875,1.0204905027832356,2.66943359375,-6.044921875,-0.26513671875,46.03588235294118,167.20824029460226
0.03712841796875,-0.07116162109375,1.02662060546875,1.0297535449371251,2.7724609375,-6.33349609375,-0.423828125,45.84764705882353,167.20824029460226
-0.01804736328125,-0.09264599609375,1.01685498046875,1.021226242914718,2.88818359375,-7.2373046875,-0.30517578125,45.89470588235295,167.20824029460226
-0.09373095703125,-0.16930615234375,1.00074169921875,1.0192811261289352,3.23974609375,-8.248046875,-0.23974609375,46.03588235294118,167.20824029460226
-0.08787158203125,-0.35534130859375,1.00269482421875,1.0674201473819311,3.837890625,-8.84326171875,-0.77880859375,45.84764705882353,167.13102684196585
-0.16502001953125,-0.50377880859375,1.01343701171875,1.1437129323198467,4.17822265625,-8.87109375,-0.9609375,45.7535294117647,167.13102684196585
-0.24705126953125,-0.58532177734375,1.05982373046875,1.2356626774628046,4.4404296875,-8.64892578125,-0.396484375,46.08294117647059,167.13102684196585
-0.31931689453125,-0.57506787109375,1.09156201171875,1.2744308380311833,4.6435546875,-8.171875,0.4384765625,46.08294117647059,167.13102684196585
-0.37009814453125,-0.53307568359375,1.14136669921875,1.3129585915442736,4.83544921875,-7.42041015625,1.048828125,45.84764705882353,167.13102684196585
-0.36228564453125,-0.48571240234375,1.13257763671875,1.2844841490728445,4.853515625,-6.1171875,1.3662109375,46.08294117647059,167.07625497812114
-0.31638720703125,-0.44957958984375,1.11890576171875,1.2466646605982403,4.7451171875,-4.45947265625,1.326171875,46.224117647058826,167.07625497812114
-0.27781298828125,-0.46618115234375,1.05689404296875,1.1880782555543783,4.60693359375,-3.39990234375,0.853515625,46.08294117647059,167.07625497812114
-0.22556689453125,-0.49206005859375,0.96070263671875,1.1027026259922097,4.318359375,-2.69677734375,0.23876953125,45.7535294117647,167.07625497812114
-0.13084033203125,-0.50914990234375,0.8913666992187499,1.03483689923525,4.1181640625,-2.67041015625,-0.18408203125,46.08294117647059,167.27290206974695
-0.01072314453125,-0.46862255859375,0.8508393554687499,0.9714163355977028,3.904296875,-2.54296875,-0.49365234375,46.03588235294118,167.27290206974695
0.03517529296875,-0.41247021484375,0.7839448242187499,0.886531706589253,3.58984375,-2.36767578125,-0.4462890625,46.13,167.27290206974695
0.01564404296875,-0.31872021484375,0.7331635742187499,0.7995974849833299,3.30712890625,-2.93603515625,0.025390625,45.94176470588236,167.27290206974695
-0.01316455078125,-0.20690380859375,0.7214448242187499,0.7506431414459831,3.05419921875,-3.97412109375,0.16748046875,46.08294117647059,167.27290206974695
-0.05515673828125,-0.11315380859375,0.7658784179687499,0.7761544957593253,2.84033203125,-4.9560546875,-0.30224609375,45.94176470588236,167.3608931193564
-0.08884814453125,-0.04235302734375,0.8630463867187499,0.8686407988001233,2.6630859375,-5.2041015625,-1.00830078125,45.7535294117647,167.3608931193564
-0.09861376953125,0.0216118164062499,0.93872998046875,0.9441428506218746,2.6826171875,-4.8623046875,-1.4736328125,46.08294117647059,167.3608931193564
-0.06785205078125,0.01477587890625,0.96900341796875,0.971488472102368,2.67138671875,-4.029296875,-1.85791015625,46.03588235294118,167.3608931193564
0.00831982421875,-0.02526318359375,0.96656201171875,0.9669279034230625,2.7255859375,-3.3251953125,-2.46875,46.03588235294118,167.3608931193564
0.15138623046875,-0.09215771484375,0.95484326171875,0.9711521454594334,2.6533203125,-2.94873046875,-3.32763671875,46.03588235294118,167.07625497812114
0.21828076171875,-0.15172802734375,0.93091748046875,0.9681297643706802,2.42431640625,-2.85546875,-4.02392578125,45.84764705882353,167.07625497812114
0.23781201171875,-0.15661083984375,0.96851513671875,1.009506353683632,2.45166015625,-3.08056640625,-4.3984375,45.84764705882353,167.07625497812114
0.23878857421875,-0.13073193359375,0.97974560546875,1.0168639402958055,2.4296875,-3.49072265625,-4.7841796875,46.08294117647059,167.07625497812114
0.19874951171875,-0.10534130859375,1.01880810546875,1.043344677215305,2.40869140625,-3.5703125,-5.35986328125,46.03588235294118,167.1525807641954
0.19191357421875,-0.10973583984375,1.04126904296875,1.0644782733154703,2.30126953125,-3.4365234375,-5.86083984375,46.08294117647059,167.1525807641954
0.14406201171875,-0.12926708984375,1.04029248046875,1.0581456840421124,2.0693359375,-3.08740234375,-6.09814453125,46.08294117647059,167.1525807641954
0.16164013671875,-0.16344677734375,1.05396435546875,1.0787415100111664,1.84521484375,-2.701171875,-6.34228515625,46.03588235294118,167.1525807641954
0.14650341796875,-0.19518505859375,1.05103466796875,1.0789969100266008,1.54736328125,-2.33984375,-6.56884765625,45.70647058823529,167.1525807641954
0.09425732421875,-0.22350537109375,1.04908154296875,1.076759572919752,1.08935546875,-1.923828125,-6.3740234375,45.7535294117647,167.26390075002445
0.11720654296875,-0.27331005859375,1.04712841796875,1.0885374065970088,0.5537109375,-1.74755859375,-6.3837890625,45.94176470588236,167.26390075002445
0.21242138671875,-0.31530224609375,1.03589794921875,1.1034595203825524,0.0849609375,-1.2509765625,-6.69287109375,45.84764705882353,167.26390075002445
0.25636669921875,-0.35534130859375,1.00074169921875,1.0924629415301312,-0.4775390625,-1.0380859375,-6.76708984375,46.08294117647059,167.26390075002445
0.32374951171875,-0.36364208984375,0.97925732421875,1.09361520786798,-0.978515625,-1.11962890625,-6.6025390625,45.89470588235295,167.4381079262722
0.26417919921875,-0.33678662109375,0.94458935546875,1.0370462515782377,-1.40576171875,-1.404296875,-6.087890625,45.89470588235295,167.4381079262722
0.21095654296875,-0.23668896484375,0.98999951171875,1.039530356605085,-1.60205078125,-1.904296875,-5.34228515625,45.94176470588236,167.4381079262722
0.33009716796875,-0.13219677734375,1.03345654296875,1.0929192808464778,-1.82568359375,-2.619140625,-5.53173828125,46.08294117647059,167.4381079262722
0.39308544921875,-0.05651318359375,1.05542919921875,1.1276704770769426,-2.294921875,-2.642578125,-6.36669921875,45.84764705882353,167.4381079262722
0.39845654296875,-0.04381787109375,1.05494091796875,1.1285335452996268,-2.591796875,-2.0263671875,-6.94775390625,46.08294117647059,167.05381415674032
0.37013623046875,-0.06676708984375,1.01636669921875,1.0837250300111354,-2.90625,-1.4990234375,-7.0087890625,45.84764705882353,167.05381415674032
0.36769482421875,-0.11657177734375,0.99244091796875,1.0647663775162104,-3.2939453125,-1.12841796875,-6.986328125,46.03588235294118,167.05381415674032
0.41652294921875,-0.18737255859375,0.97486279296875,1.0765487950179895,-3.5458984375,-1.671875,-7.546875,45.94176470588236,167.05381415674032
0.44142529296875,-0.25866162109375,0.97046826171875,1.0970737306593417,-3.8505859375,-2.19775390625,-8.02197265625,46.03588235294118,167.17590959067385
0.41017529296875,-0.29381787109375,0.99292919921875,1.1137688750352344,-4.1337890625,-2.74267578125,-7.77978515625,46.08294117647059,167.17590959067385
0.38234326171875,-0.29235302734375,1.00562451171875,1.1148709884773047,-4.244140625,-3.3095703125,-7.1552734375,45.84764705882353,167.17590959067385
0.39503857421875,-0.29332958984375,1.04468701171875,1.1547591419220449,-4.23046875,-3.89404296875,-6.7412109375,46.03588235294118,167.17590959067385
0.43654248046875,-0.30993115234375,1.07349560546875,1.1995913768478217,-4.28857421875,-4.2099609375,-6.69873046875,45.84764705882353,167.17590959067385
0.40138623046875,-0.32653271484375,1.09351513671875,1.209756121747755,-4.4609375,-4.24658203125,-6.6220703125,45.94176470588236,167.3518926388151
0.32277294921875,-0.34118115234375,1.11402294921875,1.208980598209922,-4.5263671875,-4.2490234375,-6.00048828125,45.89470588235295,167.3518926388151
0.31886669921875,-0.35045849609375,1.11255810546875,1.2092488029347674,-4.4619140625,-3.72802734375,-5.845703125,46.224117647058826,167.3518926388151
0.31496044921875,-0.33776318359375,1.10376904296875,1.1964907659399686,-4.4765625,-3.49365234375,-5.80419921875,45.94176470588236,167.3518926388151
0.29884716796875,-0.30407177734375,1.08033154296875,1.1614153082826013,-4.45361328125,-3.2607421875,-5.43701171875,46.08294117647059,167.3294503556765
0.31789013671875,-0.29186474609375,1.05787060546875,1.1425101255351109,-4.44189453125,-3.4423828125,-5.15087890625,46.03588235294118,167.3294503556765
0.33937451171875,-0.27233349609375,1.02417919921875,1.1127819303041118,-4.58935546875,-3.5966796875,-5.1650390625,45.94176470588236,167.3294503556765
0.31984326171875,-0.26940380859375,1.00220654296875,1.0859539948455827,-4.8017578125,-3.47705078125,-5.24609375,45.7535294117647,167.3294503556765
0.31398388671875,-0.27428662109375,1.00025341796875,1.0836632003478786,-4.87548828125,-3.42138671875,-4.7724609375,46.03588235294118,167.3294503556765
0.30958935546875,-0.27086865234375,0.97535107421875,1.0585485883140862,-5.13916015625,-3.45458984375,-4.43359375,46.224117647058826,167.3294503556765
0.28419873046875,-0.23571240234375,0.97437451171875,1.0419860575390936,-5.28125,-3.27734375,-4.126953125,45.89470588235295,167.3294503556765
0.27638623046875,-0.22497021484375,0.97046826171875,1.0338324781912107,-5.40087890625,-2.78759765625,-4.00244140625,45.89470588235295,167.3294503556765
0.25343701171875,-0.23327099609375,0.94654248046875,1.0072677617492949,-5.556640625,-2.138671875,-4.28857421875,46.03588235294118,167.3294503556765
0.20851513671875,-0.25329052734375,0.92994091796875,0.9861159994622718,-5.59326171875,-1.82568359375,-4.0390625,45.7535294117647,167.1543558560653
0.32228466796875,-0.31530224609375,0.91724560546875,1.0220677151496491,-5.71044921875,-1.85986328125,-4.064453125,45.89470588235295,167.1543558560653
0.51613232421875,-0.37877880859375,0.90113232421875,1.1053983117840536,-6.06689453125,-1.68212890625,-4.43310546875,46.224117647058826,167.1543558560653
0.54933544921875,-0.41979443359375,0.8884370117187499,1.1257518048115247,-6.4248046875,-1.2099609375,-4.10986328125,46.08294117647059,167.1543558560653
0.48732373046875,-0.43004833984375,0.90992138671875,1.118205223958696,-6.478515625,-0.88232421875,-3.4033203125,45.61235294117647,167.1543558560653
0.41212841796875,-0.43004833984375,0.92066357421875,1.096545860597282,-6.6689453125,-1.0966796875,-2.9892578125,45.7535294117647,167.50632496771843
0.37013623046875,-0.39635693359375,0.96802685546875,1.1095835438677757,-7.06005859375,-1.46826171875,-3.18603515625,46.08294117647059,167.50632496771843
0.34376904296875,-0.29625927734375,1.02076123046875,1.1170945367084957,-7.29052734375,-1.666015625,-3.35791015625,46.03588235294118,167.50632496771843
0.35451123046875,-0.17956005859375,1.06714794921875,1.1387382371258294,-7.359375,-1.5478515625,-3.3720703125,46.08294117647059,167.50632496771843
0.36574169921875,-0.05895458984375,1.10376904296875,1.164280350442802,-7.17431640625,-0.89453125,-3.56298828125,46.03588235294118,167.18668647838024
0.40333935546875,0.03479541015625,1.11402294921875,1.1853018550664345,-6.8837890625,-0.0859375,-4.09716796875,46.08294117647059,167.18668647838024
0.43117138671875,0.08655322265625,1.10962841796875,1.1935976922904064,-6.6875,0.6875,-4.54052734375,46.08294117647059,167.18668647838024
0.44923779296875,0.10364306640625,1.10962841796875,1.201595483434153,-6.22900390625,1.32470703125,-4.896484375,45.94176470588236,167.18668647838024
0.44337841796875,0.07434619140625,1.04615185546875,1.1386595111787348,-5.603515625,1.634765625,-5.27392578125,45.94176470588236,167.18668647838024
0.42042919921875,0.0030571289062499,1.09839794921875,1.1761156883745854,-4.85546875,1.990234375,-5.51025390625,45.94176470588236,167.69220049689528
0.41603466796875,-0.11901318359375,0.8889252929687499,0.988654216245784,-4.087890625,1.9736328125,-5.69873046875,46.97705882352941,167.69220049689528
0.36867138671875,-0.25475537109375,0.8264252929687499,0.9401051299427764,-3.39892578125,1.96875,-5.634765625,45.70647058823529,167.69220049689528
0.29542919921875,-0.39049755859375,0.7678315429687499,0.910676689828219,-2.6767578125,2.10498046875,-5.658203125,45.84764705882353,167.69220049689528
0.20412060546875,-0.50866162109375,0.7004487304687499,0.8893988364990896,-2.166015625,2.10205078125,-5.759765625,45.7535294117647,167.4165540227895
0.17384716796875,-0.55260693359375,0.6516206054687499,0.8718983165129419,-1.95166015625,2.3125,-5.630859375,46.224117647058826,167.4165540227895
0.18556591796875,-0.54430615234375,0.6242768554687499,0.8487788225826519,-1.6572265625,3.08837890625,-4.83251953125,46.224117647058826,167.4165540227895
0.26369091796875,-0.51110302734375,0.5979096679687499,0.829611460763199,-1.20947265625,3.90478515625,-3.44775390625,45.89470588235295,167.4165540227895
0.35499951171875,-0.44372021484375,0.5632416992187499,0.8000959280738524,-0.8486328125,4.2607421875,-2.3779296875,46.08294117647059,167.4165540227895
0.40480419921875,-0.40514599609375,0.5236909179687499,0.776055343012908,-0.48583984375,4.01904296875,-1.6943359375,45.94176470588236,167.25401246019203
0.44240185546875,-0.40172802734375,0.5212495117187499,0.7929728010106832,0.0869140625,3.37158203125,-1.14306640625,45.7535294117647,167.25401246019203
0.48390576171875,-0.40563427734375,0.5090424804687499,0.8110660886158215,0.76025390625,2.2353515625,-0.984375,46.03588235294118,167.25401246019203
0.54689404296875,-0.42028271484375,0.4924409179687499,0.8474837534260128,1.5927734375,1.34619140625,-0.9765625,45.94176470588236,167.25401246019203
0.57326123046875,-0.44909130859375,0.5144135742187499,0.8915900219010424,2.24853515625,0.7099609375,-0.9912109375,46.08294117647059,167.3078966032361
0.55568310546875,-0.47252880859375,0.5466401367187499,0.9115276340991076,2.87451171875,0.24267578125,-0.85693359375,46.224117647058826,167.3078966032361
0.51173779296875,-0.49303662109375,0.6052338867187499,0.9334177714853912,3.38525390625,-0.1767578125,-0.5048828125,46.03588235294118,167.3078966032361
0.50343701171875,-0.51207958984375,0.6838471679687499,0.9916255746206466,3.7822265625,-0.21142578125,-0.2822265625,46.03588235294118,167.3078966032361
0.51076123046875,-0.52526318359375,0.7653901367187499,1.0595284366053324,4.17578125,0.04736328125,-0.1904296875,46.08294117647059,167.3078966032361
0.53126904296875,-0.53014599609375,0.8405854492187499,1.1268919516215623,4.51171875,0.31298828125,-0.10009765625,45.7535294117647,167.1552440751653
0.53664013671875,-0.52233349609375,0.94507763671875,1.2058136907934558,4.84521484375,0.32568359375,0.07080078125,45.7535294117647,167.1552440751653
0.54152294921875,-0.48913037109375,1.02076123046875,1.254770542404052,5.08447265625,0.09716796875,0.18212890625,46.224117647058826,167.1552440751653
0.56691357421875,-0.43932568359375,1.08716748046875,1.3024327957662016,5.11474609375,-0.052734375,0.0166015625,46.03588235294118,167.1552440751653
0.60988232421875,-0.42321240234375,1.17359326171875,1.3886635052609713,5.01318359375,0.33447265625,-0.04345703125,45.7535294117647,167.46143897292708
0.65773388671875,-0.41100537109375,1.26197216796875,1.481253872073863,5.16259765625,1.24169921875,0.1064453125,46.03588235294118,167.46143897292708
0.70070263671875,-0.41979443359375,1.30249951171875,1.5374383010737336,5.2685546875,2.14599609375,0.01123046875,46.13,167.46143897292708
0.72755810546875,-0.41930615234375,1.33765576171875,1.579392726045668,5.37255859375,3.0546875,-0.3974609375,45.89470588235295,167.46143897292708
0.76417919921875,-0.42223583984375,1.36353466796875,1.6190984354633342,5.7216796875,3.45947265625,-0.6484375,46.08294117647059,167.46143897292708
0.86476513671875,-0.43297802734375,1.34839794921875,1.659357027075251,6.03125,3.6201171875,-0.89501953125,46.506470588235295,167.24145885599498
0.98292919921875,-0.41832958984375,1.32886669921875,1.7050032729318116,6.17626953125,3.2041015625,-1.59375,46.08294117647059,167.24145885599498
1.00001904296875,-0.38122021484375,1.33374951171875,1.7100452328858595,6.30029296875,2.9375,-2.26953125,46.224117647058826,167.24145885599498
1.01613232421875,-0.35534130859375,1.47290966796875,1.82435063403698,6.49560546875,2.86474609375,-2.5712890625,45.84764705882353,167.24145885599498
1.05177685546875,-0.34606396484375,1.33326123046875,1.733084051664591,6.822265625,3.14453125,-3.05419921875,46.03588235294118,167.33033895297984
1.08107373046875,-0.34801708984375,1.29029248046875,1.7189214614656283,6.6953125,3.48681640625,-4.04052734375,45.84764705882353,167.33033895297984
0.98048779296875,-0.33043896484375,1.24488232421875,1.6187273466523064,6.31640625,3.83984375,-4.92529296875,46.03588235294118,167.33033895297984
0.74464794921875,-0.30407177734375,1.19507763671875,1.4405453036395457,5.8515625,4.14990234375,-5.01806640625,45.84764705882353,167.33033895297984
0.55421826171875,-0.27379833984375,1.13990185546875,1.296726514198289,5.50634765625,4.35302734375,-4.48828125,45.7535294117647,167.33033895297984
0.50490185546875,-0.26061474609375,1.04908154296875,1.1930708333267517,5.1337890625,4.29052734375,-4.35986328125,45.94176470588236,167.59431906930678
0.53712841796875,-0.22887646484375,0.96265576171875,1.125876320525168,4.60791015625,4.46240234375,-4.8427734375,45.94176470588236,167.59431906930678
0.70949169921875,-0.18053662109375,0.90406201171875,1.163314258422551,4.11962890625,4.73046875,-5.3876953125,46.08294117647059,167.59431906930678
0.94337841796875,-0.11998974609375,0.8278901367187499,1.2608578258999128,3.337890625,4.59228515625,-5.9404296875,45.7535294117647,167.59431906930678
1.04054638671875,-0.03942333984375,0.7858979492187499,1.3045790774131398,2.7333984375,3.7978515625,-5.73291015625,45.7535294117647,167.42999781861857
0.90040966796875,0.07825244140625,0.7815034179687499,1.1948257643081153,2.37060546875,2.27685546875,-4.44091796875,46.08294117647059,167.42999781861857
0.64552685546875,0.18713916015625,0.8254487304687499,1.0644677510511202,1.89306640625,0.5947265625,-2.6826171875,46.03588235294118,167.42999781861857
0.45460888671875,0.30383837890625,0.94703076171875,1.0935512169174495,1.9013671875,-0.6064453125,-1.52734375,45.84764705882353,167.42999781861857
0.39503857421875,0.36829150390625,1.06324169921875,1.192550635372723,2.2197265625,-0.8046875,-1.62451171875,46.27117647058824,167.42999781861857
0.38283154296875,0.37122119140625,1.14039013671875,1.2589101743835098,2.666015625,0.54296875,-2.43359375,45.94176470588236,167.68320460053272
0.39308544921875,0.29797900390625,1.14429638671875,1.2460826127564957,2.90625,3.052734375,-3.11181640625,46.08294117647059,167.68320460053272
0.44581982421875,0.23499072265625,1.06665966796875,1.1797197983725407,2.75146484375,5.4033203125,-3.3720703125,45.94176470588236,167.68320460053272
0.57033154296875,0.19641650390625,0.94019482421875,1.1170603472505838,2.57373046875,6.89990234375,-3.619140625,45.84764705882353,167.68320460053272
0.64650341796875,0.20520556640625,0.7912690429687499,1.0422008886438676,2.494140625,6.55126953125,-3.87451171875,46.13,167.80531397010287
0.60353466796875,0.22913134765625,0.6711518554687499,0.9312357827199642,2.31591796875,4.57763671875,-3.77587890625,46.03588235294118,167.80531397010287
0.53175732421875,0.25549853515625,0.5964448242187499,0.8389229891143821,2.0947265625,1.791015625,-3.40771484375,45.61235294117647,167.80531397010287
0.47755810546875,0.27258837890625,0.5940034179687499,0.8094481014692644,1.85595703125,-0.6044921875,-3.12451171875,45.7535294117647,167.80531397010287
0.46974560546875,0.27649462890625,0.6452729492187499,0.8446818292497305,1.58154296875,-1.6904296875,-3.134765625,45.84764705882353,167.80531397010287
0.44337841796875,0.26917041015625,0.7092377929687499,0.8786668186516086,1.310546875,-1.404296875,-3.6650390625,46.03588235294118,167.38689084656943
0.35158154296875,0.26965869140625,0.7829682617187499,0.8996469808019694,0.91943359375,-0.34765625,-4.00732421875,46.08294117647059,167.38689084656943
0.29982373046875,0.30042041015625,0.8361909179687499,0.9377430050307322,0.7158203125,1.0068359375,-4.20361328125,46.03588235294118,167.38689084656943
0.30128857421875,0.35852587890625,0.8405854492187499,0.962236721518439,0.58837890625,2.34423828125,-4.45556640625,45.94176470588236,167.38689084656943
0.32326123046875,0.40686572265625,0.8205659179687499,0.9712702842817028,0.4833984375,3.11767578125,-4.60205078125,45.84764705882353,167.8358610665692
0.35744091796875,0.43079150390625,0.8093354492187499,0.9840575181554516,0.4541015625,3.17333984375,-4.59326171875,45.94176470588236,167.8358610665692
0.36915966796875,0.40540087890625,0.8059174804687499,0.9747470022512792,0.51708984375,2.9560546875,-4.55078125,45.94176470588236,167.8358610665692
0.36085888671875,0.35803759765625,0.8073823242187499,0.954083997832594,0.69873046875,2.900390625,-4.58544921875,46.03588235294118,167.8358610665692
0.33546826171875,0.34876025390625,0.8024995117187499,0.9371115918791016,0.84716796875,3.12890625,-4.51611328125,46.03588235294118,167.8358610665692
0.33986279296875,0.34778369140625,0.7815034179687499,0.9204389204882178,0.96630859375,3.5693359375,-4.4208984375,45.89470588235295,167.70475806781042
0.40285107421875,0.35950244140625,0.7707612304687499,0.94106528347929,1.021484375,4.07177734375,-4.65283203125,45.94176470588236,167.70475806781042
0.47804638671875,0.36487353515625,0.7399995117187499,0.9535514259106638,1.19580078125,4.365234375,-5.09375,45.7535294117647,167.70475806781042
0.50734326171875,0.33704150390625,0.7097260742187499,0.93525678879801,1.22802734375,4.22314453125,-5.375,45.94176470588236,167.70475806781042
0.49122998046875,0.29993212890625,0.6994721679687499,0.9058297242994772,1.208984375,3.552734375,-5.255859375,45.89470588235295,167.97952482311968
0.46876904296875,0.27991259765625,0.6945893554687499,0.8834873234534839,1.01611328125,2.87158203125,-5.10302734375,45.89470588235295,167.97952482311968
0.44044873046875,0.28479541015625,0.7190034179687499,0.8899828227939824,0.76416015625,2.07861328125,-5.20654296875,45.7535294117647,167.97952482311968
0.40626904296875,0.30823291015625,0.7448823242187499,0.9027246197549182,0.48828125,1.75634765625,-5.5087890625,45.84764705882353,167.97952482311968
0.36867138671875,0.33020556640625,0.7805268554687499,0.9242166843217738,0.2998046875,1.83544921875,-5.85205078125,46.03588235294118,167.97952482311968
0.34181591796875,0.33313525390625,0.7951752929687499,0.9274270676015112,0.18115234375,2.361328125,-6.05810546875,45.94176470588236,167.8825348556281
0.33595654296875,0.32043994140625,0.7976166992187499,0.92289812746834,0.13623046875,3.12451171875,-6.06298828125,45.89470588235295,167.8825348556281
0.35939404296875,0.30188525390625,0.7736909179687499,0.904928959197788,0.1181640625,3.81689453125,-6.05224609375,46.08294117647059,167.8825348556281
0.37160107421875,0.29993212890625,0.7575776367187499,0.8955280654268354,0.1123046875,4.099609375,-6.0986328125,45.89470588235295,167.8825348556281
0.35499951171875,0.29651416015625,0.7326752929687499,0.8664631471797059,0.1064453125,3.8818359375,-6.11962890625,46.03588235294118,167.99297934321146
0.32326123046875,0.30481494140625,0.7233979492187499,0.8489490942115192,0.1376953125,3.3603515625,-6.1015625,46.13,167.99297934321146
0.30372998046875,0.31213916015625,0.7268159179687499,0.8473158413197247,0.16796875,3.00537109375,-5.9833984375,46.03588235294118,167.99297934321146
0.30861279296875,0.31409228515625,0.7229096679687499,0.8464598086272825,0.14794921875,3.103515625,-5.79443359375,45.94176470588236,167.99297934321146
0.31105419921875,0.30481494140625,0.7229096679687499,0.8439580862808305,0.1484375,3.63671875,-5.63671875,45.94176470588236,167.99297934321146
0.29738232421875,0.29211962890625,0.6989838867187499,0.8138480191304278,0.13671875,4.26171875,-5.62841796875,46.08294117647059,167.87086589628186
0.26906201171875,0.29163134765625,0.6477143554687499,0.7595900837729778,-0.0068359375,4.73779296875,-5.77734375,46.03588235294118,167.87086589628186
0.25246044921875,0.30286181640625,0.6008393554687499,0.7186581171438398,-0.19921875,5.02197265625,-5.9521484375,45.94176470588236,167.87086589628186
0.26710888671875,0.29993212890625,0.5617768554687499,0.6905792312651186,-0.47314453125,5.171875,-6.14794921875,45.94176470588236,167.87086589628186
0.27101513671875,0.28723681640625,0.5256440429687499,0.6574616741213236,-0.78076171875,5.1259765625,-6.34765625,45.7535294117647,167.8591972783241
0.26515576171875,0.27747119140625,0.5124604492187499,0.6402449156741015,-0.9765625,4.685546875,-6.490234375,45.94176470588236,167.8591972783241
0.26027294921875,0.27063525390625,0.5036713867187499,0.6282279160870797,-1.0673828125,3.92919921875,-6.587890625,45.94176470588236,167.8591972783241
0.25685498046875,0.24817431640625,0.5188081054687499,0.6298625426356015,-1.05126953125,3.08984375,-6.6044921875,46.03588235294118,167.8591972783241
0.24562451171875,0.23157275390625,0.5515229492187499,0.646633516471074,-0.8076171875,2.46630859375,-6.60107421875,45.89470588235295,167.8591972783241
0.20802685546875,0.19983447265625,0.5715424804687499,0.6402107434574877,-0.57666015625,2.05224609375,-6.61083984375,46.224117647058826,167.89331146427156
0.14406201171875,0.15344775390625,0.5798432617187499,0.6168616413426636,-0.3251953125,1.619140625,-6.61962890625,45.89470588235295,167.89331146427156
0.07326123046875,0.11145556640625,0.5881440429687499,0.6030779107647369,-0.20068359375,0.72412109375,-6.8134765625,46.08294117647059,167.89331146427156
0.00343701171875,0.08655322265625,0.6062104492187499,0.6123678487181833,-0.20458984375,-0.08740234375,-7.41259765625,45.84764705882353,167.89331146427156
-0.07810595703125,0.06360400390625,0.6589448242187499,0.6665990483051659,-0.28076171875,-0.72119140625,-8.111328125,45.89470588235295,167.89331146427156
-0.19041064453125,0.03967822265625,0.7570893554687499,0.7816743996499131,-0.28662109375,-0.8525390625,-8.3330078125,46.03588235294118,167.89331146427156
-0.22117236328125,0.03333056640625,0.93921826171875,0.965483860083826,-0.10888671875,-0.5810546875,-7.9619140625,46.08294117647059,167.89331146427156
-0.15476611328125,0.0230766601562499,1.10767529296875,1.1186731590225798,0.1728515625,0.041015625,-7.6767578125,45.94176470588236,167.89331146427156
-0.07957080078125,0.0020805664062499,1.22583935546875,1.2284209239953463,0.42529296875,1.32373046875,-7.72998046875,46.03588235294118,167.89331146427156
-0.08835986328125,-0.00670849609375,1.24097607421875,1.2441358792922508,0.6630859375,2.80859375,-7.779296875,45.94176470588236,167.64009782920922
-0.16697314453125,0.00598681640625,1.14576123046875,1.1578793850011322,0.83837890625,3.0546875,-7.46044921875,46.08294117647059,167.64009782920922
-0.23337939453125,0.03918994140625,0.99634716796875,1.0240651700055745,0.8310546875,1.9189453125,-6.962890625,45.84764705882353,167.64009782920922
-0.22703173828125,0.08362353515625,0.92994091796875,0.960898754672726,0.70947265625,0.38916015625,-6.8046875,45.84764705882353,167.64009782920922
-0.16062548828125,0.14172900390625,0.94361279296875,0.9676222202327376,0.396484375,-0.84814453125,-7.1884765625,45.89470588235295,167.77120057466166
-0.11375048828125,0.18958056640625,0.99390576171875,1.0181987173046654,-0.0732421875,-1.583984375,-8.03466796875,45.84764705882353,167.77120057466166
-0.17478564453125,0.22473681640625,1.04712841796875,1.085142655092112,-0.5283203125,-1.76953125,-8.82080078125,45.94176470588236,167.77120057466166
-0.26853564453125,0.22229541015625,1.07789013671875,1.1328608866917045,-0.8056640625,-1.64794921875,-8.98876953125,46.03588235294118,167.77120057466166
-0.34812548828125,0.17737353515625,1.08521435546875,1.1534049262424446,-0.7353515625,-1.259765625,-8.51318359375,46.03588235294118,167.77120057466166
-0.37986376953125,0.11487353515625,1.08179638671875,1.152291558070061,-0.439453125,-0.4521484375,-7.66455078125,46.08294117647059,167.79453734926489
-0.38230517578125,0.06409228515625,1.07154248046875,1.1395035567714584,0.09912109375,0.35693359375,-6.83544921875,46.03588235294118,167.79453734926489
-0.36765673828125,0.0225883789062499,1.03931591796875,1.102660096951207,0.66796875,1.10009765625,-6.4052734375,46.08294117647059,167.79453734926489
-0.36179736328125,-0.01647412109375,0.98755810546875,1.0518743938418231,1.12451171875,1.70166015625,-6.35888671875,46.03588235294118,167.79453734926489
-0.35789111328125,-0.05211865234375,0.93433544921875,1.0018907797532746,1.30859375,2.13330078125,-6.56640625,46.08294117647059,167.68320460053272
-0.34910205078125,-0.06920849609375,0.8776948242187499,0.9471062571072032,1.337890625,2.94287109375,-6.7236328125,45.89470588235295,167.68320460053272
-0.32566455078125,-0.08385693359375,0.8283784179687499,0.8940358987779568,1.31494140625,3.5283203125,-6.701171875,45.89470588235295,167.68320460053272
-0.29832080078125,-0.09215771484375,0.7829682617187499,0.8429280179486675,1.32275390625,3.7880859375,-6.46826171875,45.7535294117647,167.68320460053272
-0.26121142578125,-0.09752880859375,0.7336518554687499,0.7848492355205102,1.3330078125,3.52294921875,-6.04345703125,46.03588235294118,167.68320460053272
-0.23826220703125,-0.10241162109375,0.6955659179687499,0.7423401953782118,1.2978515625,2.65380859375,-5.58203125,45.94176470588236,168.12319176664508
-0.22312548828125,-0.08483349609375,0.6623627929687499,0.704064041895052,1.1083984375,1.32080078125,-5.25,46.03588235294118,168.12319176664508
-0.22654345703125,-0.05602490234375,0.6618745117187499,0.7018109409728734,0.7880859375,-0.205078125,-4.81884765625,45.94176470588236,168.12319176664508
-0.23826220703125,-0.01793896484375,0.7019135742187499,0.7414670265302483,0.42138671875,-1.33642578125,-4.78076171875,46.03588235294118,168.12319176664508
-0.26267626953125,0.00940478515625,0.7727143554687499,0.8161952877260287,0.17529296875,-1.90185546875,-4.82568359375,46.03588235294118,167.8591972783241
-0.30369189453125,0.0284477539062499,0.8493745117187499,0.902482743693061,0.06005859375,-1.7734375,-4.884765625,46.08294117647059,167.8591972783241
-0.33054736328125,0.03967822265625,0.92456982421875,0.9826826957778568,0.13525390625,-1.1982421875,-4.8447265625,46.03588235294118,167.8591972783241
-0.33982470703125,0.05627978515625,0.98267529296875,1.0412967766863237,0.3984375,-0.40625,-4.67236328125,45.89470588235295,167.8591972783241
-0.32859423828125,0.06946337890625,1.00415966796875,1.0588370853043534,0.80419921875,0.384765625,-4.5517578125,45.94176470588236,167.8591972783241
-0.33103564453125,0.06116259765625,0.99683544921875,1.0521437041209851,1.13134765625,1.2353515625,-4.52587890625,46.08294117647059,167.98130968800817
-0.32859423828125,0.04358447265625,0.96851513671875,1.0236675972901053,1.3779296875,1.89453125,-4.41650390625,46.13,167.98130968800817
-0.33054736328125,0.01477587890625,0.92261669921875,0.9801537938746858,1.4599609375,2.03173828125,-4.19140625,46.08294117647059,167.98130968800817
-0.32371142578125,-0.01940380859375,0.8947846679687499,0.9517379875791544,1.41162109375,1.74560546875,-3.869140625,45.7535294117647,167.98130968800817
-0.32859423828125,-0.04430615234375,0.8908784179687499,0.9505795938108734,1.29736328125,1.013671875,-3.5986328125,46.13,167.98130968800817
-0.32175830078125,-0.06627880859375,0.90406201171875,0.961898854154218,1.13427734375,0.482421875,-3.58447265625,46.03588235294118,167.75053886966384
-0.32224658203125,-0.07164990234375,0.92603466796875,0.9831158499468337,0.95751953125,0.21533203125,-3.669921875,45.94176470588236,167.75053886966384
-0.31785205078125,-0.07067333984375,0.94019482421875,0.9949828916309278,0.6806640625,0.06005859375,-3.64892578125,46.08294117647059,167.75053886966384
-0.32078173828125,-0.05211865234375,0.95630810546875,1.0100210245940917,0.42626953125,-0.13671875,-3.39306640625,46.27117647058824,167.75053886966384
-0.32322314453125,-0.02672802734375,0.95191357421875,1.005647573152878,0.2607421875,-0.44189453125,-3.10986328125,45.7535294117647,167.72542113138695
-0.33250048828125,-0.00036083984375,0.94947216796875,1.0060089973056603,0.13330078125,-0.6337890625,-2.8896484375,46.03588235294118,167.72542113138695
-0.36033251953125,0.0172172851562499,0.95874951171875,1.0243713124452636,0.05517578125,-0.50927734375,-2.81298828125,45.7535294117647,167.72542113138695
-0.35593798828125,0.0260063476562499,0.96265576171875,1.0266812052387184,0.04443359375,0.07373046875,-2.685546875,45.89470588235295,167.72542113138695
-0.34568408203125,0.04065478515625,0.94898388671875,1.0108020149256305,0.2451171875,0.96875,-2.3662109375,46.08294117647059,167.72542113138695
-0.33054736328125,0.04163134765625,0.92017529296875,0.9786303174692612,0.509765625,1.22802734375,-2.119140625,46.03588235294118,167.79186302489487
-0.32810595703125,0.03333056640625,0.8723237304687499,0.9325841176190328,0.5791015625,0.52197265625,-2.13720703125,46.03588235294118,167.79186302489487
-0.34617236328125,0.03479541015625,0.8440034179687499,0.9129007586866164,0.5361328125,-0.23779296875,-2.09375,45.7535294117647,167.79186302489487
-0.34128955078125,0.03333056640625,0.8454682617187499,0.9123629024150168,0.4697265625,-0.7705078125,-1.93115234375,46.03588235294118,167.79186302489487
-0.32566455078125,0.04358447265625,0.8747651367187499,0.9344362205687716,0.4267578125,-1.1640625,-1.83447265625,46.03588235294118,168.05585401073697
-0.31980517578125,0.04602587890625,0.91187451171875,0.9674238249639492,0.4072265625,-1.39794921875,-1.85693359375,45.89470588235295,168.05585401073697
-0.31882861328125,0.04553759765625,0.93824169921875,0.991979255629892,0.3935546875,-1.43505859375,-1.90625,46.03588235294118,168.05585401073697
-0.32517626953125,0.03674853515625,0.93970654296875,0.9950570074124744,0.376953125,-1.271484375,-1.9384765625,45.7535294117647,168.05585401073697
-0.31394580078125,0.0216118164062499,0.94214794921875,0.9933135429730404,0.37158203125,-1.0859375,-1.93798828125,46.03588235294118,168.05585401073697
-0.30759814453125,0.0015922851562499,0.91187451171875,0.9623587059996886,0.33935546875,-1.08447265625,-1.84326171875,46.08294117647059,167.60687676985117
-0.30076220703125,-0.01647412109375,0.8942963867187499,0.9436606006093144,0.27197265625,-1.2158203125,-1.6748046875,45.89470588235295,167.60687676985117
-0.30222705078125,-0.02282177734375,0.8786713867187499,0.9294758897267378,0.2216796875,-1.3876953125,-1.4453125,46.08294117647059,167.60687676985117
-0.30564501953125,-0.02526318359375,0.8728120117187499,0.9251258910062352,0.15966796875,-1.494140625,-1.3095703125,46.08294117647059,167.60687676985117
-0.30320361328125,-0.03258740234375,0.8684174804687499,0.9204038734609992,0.12255859375,-1.59033203125,-1.26171875,46.03588235294118,168.397075502472
-0.30466845703125,-0.04528271484375,0.8674409179687499,0.92050374205643,0.11279296875,-1.73095703125,-1.240234375,46.224117647058826,168.397075502472
-0.30564501953125,-0.04674755859375,0.8664643554687499,0.919980810395853,0.09375,-1.8232421875,-1.20849609375,45.7535294117647,168.397075502472
-0.29783251953125,-0.03844677734375,0.8772065429687499,0.927185894740444,0.060546875,-1.685546875,-1.23095703125,45.94176470588236,168.397075502472
-0.28367236328125,-0.03014599609375,0.8991791992187499,0.943346184111499,0.01806640625,-1.31494140625,-1.31689453125,46.03588235294118,168.397075502472
-0.26755908203125,-0.01452099609375,0.91333935546875,0.9518337564685502,0.0546875,-0.90185546875,-1.34814453125,46.224117647058826,167.81609060454227
-0.26267626953125,-0.00182568359375,0.92115185546875,0.9578741548496644,0.0673828125,-0.60302734375,-1.27880859375,45.84764705882353,167.81609060454227
-0.25779345703125,0.0191704101562499,0.92164013671875,0.9572071420150592,0.130859375,-0.6064453125,-1.18359375,46.08294117647059,167.81609060454227
-0.24558642578125,0.03674853515625,0.91919873046875,0.9521499112322076,0.1806640625,-0.716796875,-1.1826171875,46.03588235294118,167.81609060454227
-0.24705126953125,0.05237353515625,0.92994091796875,0.9636220357974004,0.21728515625,-0.69970703125,-1.3427734375,45.84764705882353,168.0459695523708
-0.25095751953125,0.06213916015625,0.94996044921875,0.984512979555928,0.28076171875,-0.46728515625,-1.50390625,45.89470588235295,168.0459695523708
-0.26658251953125,0.07483447265625,0.96314404296875,1.0021541226396056,0.37841796875,-0.02490234375,-1.53662109375,46.08294117647059,168.0459695523708
-0.29148486328125,0.08069384765625,0.8557221679687499,0.907598673051474,0.49169921875,0.2568359375,-1.43212890625,45.7535294117647,168.0459695523708
-0.29148486328125,0.09045947265625,0.98902294921875,1.035042383575035,0.5986328125,0.21875,-1.49853515625,45.7535294117647,168.0459695523708
-0.25388720703125,0.09680712890625,1.01685498046875,1.0525323678658545,0.6591796875,0.43017578125,-1.9296875,45.89470588235295,167.93641803487927
-0.25339892578125,0.09241259765625,1.05738232421875,1.091241716286045,0.63037109375,0.93603515625,-2.40576171875,45.84764705882353,167.93641803487927
-0.27537158203125,0.06946337890625,1.10425732421875,1.140192486946928,0.6162109375,0.9912109375,-2.599609375,45.84764705882353,167.93641803487927
-0.24656298828125,0.05579150390625,1.14283154296875,1.1704571477429813,0.4345703125,0.498046875,-2.89990234375,46.03588235294118,167.93641803487927
-0.14988330078125,0.03528369140625,1.18189404296875,1.1918823228563096,0.21533203125,-0.17431640625,-3.416015625,45.94176470588236,168.2785326627862
-0.07859423828125,0.0177055664062499,1.18238232421875,1.185123834034954,0.009765625,-0.21337890625,-3.17431640625,46.224117647058826,168.2785326627862
-0.12205126953125,0.03674853515625,1.15992138671875,1.1669038480517016,0.0380859375,0.3125,-1.8779296875,46.03588235294118,168.2785326627862
-0.17136767578125,0.05969775390625,1.09205029296875,1.1070250875645284,0.27978515625,1.025390625,-0.4404296875,45.89470588235295,168.2785326627862
-0.16209033203125,0.11682666015625,0.99683544921875,1.016662508938149,0.642578125,1.37890625,0.57958984375,45.94176470588236,168.2785326627862
-0.08347705078125,0.17883837890625,0.8918549804687499,0.913431382186897,0.89990234375,1.2412109375,0.99658203125,46.03588235294118,167.64098922017746
-0.01951220703125,0.21057666015625,0.8274018554687499,0.8540006360998341,1.068359375,0.52294921875,1.07958984375,46.03588235294118,167.64098922017746
-0.01658251953125,0.21252978515625,0.7922456054687499,0.8204248831654926,1.12109375,-0.06103515625,0.90625,45.94176470588236,167.64098922017746
-0.07224658203125,0.20471728515625,0.7692963867187499,0.7993407696817847,1.14697265625,-0.48388671875,0.43505859375,46.03588235294118,167.64098922017746
-0.16111376953125,0.18323291015625,0.7810151367187499,0.81823993417622,1.10693359375,-0.783203125,-0.17529296875,46.13,168.25608531018557
-0.24949267578125,0.14758837890625,0.8151948242187499,0.8652002810272899,1.064453125,-0.75927734375,-0.6533203125,45.61235294117647,168.25608531018557
-0.29002001953125,0.08557666015625,0.8391206054687499,0.8919407867199741,1.046875,-0.4482421875,-0.9404296875,46.08294117647059,168.25608531018557
-0.29050830078125,0.00501025390625,0.8820893554687499,0.9287097536358112,1.0,-0.18212890625,-1.11279296875,45.7535294117647,168.25608531018557
-0.27000048828125,-0.01061474609375,0.90699169921875,0.946386220820265,0.92333984375,-0.1416015625,-1.09228515625,46.08294117647059,168.25608531018557
-0.22410205078125,-0.02135693359375,0.91871044921875,0.9458893895591636,0.8134765625,-0.29638671875,-1.12744140625,46.03588235294118,168.0926490958529
-0.19138720703125,0.00403369140625,0.92603466796875,0.945613842940963,0.69287109375,-0.5810546875,-1.38134765625,46.08294117647059,168.0926490958529
-0.16209033203125,0.03967822265625,0.94361279296875,0.9582550496321136,0.6005859375,-0.76611328125,-1.59423828125,45.89470588235295,168.0926490958529
-0.14695361328125,0.06751025390625,0.95435498046875,0.967959930774208,0.48046875,-0.71142578125,-1.88916015625,46.03588235294118,168.0926490958529
-0.13718798828125,0.08264697265625,0.97144482421875,0.984558841674431,0.3544921875,-0.74365234375,-2.04638671875,46.03588235294118,168.05763892614502
-0.13132861328125,0.08948291015625,0.97974560546875,0.9925501736999168,0.2626953125,-0.78125,-2.1181640625,45.94176470588236,168.05763892614502
-0.13621142578125,0.09924853515625,0.98706982421875,1.001354413845196,0.2236328125,-0.8583984375,-1.71630859375,46.08294117647059,168.05763892614502
-0.14402392578125,0.11633837890625,1.00855419921875,1.0254067887261873,0.3154296875,-0.962890625,-1.27392578125,46.224117647058826,168.05763892614502
-0.14304736328125,0.13489306640625,1.01001904296875,1.0289786949522857,0.4443359375,-1.0673828125,-0.8232421875,45.7535294117647,168.05763892614502
-0.14939501953125,0.15637744140625,1.01197216796875,1.034823871383377,0.57373046875,-1.18212890625,-0.60791015625,46.08294117647059,168.0136395589732
-0.16160205078125,0.18762744140625,1.00611279296875,1.0361381335327546,0.77783203125,-1.24658203125,-0.60595703125,46.08294117647059,168.0136395589732
-0.18113330078125,0.19006884765625,0.98853466796875,1.0228080119344842,1.00830078125,-1.16748046875,-0.8115234375,46.08294117647059,168.0136395589732
-0.19675830078125,0.17200244140625,0.94117138671875,0.976781576379351,1.15185546875,-1.28271484375,-1.01123046875,45.89470588235295,168.0136395589732
-0.19480517578125,0.16272509765625,0.92115185546875,0.9554837804755874,1.13232421875,-1.63427734375,-1.24560546875,46.08294117647059,168.00286292171512
-0.18259814453125,0.16223681640625,0.90455029296875,0.9369493580198142,1.10693359375,-2.02294921875,-1.46826171875,45.7535294117647,168.00286292171512
-0.18162158203125,0.16418994140625,0.90699169921875,0.9394565867405674,1.0751953125,-1.99462890625,-1.62353515625,45.70647058823529,168.00286292171512
-0.18601611328125,0.14856494140625,0.91773388671875,0.9481081283520402,1.04638671875,-1.64501953125,-1.58984375,46.03588235294118,168.00286292171512
-0.18845751953125,0.12854541015625,0.91578076171875,0.9437661588943967,1.009765625,-1.19580078125,-1.4755859375,46.27117647058824,168.00286292171512
-0.18503955078125,0.10852587890625,0.91529248046875,0.9400945838309768,0.9697265625,-0.87744140625,-1.4013671875,45.94176470588236,167.9390967314966
-0.18162158203125,0.10071337890625,0.90259716796875,0.9261809927737968,0.91064453125,-0.73046875,-1.376953125,46.03588235294118,167.9390967314966
-0.18210986328125,0.10413134765625,0.8894135742187499,0.9138182783647928,0.82763671875,-0.8076171875,-1.2958984375,45.7535294117647,167.9390967314966
-0.16160205078125,0.12073291015625,0.90406201171875,0.9262935708750524,0.70361328125,-1.134765625,-1.240234375,45.70647058823529,167.9390967314966
-0.12986376953125,0.13489306640625,0.92847607421875,0.9471687064076854,0.67431640625,-1.3818359375,-1.17041015625,45.84764705882353,168.01542585604554
-0.11668017578125,0.13831103515625,0.96021435546875,0.9771160700319096,0.6376953125,-1.76318359375,-1.05126953125,45.94176470588236,168.01542585604554
-0.09910205078125,0.13684619140625,0.99390576171875,1.0081650458874152,0.6123046875,-1.88818359375,-0.95556640625,45.84764705882353,168.01542585604554
-0.09959033203125,0.13831103515625,1.01880810546875,1.0329656976148394,0.58544921875,-2.013671875,-1.001953125,46.03588235294118,168.01542585604554
-0.10886767578125,0.13538134765625,1.01734326171875,1.03206956756208,0.59228515625,-1.96728515625,-0.9873046875,45.94176470588236,168.01542585604554
-0.10252001953125,0.13586962890625,0.99927685546875,1.0136691493477163,0.5380859375,-1.77783203125,-0.978515625,46.08294117647059,167.80709897599857
-0.09714892578125,0.14221728515625,0.97681591796875,0.9918835655331713,0.4169921875,-1.50927734375,-1.05419921875,46.03588235294118,167.80709897599857
-0.10886767578125,0.14856494140625,0.95484326171875,0.9724450457968076,0.2333984375,-1.27490234375,-1.13623046875,46.08294117647059,167.80709897599857
-0.12742236328125,0.16223681640625,0.93433544921875,0.9568385312729716,0.0009765625,-1.09912109375,-1.09228515625,46.03588235294118,167.80709897599857
-0.14011767578125,0.17737353515625,0.93238232421875,0.9593910217193627,-0.17333984375,-0.9765625,-1.0478515625,45.7535294117647,168.13575519368175
-0.15720751953125,0.18127978515625,0.92701123046875,0.957562732210611,-0.298828125,-0.92236328125,-0.90380859375,46.03588235294118,168.13575519368175
-0.18455126953125,0.18127978515625,0.94751904296875,0.9821984872622784,-0.3779296875,-0.91552734375,-0.6728515625,45.94176470588236,168.13575519368175
-0.20212939453125,0.18713916015625,0.96558544921875,1.004107871267092,-0.39013671875,-0.869140625,-0.42236328125,46.03588235294118,168.13575519368175
-0.21384814453125,0.19006884765625,0.99683544921875,1.03708153420451,-0.38427734375,-0.73486328125,-0.19189453125,46.03588235294118,168.13575519368175
-0.22166064453125,0.19495166015625,1.02271435546875,1.0644642990789068,-0.333984375,-0.55322265625,0.01318359375,45.94176470588236,167.77387660846333
-0.21091845703125,0.19006884765625,1.04322216796875,1.0811684670333468,-0.375,-0.404296875,0.17626953125,45.94176470588236,167.77387660846333
-0.20310595703125,0.20227587890625,1.05054638671875,1.0889514551240096,-0.22509765625,-0.20166015625,0.28173828125,45.7535294117647,167.77387660846333
-0.21482470703125,0.19836962890625,1.07398388671875,1.1130775145312113,-0.18798828125,0.04833984375,0.44580078125,46.13,167.77387660846333
-0.20945361328125,0.20227587890625,1.05591748046875,1.0953301204948855,-0.1201171875,0.2236328125,0.63232421875,45.565294117647056,168.16987310324822
-0.19236376953125,0.19690478515625,1.03199169921875,1.068074052443043,-0.0859375,0.2314453125,0.802734375,46.08294117647059,168.16987310324822
-0.16355517578125,0.19104541015625,0.99292919921875,1.0242836711223084,-0.0947265625,0.029296875,0.9013671875,46.27117647058824,168.16987310324822
-0.13816455078125,0.18567431640625,0.95240185546875,0.980119221914268,-0.1728515625,-0.2236328125,0.8359375,45.7535294117647,168.16987310324822
-0.13865283203125,0.19202197265625,0.92066357421875,0.950641079854183,-0.3134765625,-0.3759765625,0.7666015625,45.94176470588236,168.16987310324822
-0.15183642578125,0.18811572265625,0.90455029296875,0.9362975263314324,-0.44677734375,-0.7236328125,0.71044921875,45.94176470588236,167.90587379850095
-0.17380908203125,0.17981494140625,0.8864838867187499,0.9210845192279916,-0.5576171875,-0.79931640625,0.68359375,46.13,167.90587379850095
-0.17820361328125,0.17444384765625,0.8923432617187499,0.9265331513262046,-0.63330078125,-0.7607421875,0.6875,46.224117647058826,167.90587379850095
-0.18455126953125,0.17590869140625,0.8850190429687499,0.9210112622629418,-0.7158203125,-0.626953125,0.7314453125,45.84764705882353,167.90587379850095
-0.18943408203125,0.16956103515625,0.8742768554687499,0.9104923042434828,-0.79052734375,-0.291015625,0.796875,46.03588235294118,167.96064973537136
-0.17869189453125,0.18127978515625,0.8733002929687499,0.9096408936370264,-0.82080078125,0.04150390625,0.9287109375,46.03588235294118,167.96064973537136
-0.17234423828125,0.17346728515625,0.8640229492187499,0.8979582909383322,-0.83203125,0.17333984375,1.05322265625,45.89470588235295,167.96064973537136
-0.17087939453125,0.16516650390625,0.8586518554687499,0.8909336397217846,-0.751953125,0.15625,1.32666015625,46.03588235294118,167.96064973537136
-0.15037158203125,0.15540087890625,0.8630463867187499,0.8897247391613352,-0.8984375,-0.0537109375,1.51611328125,46.224117647058826,167.96064973537136
-0.13572314453125,0.14954150390625,0.8859956054687499,0.9087197842360044,-0.89599609375,-0.33154296875,1.55517578125,45.94176470588236,168.04775548640055
-0.14402392578125,0.15100634765625,0.91236279296875,0.9359228997217992,-0.912109375,-0.48828125,1.57666015625,45.94176470588236,168.04775548640055
-0.14353564453125,0.17004931640625,0.94019482421875,0.9661705640045966,-0.91943359375,-0.548828125,1.65869140625,45.89470588235295,168.04775548640055
-0.12009814453125,0.19592822265625,0.97242138671875,0.9992070786884482,-0.91455078125,-0.44775390625,1.76171875,46.03588235294118,168.04775548640055
-0.08054736328125,0.23108447265625,1.00122998046875,1.030703344820338,-0.95703125,-0.32958984375,1.73828125,45.70647058823529,168.04864912662717
-0.05808642578125,0.26086962890625,1.03150341796875,1.0655638401461167,-1.0205078125,-0.3203125,1.70849609375,45.94176470588236,168.04864912662717
-0.05906298828125,0.30090869140625,1.06714794921875,1.110332933254849,-1.04833984375,-0.33642578125,1.736328125,45.94176470588236,168.04864912662717
-0.06150439453125,0.31751025390625,1.10132763671875,1.1478319194388933,-0.96875,-0.19384765625,1.8046875,46.08294117647059,168.04864912662717
-0.08054736328125,0.31262744140625,1.11548779296875,1.161265176914417,-0.85107421875,0.107421875,1.71826171875,46.03588235294118,168.04864912662717
-0.13132861328125,0.28040087890625,1.14331982421875,1.1845049928174078,-0.66064453125,0.3193359375,1.7021484375,46.13,167.85109804543433
-0.19675830078125,0.21643603515625,1.16236279296875,1.1986015387603153,-0.47119140625,0.46630859375,1.755859375,46.03588235294118,167.85109804543433
-0.22703173828125,0.15784228515625,1.19263623046875,1.2242707116471678,-0.26806640625,0.7783203125,2.3125,45.94176470588236,167.85109804543433
-0.17625048828125,0.11585009765625,1.18677685546875,1.2053732967104571,-0.01708984375,1.5986328125,2.5390625,46.08294117647059,167.85109804543433
-0.10105517578125,0.08508837890625,1.12622998046875,1.1339515640818678,0.08837890625,2.4091796875,2.32861328125,45.89470588235295,168.10253181339831
-0.06248095703125,0.05481494140625,1.02906201171875,1.032413275658325,-0.04052734375,2.5126953125,1.814453125,45.7535294117647,168.10253181339831
-0.05173876953125,0.03626025390625,0.96314404296875,0.9652140455837463,-0.27001953125,1.9326171875,1.35400390625,45.89470588235295,168.10253181339831
-0.03318408203125,0.0191704101562499,0.91724560546875,0.9180458532543728,-0.4365234375,1.32958984375,1.35302734375,46.08294117647059,168.10253181339831
-0.02537158203125,0.01038134765625,0.8796479492187499,0.8800749991442097,-0.62890625,0.72607421875,1.576171875,45.7535294117647,168.10253181339831
-0.03269580078125,0.0157524414062499,0.8752534179687499,0.876005536777573,-0.84716796875,0.25732421875,1.65576171875,45.89470588235295,167.97231987268017
-0.07615283203125,0.0225883789062499,0.8835541992187499,0.8871175297811889,-1.01025390625,0.08935546875,1.51513671875,45.84764705882353,167.97231987268017
-0.11668017578125,0.0245415039062499,0.8942963867187499,0.9022098293260477,-1.11572265625,0.19580078125,1.3701171875,45.7535294117647,167.97231987268017
-0.14890673828125,0.03235400390625,0.91382763671875,0.9264453291507826,-1.18017578125,0.47021484375,1.42041015625,45.84764705882353,167.97231987268017
-0.15378955078125,0.03284228515625,0.93091748046875,0.9441065602282764,-1.20263671875,0.8232421875,1.63720703125,45.89470588235295,168.23542658370417
-0.14500048828125,0.04163134765625,0.93580029296875,0.9478821124115988,-1.20947265625,1.0048828125,1.84716796875,46.03588235294118,168.23542658370417
-0.13914111328125,0.05139697265625,0.93628857421875,0.9479652907232166,-1.19580078125,0.9150390625,1.90771484375,46.08294117647059,168.23542658370417
-0.14548876953125,0.05481494140625,0.95337841796875,0.965972084332505,-1.1484375,0.728515625,1.93896484375,46.03588235294118,168.23542658370417
-0.15769580078125,0.05676806640625,0.96949169921875,0.9838723158020064,-1.0087890625,0.51806640625,2.005859375,45.94176470588236,168.23542658370417
-0.15867236328125,0.05286181640625,0.99292919921875,1.0069159275551327,-0.80126953125,0.4208984375,2.1220703125,45.7535294117647,167.71820907048385
-0.14402392578125,0.04846728515625,1.00074169921875,1.0122133754713438,-0.55908203125,0.32666015625,2.13330078125,46.08294117647059,167.71820907048385
-0.13767626953125,0.04651416015625,1.01441357421875,1.0247698384741537,-0.388671875,0.2421875,2.1298828125,46.03588235294118,167.71820907048385
-0.15085986328125,0.04993212890625,1.02808544921875,1.0402940001469136,-0.26513671875,0.21240234375,2.11279296875,46.08294117647059,167.71820907048385
-0.18552783203125,0.05627978515625,1.04078076171875,1.058684364973485,-0.20166015625,0.42724609375,2.12109375,46.08294117647059,167.93731048494385
-0.20798876953125,0.06751025390625,1.04468701171875,1.0673274638495265,-0.267578125,0.9970703125,2.05810546875,46.03588235294118,167.93731048494385
-0.23386767578125,0.07385791015625,1.06324169921875,1.0911608459001576,-0.37841796875,1.86962890625,1.9697265625,46.224117647058826,167.93731048494385
-0.24705126953125,0.06995166015625,1.07056591796875,1.1009264050116567,-0.47265625,2.8642578125,1.8544921875,46.13,167.93731048494385
-0.24851611328125,0.05725634765625,1.05933544921875,1.0896009094521,-0.5390625,3.69140625,1.728515625,45.89470588235295,167.93731048494385
-0.23337939453125,0.03674853515625,1.03833935546875,1.0648779337291023,-0.63818359375,4.2001953125,1.62060546875,45.89470588235295,167.90587379850095
-0.20066455078125,0.01184619140625,1.00074169921875,1.0207303966994936,-0.724609375,4.3759765625,1.5185546875,45.94176470588236,167.90587379850095
-0.16550830078125,-0.01012646484375,0.95435498046875,0.968653174084118,-0.7841796875,4.125,1.546875,45.89470588235295,167.90587379850095
-0.12839892578125,-0.02184521484375,0.90943310546875,0.9187121806506556,-0.78662109375,3.58056640625,1.68017578125,45.94176470588236,167.90587379850095
-0.08933642578125,-0.02819287109375,0.8684174804687499,0.8734556401647248,-0.7744140625,2.8740234375,1.912109375,46.08294117647059,167.98399035138735
-0.06834033203125,-0.02770458984375,0.8474213867187499,0.8506238604394312,-0.77978515625,1.80615234375,2.11865234375,45.94176470588236,167.98399035138735
-0.05173876953125,-0.02038037109375,0.8274018554687499,0.8292684066281899,-0.77294921875,1.02001953125,2.2626953125,45.70647058823529,167.98399035138735
-0.05076220703125,-0.01110302734375,0.8410737304687499,0.8426773397709819,-0.78466796875,0.42724609375,2.12646484375,46.08294117647059,167.98399035138735
-0.06541064453125,-0.00817333984375,0.8620698242187499,0.86458645474628,-0.8291015625,-0.0263671875,2.21240234375,45.84764705882353,167.98399035138735
-0.09031298828125,-0.00670849609375,0.8952729492187499,0.8998417046208558,-0.82275390625,-0.2880859375,2.1708984375,46.224117647058826,168.04954321566655
-0.11619189453125,-0.00963818359375,0.93531201171875,0.9425507997997364,-0.7939453125,-0.494140625,2.10009765625,45.7535294117647,168.04954321566655
-0.13767626953125,-0.02038037109375,0.95142529296875,0.961550936153999,-0.791015625,-0.6298828125,1.990234375,45.84764705882353,168.04954321566655
-0.15818408203125,-0.02526318359375,0.96753857421875,0.980709602713572,-0.8037109375,-0.86572265625,1.88916015625,45.7535294117647,168.04954321566655
-0.17380908203125,-0.03014599609375,0.98365185546875,0.999344460556091,-0.78466796875,-1.0859375,1.8583984375,45.84764705882353,167.81876860506154
-0.17429736328125,-0.02721630859375,1.00415966796875,1.0195376094462512,-0.76171875,-1.240234375,1.8330078125,45.94176470588236,167.81876860506154
-0.16306689453125,-0.02526318359375,1.02271435546875,1.0359409700456963,-0.72705078125,-1.2119140625,1.7900390625,45.94176470588236,167.81876860506154
-0.16062548828125,-0.01305615234375,1.03980419921875,1.0522185054980546,-0.68701171875,-1.03076171875,1.767578125,46.08294117647059,167.81876860506154
-0.17136767578125,-0.01061474609375,1.04078076171875,1.0548479260543502,-0.681640625,-0.84716796875,1.7734375,45.7535294117647,167.81876860506154
-0.18162158203125,-0.00768505859375,1.02613232421875,1.0421098819182637,-0.63427734375,-0.65966796875,1.87353515625,45.89470588235295,167.97231987268017
-0.20457080078125,-0.00719677734375,1.01880810546875,1.039168399204499,-0.63330078125,-0.45703125,1.63818359375,45.94176470588236,167.97231987268017
-0.22703173828125,-0.01745068359375,1.00122998046875,1.026795700387545,-0.6103515625,-0.3125,1.44873046875,46.03588235294118,167.97231987268017
-0.24363330078125,-0.02233349609375,0.99390576171875,1.0235744396354691,-0.625,-0.20947265625,1.26953125,46.03588235294118,167.97231987268017
-0.24851611328125,-0.02526318359375,0.98560498046875,1.0167672617322587,-0.62841796875,-0.0595703125,1.185546875,45.7535294117647,167.8528852600842
-0.24216845703125,-0.02770458984375,0.98951123046875,1.0190905657021294,-0.56640625,0.197265625,1.1591796875,45.7535294117647,167.8528852600842
-0.23875048828125,-0.02721630859375,0.98902294921875,1.0177961078670714,-0.47265625,0.4765625,1.20068359375,45.7535294117647,167.8528852600842
-0.23289111328125,-0.03502880859375,0.98560498046875,1.0133520935991016,-0.37841796875,0.5703125,1.2451171875,46.08294117647059,167.8528852600842
-0.22263720703125,-0.02868115234375,0.97681591796875,1.0022770435620945,-0.26513671875,0.552734375,1.09521484375,46.08294117647059,167.8528852600842
-0.20945361328125,-0.02575146484375,0.99146435546875,1.0136742683047817,-0.2109375,0.5,0.7548828125,45.94176470588236,167.9193320658236
