AccX,AccY,AccZ,Magnitude,GyroX,GyroY,GyroZ,Temperature,Altitude
-0.1646513671875,-0.0151103515624999,0.6765673828125001,0.6964781539479981,-0.40087890625,0.2197265625,3.07568359375,43.447647058823534,324.3548679999001
-0.1807646484375,-0.0209697265625,0.7747119140625001,0.7957977992852339,-0.4033203125,0.19970703125,3.2646484375,43.30647058823529,324.3548679999001
-0.1441435546875,-0.0004619140624999,0.8508837890625001,0.8630068367121471,-0.525390625,-0.0322265625,3.1318359375,43.02411764705882,324.3548679999001
-0.1631865234375,0.0093037109375,0.9407275390625,0.9548218175237796,-0.70703125,-0.12841796875,2.8203125,42.69470588235294,324.3548679999001
-0.1045927734375,0.0395771484375,1.0100634765625005,1.0162353200018766,-0.7255859375,-0.0966796875,2.26171875,44.01235294117648,324.2761334882302
-0.1592802734375,0.0151630859375,1.0291064453125005,1.0414702110311187,-0.92431640625,-0.32861328125,2.12744140625,42.97705882352941,324.2761334882302
-0.1939482421875,0.0981708984375,1.1980517578125005,1.2176130174834978,-0.9794921875,-0.20458984375,1.86376953125,43.02411764705882,324.2761334882302
-0.2071318359375,0.1548115234375,1.3025439453125005,1.3279649598984655,-0.9423828125,0.13232421875,1.64697265625,43.353529411764704,324.2761334882302
-0.1807646484375,0.2510029296875,1.3660205078125005,1.400603568680575,-1.08056640625,0.2578125,0.990234375,43.25941176470588,324.2761334882302
-0.2837919921875,0.2666279296875,1.3914111328125005,1.4448713742869148,-0.4580078125,0.4375,1.12255859375,42.55352941176471,323.8961517653648
-0.3296904296875,0.3374287109375,1.3953173828125005,1.4729102189784673,-0.02880859375,0.5849609375,1.46923828125,42.69470588235294,323.8961517653648
-0.2906279296875,0.3574482421875,1.4495166015625005,1.5209642394095515,0.50830078125,0.92236328125,1.62158203125,43.25941176470588,323.8961517653648
-0.2227568359375,0.3091083984375,1.3884814453125005,1.439808783803798,0.79736328125,1.10595703125,1.24169921875,43.02411764705882,323.8961517653648
-0.2334990234375,0.2383076171875,1.3630908203125005,1.4033277944856843,1.07080078125,1.02783203125,0.68310546875,43.25941176470588,323.7557990953078
-0.3443388671875,0.1352802734375,1.4495166015625005,1.4959840861595406,1.177734375,1.13818359375,0.4150390625,43.353529411764704,323.7557990953078
-0.3321318359375,0.0522724609375,1.6194384765625005,1.6539724743739688,1.13037109375,0.9365234375,0.34326171875,42.60058823529412,323.7557990953078
-0.1851591796875,-0.0805400390625,1.6887744140625005,1.7008026461958714,1.169921875,0.2744140625,-0.0224609375,44.01235294117648,323.7557990953078
0.0208955078125,-0.2275126953125,1.4846728515625005,1.5021491686719486,0.91064453125,-0.27685546875,-0.89404296875,43.447647058823534,323.7557990953078
0.2567353515625,-0.2470439453125,1.3538134765625005,1.3999123833225169,0.74658203125,-0.38525390625,-1.7421875,43.49470588235295,323.760752693636
0.4271455078125,-0.2065166015625,1.2522509765625005,1.339117209159474,0.318359375,-0.43994140625,-2.06591796875,42.74176470588235,323.760752693636
0.4369111328125,-0.1913798828125,1.1770556640625005,1.2700305641292424,0.26318359375,-0.60888671875,-1.7109375,43.447647058823534,323.760752693636
0.3895478515625,-0.2192119140625,1.1560595703125005,1.2394656598853504,0.27880859375,-0.7314453125,-1.26611328125,43.777058823529416,323.760752693636
0.3597626953125,-0.3061259765625,1.1604541015625005,1.2529150139965954,0.26171875,-0.82568359375,-1.23681640625,43.353529411764704,324.76269133843255
0.3783173828125,-0.3666728515625,1.1106494140625005,1.2292742343222076,0.2099609375,-0.97265625,-1.47216796875,43.447647058823534,324.76269133843255
0.3426728515625,-0.3764384765625,1.0720751953125005,1.1867922456095703,0.34619140625,-1.04638671875,-1.11865234375,42.93,324.76269133843255
0.3319306640625,-0.3588603515625,1.1389697265625005,1.239439694254783,0.61767578125,-1.14990234375,-1.205078125,43.02411764705882,324.76269133843255
0.2943330078125,-0.4008525390625,1.1116259765625005,1.2177959555399005,0.595703125,-1.88818359375,-1.0546875,43.87117647058824,324.76269133843255
0.0335908203125,-0.3432353515625,1.1135791015625005,1.1657603806993293,0.40771484375,-3.44287109375,0.8017578125,43.91823529411765,325.2930053944383
-0.1343779296875,-0.1542705078125,1.1682666015625005,1.1860453911609872,0.35400390625,-4.306640625,2.3779296875,43.353529411764704,325.2930053944383
-0.1861357421875,0.0249287109375,1.2205126953125005,1.2348761859262172,-0.06689453125,-4.0849609375,3.06689453125,43.25941176470588,325.2930053944383
-0.2066435546875,0.1723896484375,1.2283251953125005,1.25745876076386,-0.48583984375,-3.1728515625,2.572265625,43.02411764705882,325.2930053944383
-0.1163115234375,0.3413349609375,1.3132861328125005,1.3618951474618628,-0.720703125,-1.423828125,1.84521484375,43.49470588235295,325.3797320762392
0.0931611328125,0.3833271484375,1.2185595703125005,1.2808224411667366,0.23583984375,-0.8876953125,2.4521484375,44.01235294117648,325.3797320762392
0.2889619140625,0.3637958984375,0.9978564453125,1.1007106472412769,0.4677734375,-0.98486328125,2.82958984375,43.25941176470588,325.3797320762392
0.3226533203125,0.3012958984375,0.8616259765625001,0.9681341368897302,0.24267578125,-0.33349609375,1.2685546875,42.74176470588235,325.3797320762392
0.1961884765625,0.1992451171875,0.7932666015625001,0.8411066735043146,-0.0107421875,0.09521484375,-0.9775390625,43.02411764705882,325.3797320762392
0.0199189453125,0.0454365234375,0.7210009765625001,0.722705784014856,-0.0546875,0.06640625,-2.3994140625,44.01235294117648,324.60978835374215
-0.0879912109375,-0.1088603515625,0.6663134765625001,0.6808573113313567,0.08203125,0.07861328125,-2.5322265625,43.777058823529416,324.60978835374215
-0.1246123046875,-0.1991923828125,0.6213916015625001,0.6643292514577849,0.2626953125,0.09423828125,-1.482421875,43.25941176470588,324.60978835374215
-0.0669951171875,-0.2255595703125,0.6101611328125001,0.6539587704752952,0.1640625,0.0693359375,-0.79150390625,43.118235294117646,324.60978835374215
-0.0289091796875,-0.2231181640625,0.5671923828125001,0.6101841155957327,0.15185546875,-0.125,-0.3583984375,44.01235294117648,324.48045941289865
-0.0059599609375,-0.2436259765625,0.5505908203125001,0.602112438837465,0.04833984375,-0.828125,-0.22265625,43.30647058823529,324.48045941289865
-0.0386748046875,-0.2685283203125,0.5501025390625001,0.6133644942531955,-0.0615234375,-1.765625,0.0205078125,43.777058823529416,324.48045941289865
-0.0816435546875,-0.3041728515625,0.5686572265625001,0.6500444869171863,-0.22802734375,-1.99560546875,0.568359375,43.353529411764704,324.48045941289865
-0.1158232421875,-0.3178447265625,0.5911181640625001,0.681073400977483,-0.515625,-1.564453125,1.21044921875,43.25941176470588,324.48045941289865
-0.1285185546875,-0.3119853515625,0.6257861328125001,0.710957215666994,-0.9912109375,-0.66845703125,1.80078125,42.69470588235294,323.97872615066245
-0.1255888671875,-0.2529033203125,0.6594775390625001,0.717386421334038,-1.41650390625,0.201171875,2.28466796875,43.02411764705882,323.97872615066245
-0.1270537109375,-0.1923564453125,0.6414111328125001,0.6815804345871918,-1.58544921875,0.90966796875,2.5927734375,42.69470588235294,323.97872615066245
-0.0694365234375,-0.1137431640625,0.6746142578125001,0.6876505907813543,-1.55615234375,0.880859375,2.625,42.55352941176471,323.97872615066245
0.0023408203125,-0.0395244140625,0.7175830078125001,0.7186744964502038,-1.3681640625,-0.0234375,2.4150390625,43.91823529411765,323.2465071557997
0.0497041015625,0.0322529296875,0.7820361328125001,0.7842775415692409,-0.94482421875,-1.28173828125,2.03271484375,42.60058823529412,323.2465071557997
0.0819306640625,0.0835224609375,0.8543017578125001,0.8622761324519577,-0.2626953125,-2.4306640625,1.6201171875,44.01235294117648,323.2465071557997
0.0780244140625,0.0766865234375,0.9036181640625,0.9102166876576204,0.421875,-3.07373046875,0.751953125,43.91823529411765,323.2465071557997
0.0370087890625,0.0229755859375,0.9446337890625,0.945637627982104,0.6962890625,-2.86083984375,0.13330078125,43.49470588235295,323.2465071557997
-0.0284208984375,-0.0380595703125,1.0076220703125005,1.008741054454123,0.77392578125,-1.9716796875,-0.1591796875,43.447647058823534,322.4671856999364
-0.0738310546875,-0.1005595703125,1.0608447265625005,1.0681548509898595,0.78662109375,-0.99658203125,-0.03173828125,43.777058823529416,322.4671856999364
-0.1304716796875,-0.1528056640625,1.0808642578125005,1.0993816325492374,0.68212890625,0.18798828125,0.365234375,43.91823529411765,322.4671856999364
-0.1763701171875,-0.1879619140625,1.0803759765625005,1.1106972360225569,0.47607421875,0.8837890625,0.83935546875,42.60058823529412,322.4671856999364
-0.1265654296875,-0.2157939453125,1.0647509765625005,1.0937460751547017,0.35791015625,0.66943359375,1.19482421875,43.91823529411765,322.5949772043752
-0.0186552734375,-0.2509501953125,1.0613330078125005,1.0907574309747967,0.3974609375,-0.4296875,1.26708984375,42.60058823529412,322.5949772043752
0.1029267578125,-0.2616923828125,1.0950244140625005,1.1305553007654243,0.3740234375,-1.78271484375,1.08447265625,43.353529411764704,322.5949772043752
0.1532197265625,-0.2231181640625,1.1331103515625005,1.1649880121960916,0.0712890625,-2.66796875,0.7978515625,43.25941176470588,322.5949772043752
0.1327119140625,-0.1132548828125,1.2380908203125005,1.250323158210343,-0.34716796875,-2.66162109375,0.3349609375,42.69470588235294,322.5949772043752
0.1292939453125,0.0215107421875,1.4548876953125005,1.4607798746887388,-0.908203125,-2.619140625,-0.4384765625,43.353529411764704,323.36024020069414
0.1566376953125,0.1469990234375,1.7034228515625005,1.7169139441770838,-1.486328125,-2.36328125,-1.6416015625,43.447647058823534,323.36024020069414
0.3426728515625,0.2422138671875,1.7615283203125005,1.8108214334712516,-1.55859375,-1.2236328125,-1.93994140625,42.60058823529412,323.36024020069414
0.6493134765625,0.2119404296875,1.5164111328125005,1.6631384369015985,-1.10595703125,-0.646484375,-1.43603515625,43.30647058823529,323.36024020069414
0.8431611328125,0.2148701171875,1.2512744140625005,1.5240661148497732,-0.7958984375,-1.25244140625,-1.0546875,44.01235294117648,324.07496234346405
0.8187470703125,0.2153583984375,1.1301806640625005,1.412102807285511,-0.763671875,-1.8603515625,-0.8935546875,42.55352941176471,324.07496234346405
0.6898408203125,0.2285419921875,1.1521533203125005,1.3621927444637096,-0.8310546875,-1.57177734375,-0.94921875,42.60058823529412,324.07496234346405
0.4915986328125,0.2153583984375,1.2395556640625005,1.350757824286097,-0.384765625,-1.234375,-0.90673828125,42.69470588235294,324.07496234346405
-0.0328154296875,0.0044208984375,1.4392626953125005,1.439643533270223,1.32470703125,0.154296875,1.9599609375,43.118235294117646,324.07496234346405
0.0716767578125,0.1552998046875,1.3284228515625005,1.3393889873744416,1.3173828125,1.52783203125,4.01513671875,43.353529411764704,324.4333149709441
0.2210908203125,0.2807880859375,1.3308642578125005,1.3780140684164717,1.1484375,1.0673828125,2.4482421875,43.25941176470588,324.4333149709441
0.2538056640625,0.2358662109375,1.2878955078125005,1.3336885032179882,1.04150390625,0.30859375,-0.19580078125,42.97705882352941,324.4333149709441
0.2074189453125,0.1167255859375,1.2087939453125005,1.2320025501236442,0.5703125,0.31982421875,-1.814453125,43.30647058823529,324.4333149709441
0.1991181640625,0.0371357421875,1.1702197265625005,1.1876200213214032,0.31494140625,1.10302734375,-2.19482421875,43.25941176470588,324.81828123889346
0.1986298828125,-0.0170634765625,1.1682666015625005,1.1851547767717516,0.1689453125,1.9375,-1.93212890625,43.16529411764706,324.81828123889346
0.2933564453125,-0.0541728515625,1.1687548828125005,1.206225798907841,0.21337890625,2.4912109375,-1.58935546875,43.30647058823529,324.81828123889346
0.2733369140625,-0.0976298828125,1.1277392578125005,1.164491518311182,0.09765625,2.93798828125,-1.486328125,43.25941176470588,324.81828123889346
0.2415986328125,-0.1078837890625,1.0613330078125005,1.093817427540666,-0.0791015625,3.7099609375,-1.46728515625,42.69470588235294,324.81828123889346
0.2035126953125,-0.0937236328125,0.9397509765625,0.9660918354127124,-0.12353515625,4.28173828125,-1.4560546875,43.30647058823529,324.838829109406
0.1141572265625,-0.0688212890625,0.8401416015625001,0.8506504293072853,-0.193359375,4.69287109375,-1.49072265625,43.30647058823529,324.838829109406
0.0169892578125,-0.0331767578125,0.7756884765625001,0.7765835079447806,-0.1533203125,5.1015625,-1.38720703125,43.02411764705882,324.838829109406
-0.0347685546875,0.0127216796875,0.6809619140625001,0.6819676106185636,-0.32470703125,5.4296875,-1.34375,43.447647058823534,324.838829109406
-0.0464873046875,0.0469013671875,0.6126025390625001,0.6161515062117329,-0.568359375,5.4345703125,-1.42431640625,43.16529411764706,324.18222889884
0.0067353515625,0.0615498046875,0.5496142578125001,0.5530909290600643,-0.71142578125,4.6904296875,-1.6669921875,43.91823529411765,324.18222889884
0.0746064453125,0.0381123046875,0.4988330078125,0.5058191763209711,-0.755859375,3.2822265625,-1.71337890625,44.01235294117648,324.18222889884
0.0887666015625,-0.0087626953124999,0.4553759765625,0.4640297128550562,-0.64990234375,1.576171875,-1.349609375,44.01235294117648,324.18222889884
0.0892548828125,-0.0590556640625,0.4260791015625,0.4393147008148523,-0.62255859375,0.06787109375,-0.7255859375,42.60058823529412,324.18222889884
0.0741181640625,-0.0834697265625,0.4641650390625,0.4773990793710294,-0.5576171875,-0.6083984375,-0.1640625,43.91823529411765,324.5420974925256
0.0497041015625,-0.0927470703125,0.4768603515625,0.4883321734803046,-0.4462890625,-1.068359375,0.1259765625,44.01235294117648,324.5420974925256
-0.0196318359375,-0.1000712890625,0.5247119140625001,0.5345299473706219,-0.310546875,-1.06201171875,0.63037109375,43.25941176470588,324.5420974925256
-0.0240263671875,-0.0517314453125,0.5452197265625001,0.5481951832944504,-0.34033203125,-0.8515625,1.00830078125,42.69470588235294,324.5420974925256
-0.0352568359375,-0.0092509765624999,0.5798876953125001,0.5810321542070858,-0.33740234375,-0.57080078125,0.96630859375,43.447647058823534,324.4664034585311
-0.0586943359375,0.0200458984375,0.5935595703125001,0.5967912755937962,-0.36767578125,-0.4111328125,0.93359375,43.447647058823534,324.4664034585311
-0.0630888671875,0.0464130859375,0.6292041015625001,0.6340600769109476,-0.39599609375,-0.384765625,0.96630859375,43.49470588235295,324.4664034585311
-0.0894560546875,0.0649677734375,0.6702197265625001,0.6792773212607585,-0.34130859375,-0.490234375,1.23779296875,43.118235294117646,324.4664034585311
-0.0997099609375,0.0732685546875,0.7293017578125001,0.7397238750808003,-0.19091796875,-0.80126953125,1.7294921875,43.68294117647059,324.4664034585311
-0.1265654296875,0.0796162109375,0.8079150390625001,0.8216351132828897,-0.12548828125,-1.109375,2.30029296875,42.60058823529412,324.381193097114
-0.1031279296875,0.0786396484375,0.8870166015625001,0.8964474416470217,-0.115234375,-1.04345703125,2.64990234375,43.447647058823534,324.381193097114
-0.0733427734375,0.0991474609375,0.9807666015625,0.988490014196559,-0.04638671875,-0.91748046875,2.61767578125,43.118235294117646,324.381193097114
-0.0435576171875,0.1333271484375,1.0793994140625005,1.0884743862875217,-0.015625,-1.01220703125,2.29736328125,42.55352941176471,324.381193097114
-0.0132841796875,0.1723896484375,1.1848681640625005,1.197416897545385,0.04443359375,-1.26123046875,1.81298828125,42.60058823529412,324.4127686767414
0.0511689453125,0.2163349609375,1.2083056640625005,1.2285852245952429,0.2705078125,-1.62890625,1.52490234375,43.118235294117646,324.4127686767414
0.0633759765625,0.2441669921875,1.2200244140625005,1.2458304882236944,0.4677734375,-2.02587890625,1.59912109375,43.87117647058824,324.4127686767414
0.0497041015625,0.2705341796875,1.2371142578125005,1.2673243179921614,0.54541015625,-1.98291015625,1.66455078125,43.87117647058824,324.4127686767414
0.0052705078125,0.2832294921875,1.2146533203125005,1.247248737038275,0.564453125,-1.7509765625,1.2177734375,44.01235294117648,324.4127686767414
-0.0660185546875,0.2837177734375,1.2473681640625005,1.2809299595387764,0.37060546875,-1.24169921875,0.31494140625,43.118235294117646,324.531067946524
-0.1758818359375,0.2822529296875,1.3313525390625005,1.3722611704038297,0.25830078125,-0.2451171875,-0.19287109375,43.777058823529416,324.531067946524
-0.1934599609375,0.2265888671875,1.3875048828125005,1.4191332111707426,0.40771484375,0.64501953125,-0.10546875,43.777058823529416,324.531067946524
-0.1412138671875,0.1489521484375,1.4148486328125005,1.4296589637328188,0.69775390625,0.95166015625,0.55029296875,44.01235294117648,324.531067946524
0.0086884765625,0.1377216796875,1.5305712890625005,1.5367794967344428,0.85009765625,1.00048828125,0.9072265625,42.55352941176471,323.7752261355754
0.1073212890625,0.1186787109375,1.6375048828125005,1.64530384329175,1.1416015625,0.59130859375,0.6943359375,43.49470588235295,323.7752261355754
0.1366181640625,0.0781513671875,1.6477587890625005,1.6552586462175032,1.3603515625,0.34521484375,0.22998046875,43.16529411764706,323.7752261355754
0.2411103515625,0.0132099609375,1.5750048828125005,1.593408009764536,1.5146484375,0.12060546875,-0.07373046875,43.73,323.7752261355754
0.4388642578125,-0.0795634765625,1.4417041015625005,1.5091199091027074,1.33154296875,0.328125,-0.44970703125,43.118235294117646,323.7752261355754
0.6126923828125,-0.1694072265625,1.3943408203125005,1.5324089165616968,1.04296875,0.90234375,-1.1162109375,43.91823529411765,323.58427555897816
0.7401337890625,-0.2504619140625,1.3103564453125005,1.5256353462999852,0.56201171875,1.0576171875,-2.1181640625,43.16529411764706,323.58427555897816
0.7206025390625,-0.3354228515625,1.2712939453125005,1.4993214478696233,-0.01611328125,0.41015625,-3.14208984375,43.02411764705882,323.58427555897816
0.5877900390625,-0.4159892578125,1.2512744140625005,1.4436868953910829,-0.572265625,-0.4599609375,-3.8857421875,42.69470588235294,323.58427555897816
0.4237275390625,-0.4633525390625,1.1785205078125005,1.335346842640616,-0.94921875,-1.48046875,-3.93017578125,43.30647058823529,324.1902293324866
0.2831025390625,-0.5107158203125,1.0916064453125005,1.2379750919097268,-1.0634765625,-3.05322265625,-3.2177734375,42.97705882352941,324.1902293324866
0.1341767578125,-0.5785869140625,1.0164111328125005,1.1772246218826,-0.9365234375,-5.30224609375,-1.46337890625,43.118235294117646,324.1902293324866
0.0623994140625,-0.5160869140625,1.0418017578125005,1.1642981973373974,-0.70703125,-6.8857421875,1.150390625,42.60058823529412,324.1902293324866
0.1263642578125,-0.3617900390625,1.0872119140625005,1.1527747846378298,-0.2548828125,-7.9306640625,3.345703125,44.01235294117648,324.1902293324866
0.1761689453125,-0.1752666015625,1.1462939453125005,1.1729210067075635,-0.21826171875,-6.8076171875,3.7216796875,43.02411764705882,324.4237981921262
0.2318330078125,0.0298115234375,1.2249072265625005,1.2470096166935087,-0.3525390625,-4.38427734375,2.46044921875,43.30647058823529,324.4237981921262
0.2308564453125,0.1582294921875,1.2371142578125005,1.2683780814186325,-0.5537109375,-1.05859375,0.34912109375,42.60058823529412,324.4237981921262
0.1795869140625,0.2065693359375,1.3225634765625005,1.3505911667818795,-0.5625,2.1513671875,-1.20166015625,44.01235294117648,324.4237981921262
0.0721650390625,0.1909443359375,1.0481494140625005,1.067841152273627,-0.44580078125,4.33740234375,-0.92041015625,42.60058823529412,324.35113129104815
0.0716767578125,0.1762958984375,0.9197314453125,0.9392144232884296,-0.18896484375,6.21435546875,0.0849609375,43.73,324.35113129104815
0.1087861328125,0.1240498046875,0.7888720703125001,0.8059416356377401,-0.02001953125,7.3623046875,0.62646484375,43.447647058823534,324.35113129104815
0.1742158203125,0.0610615234375,0.6379931640625001,0.6641648433048424,0.1865234375,7.26025390625,0.72314453125,42.60058823529412,324.35113129104815
0.2318330078125,0.0127216796875,0.5203173828125001,0.5697706235866428,0.30615234375,6.0283203125,0.0966796875,42.60058823529412,324.35113129104815
0.2557587890625,-0.0400126953125,0.4368212890625,0.5077661002342629,0.462890625,4.10009765625,-0.65185546875,43.777058823529416,324.3937360153291
0.2098603515625,-0.0888408203125,0.3909228515625,0.4524983252847356,0.72119140625,1.373046875,-0.91259765625,42.93,324.3937360153291
0.1454072265625,-0.1181376953125,0.3933642578125,0.4357008330434155,0.677734375,-0.66162109375,-0.966796875,43.91823529411765,324.3937360153291
0.1097626953125,-0.1347392578125,0.4226611328125,0.4569955689812253,0.59130859375,-1.65185546875,-1.07958984375,43.02411764705882,324.3937360153291
0.0843720703125,-0.1459697265625,0.4387744140625,0.4700519053864569,0.466796875,-2.3310546875,-1.2119140625,43.73,324.4142817436484
0.0594697265625,-0.1825908203125,0.4573291015625,0.4960100434222816,0.26708984375,-2.83984375,-1.14111328125,42.60058823529412,324.4142817436484
0.0379853515625,-0.1952861328125,0.5266650390625001,0.5629881206321256,-0.01220703125,-2.88671875,-0.984375,43.353529411764704,324.4142817436484
0.0199189453125,-0.1845439453125,0.5710986328125001,0.6005055208190614,-0.24755859375,-2.7978515625,-0.86767578125,43.25941176470588,324.4142817436484
0.0204072265625,-0.1557353515625,0.6140673828125001,0.6338364972581353,-0.443359375,-2.43701171875,-0.85791015625,44.01235294117648,324.4142817436484
0.0062470703125,-0.1254619140625,0.6692431640625001,0.6809303418207342,-0.62255859375,-1.8076171875,-1.01416015625,44.01235294117648,324.2849538890844
-0.0025419921874999,-0.0810283203125,0.7322314453125001,0.7367054634800663,-0.6357421875,-1.1064453125,-1.25341796875,44.01235294117648,324.2849538890844
-0.0313505859375,-0.0297587890625,0.7649462890625001,0.766166607152505,-0.5634765625,-0.56640625,-1.39306640625,43.02411764705882,324.2849538890844
-0.0411162109375,0.0068623046875,0.8191455078125001,0.8202054602335196,-0.33544921875,-0.39111328125,-1.40234375,43.25941176470588,324.2849538890844
-0.0372099609375,0.0283466796875,0.8323291015625001,0.833642518559433,-0.21875,-0.59033203125,-1.21875,42.60058823529412,323.7246276750904
0.0150361328125,0.0654560546875,0.9099658203125,0.9124408882345252,0.07568359375,-0.8291015625,-1.2568359375,43.73,323.7246276750904
0.0550751953125,0.0527607421875,0.9636767578125,0.9666901606010572,0.25244140625,-0.75390625,-1.56884765625,42.60058823529412,323.7246276750904
0.0790009765625,0.0263935546875,1.0359423828125005,1.0392855211798688,0.330078125,-0.32958984375,-1.9580078125,43.02411764705882,323.7246276750904
0.0589814453125,-0.0429423828125,1.0974658203125005,1.0998882151777771,0.59130859375,0.43603515625,-2.06787109375,44.01235294117648,323.7246276750904
0.0462861328125,-0.1000712890625,1.0920947265625005,1.0976463732782926,0.75927734375,0.4990234375,-1.658203125,43.25941176470588,322.7212489344983
0.0272431640625,-0.1357158203125,1.1555712890625005,1.1638324527082065,1.06982421875,0.3447265625,-1.3642578125,43.91823529411765,322.7212489344983
0.0077119140625,-0.1703837890625,1.2019580078125005,1.2139988310284306,1.19677734375,0.4306640625,-1.306640625,44.01235294117648,322.7212489344983
-0.0132841796875,-0.2162822265625,1.2078173828125005,1.227101178053725,1.109375,0.7744140625,-1.43115234375,43.91823529411765,322.7212489344983
-0.0269560546875,-0.2719462890625,1.1960986328125005,1.2269202714256182,0.953125,1.130859375,-1.4248046875,43.87117647058824,323.30660986148075
0.0374970703125,-0.2861064453125,1.2029345703125005,1.237058813793546,0.787109375,1.3076171875,-1.40478515625,43.91823529411765,323.30660986148075
0.0907197265625,-0.2909892578125,1.2336962890625005,1.2707916235939032,0.8564453125,1.2880859375,-1.46484375,42.74176470588235,323.30660986148075
0.0721650390625,-0.2968486328125,1.2473681640625005,1.284232938520966,0.97509765625,1.1201171875,-1.2705078125,42.60058823529412,323.30660986148075
0.0145478515625,-0.2851298828125,1.2507861328125005,1.282956211292421,0.990234375,0.96435546875,-0.63720703125,43.16529411764706,323.30660986148075
-0.0337919921875,-0.2421611328125,1.2122119140625005,1.23662509984882,0.9208984375,0.21142578125,0.2099609375,42.60058823529412,323.6694790095898
-0.0777373046875,-0.1386455078125,1.3147509765625005,1.3243246564754094,0.84521484375,0.3251953125,0.60693359375,43.25941176470588,323.6694790095898
-0.0918974609375,-0.0488017578125,1.4216845703125005,1.4254872052589556,0.95751953125,0.61962890625,0.41748046875,42.60058823529412,323.6694790095898
-0.1226591796875,0.0390888671875,1.5569384765625005,1.5622517830683926,0.8017578125,1.64404296875,-0.12939453125,43.87117647058824,323.6694790095898
-0.0459990234375,0.0810810546875,1.6052783203125005,1.6079827527842965,0.404296875,1.99658203125,-0.77978515625,43.87117647058824,322.7086983182575
0.0506806640625,0.0659443359375,1.5535205078125005,1.5557452083635233,0.24853515625,1.6552734375,-0.640625,43.30647058823529,322.7086983182575
0.2415986328125,0.0473896484375,1.4929736328125005,1.513137781707024,0.63330078125,2.177734375,-0.45166015625,44.01235294117648,322.7086983182575
0.4178681640625,0.0263935546875,1.3665087890625005,1.429215411633623,0.79296875,2.53125,-0.69384765625,42.55352941176471,322.7086983182575
0.5374970703125,0.0044208984375,1.2336962890625005,1.3457076869008735,0.6875,2.92333984375,-1.11181640625,43.118235294117646,322.7086983182575
0.6068330078125,-0.0165751953125,1.1043017578125005,1.260160072680527,0.29248046875,2.8037109375,-1.6455078125,43.87117647058824,323.82885829818224
0.6336884765625,0.0215107421875,1.1052783203125005,1.2742307337018604,-0.02734375,2.740234375,-2.14013671875,43.25941176470588,323.82885829818224
0.6380830078125,0.0610615234375,1.1550830078125005,1.321020510605618,-0.3232421875,2.41943359375,-2.4443359375,44.01235294117648,323.82885829818224
0.6185517578125,0.0981708984375,1.1243212890625005,1.2869895739407224,-0.72412109375,2.076171875,-2.3076171875,43.87117647058824,323.82885829818224
0.5814423828125,0.1269794921875,1.1116259765625005,1.2609168678923308,-1.0029296875,2.3388671875,-1.54541015625,43.87117647058824,324.94761302759605
0.5174775390625,0.0927998046875,1.1414111328125005,1.2566678882236686,-0.5126953125,1.947265625,-0.33740234375,42.69470588235294,324.94761302759605
0.3646455078125,-0.0155986328124999,1.2043994140625005,1.2584862384259707,-0.1533203125,2.2646484375,0.6748046875,43.353529411764704,324.94761302759605
0.2323212890625,-0.1479228515625,1.1682666015625005,1.2002921326462308,0.2412109375,1.990234375,1.58349609375,43.91823529411765,324.94761302759605
0.1888642578125,-0.1835673828125,1.1980517578125005,1.2266599799085804,0.60498046875,2.44970703125,1.5224609375,43.118235294117646,324.94761302759605
0.0970673828125,-0.2436259765625,1.1384814453125005,1.168296064609883,0.60986328125,1.8896484375,1.5810546875,42.69470588235294,324.40325218086764
0.0296845703125,-0.2655986328125,1.1443408203125005,1.1751339159857457,0.54736328125,1.89697265625,1.63818359375,42.60058823529412,324.40325218086764
-0.0499052734375,-0.2826884765625,1.0867236328125005,1.1239980272274932,0.46337890625,2.0126953125,1.92626953125,42.60058823529412,324.40325218086764
-0.0699248046875,-0.2807353515625,1.0076220703125005,1.0483339413127646,0.57080078125,2.498046875,2.12890625,42.74176470588235,324.40325218086764
-0.0855498046875,-0.3217509765625,0.9246142578125,0.98272782892882,0.5810546875,2.8408203125,2.44970703125,43.353529411764704,324.86391098516367
-0.0875029296875,-0.3334697265625,0.7986376953125001,0.8698741228543506,0.73583984375,2.736328125,2.681640625,43.777058823529416,324.86391098516367
-0.0313505859375,-0.3056376953125,0.6067431640625001,0.6800989098441013,0.23828125,1.083984375,2.07470703125,43.91823529411765,324.86391098516367
-0.0738310546875,-0.2553447265625,0.5935595703125001,0.6503575305392459,0.03564453125,0.28271484375,1.2216796875,43.447647058823534,324.86391098516367
-0.0601591796875,-0.2045634765625,0.5686572265625001,0.6073190135058871,-0.42626953125,-0.177734375,0.87744140625,44.01235294117648,324.86391098516367
-0.0562529296875,-0.1469462890625,0.5935595703125001,0.6140607196989776,-0.748046875,0.4482421875,1.080078125,43.87117647058824,324.7566391243692
-0.0167021484375,-0.1073955078125,0.5955126953125001,0.6053495908473809,-0.87060546875,1.439453125,1.57177734375,42.60058823529412,324.7566391243692
0.0428681640625,-0.0517314453125,0.5793994140625001,0.5832816668987445,-1.02880859375,1.95068359375,1.84130859375,43.118235294117646,324.7566391243692
0.0741181640625,-0.0292705078125,0.5554736328125001,0.5611606023426033,-0.91943359375,2.22509765625,2.1220703125,43.02411764705882,324.7566391243692
0.0980439453125,-0.0287822265625,0.4949267578125,0.5053647468681691,-0.76953125,1.78466796875,2.4619140625,43.49470588235295,325.0217979342824
0.1112275390625,-0.0077861328124999,0.4998095703125,0.5120954948894199,-0.7509765625,1.0732421875,2.580078125,43.353529411764704,325.0217979342824
0.0672822265625,-0.0024150390624999,0.5413134765625001,0.5454841980599083,-0.59814453125,0.43994140625,2.302734375,43.447647058823534,325.0217979342824
-0.0123076171875,-0.0097392578124999,0.5969775390625001,0.5971838182073349,-0.3759765625,0.41259765625,2.2001953125,43.02411764705882,325.0217979342824
-0.0547880859375,-0.0058330078124999,0.6423876953125001,0.6447462364603155,-0.109375,0.7353515625,2.3583984375,43.16529411764706,325.0217979342824
-0.0806669921875,-0.0243876953125,0.6458056640625001,0.6512809524670902,0.17626953125,0.6650390625,2.61572265625,42.97705882352941,324.7977336178897
-0.1167998046875,-0.0424541015625,0.6672900390625001,0.6787639805901239,0.14892578125,0.396484375,2.8349609375,44.01235294117648,324.7977336178897
-0.0948271484375,-0.0097392578124999,0.7488330078125001,0.7548760923575748,-0.05126953125,0.5986328125,2.78369140625,42.60058823529412,324.7977336178897
-0.0601591796875,2.6367187500001e-05,0.7830126953125001,0.785320322299409,-0.0771484375,0.34765625,2.79052734375,42.74176470588235,324.7977336178897
-0.0728544921875,-0.0180400390625,0.8084033203125001,0.8118800085810399,0.0478515625,-0.5517578125,3.2734375,43.25941176470588,324.9491243310395
-0.0474638671875,-0.0346416015625,0.8972705078125001,0.8991925396917555,0.02978515625,-0.48681640625,3.68994140625,43.02411764705882,324.9491243310395
-0.0074248046875,-0.0531962890625,0.9348681640625,0.9364098766417716,0.03466796875,-0.3330078125,3.5693359375,43.447647058823534,324.9491243310395
0.0111298828125,0.0024677734375,1.0051806640625005,1.0052453091670153,-0.060546875,-0.18798828125,2.7568359375,42.69470588235294,324.9491243310395
-0.0821318359375,0.0073505859375,1.0837939453125005,1.0869263937747229,-0.07275390625,-0.01416015625,2.13623046875,43.353529411764704,324.9491243310395
-0.1626982421875,0.0410419921875,1.1433642578125005,1.155611089067923,-0.06884765625,0.1025390625,1.8232421875,43.353529411764704,324.42682488763245
-0.1749052734375,0.0732685546875,1.1755908203125005,1.1907870979252586,-0.0146484375,0.19970703125,1.60888671875,43.25941176470588,324.42682488763245
-0.1631865234375,0.0962177734375,1.1687548828125005,1.1840083097068823,0.11328125,0.2412109375,1.37890625,42.60058823529412,324.42682488763245
-0.1685576171875,0.1074482421875,1.1902392578125005,1.2069077371113184,0.220703125,0.4326171875,1.14990234375,43.777058823529416,324.42682488763245
-0.2032255859375,0.1069599609375,1.2092822265625005,1.2308958426704308,0.32568359375,0.6328125,0.98095703125,43.02411764705882,324.24537742550723
-0.2496123046875,0.0757099609375,1.2351611328125005,1.2624029962128662,0.4052734375,0.7236328125,1.158203125,43.73,324.24537742550723
-0.2964873046875,0.0395771484375,1.2698291015625005,1.3045830827104608,0.5947265625,0.89453125,1.513671875,42.60058823529412,324.24537742550723
-0.3174833984375,-0.0087626953124999,1.2459033203125005,1.2857478666823745,0.75244140625,1.07958984375,1.74560546875,43.02411764705882,324.24537742550723
-0.3501982421875,-0.0658916015625,1.2698291015625005,1.318880760024466,0.76025390625,1.3671875,1.8173828125,42.83588235294118,324.24537742550723
-0.3877958984375,-0.0937236328125,1.3909228515625005,1.447009383933386,0.6513671875,1.60107421875,1.8974609375,42.69470588235294,324.00078552463566
-0.3423857421875,-0.1039775390625,1.5994189453125005,1.6389570731740748,0.68701171875,1.02880859375,2.2548828125,43.447647058823534,324.00078552463566
-0.2237333984375,-0.1855205078125,1.6624072265625005,1.687623263445555,0.76318359375,0.00634765625,2.71875,43.447647058823534,324.00078552463566
-0.1070341796875,-0.2572978515625,1.5295947265625005,1.5547728218514318,0.86572265625,-0.11572265625,3.05615234375,43.118235294117646,324.00078552463566
0.1356416015625,-0.3134501953125,1.4006884765625005,1.4417273935771846,0.8232421875,0.05859375,2.96484375,43.02411764705882,323.7657128396779
0.4564423828125,-0.3197978515625,1.3093798828125005,1.423055161336208,0.41357421875,0.142578125,2.392578125,43.118235294117646,323.7657128396779
0.6351533203125,-0.2895244140625,1.1628955078125005,1.3563075199720454,0.1044921875,0.81689453125,1.45458984375,42.55352941176471,323.7657128396779
0.6800751953125,-0.2519267578125,1.1506884765625005,1.360166656213488,-0.39306640625,1.57373046875,0.4384765625,43.02411764705882,323.7657128396779
0.6429658203125,-0.2934306640625,1.1443408203125005,1.3449990757378876,-0.70849609375,1.40576171875,-0.20703125,43.353529411764704,323.7657128396779
0.5736298828125,-0.3774150390625,1.1204150390625005,1.3140864560307497,-0.8896484375,1.1962890625,-0.30419921875,42.55352941176471,324.18071410773905
0.5389619140625,-0.4013408203125,1.0872119140625005,1.2781174222028544,-0.9892578125,0.8876953125,-0.2890625,42.55352941176471,324.18071410773905
0.4935517578125,-0.3925517578125,1.0828173828125005,1.253069712634698,-1.2080078125,0.39794921875,-0.3466796875,44.01235294117648,324.18071410773905
0.4857392578125,-0.3412822265625,1.1091845703125005,1.2580566743064563,-1.3154296875,0.0927734375,-0.0390625,43.87117647058824,324.18071410773905
0.0638642578125,-0.3569072265625,1.1829150390625005,1.2372345781777656,-0.484375,0.1220703125,2.46875,43.87117647058824,324.79924537998915
-0.1011748046875,-0.2548564453125,1.2131884765625005,1.2437903474802,-0.234375,0.68505859375,5.27294921875,43.25941176470588,324.79924537998915
-0.1231474609375,-0.0434306640625,1.2087939453125005,1.21582660027671,-0.24560546875,1.16162109375,6.3359375,43.87117647058824,324.79924537998915
-0.0879912109375,0.1640888671875,1.2439501953125005,1.25780749638215,-0.43017578125,1.5966796875,5.072265625,43.777058823529416,324.79924537998915
-0.0552763671875,0.2456318359375,1.2385791015625005,1.2639100705441209,-0.2080078125,1.84423828125,3.6630859375,44.01235294117648,324.79924537998915
-0.0406279296875,0.2441669921875,1.1047900390625005,1.1321789519136558,0.3388671875,1.32958984375,3.2255859375,42.69470588235294,324.45688682188626
0.0511689453125,0.2138935546875,0.9734423828125,0.997977347617132,0.49755859375,2.0107421875,3.3544921875,43.16529411764706,324.45688682188626
0.1405244140625,0.1855732421875,0.8982470703125001,0.927918282225638,0.3583984375,3.72412109375,2.63671875,42.55352941176471,324.45688682188626
0.1644501953125,0.0996357421875,0.7659228515625001,0.7896891555575554,0.50927734375,4.44091796875,1.873046875,43.25941176470588,324.45688682188626
0.0902314453125,0.0332294921875,0.6458056640625001,0.6529248567863138,0.5537109375,4.0830078125,1.35009765625,43.25941176470588,324.4458572646986
0.0096650390625,-0.0126689453124999,0.5706103515625001,0.5708328025487767,0.64208984375,3.380859375,1.376953125,43.87117647058824,324.4458572646986
-0.0313505859375,-0.0883525390625,0.5222705078125001,0.5306180488149097,1.0302734375,1.7685546875,2.2744140625,43.353529411764704,324.4458572646986
-0.1207060546875,-0.1762431640625,0.4661181640625,0.5127355530738811,1.5458984375,0.517578125,3.80517578125,42.60058823529412,324.4458572646986
-0.0479521484375,-0.0986064453125,0.5432666015625001,0.554221291516491,0.66748046875,0.697265625,3.9931640625,42.60058823529412,324.4458572646986
-0.0381865234375,-0.0600322265625,0.6272509765625001,0.631273210580731,0.59423828125,0.76416015625,3.08544921875,42.60058823529412,324.5942202860779
-0.0792021484375,-0.0893291015625,0.6140673828125001,0.6255648801981076,0.46337890625,0.9150390625,2.107421875,43.25941176470588,324.5942202860779
-0.1021513671875,-0.1103251953125,0.6238330078125001,0.6416963239534784,0.29443359375,0.98388671875,1.27685546875,43.118235294117646,324.5942202860779
-0.0982451171875,-0.1064189453125,0.6365283203125001,0.6527981292348065,0.12646484375,1.0234375,0.69970703125,42.60058823529412,324.5942202860779
-0.0582060546875,-0.0844462890625,0.6194384765625001,0.6278719190924074,0.001953125,0.90625,0.36767578125,43.30647058823529,324.86391098516367
-0.0694365234375,-0.0688212890625,0.6379931640625001,0.6454402203192723,-0.08544921875,0.97216796875,0.24755859375,43.87117647058824,324.86391098516367
-0.0987333984375,-0.0531962890625,0.6121142578125001,0.6223037793187399,0.02099609375,0.6357421875,0.48095703125,42.60058823529412,324.86391098516367
-0.0967802734375,-0.0141337890624999,0.6199267578125001,0.6275949094533978,0.01904296875,0.466796875,0.408203125,43.353529411764704,324.86391098516367
-0.1109404296875,0.0034443359375,0.6555712890625001,0.6649010132586395,0.16162109375,0.529296875,0.1123046875,42.69470588235294,324.86391098516367
-0.1128935546875,0.0024677734375,0.6638720703125001,0.6734071356443466,0.2275390625,0.68408203125,-0.2099609375,42.69470588235294,324.68245673180263
-0.1075224609375,0.0083271484375,0.6834033203125001,0.6918601876255823,0.1767578125,0.80859375,-0.552734375,42.55352941176471,324.68245673180263
-0.1124052734375,-0.0004619140624999,0.7063525390625001,0.7152405667334599,0.158203125,0.9013671875,-0.62841796875,43.91823529411765,324.68245673180263
-0.1221708984375,-0.0072978515624999,0.7249072265625001,0.7351662901582131,0.03564453125,0.8359375,-0.82373046875,43.25941176470588,324.68245673180263
-0.1758818359375,-0.0097392578124999,0.7615283203125001,0.7816358845354157,-0.05908203125,0.7490234375,-0.85498046875,43.87117647058824,323.9471528313468
-0.2286162109375,-0.0121806640624999,0.8044970703125001,0.8364384475989962,0.01904296875,0.76123046875,-0.80078125,43.30647058823529,323.9471528313468
-0.2754912109375,-0.0229228515625,0.8318408203125001,0.876572880464448,0.09326171875,0.92333984375,-0.76708984375,42.69470588235294,323.9471528313468
-0.3062529296875,-0.0385478515625,0.8792041015625001,0.931813632657617,0.27294921875,0.90234375,-0.6865234375,44.01235294117648,323.9471528313468
-0.3189482421875,-0.0737041015625,0.8875048828125001,0.9459520034323416,0.458984375,1.1923828125,-0.50390625,42.69470588235294,323.9471528313468
-0.2984404296875,-0.0961650390625,0.8640673828125001,0.919199024613492,0.47705078125,1.60498046875,-0.294921875,43.30647058823529,323.49907279379005
-0.2491240234375,-0.0966533203125,0.8684619140625001,0.908642250590528,0.4921875,1.8134765625,-0.42578125,42.60058823529412,323.49907279379005
-0.2256865234375,-0.1137431640625,0.8845751953125001,0.9199702116886186,0.435546875,1.83349609375,-0.6962890625,42.97705882352941,323.49907279379005
-0.2310576171875,-0.1288798828125,0.9182666015625,0.9556208443725326,0.25048828125,1.82177734375,-0.916015625,42.60058823529412,323.49907279379005
-0.2388701171875,-0.1371806640625,0.9294970703125,0.9694546256516182,0.06689453125,1.75830078125,-1.08935546875,43.30647058823529,323.59378814973127
-0.2481474609375,-0.1655009765625,0.9251025390625,0.971999199275778,-0.14794921875,1.7099609375,-1.2294921875,43.73,323.59378814973127
-0.2725615234375,-0.1987041015625,0.9358447265625,0.9947755808578996,-0.3701171875,1.74560546875,-1.384765625,43.73,323.59378814973127
-0.2999052734375,-0.2289775390625,0.9812548828125,1.0513015892093542,-0.60302734375,1.72119140625,-1.365234375,43.87117647058824,323.59378814973127
-0.3072294921875,-0.2485087890625,1.0286181640625005,1.101908302242255,-0.8154296875,1.724609375,-1.1943359375,43.91823529411765,323.59378814973127
-0.3370146484375,-0.2304423828125,1.1101611328125005,1.1828526137542617,-0.876953125,1.87060546875,-0.81591796875,42.69470588235294,323.59378814973127
-0.3233427734375,-0.1532939453125,1.3342822265625005,1.3814335463294316,-1.1943359375,1.68701171875,-0.359375,42.788823529411765,323.59378814973127
-0.2164091796875,-0.1532939453125,1.6887744140625005,1.7094709673798585,-1.41064453125,0.74365234375,0.16357421875,44.01235294117648,323.59378814973127
0.0414033203125,0.0454365234375,1.8562548828125005,1.8572724362785968,-1.48388671875,-0.67333984375,0.40966796875,42.69470588235294,323.59378814973127
0.2108369140625,0.0019794921875,1.5354541015625005,1.5498630328922047,-1.18408203125,-0.578125,0.482421875,42.69470588235294,324.13962522519944
0.3343720703125,0.0254169921875,1.3137744140625005,1.3558959827148218,-1.15625,-0.26708984375,0.4267578125,43.447647058823534,324.13962522519944
0.4452119140625,0.2446552734375,1.4680712890625005,1.5534809818641502,-1.212890625,0.11181640625,-0.943359375,43.447647058823534,324.13962522519944
0.3031220703125,0.3979755859375,1.5061572265625005,1.5870655776114846,-0.99365234375,-0.1435546875,-1.5556640625,43.447647058823534,324.13962522519944
0.1278291015625,0.4927021484375,1.5593798828125005,1.6403540182538436,-0.5478515625,-0.84375,-0.44091796875,43.777058823529416,324.13962522519944
0.0057587890625,0.4409443359375,1.6111376953125005,1.6703980795917197,0.015625,-1.36572265625,0.98095703125,43.16529411764706,324.40476562549594
-0.0806669921875,0.2837177734375,1.5706103515625005,1.5980675251778915,0.470703125,-1.0732421875,1.57958984375,42.60058823529412,324.40476562549594
-0.1734404296875,0.1445576171875,1.5598681640625005,1.576124099363,0.603515625,-0.484375,1.10498046875,43.02411764705882,324.40476562549594
-0.2476591796875,0.0332294921875,1.6028369140625005,1.622197719612478,0.62060546875,-0.123046875,0.09912109375,43.30647058823529,324.40476562549594
-0.2823271484375,-0.0365947265625,1.5803759765625005,1.605813195877064,0.72119140625,0.0380859375,-0.4951171875,43.353529411764704,324.22331814649806
-0.2447294921875,-0.0278056640625,1.4978564453125005,1.517972203324062,0.7998046875,-0.11328125,-0.55810546875,42.60058823529412,324.22331814649806
-0.1402373046875,-0.0136455078124999,1.4050830078125005,1.4121299374890748,0.8408203125,-0.17919921875,-0.5126953125,43.16529411764706,324.22331814649806
0.0331025390625,-0.0571025390625,1.2678759765625005,1.2695928363077993,0.5009765625,-0.39990234375,-0.7041015625,43.118235294117646,324.22331814649806
0.1336884765625,-0.0829814453125,1.1809619140625005,1.1913981582568935,-0.01806640625,-0.78125,-1.01416015625,43.118235294117646,324.22331814649806
0.1371064453125,-0.0868876953125,1.1013720703125005,1.11326909873911,-0.33349609375,-0.861328125,-1.453125,44.01235294117648,324.3496177139917
0.0707001953125,-0.0639384765625,1.0237353515625005,1.0281637595447308,-0.423828125,-0.6796875,-1.9140625,42.55352941176471,324.3496177139917
0.0150361328125,-0.0243876953125,0.9524462890625,0.9528771056760352,-0.52197265625,-0.5390625,-2.3623046875,43.447647058823534,324.3496177139917
-0.0562529296875,0.0127216796875,0.8684619140625001,0.8703748212176173,-0.744140625,-0.59423828125,-2.57373046875,43.25941176470588,324.3496177139917
-0.1358427734375,0.0449482421875,0.8113330078125001,0.8238536600252597,-0.986328125,-0.64599609375,-2.2021484375,42.69470588235294,324.2864675372472
-0.1729521484375,0.0610615234375,0.7839892578125001,0.8051584388547698,-1.08935546875,-0.5283203125,-1.45556640625,43.25941176470588,324.2864675372472
-0.1568388671875,0.0620380859375,0.7517626953125001,0.7704507151213255,-0.93408203125,-0.48388671875,-0.75341796875,43.30647058823529,324.2864675372472
-0.1417021484375,0.0219990234375,0.7122119140625001,0.7265048289148373,-0.64111328125,-0.40966796875,-0.10009765625,42.74176470588235,324.2864675372472
-0.1075224609375,-0.0126689453124999,0.6448291015625001,0.6538548401620106,-0.43115234375,-0.30126953125,0.29833984375,43.353529411764704,324.2864675372472
-0.0718779296875,-0.0390361328125,0.6209033203125001,0.6262676661110674,-0.19873046875,-0.32373046875,0.400390625,43.30647058823529,325.0107684358638
-0.0528349609375,-0.0639384765625,0.5710986328125001,0.5770903831140382,0.0,-0.5390625,0.4140625,42.60058823529412,325.0107684358638
-0.0621123046875,-0.0878642578125,0.5544970703125001,0.5648407449712528,0.11328125,-0.66943359375,0.49365234375,42.788823529411765,325.0107684358638
-0.0860380859375,-0.1015361328125,0.5535205078125001,0.5692952582512121,0.19287109375,-0.6748046875,0.77490234375,43.777058823529416,325.0107684358638
-0.0914091796875,-0.0990947265625,0.5525439453125001,0.5687532105097441,0.09326171875,-0.71240234375,0.87548828125,43.30647058823529,324.83082223882485
-0.0713896484375,-0.0795634765625,0.5540087890625001,0.5642274072262344,-0.048828125,-0.830078125,1.16650390625,43.49470588235295,324.83082223882485
-0.0542998046875,-0.0580791015625,0.5701220703125001,0.5756394929856873,-0.1376953125,-0.88623046875,1.28369140625,43.87117647058824,324.83082223882485
-0.0528349609375,-0.0287822265625,0.5842822265625001,0.5873718327771557,-0.2080078125,-0.86279296875,1.4169921875,43.25941176470588,324.83082223882485
-0.0513701171875,-0.0087626953124999,0.6311572265625001,0.6333049174063503,-0.26416015625,-0.89404296875,1.3349609375,43.54176470588236,324.83082223882485
-0.0948271484375,-0.0429423828125,0.6731494140625001,0.6811507689014893,-0.318359375,-0.99755859375,1.2666015625,43.777058823529416,324.6603975367731
-0.0909208984375,-0.0331767578125,0.7210009765625001,0.7274680166410825,-0.33935546875,-0.96923828125,1.35400390625,44.01235294117648,324.6603975367731
-0.1285185546875,-0.0649150390625,0.7229541015625001,0.7371523683482889,-0.38916015625,-1.056640625,1.74853515625,42.60058823529412,324.6603975367731
-0.1568388671875,-0.0517314453125,0.7454150390625001,0.7634907682187958,-0.59033203125,-1.16064453125,2.31640625,43.25941176470588,324.6603975367731
-0.1500029296875,-0.0155986328124999,0.7864306640625001,0.8007605045444219,-0.68310546875,-1.22265625,2.6494140625,43.49470588235295,324.3305859947871
-0.1451201171875,0.0219990234375,0.8025439453125001,0.8158557406812006,-0.73193359375,-1.2490234375,2.890625,43.16529411764706,324.3305859947871
-0.1094755859375,0.0678974609375,0.8088916015625001,0.8190852166877782,-0.87841796875,-1.35498046875,2.97998046875,43.447647058823534,324.3305859947871
-0.1221708984375,0.1230732421875,0.8997119140625001,0.9162719463530336,-0.76171875,-1.16162109375,2.8291015625,43.447647058823534,324.3305859947871
-0.1758818359375,0.1665302734375,0.9724658203125,1.002175894671179,-0.67236328125,-1.279296875,3.02685546875,43.02411764705882,324.3305859947871
-0.2046904296875,0.2226826171875,1.0701220703125005,1.112046296416224,-0.49267578125,-1.38818359375,3.5439453125,42.97705882352941,323.97872615066245
-0.1900419921875,0.2866474609375,1.1458056640625005,1.196308215074283,-0.31640625,-1.3046875,3.96728515625,43.91823529411765,323.97872615066245
-0.1841826171875,0.3471943359375,1.2156298828125005,1.2775848916482426,0.08203125,-1.14599609375,4.04443359375,43.447647058823534,323.97872615066245
-0.1739287109375,0.3564716796875,1.2507861328125005,1.312169655549029,0.4736328125,-0.71826171875,3.5654296875,43.25941176470588,323.97872615066245
-0.1802763671875,0.3261982421875,1.2859423828125005,1.338862455103596,0.74658203125,-0.24755859375,2.685546875,43.353529411764704,324.18071410773905
-0.1832060546875,0.2837177734375,1.3230517578125005,1.3654765421966204,0.8779296875,0.5087890625,1.642578125,43.25941176470588,324.18071410773905
-0.2115263671875,0.2070576171875,1.3181689453125005,1.3509943113267264,0.96923828125,0.7705078125,0.9326171875,43.30647058823529,324.18071410773905
-0.2457060546875,0.1611591796875,1.3992236328125005,1.4297449147063457,0.96044921875,0.93701171875,0.80419921875,42.69470588235294,324.18071410773905
-0.2310576171875,0.1352802734375,1.5540087890625005,1.5769057331765868,1.03564453125,0.82080078125,1.216796875,43.30647058823529,324.18071410773905
-0.2012724609375,0.1181904296875,1.6067431640625005,1.6236080735396483,1.34375,-0.05517578125,1.7119140625,43.91823529411765,323.81782864318234
-0.1495146484375,0.1211201171875,1.5960009765625005,1.607558344220625,1.712890625,-0.794921875,1.4423828125,42.97705882352941,323.81782864318234
0.1063447265625,0.0566669921875,1.5779345703125005,1.5825289435136805,1.94970703125,-0.9482421875,1.01513671875,42.74176470588235,323.81782864318234
0.1268525390625,-0.0658916015625,1.5691455078125005,1.5756430098569991,1.85107421875,-1.01416015625,0.50537109375,43.447647058823534,323.81782864318234
0.4427705078125,-0.1630595703125,1.4177783203125005,1.4942320809054968,1.9951171875,-0.7958984375,-0.4404296875,43.447647058823534,323.4153889922528
0.5101533203125,-0.2909892578125,1.2756884765625005,1.4043903473117758,0.662109375,-0.70263671875,-0.98486328125,43.16529411764706,323.4153889922528
0.6200166015625,-0.2309306640625,1.4417041015625005,1.5862724464226172,0.06884765625,0.08740234375,-2.419921875,42.55352941176471,323.4153889922528
0.5882783203125,-0.2753642578125,1.3367236328125005,1.48617863231503,-0.1865234375,0.14013671875,-3.73291015625,42.69470588235294,323.4153889922528
0.5487275390625,-0.3168681640625,1.2229541015625005,1.3773612743396226,-0.490234375,-0.091796875,-4.5498046875,43.30647058823529,323.4153889922528
0.5194306640625,-0.3857158203125,1.1458056640625005,1.3158478364178214,-0.859375,-0.3017578125,-5.04296875,42.60058823529412,323.71208099193063
0.4290986328125,-0.4286845703125,1.0808642578125005,1.239420687790121,-1.4892578125,-1.064453125,-5.19140625,43.25941176470588,323.71208099193063
0.2191376953125,-0.4379619140625,1.0618212890625005,1.1693145075566762,-1.6025390625,-1.8349609375,-4.14111328125,43.16529411764706,323.71208099193063
0.0951142578125,-0.3598369140625,1.0579150390625005,1.1214782907554908,-1.287109375,-3.92333984375,-2.041015625,42.69470588235294,323.71208099193063
-0.0484404296875,-0.2690166015625,0.9998095703125,1.0365016083118312,-0.775390625,-6.82861328125,0.30029296875,43.16529411764706,324.8528813891197
-0.0674833984375,-0.1523173828125,1.0193408203125005,1.032865093866031,-0.58544921875,-9.05859375,1.89453125,43.73,324.8528813891197
0.0575166015625,0.0093037109375,1.1526416015625005,1.15411324407316,-0.88623046875,-9.228515625,1.5263671875,43.353529411764704,324.8528813891197
0.1605439453125,0.1157490234375,1.1746142578125005,1.191172048639343,-0.95458984375,-8.46875,-0.1123046875,43.02411764705882,324.8528813891197
0.2123017578125,0.2231708984375,1.2195361328125005,1.257833719342484,-1.08642578125,-6.7412109375,-1.38671875,43.447647058823534,324.8528813891197
0.1913056640625,0.2798115234375,1.1980517578125005,1.245078455418947,-0.89892578125,-3.77099609375,-1.88232421875,43.16529411764706,324.9145244987817
0.1585908203125,0.2661396484375,1.1052783203125005,1.1478769647094804,-0.52001953125,-0.51318359375,-1.40625,43.91823529411765,324.9145244987817
0.1068330078125,0.2241474609375,0.9924853515625,1.0230750455705258,-0.2822265625,2.56640625,-0.78515625,43.91823529411765,324.9145244987817
0.0843720703125,0.1430927734375,0.8850634765625001,0.9005173766251,0.10986328125,5.07470703125,-0.43603515625,43.91823529411765,324.9145244987817
0.0858369140625,0.0713154296875,0.7688525390625001,0.7769093210601472,0.5625,6.15625,-0.47998046875,43.91823529411765,324.51052163703264
0.0741181640625,-0.0263408203125,0.6282275390625001,0.6331328311620368,1.2548828125,5.12841796875,-0.20703125,43.25941176470588,324.51052163703264
0.1444306640625,-0.0429423828125,0.4900439453125,0.5126863888388208,1.0654296875,3.36865234375,-0.61279296875,42.788823529411765,324.51052163703264
0.1761689453125,-0.0375712890625,0.4710009765625,0.5042707794203083,0.80029296875,0.88134765625,-1.47900390625,42.55352941176471,324.51052163703264
0.1058564453125,-0.0595439453125,0.5076220703125001,0.5219494560835609,0.64404296875,-0.60107421875,-2.00830078125,43.16529411764706,324.51052163703264
0.0467744140625,-0.0961650390625,0.5715869140625001,0.5815042225781978,0.4765625,-0.798828125,-1.693359375,42.74176470588235,324.48846251991245
0.0389619140625,-0.0976298828125,0.6248095703125001,0.6335902650131922,0.23095703125,-0.48828125,-1.13671875,43.49470588235295,324.48846251991245
0.0594697265625,-0.0859111328125,0.6589892578125001,0.6672212624241041,0.13134765625,0.083984375,-0.9306640625,43.447647058823534,324.48846251991245
0.0770478515625,-0.0942119140625,0.6697314453125001,0.6806999816527742,0.0322265625,0.3955078125,-0.9765625,43.353529411764704,324.48846251991245
0.0653291015625,-0.0873759765625,0.7058642578125001,0.7142456182913589,0.0224609375,0.640625,-0.94140625,43.91823529411765,324.7235504280777
0.0340791015625,-0.1049541015625,0.7307666015625001,0.739051131219826,0.06103515625,1.00830078125,-0.48046875,43.91823529411765,324.7235504280777
0.0584931640625,-0.0863994140625,0.7571337890625001,0.7642891360817083,0.005859375,1.4033203125,-0.28173828125,43.25941176470588,324.7235504280777
0.0838837890625,-0.1078837890625,0.7717822265625001,0.7837877309882658,0.24169921875,1.224609375,-0.3408203125,42.55352941176471,324.7235504280777
0.0672822265625,-0.1161845703125,0.7556689453125001,0.7675032946506576,0.54736328125,0.40283203125,-0.1826171875,43.447647058823534,324.7235504280777
0.0511689453125,-0.1073955078125,0.7390673828125001,0.7485804248041869,0.8662109375,-0.65087890625,0.158203125,43.87117647058824,324.1902293324866
0.0262666015625,-0.0883525390625,0.7991259765625001,0.8044242860166537,0.5068359375,-0.74462890625,0.0126953125,43.91823529411765,324.1902293324866
0.0443330078125,-0.0209697265625,0.8626025390625001,0.8639955355271699,0.6103515625,-0.595703125,-0.78466796875,43.16529411764706,324.1902293324866
0.0218720703125,-0.0370830078125,0.8596728515625001,0.8607502243053888,0.818359375,-1.03369140625,-1.302734375,43.87117647058824,324.1902293324866
-0.0088896484375,-0.1020244140625,0.9275439453125,0.9331804634688924,0.7587890625,-1.10546875,-1.0361328125,42.55352941176471,324.37319053650384
0.0394501953125,-0.1225322265625,0.8845751953125001,0.8938924659145002,0.8486328125,-1.64306640625,-0.47509765625,43.91823529411765,324.37319053650384
0.0560517578125,-0.1127666015625,0.9358447265625,0.9442793327276984,0.4521484375,-1.58837890625,-0.5498046875,42.69470588235294,324.37319053650384
0.0838837890625,-0.0649150390625,1.0559619140625005,1.061275655197323,0.01318359375,-0.15673828125,-1.25146484375,43.30647058823529,324.37319053650384
0.0545869140625,-0.0453837890625,1.0793994140625005,1.081731258018832,0.34228515625,0.3134765625,-2.03955078125,42.55352941176471,324.37319053650384
-0.0313505859375,-0.1010478515625,1.0501025390625005,1.0554188126471555,0.40478515625,0.78857421875,-1.65771484375,44.01235294117648,323.4028409891541
0.0008759765625,-0.0990947265625,1.0920947265625005,1.096581699625275,0.322265625,1.158203125,-1.46923828125,43.91823529411765,323.4028409891541
0.0248017578125,-0.1249736328125,1.1389697265625005,1.1460739828278104,0.28466796875,1.47607421875,-1.7421875,43.30647058823529,323.4028409891541
0.0223603515625,-0.1498759765625,1.1824267578125005,1.1920972406911874,0.294921875,1.7216796875,-1.9873046875,43.25941176470588,323.4028409891541
0.0228486328125,-0.1596416015625,1.2195361328125005,1.230152787342332,0.3525390625,1.84619140625,-2.17626953125,42.97705882352941,323.6474196409243
0.0116181640625,-0.1488994140625,1.2361376953125005,1.2451274709911588,0.38623046875,1.82177734375,-2.27197265625,44.01235294117648,323.6474196409243
-0.0035185546874999,-0.1122783203125,1.2502978515625005,1.255334026887302,0.37744140625,1.8642578125,-2.2080078125,43.25941176470588,323.6474196409243
-0.0230498046875,-0.0439189453125,1.2849658203125005,1.2859227529773596,0.41845703125,1.7998046875,-2.125,43.777058823529416,323.6474196409243
-0.0113310546875,0.0244404296875,1.3645556640625005,1.364821558933142,0.5048828125,1.3125,-1.8203125,44.01235294117648,323.6474196409243
0.0165009765625,0.0757099609375,1.4900439453125005,1.492057384746014,0.580078125,0.62841796875,-1.82177734375,43.447647058823534,323.5527038127208
0.1385712890625,0.1177021484375,1.5623095703125005,1.572853137260207,0.59765625,-0.1826171875,-2.01318359375,43.16529411764706,323.5527038127208
0.2850556640625,0.1587177734375,1.4973681640625005,1.5325010544749955,0.40185546875,-0.38037109375,-2.39208984375,43.73,323.5527038127208
0.3695283203125,0.2080341796875,1.4661181640625005,1.5262148834371998,0.35009765625,0.5654296875,-2.771484375,42.60058823529412,323.5527038127208
0.3792939453125,0.2300068359375,1.3860400390625005,1.455291734125182,0.8671875,0.72314453125,-2.57080078125,43.118235294117646,323.90606627329896
0.3626923828125,0.2568623046875,1.3704150390625005,1.4406808763248915,1.17236328125,0.521484375,-2.0263671875,43.447647058823534,323.90606627329896
0.4383759765625,0.2368427734375,1.3538134765625005,1.4425945118011978,1.14892578125,0.7470703125,-2.03271484375,43.353529411764704,323.90606627329896
0.5487275390625,0.1274677734375,1.1619189453125005,1.2912805972625836,0.685546875,1.83251953125,-2.79248046875,43.73,323.90606627329896
0.5370087890625,0.0884052734375,1.0427783203125005,1.1762570115479405,0.14794921875,3.36962890625,-3.5205078125,42.788823529411765,323.90606627329896
0.4466767578125,0.1640888671875,1.0667041015625005,1.168033784868839,-0.08935546875,4.326171875,-3.75732421875,43.447647058823534,324.3195563595031
0.2865205078125,0.1997333984375,1.1174853515625005,1.1707950046038336,-0.16552734375,4.93701171875,-3.46337890625,43.25941176470588,324.3195563595031
0.2279267578125,0.3408466796875,1.1506884765625005,1.2215609015004691,-0.318359375,5.8125,-3.5400390625,43.353529411764704,324.3195563595031
0.0721650390625,0.1191669921875,1.2249072265625005,1.2328042336782203,0.40771484375,5.62109375,-3.24462890625,43.118235294117646,324.3195563595031
0.0028291015625,0.0161396484375,1.1687548828125005,1.1688697396054868,0.9892578125,4.5849609375,-2.33544921875,42.60058823529412,324.81027496769514
0.0506806640625,-0.0258525390625,1.1111376953125005,1.1125933045952456,1.02392578125,3.7119140625,-2.04052734375,42.97705882352941,324.81027496769514
0.1268525390625,-0.0419658203125,1.0769580078125005,1.0852148392519214,0.87841796875,3.03857421875,-2.30078125,42.60058823529412,324.81027496769514
0.1561494140625,-0.0395244140625,1.0549853515625005,1.0672108089925338,0.7607421875,2.5791015625,-2.4775390625,43.25941176470588,324.81027496769514
0.1390595703125,-0.0326884765625,1.0359423828125005,1.045745055500008,0.708984375,2.4052734375,-2.1201171875,43.02411764705882,324.81027496769514
0.1068330078125,-0.0282939453125,1.0071337890625005,1.013179306920054,0.615234375,2.58740234375,-1.00732421875,43.30647058823529,324.35264530715784
0.0892548828125,-0.0199931640625,0.9822314453125,0.9864810048225896,0.57763671875,3.07958984375,-0.0751953125,43.25941176470588,324.35264530715784
0.0614228515625,-0.0112041015624999,0.9197314453125,0.9218482684707456,0.564453125,3.96337890625,0.47314453125,43.30647058823529,324.35264530715784
0.0443330078125,0.0112568359375,0.8489306640625001,0.8501619871075302,0.5634765625,4.91064453125,0.65625,43.30647058823529,324.35264530715784
0.0326142578125,0.0390888671875,0.7859423828125001,0.7875893971173384,0.52880859375,5.560546875,0.4619140625,43.73,324.22331814649806
0.0248017578125,0.0542255859375,0.7234423828125001,0.725895600351926,0.36474609375,5.61669921875,0.00048828125,43.353529411764704,324.22331814649806
-0.0069365234375,0.0752216796875,0.6487353515625001,0.653118651409779,0.0908203125,5.1416015625,-0.3203125,43.353529411764704,324.22331814649806
-0.0108427734375,0.1069599609375,0.6179736328125001,0.6272554581915147,-0.15087890625,4.23291015625,-0.41162109375,43.16529411764706,324.22331814649806
0.1141572265625,0.1196552734375,0.5940478515625001,0.6166377435608908,-0.3193359375,2.90380859375,-0.26318359375,42.60058823529412,324.22331814649806
-0.0147490234375,0.1230732421875,0.5940478515625001,0.6068421595282624,-0.41259765625,1.5947265625,-0.15576171875,43.447647058823534,324.45688682188626
-0.0264677734375,0.1260029296875,0.6301806640625001,0.6431989977284056,-0.3642578125,0.30859375,-0.103515625,43.02411764705882,324.45688682188626
-0.0396513671875,0.1216083984375,0.6726611328125001,0.6847144171747573,-0.37353515625,-0.60400390625,-0.07666015625,42.69470588235294,324.45688682188626
-0.0762724609375,0.0991474609375,0.7102587890625001,0.7211901654545384,-0.17822265625,-0.89892578125,-0.08251953125,44.01235294117648,324.45688682188626
-0.1099638671875,0.0659443359375,0.7551806640625001,0.7659886049432763,-0.15966796875,-0.6923828125,0.02587890625,43.25941176470588,324.18071410773905
-0.1338896484375,0.0361591796875,0.7756884765625001,0.7879889192788453,-0.15673828125,-0.31396484375,0.45361328125,42.60058823529412,324.18071410773905
-0.1338896484375,0.0102802734375,0.7771533203125001,0.7886693890683284,-0.22998046875,-0.06396484375,1.189453125,43.25941176470588,324.18071410773905
-0.1006865234375,0.0034443359375,0.7747119140625001,0.7812350409718979,-0.31689453125,-0.09326171875,2.046875,43.447647058823534,324.18071410773905
-0.0171904296875,0.0166279296875,0.7722705078125001,0.7726407549149281,-0.3466796875,-0.49267578125,2.677734375,43.353529411764704,324.18071410773905
0.0565400390625,0.0283466796875,0.7610400390625001,0.7636637030282023,-0.3876953125,-1.18505859375,2.884765625,43.447647058823534,324.12708061057367
0.0892548828125,0.0312763671875,0.7307666015625001,0.736861229275585,-0.54833984375,-1.75537109375,2.841796875,43.49470588235295,324.12708061057367
0.0692353515625,0.0351826171875,0.7146533203125001,0.7188607088246137,-0.6181640625,-2.5908203125,2.98486328125,43.25941176470588,324.12708061057367
0.0233369140625,0.0381123046875,0.7224658203125001,0.723846683246091,-0.658203125,-3.64892578125,3.45703125,43.91823529411765,324.12708061057367
-0.0259794921875,0.0766865234375,0.7693408203125001,0.7735897198711738,-0.740234375,-5.357421875,3.88232421875,43.447647058823534,324.2974971307332
-0.0264677734375,0.1523701171875,0.8377001953125001,0.851856098686317,-0.78125,-7.3671875,3.89892578125,43.91823529411765,324.2974971307332
0.0033173828125,0.2358662109375,0.9138720703125,0.9438252144269048,-0.89111328125,-9.046875,3.61669921875,42.60058823529412,324.2974971307332
0.0438447265625,0.2983662109375,0.9871142578125,1.0321527570341824,-1.0087890625,-9.958984375,3.2197265625,42.55352941176471,324.2974971307332
0.0394501953125,0.3237568359375,1.0623095703125005,1.111249940339249,-0.92626953125,-9.29150390625,2.87939453125,43.16529411764706,324.2974971307332
0.0438447265625,0.3359638671875,1.1560595703125005,1.204685772396289,-0.611328125,-7.5029296875,2.810546875,43.30647058823529,324.49949207151195
0.0785126953125,0.3154560546875,1.1760791015625005,1.2201798305562563,-0.189453125,-4.884765625,2.86376953125,42.97705882352941,324.49949207151195
0.0540986328125,0.2807880859375,1.1589892578125005,1.1937439888859742,0.01416015625,-1.9345703125,2.90380859375,42.55352941176471,324.49949207151195
0.0082001953125,0.2583271484375,1.1311572265625005,1.1603089373212554,0.07421875,0.40771484375,2.83984375,43.16529411764706,324.49949207151195
-0.0459990234375,0.2617451171875,1.0774462890625005,1.1097373213257518,0.01318359375,1.7578125,2.52392578125,42.55352941176471,324.26743676024046
-0.0230498046875,0.2890888671875,1.0330126953125005,1.072948691832317,-0.078125,2.263671875,2.37353515625,43.353529411764704,324.26743676024046
0.0433564453125,0.3174091796875,1.0037158203125005,1.0536004065325824,0.03076171875,1.76171875,2.125,43.353529411764704,324.26743676024046
0.1292939453125,0.2954365234375,0.9700244140625,1.0222265050137396,0.2705078125,0.7099609375,2.01806640625,42.55352941176471,324.26743676024046
0.1375947265625,0.2265888671875,0.9690478515625,1.0046534537486151,0.4609375,-0.25341796875,1.81396484375,43.25941176470588,324.26743676024046
0.0829072265625,0.1592060546875,1.0295947265625005,1.0451246227272395,0.6162109375,-1.12548828125,1.63623046875,43.30647058823529,324.07496234346405
0.0555634765625,0.0986591796875,1.1624072265625005,1.167909026435298,0.814453125,-2.2236328125,1.54736328125,43.54176470588236,324.07496234346405
0.0770478515625,0.0151630859375,1.2395556640625005,1.2420404723337204,0.9990234375,-2.91796875,1.5380859375,43.25941176470588,324.07496234346405
0.1224580078125,-0.0829814453125,1.2664111328125005,1.275021192472893,0.65087890625,-2.38037109375,1.37158203125,43.91823529411765,324.07496234346405
0.1102509765625,-0.1225322265625,1.3992236328125005,1.4088989314355942,0.61669921875,-1.26171875,1.34765625,43.777058823529416,323.83037457786014
0.1634736328125,-0.1835673828125,1.5642626953125005,1.583457733128319,0.80908203125,-1.13232421875,1.48779296875,42.55352941176471,323.83037457786014
0.2870087890625,-0.2392314453125,1.5613330078125005,1.605417855485063,0.55810546875,-1.8515625,1.767578125,43.353529411764704,323.83037457786014
0.3543916015625,-0.1801494140625,1.4016650390625005,1.4569530192752187,0.18212890625,-0.46875,2.345703125,43.30647058823529,323.83037457786014
0.2347626953125,-0.0927470703125,1.3025439453125005,1.3267766472289884,0.2958984375,3.134765625,3.20458984375,44.01235294117648,323.83037457786014
0.1532197265625,-0.0502666015625,1.2356494140625005,1.2461269960616097,0.54052734375,5.9423828125,3.38134765625,43.30647058823529,324.05593420340324
0.1244111328125,-0.0224345703125,1.1306689453125005,1.1377142452333442,0.55810546875,6.88818359375,2.5947265625,43.353529411764704,324.05593420340324
0.1429658203125,-0.0068095703124999,1.0100634765625005,1.020153823063459,0.533203125,6.47900390625,1.70849609375,43.447647058823534,324.05593420340324
0.1629853515625,-0.0170634765625,0.9163134765625,0.930852176441784,0.58251953125,5.1796875,1.30029296875,43.447647058823534,324.05593420340324
0.1844697265625,-0.0654033203125,0.8923876953125001,0.913598638938948,0.6162109375,3.18115234375,1.310546875,44.01235294117648,323.97072844320485
0.2035126953125,-0.1283916015625,0.9270556640625,0.957775560752886,0.6259765625,0.91845703125,1.3935546875,43.25941176470588,323.97072844320485
0.1820283203125,-0.1542705078125,1.0095751953125005,1.037388921266653,0.48291015625,-0.64208984375,1.291015625,42.60058823529412,323.97072844320485
0.1659150390625,-0.1401103515625,1.0867236328125005,1.1082088994929054,0.28759765625,-1.0693359375,0.8076171875,43.353529411764704,323.97072844320485
0.1668916015625,-0.0805400390625,1.1321337890625005,1.147199381494472,0.103515625,-0.361328125,-0.115234375,43.02411764705882,323.97072844320485
0.1820283203125,-0.0390361328125,1.1140673828125005,1.129515056343845,-0.1484375,0.9169921875,-1.03369140625,43.16529411764706,323.5116204735288
0.1468720703125,-0.0019267578124999,1.0608447265625005,1.0709652894977568,-0.26806640625,2.24609375,-1.5693359375,43.447647058823534,323.5116204735288
0.0843720703125,-0.0199931640625,0.9832080078125,0.98702399134199,-0.328125,3.17578125,-1.4580078125,44.01235294117648,323.5116204735288
0.0545869140625,-0.0522197265625,0.9138720703125,0.9169889813549474,-0.4267578125,3.48486328125,-0.8408203125,43.02411764705882,323.5116204735288
0.0623994140625,-0.0927470703125,0.8513720703125001,0.8586792812424716,-0.34765625,3.17529296875,-0.31005859375,43.91823529411765,323.7371749338441
0.0741181640625,-0.1327861328125,0.8108447265625001,0.8249817148916151,-0.20654296875,2.26904296875,-0.12060546875,43.777058823529416,323.7371749338441
0.0755830078125,-0.1640361328125,0.7839892578125001,0.8045245802978671,0.10205078125,0.85546875,-0.20947265625,43.118235294117646,323.7371749338441
0.0443330078125,-0.1874736328125,0.7561572265625001,0.7803111750220622,0.34619140625,-0.82080078125,-0.2216796875,43.25941176470588,323.7371749338441
0.0145478515625,-0.1952861328125,0.7659228515625001,0.7905606416964972,0.46826171875,-1.6923828125,-0.04638671875,43.16529411764706,323.7371749338441
-0.0245146484375,-0.2011455078125,0.7883837890625001,0.814008281381527,0.58544921875,-2.142578125,0.22900390625,43.30647058823529,324.0859920262374
-0.0650419921875,-0.1947978515625,0.8030322265625001,0.8288772047891118,0.57568359375,-2.1591796875,0.46533203125,43.91823529411765,324.0859920262374
-0.0630888671875,-0.1889384765625,0.8240283203125001,0.8477621280558602,0.44482421875,-2.03173828125,0.41650390625,42.60058823529412,324.0859920262374
-0.0254912109375,-0.1952861328125,0.8411181640625001,0.8638670276262386,0.1689453125,-2.14111328125,0.09716796875,43.353529411764704,324.0859920262374
0.0057587890625,-0.2055400390625,0.8679736328125001,0.8919966920157323,-0.048828125,-2.60546875,-0.19775390625,43.02411764705882,323.99127171313324
0.0116181640625,-0.2138408203125,0.8738330078125001,0.8996927273857152,-0.12158203125,-3.23876953125,-0.28369140625,43.25941176470588,323.99127171313324
0.0355439453125,-0.1977275390625,0.8811572265625001,0.9037685597958184,-0.12353515625,-3.89208984375,-0.17626953125,43.02411764705882,323.99127171313324
0.1395478515625,-0.1694072265625,0.8640673828125001,0.8915070685798017,-0.02978515625,-5.3115234375,0.03369140625,43.447647058823534,323.99127171313324
0.2669892578125,-0.0839580078125,0.8557666015625001,0.9003714162571711,-0.0439453125,-6.39453125,-0.01171875,43.25941176470588,323.99127171313324
0.2313447265625,-0.0219462890625,0.9099658203125,0.9391697483676176,-0.322265625,-6.73583984375,-0.0390625,42.69470588235294,323.8744935824776
0.0941376953125,-0.0033916015624999,0.8904345703125001,0.8954033351777926,-0.8857421875,-6.73681640625,0.27099609375,43.353529411764704,323.8744935824776
-0.0069365234375,0.0229755859375,1.0090869140625005,1.0093722767337878,-0.6474609375,-5.72705078125,0.267578125,43.87117647058824,323.8744935824776
-0.0503935546875,-0.0053447265624999,1.0330126953125005,1.034254951708169,-0.4345703125,-4.41552734375,-0.140625,44.01235294117648,323.8744935824776
-0.0230498046875,-0.0326884765625,1.0833056640625005,1.0840438145139724,-0.3203125,-3.49267578125,-0.70654296875,43.87117647058824,323.92812582015546
0.0643525390625,-0.0571025390625,1.0969775390625005,1.1003461593783996,-0.25341796875,-2.853515625,-0.97998046875,44.01235294117648,323.92812582015546
0.1332001953125,-0.0751689453125,1.0808642578125005,1.091631900499087,-0.07861328125,-1.984375,-0.720703125,43.447647058823534,323.92812582015546
0.1747041015625,-0.0668681640625,1.0618212890625005,1.0781731421131764,0.0771484375,-0.91162109375,-0.1552734375,43.447647058823534,323.92812582015546
0.1893525390625,-0.0600322265625,1.0369189453125005,1.0557741952820474,0.30859375,-0.23486328125,0.095703125,43.118235294117646,323.92812582015546
0.1844697265625,-0.0556376953125,1.0364306640625005,1.0541883866590287,0.3720703125,0.3154296875,-0.09814453125,43.353529411764704,323.71208099193063
0.2098603515625,-0.0390361328125,1.0569384765625005,1.0782783175327,0.455078125,0.6083984375,-0.58984375,43.777058823529416,323.71208099193063
0.2372041015625,-0.0361064453125,1.0754931640625005,1.1019323968086,0.6025390625,0.515625,-1.12255859375,43.25941176470588,323.71208099193063
0.2210908203125,-0.0453837890625,1.0647509765625005,1.0884096109585406,0.6123046875,0.47998046875,-1.45947265625,43.777058823529416,323.71208099193063
0.1722626953125,-0.0214580078125,1.0554736328125005,1.0696539028386822,0.58251953125,0.85009765625,-1.435546875,43.777058823529416,324.22331814649806
0.1415009765625,0.0249287109375,1.0710986328125005,1.080692485497125,0.66064453125,1.33984375,-1.1064453125,43.87117647058824,324.22331814649806
0.1717744140625,0.0659443359375,1.0715869140625005,1.0872688808012236,0.8310546875,1.73486328125,-0.94384765625,42.69470588235294,324.22331814649806
0.1849580078125,0.0923115234375,1.0623095703125005,1.0822349584036035,0.95751953125,2.17431640625,-1.1142578125,43.02411764705882,324.22331814649806
0.1751923828125,0.1050068359375,1.0544970703125005,1.0740963075473131,1.08837890625,2.6787109375,-1.47900390625,43.353529411764704,324.22331814649806
0.1419892578125,0.0913349609375,1.0242236328125005,1.0380448325747953,1.2470703125,3.3095703125,-1.81005859375,43.16529411764706,324.5340941122976
0.0921845703125,0.0708271484375,1.0300830078125005,1.0366221505175044,1.43603515625,3.8408203125,-1.8974609375,42.60058823529412,324.5340941122976
0.0609345703125,0.0722919921875,1.1150439453125005,1.1190451974659794,1.79150390625,3.72509765625,-1.77880859375,43.777058823529416,324.5340941122976
0.0868134765625,0.0683857421875,1.2542041015625005,1.2590635876807816,2.19580078125,2.6337890625,-1.90771484375,42.60058823529412,324.5340941122976
0.1336884765625,0.0405537109375,1.4138720703125005,1.4207573485455425,2.2197265625,1.548828125,-2.462890625,44.01235294117648,324.1742299899802
0.1966767578125,0.0366474609375,1.4827197265625005,1.496155931376933,1.99755859375,1.4921875,-3.03369140625,43.73,324.1742299899802
0.2391572265625,0.0908466796875,1.4055712890625005,1.4286636927087244,1.36572265625,2.9736328125,-2.81298828125,42.93,324.1742299899802
0.2508759765625,0.1606708984375,1.3933642578125005,1.4248571325470778,1.31982421875,5.40185546875,-1.69921875,42.788823529411765,324.1742299899802
0.2577119140625,0.1338154296875,1.2673876953125005,1.3002282761506685,1.455078125,7.798828125,-0.32177734375,43.02411764705882,324.1742299899802
0.2791962890625,0.1206318359375,1.1545947265625005,1.1939814028174216,1.376953125,8.57763671875,0.302734375,43.25941176470588,323.4895609096078
0.2806611328125,0.1006123046875,1.0403369140625005,1.0822173543642757,1.17431640625,8.013671875,-0.11376953125,42.97705882352941,323.4895609096078
0.2455048828125,0.0605732421875,0.9255908203125,0.9595103604446654,0.78125,6.43603515625,-0.87939453125,43.777058823529416,323.4895609096078
0.1751923828125,0.0210224609375,0.8713916015625001,0.8890768460223498,0.42578125,4.40625,-1.78173828125,43.25941176470588,323.4895609096078
0.1151337890625,-0.0336650390625,0.8333056640625001,0.8418951561789699,0.1708984375,2.49462890625,-2.044921875,43.02411764705882,324.18222889884
0.0965791015625,-0.0693095703125,0.8709033203125001,0.8789789148363345,0.20263671875,0.6513671875,-1.99462890625,43.118235294117646,324.18222889884
0.1029267578125,-0.0829814453125,0.8650439453125001,0.8750890612170626,0.13330078125,-0.23095703125,-1.8056640625,43.447647058823534,324.18222889884
0.1131806640625,-0.0517314453125,0.8850634765625001,0.8937691887152117,-0.0810546875,-0.45556640625,-1.62841796875,42.60058823529412,324.18222889884
0.1156220703125,-0.0204814453125,0.8987353515625001,0.9063736452995576,-0.1953125,-0.19970703125,-1.490234375,43.777058823529416,324.18222889884
0.1014619140625,-0.0019267578124999,0.8958056640625001,0.9015353682287516,-0.240234375,0.130859375,-1.19775390625,42.97705882352941,324.4298533393317
0.0765595703125,0.0161396484375,0.8923876953125001,0.8958111713990154,-0.24658203125,0.7431640625,-0.7294921875,43.16529411764706,324.4298533393317
0.0677705078125,0.0337177734375,0.8762744140625001,0.8795377073868548,-0.28125,0.96435546875,-0.279296875,42.55352941176471,324.4298533393317
0.0882783203125,0.0522724609375,0.8630908203125001,0.8691669782713579,-0.2802734375,0.88330078125,0.02587890625,43.353529411764704,324.4298533393317
0.1024384765625,0.0644794921875,0.8733447265625001,0.8816928364275916,-0.24853515625,0.5732421875,0.14794921875,44.01235294117648,324.0544183920474
0.1048798828125,0.0654560546875,0.8953173828125001,0.9038127576441048,-0.15869140625,0.37353515625,0.1318359375,44.01235294117648,324.0544183920474
0.0902314453125,0.0630146484375,0.9285205078125,0.9350202634538288,-0.14453125,-0.02294921875,0.0263671875,43.118235294117646,324.0544183920474
0.0726533203125,0.0542255859375,0.9680712890625,0.9723070193255968,-0.18359375,-0.19775390625,0.02197265625,43.02411764705882,324.0544183920474
0.0619111328125,0.0508076171875,1.0017626953125005,1.004959153423742,-0.2353515625,-0.2109375,0.1181640625,43.777058823529416,324.0544183920474
0.0550751953125,0.0478779296875,1.0134814453125005,1.0161054144539263,-0.30126953125,-0.05615234375,0.353515625,43.02411764705882,324.1932585982893
0.0619111328125,0.0522724609375,1.0105517578125005,1.0137949761941631,-0.2841796875,0.13427734375,0.599609375,43.777058823529416,324.1932585982893
0.0619111328125,0.0635029296875,0.9866259765625,0.9906040723078668,-0.29638671875,0.203125,0.7919921875,42.60058823529412,324.1932585982893
0.0711884765625,0.0903583984375,0.9714892578125,0.9782759413419926,-0.298828125,0.09228515625,0.78271484375,42.69470588235294,324.1932585982893
0.0677705078125,0.1123310546875,0.9622119140625,0.9711142441238262,-0.2900390625,-0.177734375,0.6572265625,42.60058823529412,324.3085267381502
0.0550751953125,0.1152607421875,0.9548876953125,0.9633944293421782,-0.2392578125,-0.43896484375,0.59375,42.60058823529412,324.3085267381502
0.0374970703125,0.1177021484375,0.9387744140625,0.9468670585289226,-0.25244140625,-0.52294921875,0.658203125,43.87117647058824,324.3085267381502
0.0370087890625,0.1216083984375,0.9358447265625,0.944438248523029,-0.12646484375,-0.576171875,0.8076171875,43.447647058823534,324.3085267381502
0.0316376953125,0.1191669921875,0.9377978515625,0.9458681336142704,-0.2373046875,-0.65087890625,1.02734375,42.60058823529412,324.3085267381502
0.0453095703125,0.1069599609375,0.9441455078125,0.951264490206682,-0.1806640625,-0.69970703125,1.22705078125,42.60058823529412,324.7265752890536
0.0467744140625,0.1025654296875,0.9460986328125,0.9527907095409536,-0.14599609375,-0.734375,1.38623046875,43.447647058823534,324.7265752890536
0.0350556640625,0.0918232421875,0.9456103515625,0.9507046567524754,-0.099609375,-0.6416015625,1.5146484375,43.30647058823529,324.7265752890536
0.0248017578125,0.0864521484375,0.9441455078125,0.9484196545214428,-0.0673828125,-0.453125,1.63818359375,42.60058823529412,324.7265752890536
0.0140595703125,0.0854755859375,0.9377978515625,0.9417900815489468,-0.0810546875,-0.22607421875,1.74609375,42.60058823529412,324.1491398840783
0.0018525390625,0.0840107421875,0.9377978515625,0.9415551216466902,-0.17529296875,-0.009765625,1.82177734375,43.447647058823534,324.1491398840783
0.0174775390625,0.0844990234375,0.9534228515625,0.957319530363369,-0.26123046875,0.1552734375,1.8994140625,43.16529411764706,324.1491398840783
0.0262666015625,0.0781513671875,0.9680712890625,0.97157582887701,-0.2529296875,0.38232421875,1.9775390625,42.788823529411765,324.1491398840783
0.0360322265625,0.0727802734375,0.9851611328125,0.9885027805510196,-0.50537109375,0.68115234375,2.06884765625,42.69470588235294,324.1491398840783
0.0477509765625,0.0718037109375,1.0134814453125005,1.017143337322613,-0.6611328125,0.896484375,2.12109375,43.02411764705882,324.354159762306
0.0575166015625,0.0703388671875,1.0510791015625005,1.0549990490204022,-0.8154296875,1.03076171875,2.197265625,43.49470588235295,324.354159762306
0.0912080078125,0.0752216796875,1.1062548828125005,1.1125542986886674,-0.87890625,1.12255859375,2.27490234375,43.447647058823534,324.354159762306
0.1234345703125,0.0849873046875,1.1448291015625005,1.154596296066586,-0.8017578125,0.87451171875,2.45947265625,43.49470588235295,324.354159762306
0.1419892578125,0.0981708984375,1.1379931640625005,1.1510112580192913,-0.6357421875,1.07080078125,2.60498046875,43.16529411764706,324.12708061057367
0.1385712890625,0.1064716796875,1.1077197265625005,1.1214192852557965,-0.5224609375,1.40625,2.736328125,43.73,324.12708061057367
0.1371064453125,0.1167255859375,1.0852587890625005,1.1000953045059718,-0.43310546875,1.62109375,2.85107421875,44.01235294117648,324.12708061057367
0.1126923828125,0.1196552734375,1.0857470703125005,1.0981182351174847,-0.2412109375,1.259765625,2.89599609375,44.01235294117648,324.12708061057367
0.0956025390625,0.0757099609375,1.0730517578125005,1.0799592208064392,-0.01904296875,0.923828125,2.78173828125,42.55352941176471,324.12708061057367
0.0897431640625,0.0263935546875,1.0491259765625005,1.0532880754680605,0.05322265625,0.5478515625,2.5634765625,43.91823529411765,324.13962522519944
0.0653291015625,-0.0043681640624999,1.0315478515625005,1.033623694790058,-0.03955078125,0.50830078125,2.27099609375,43.447647058823534,324.13962522519944
0.0580048828125,-0.0151103515624999,1.0266650390625005,1.0284133369359032,-0.001953125,0.63330078125,2.02587890625,44.01235294117648,324.13962522519944
0.0145478515625,-0.0190166015625,0.9880908203125,0.988380868039189,-0.19921875,0.9013671875,1.837890625,43.87117647058824,324.13962522519944
-0.0020537109374999,-0.0195048828125,0.9817431640625,0.98193905022949,-0.35302734375,1.1455078125,1.58251953125,43.91823529411765,324.25640708590834
-0.0171904296875,-0.0107158203124999,0.9710009765625,0.9712122508304452,-0.43017578125,1.28466796875,1.31494140625,43.30647058823529,324.25640708590834
-0.0376982421875,-0.0014384765624999,0.9612353515625,0.961975377944951,-0.48828125,1.42431640625,1.171875,43.16529411764706,324.25640708590834
-0.0313505859375,0.0068623046875,0.9636767578125,0.9642109955877192,-0.50537109375,1.3623046875,1.0947265625,43.447647058823534,324.25640708590834
-0.0289091796875,0.0219990234375,0.9587939453125,0.9594819056502928,-0.4912109375,1.22900390625,1.00146484375,42.60058823529412,324.25640708590834
-0.0171904296875,0.0337177734375,0.9578173828125,0.9585648324115644,-0.4853515625,1.12939453125,1.2744140625,42.60058823529412,324.36670445623326
-0.0235380859375,0.0312763671875,0.9695361328125,0.9703260098869174,-0.37841796875,1.03173828125,1.56396484375,43.30647058823529,324.36670445623326
0.0213837890625,0.0298115234375,0.9646533203125,0.9653507247390788,-0.3681640625,0.89599609375,1.7216796875,42.97705882352941,324.36670445623326
0.0760712890625,0.0420185546875,0.9768603515625,0.980718382825808,-0.27294921875,0.724609375,1.556640625,43.447647058823534,324.36670445623326
0.0960908203125,0.0410419921875,0.9861376953125,0.9916579274060674,-0.2529296875,0.52734375,1.27490234375,43.25941176470588,323.8920045426082
0.0638642578125,0.0166279296875,0.9861376953125,0.9883434046867936,-0.2353515625,0.412109375,1.16064453125,42.55352941176471,323.8920045426082
0.0262666015625,0.0014912109375,0.9988330078125,0.9991794311150872,-0.1552734375,0.376953125,1.3857421875,43.02411764705882,323.8920045426082
0.0282197265625,-0.0038798828124999,0.9959033203125,0.99631060913119,-0.1064453125,0.3076171875,1.5283203125,43.447647058823534,323.8920045426082
0.0335908203125,-0.0019267578124999,0.9959033203125,0.9964715144018904,-0.0751953125,0.34765625,1.3701171875,42.60058823529412,323.8920045426082
0.0155244140625,-0.0102275390624999,1.0056689453125005,1.0058407615289886,-0.0673828125,0.37060546875,1.24853515625,43.16529411764706,324.50100518995185
0.0047822265625,-0.0219462890625,0.9973681640625,0.9976210522938616,-0.0830078125,0.43212890625,0.9453125,43.447647058823534,324.50100518995185
-0.0088896484375,-0.0380595703125,1.0081103515625005,1.0088677007760642,-0.1552734375,0.474609375,0.84716796875,43.49470588235295,324.50100518995185
-0.0084013671875,-0.0458720703125,0.9919970703125,0.9930926529352422,-0.19580078125,0.4677734375,0.8876953125,43.02411764705882,324.50100518995185
-0.0108427734375,-0.0478251953125,0.9993212890625,1.0005237897301755,-0.1689453125,0.48193359375,0.939453125,43.25941176470588,324.5531270524581
-0.0142607421875,-0.0522197265625,0.9719775390625,0.9734837466809574,-0.23974609375,0.4521484375,0.96484375,43.02411764705882,324.5531270524581
-0.0123076171875,-0.0478251953125,0.9846728515625,0.9859104175084764,-0.27978515625,0.4248046875,0.9609375,43.16529411764706,324.5531270524581
-0.0035185546874999,-0.0531962890625,0.9866259765625,0.988065303016464,-0.2880859375,0.408203125,0.9091796875,43.30647058823529,324.5531270524581
0.0008759765625,-0.0380595703125,0.9919970703125,0.9927272967617508,-0.24560546875,0.3330078125,0.89111328125,44.01235294117648,324.5531270524581
0.0018525390625,-0.0365947265625,0.9929736328125,0.993649455982348,-0.23876953125,0.302734375,0.91943359375,43.02411764705882,324.7045159825661
-0.0005888671874999,-0.0419658203125,0.9988330078125,0.9997143863798456,-0.201171875,0.1875,0.990234375,43.353529411764704,324.7045159825661
-0.0025419921874999,-0.0390361328125,1.0071337890625005,1.0078932237398093,-0.18798828125,0.05615234375,1.07666015625,44.01235294117648,324.7045159825661
-0.0088896484375,-0.0424541015625,1.0129931640625005,1.0139213613620028,-0.201171875,0.0771484375,1.0830078125,43.777058823529416,324.7045159825661
-0.0035185546874999,-0.0400126953125,1.0032275390625005,1.0040313198036506,-0.2109375,0.09033203125,0.97509765625,43.87117647058824,324.343130037833
-0.0098662109375,-0.0444072265625,1.0037158203125005,1.004746133028056,-0.20068359375,0.06787109375,0.8974609375,43.30647058823529,324.343130037833
-0.0103544921875,-0.0385478515625,1.0081103515625005,1.0089002097809343,-0.2353515625,0.0859375,0.77978515625,43.30647058823529,324.343130037833
-0.0118193359375,-0.0370830078125,1.0066455078125005,1.0073976496744037,-0.22802734375,0.09716796875,0.64208984375,43.353529411764704,324.343130037833
-0.0284208984375,-0.0390361328125,1.0173876953125005,1.0185329104679095,-0.23974609375,0.0810546875,0.54248046875,43.25941176470588,324.343130037833
-0.0357451171875,-0.0302470703125,1.0325244140625005,1.0335856347203878,-0.20654296875,0.1376953125,0.51708984375,42.788823529411765,324.4709435790924
-0.0406279296875,-0.0365947265625,1.0335009765625005,1.0349464098389434,-0.18310546875,0.21484375,0.47998046875,43.353529411764704,324.4709435790924
-0.0411162109375,-0.0400126953125,1.0212939453125005,1.0229041408265,-0.169921875,0.25244140625,0.4765625,42.55352941176471,324.4709435790924
-0.0420927734375,-0.0458720703125,1.0188525390625005,1.0207529303237484,-0.181640625,0.25341796875,0.53173828125,42.60058823529412,324.4709435790924
-0.0391630859375,-0.0400126953125,1.0203173828125005,1.021852398713077,-0.18115234375,0.2421875,0.55322265625,42.60058823529412,324.71403304014694
-0.0386748046875,-0.0312236328125,1.0247119140625005,1.025916742521175,-0.1923828125,0.27734375,0.53759765625,43.30647058823529,324.71403304014694
-0.0362333984375,-0.0234111328125,1.0232470703125005,1.0241559974950154,-0.17822265625,0.31689453125,0.52392578125,43.87117647058824,324.71403304014694
-0.0352568359375,-0.0126689453124999,1.0252001953125005,1.0258844901471331,-0.109375,0.33349609375,0.482421875,43.353529411764704,324.71403304014694
-0.0367216796875,-0.0165751953125,1.0090869140625005,1.00989089459748,-0.08984375,0.37353515625,0.46630859375,42.93,324.71403304014694
-0.0293974609375,-0.0116923828124999,0.9988330078125,0.9993339281847544,-0.03515625,0.3310546875,0.46728515625,43.91823529411765,324.42682488763245
-0.0167021484375,-0.0019267578124999,0.9905322265625,0.9906749043036068,-0.05859375,0.271484375,0.39501953125,43.02411764705882,324.42682488763245
-0.0103544921875,0.0034443359375,0.9929736328125,0.9930335917879944,-0.05224609375,0.22412109375,0.240234375,43.353529411764704,324.42682488763245
-0.0064482421875,-0.0019267578124999,1.0046923828125005,1.0047149229032264,-0.04736328125,0.27001953125,0.12548828125,42.60058823529412,324.42682488763245
-0.0025419921874999,-0.0131572265624999,1.0012744140625005,1.0013640829345247,-0.0810546875,0.2841796875,0.0673828125,43.25941176470588,324.2027733979294
0.0047822265625,-0.0107158203124999,0.9924853515625,0.9925547196814914,-0.06640625,0.15625,0.01416015625,43.25941176470588,324.2027733979294
0.0062470703125,-0.0092509765624999,0.9963916015625,0.996454128457067,-0.05712890625,0.01513671875,-0.06591796875,43.353529411764704,324.2027733979294
-0.0010771484374999,-0.0112041015624999,1.0002978515625005,1.0003611767662384,-0.04248046875,-0.0556640625,-0.1591796875,43.87117647058824,324.2027733979294
-0.0098662109375,-0.0097392578124999,1.0144580078125005,1.0145527314417464,-0.0068359375,-0.1064453125,-0.26904296875,43.118235294117646,324.2027733979294
-0.0303740234375,-0.0097392578124999,1.0266650390625005,1.027160424118709,0.01611328125,-0.0322265625,-0.30810546875,42.60058823529412,324.1080514335772
-0.0279326171875,-0.0107158203124999,1.0178759765625005,1.0183155520618237,-0.0185546875,0.07080078125,-0.21728515625,43.16529411764706,324.1080514335772
-0.0147490234375,-0.0170634765625,1.0032275390625005,1.003481036720754,-0.05615234375,-0.0009765625,-0.0380859375,42.55352941176471,324.1080514335772
-0.0103544921875,-0.0199931640625,1.0027392578125005,1.002992004592287,-0.0712890625,-0.2431640625,0.1630859375,43.16529411764706,324.1080514335772
-0.0137724609375,-0.0229228515625,0.9988330078125,0.9991909303530516,-0.0712890625,-0.3984375,0.23486328125,43.91823529411765,324.130110896641
-0.0215849609375,-0.0160869140625,1.0032275390625005,1.0035886580049258,-0.1513671875,-0.6201171875,0.2998046875,42.55352941176471,324.130110896641
-0.0049833984375,0.0093037109375,1.0100634765625005,1.0101186167885037,-0.2490234375,-0.779296875,0.27099609375,43.447647058823534,324.130110896641
-0.0010771484374999,0.0239521484375,1.0071337890625005,1.0074191455074284,-0.33203125,-0.69189453125,0.11572265625,43.353529411764704,324.130110896641
-0.0059599609375,0.0351826171875,1.0105517578125005,1.011181582557986,-0.22314453125,-0.37060546875,-0.05224609375,43.447647058823534,324.130110896641
-0.0035185546874999,0.0366474609375,1.0090869140625005,1.0097582962038163,-0.078125,-0.076171875,-0.1806640625,43.30647058823529,324.30052586683763
-0.0098662109375,0.0205341796875,1.0208056640625005,1.0210598407712372,0.046875,0.2314453125,-0.2421875,43.25941176470588,324.30052586683763
-0.0162138671875,0.0014912109375,1.0291064453125005,1.0292352447244333,0.1533203125,0.4814453125,-0.37353515625,43.30647058823529,324.30052586683763
-0.0181669921875,-0.0160869140625,1.0256884765625005,1.0259754769790057,0.2314453125,0.623046875,-0.2236328125,43.25941176470588,324.30052586683763
-0.0323271484375,-0.0263408203125,1.0291064453125005,1.0299509498634225,0.23486328125,0.71533203125,-0.1923828125,43.87117647058824,324.1080514335772
-0.0284208984375,-0.0326884765625,1.0081103515625005,1.00904051697414,0.22314453125,0.48486328125,-0.154296875,43.25941176470588,324.1080514335772
-0.0386748046875,-0.0361064453125,0.9871142578125,0.9885312204920204,0.18212890625,0.13720703125,-0.146484375,42.60058823529412,324.1080514335772
-0.0381865234375,-0.0199931640625,0.9851611328125,0.9861036430243432,0.20947265625,-0.36767578125,-0.19140625,43.02411764705882,324.1080514335772
-0.0367216796875,-0.0116923828124999,0.9954150390625,0.996160776966602,0.2470703125,-0.66748046875,-0.248046875,43.87117647058824,324.1080514335772
-0.0225615234375,0.0044208984375,1.0110400390625005,1.01130140278273,0.27197265625,-0.9208984375,-0.2685546875,43.447647058823534,324.0544183920474
-0.0191435546875,0.0083271484375,1.0159228515625005,1.016137322124355,0.32666015625,-1.00537109375,-0.15380859375,44.01235294117648,324.0544183920474
-0.0215849609375,0.0176044921875,1.0335009765625005,1.0338762485130872,0.3486328125,-0.7451171875,-0.09765625,43.777058823529416,324.0544183920474
-0.0225615234375,0.0259052734375,1.0466845703125005,1.0472481536206957,0.38916015625,-0.29931640625,-0.06396484375,43.49470588235295,324.0544183920474
-0.0269560546875,0.0268818359375,1.0486376953125005,1.0493284890909989,0.4482421875,0.12841796875,-0.14892578125,43.118235294117646,324.1727143821293
-0.0337919921875,0.0151630859375,1.0422900390625005,1.0429479102237351,0.4609375,0.66552734375,-0.271484375,43.777058823529416,324.1727143821293
-0.0259794921875,0.0019794921875,1.0212939453125005,1.0216262404302334,0.4638671875,0.88525390625,-0.345703125,43.91823529411765,324.1727143821293
-0.0186552734375,-0.0029033203124999,1.0085986328125005,1.0087753221640137,0.46142578125,0.96728515625,-0.4189453125,43.447647058823534,324.1727143821293
-0.0084013671875,-0.0048564453124999,1.0042041015625005,1.0042509873665253,0.45751953125,0.93115234375,-0.4375,43.25941176470588,324.1727143821293
-0.0137724609375,-0.0014384765624999,0.9880908203125,0.9881878460499932,0.43017578125,0.84228515625,-0.3603515625,43.91823529411765,324.469429766522
0.0033173828125,0.0039326171875,0.9749072265625,0.9749208023785592,0.37158203125,0.6650390625,-0.2578125,43.87117647058824,324.469429766522
0.0091767578125,0.0132099609375,0.9758837890625,0.976016334754138,0.3642578125,0.42578125,-0.14306640625,43.91823529411765,324.469429766522
0.0316376953125,0.0200458984375,0.9778369140625,0.9785539393983994,0.2978515625,0.244140625,-0.0791015625,43.447647058823534,324.469429766522
0.0521455078125,0.0171162109375,0.9783251953125,0.9798634121371824,0.2177734375,0.11376953125,-0.134765625,42.55352941176471,323.989755830686
0.0619111328125,0.0112568359375,0.9739306640625,0.9759613942788276,0.1298828125,-0.005859375,-0.2548828125,42.69470588235294,323.989755830686
0.0682587890625,0.0010029296875,0.9773486328125,0.979729870021681,0.03515625,-0.1904296875,-0.4150390625,43.73,323.989755830686
0.0565400390625,0.0039326171875,0.9836962890625,0.9853276767707614,-0.05029296875,-0.35107421875,-0.52490234375,43.30647058823529,323.989755830686
0.0457978515625,0.0107685546875,0.9910205078125,0.9921366094861856,-0.15087890625,-0.45361328125,-0.6123046875,43.16529411764706,323.989755830686
0.0370087890625,0.0278583984375,0.9983447265625,0.999418798045408,-0.1884765625,-0.5537109375,-0.6923828125,43.353529411764704,324.5340941122976
0.0340791015625,0.0376240234375,1.0012744140625005,1.0025604243930315,-0.1748046875,-0.56787109375,-0.73486328125,42.55352941176471,324.5340941122976
0.0404267578125,0.0229755859375,1.0017626953125005,1.0028413124797797,-0.04443359375,-0.572265625,-0.71435546875,42.60058823529412,324.5340941122976
0.0287080078125,0.0141865234375,1.0066455078125005,1.0071546979282238,0.03125,-0.56103515625,-0.58740234375,43.25941176470588,324.5340941122976
0.0194306640625,0.0073505859375,1.0173876953125005,1.0175997761363824,0.037109375,-0.5205078125,-0.45654296875,43.25941176470588,324.01181523252615
-0.0001005859374999,0.0185810546875,1.0056689453125005,1.0058405903903398,0.0078125,-0.3544921875,-0.3671875,44.01235294117648,324.01181523252615
0.1117158203125,0.0161396484375,1.0222705078125005,1.028483302685565,-0.009765625,-0.1181640625,-0.35888671875,44.01235294117648,324.01181523252615
-0.0167021484375,0.0097919921875,1.0178759765625005,1.0180600908278905,-0.0087890625,0.0634765625,-0.2421875,43.25941176470588,324.01181523252615
-0.0113310546875,-0.0029033203124999,1.0090869140625005,1.0091547067726276,-0.00634765625,0.08837890625,-0.1201171875,42.69470588235294,324.01181523252615
-0.0103544921875,0.0024677734375,1.0134814453125005,1.0135373428773673,-0.0615234375,0.248046875,-0.1162109375,43.447647058823534,324.01181523252615
-0.0040068359375,-0.0019267578124999,1.0252001953125005,1.025209835886628,-0.10009765625,0.52978515625,-0.13232421875,44.01235294117648,324.01181523252615
-0.0044951171875,-0.0038798828124999,1.0252001953125005,1.0252173915994387,-0.0986328125,0.81982421875,-0.107421875,43.353529411764704,324.01181523252615
0.0042939453125,-0.0199931640625,1.0012744140625005,1.0014832084622187,-0.044921875,0.63037109375,0.0263671875,44.01235294117648,324.01181523252615
0.0082001953125,-0.0170634765625,1.0032275390625005,1.0034061493577575,0.03125,0.2529296875,0.16357421875,43.73,323.87297705750666
0.0125947265625,-0.0107158203124999,1.0159228515625005,1.0160574276432588,0.0302734375,0.06201171875,0.17822265625,42.55352941176471,323.87297705750666
0.0082001953125,-0.0019267578124999,1.0378955078125005,1.037929689688179,0.07470703125,0.19775390625,0.08544921875,42.60058823529412,323.87297705750666
0.0086884765625,0.0073505859375,1.0525439453125005,1.0526054709873995,0.119140625,0.380859375,0.07373046875,44.01235294117648,323.87297705750666
0.0033173828125,0.0132099609375,1.0501025390625005,1.0501908639110344,0.19482421875,0.63525390625,0.10595703125,42.55352941176471,323.87297705750666
0.0223603515625,0.0176044921875,1.0413134765625005,1.0417022894943924,0.205078125,0.83740234375,0.1162109375,43.777058823529416,324.22331814649806
0.0194306640625,0.0112568359375,1.0330126953125005,1.0332567424111154,0.19580078125,1.115234375,0.1181640625,42.788823529411765,324.22331814649806
0.0106416015625,0.0073505859375,1.0242236328125005,1.0243052888709865,0.2001953125,1.2939453125,0.08935546875,43.25941176470588,324.22331814649806
-0.0030302734374999,-0.0019267578124999,1.0027392578125005,1.002745687655219,0.2666015625,1.34521484375,0.04150390625,43.30647058823529,324.22331814649806
-0.0181669921875,-0.0053447265624999,1.0007861328125005,1.0009652787869157,0.20068359375,1.25830078125,0.07080078125,43.02411764705882,324.3085267381502
-0.0342802734375,0.0039326171875,0.9924853515625,0.9930849790884124,0.208984375,1.1533203125,0.18798828125,43.447647058823534,324.3085267381502
-0.0284208984375,0.0224873046875,1.0032275390625005,1.0038819260617773,0.18310546875,1.0419921875,0.35107421875,43.91823529411765,324.3085267381502
-0.0054716796875,0.0429951171875,1.0046923828125005,1.0056268211727597,0.2275390625,0.978515625,0.35302734375,43.02411764705882,324.3085267381502
0.0155244140625,0.0439716796875,1.0071337890625005,1.0082127677816388,0.26806640625,1.021484375,0.10302734375,42.60058823529412,324.3085267381502
0.0262666015625,0.0400654296875,1.0017626953125005,1.002907608273789,0.2333984375,1.16650390625,-0.1904296875,43.447647058823534,324.6067622075418
0.0233369140625,0.0356708984375,1.0125048828125005,1.0134017773185786,0.13330078125,1.3154296875,-0.4970703125,42.55352941176471,324.6067622075418
0.0086884765625,0.0327412109375,1.0154345703125005,1.0159994306614364,0.103515625,1.439453125,-0.36181640625,43.91823529411765,324.6067622075418
0.1136689453125,0.0293232421875,1.0042041015625005,1.011042214378703,0.044921875,1.57763671875,-0.2626953125,43.25941176470588,324.6067622075418
-0.0206083984375,0.0215107421875,0.9988330078125,0.9992771365399,0.037109375,1.71337890625,-0.0380859375,44.01235294117648,324.5641566263216
-0.0098662109375,0.0229755859375,0.9832080078125,0.9835259052480824,0.05859375,1.5537109375,0.16259765625,43.30647058823529,324.5641566263216
0.0003876953125,0.0161396484375,0.9817431640625,0.9818758978316916,0.0869140625,1.17236328125,0.1923828125,43.87117647058824,324.5641566263216
-0.0025419921874999,0.0058857421875,0.9710009765625,0.971022141956973,0.14306640625,0.72265625,0.04638671875,43.447647058823534,324.5641566263216
-0.0259794921875,0.0068623046875,0.9876025390625,0.9879680158803936,0.13720703125,0.44580078125,-0.12841796875,43.353529411764704,324.5641566263216
-0.0450224609375,-0.0058330078124999,0.9954150390625,0.9964497709171336,0.1318359375,0.2158203125,-0.17578125,42.60058823529412,324.37319053650384
-0.0586943359375,-0.0058330078124999,1.0173876953125005,1.0190960561323774,0.06640625,0.17919921875,-0.13330078125,44.01235294117648,324.37319053650384
-0.0611357421875,-0.0033916015624999,1.0344775390625005,1.0362880201752704,0.04296875,0.3310546875,-0.0439453125,43.447647058823534,324.37319053650384
-0.0567412109375,-0.0014384765624999,1.0422900390625005,1.0438343545612891,0.0537109375,0.60400390625,0.04931640625,42.69470588235294,324.37319053650384
-0.0406279296875,2.6367187500001e-05,1.0481494140625005,1.0489365202744558,0.09765625,0.89404296875,0.08837890625,44.01235294117648,324.31004094801017
-0.0323271484375,0.0049091796875,1.0403369140625005,1.0408506325752944,0.11083984375,1.14453125,0.0927734375,42.55352941176471,324.31004094801017
-0.0357451171875,0.0112568359375,1.0354541015625005,1.0361320505614506,0.14892578125,1.35498046875,0.08349609375,43.777058823529416,324.31004094801017
-0.0420927734375,0.0205341796875,1.0222705078125005,1.023342779939511,0.24609375,1.51953125,0.0517578125,43.16529411764706,324.31004094801017
-0.0503935546875,0.0254169921875,1.0129931640625005,1.0145642829723789,0.09375,1.61376953125,0.123046875,43.16529411764706,324.31004094801017
-0.0582060546875,0.0273701171875,0.9954150390625,0.997490936354281,0.0498046875,1.615234375,-0.08837890625,43.87117647058824,324.86391098516367
-0.0645537109375,0.0215107421875,0.9846728515625,0.9870210323136406,0.01318359375,1.56201171875,-0.11962890625,43.118235294117646,324.86391098516367
-0.0704130859375,0.0176044921875,0.9690478515625,0.971762141387654,0.00927734375,1.28466796875,-0.06201171875,43.91823529411765,324.86391098516367
-0.0728544921875,0.0058857421875,0.9539111328125,0.9567073054475038,0.0537109375,0.703125,0.091796875,42.60058823529412,324.86391098516367
-0.0679716796875,0.0073505859375,0.9431689453125,0.9456436113859484,0.05078125,0.0126953125,0.31591796875,43.118235294117646,324.0779937724401
-0.0523466796875,0.0215107421875,0.9519580078125,0.9536387867227856,0.0751953125,-0.57958984375,0.50927734375,42.60058823529412,324.0779937724401
-0.0284208984375,0.0400654296875,0.9768603515625,0.9780946439782042,0.11669921875,-1.0283203125,0.6103515625,42.69470588235294,324.0779937724401
-0.0098662109375,0.0469013671875,0.9949267578125,0.9960804855902022,0.09912109375,-1.02392578125,0.533203125,42.60058823529412,324.0779937724401
0.0160126953125,0.0508076171875,1.0076220703125005,1.0090292646679242,0.021484375,-0.779296875,0.24853515625,43.25941176470588,324.0779937724401
0.0223603515625,0.0439716796875,1.0134814453125005,1.0146812967278214,-0.06201171875,-0.48828125,-0.29150390625,43.777058823529416,324.08750758252586
0.0130830078125,0.0342060546875,1.0105517578125005,1.0112151474778452,-0.12744140625,-0.1611328125,-0.47412109375,43.353529411764704,324.08750758252586
-0.0059599609375,0.0229755859375,1.0100634765625005,1.010342330781539,-0.16796875,-0.1240234375,-0.45263671875,43.353529411764704,324.08750758252586
-0.0142607421875,0.0210224609375,0.9944384765625,0.994762884460188,-0.2177734375,0.04345703125,-0.41552734375,42.97705882352941,324.08750758252586
-0.0386748046875,0.0122333984375,0.9905322265625,0.991362440489759,-0.2294921875,0.0576171875,-0.32666015625,44.01235294117648,324.10005339721096
-0.0538115234375,-0.0009501953124999,0.9797900390625,0.9812670908432076,-0.20703125,-0.0400390625,-0.22998046875,42.60058823529412,324.10005339721096
-0.0630888671875,-0.0014384765624999,0.9836962890625,0.9857183489684852,-0.142578125,-0.10400390625,-0.14111328125,44.01235294117648,324.10005339721096
-0.0728544921875,0.0053974609375,0.9817431640625,0.9844574900928528,-0.107421875,-0.17822265625,-0.03369140625,42.69470588235294,324.10005339721096
-0.0767607421875,0.0127216796875,0.9876025390625,0.9906628224769234,-0.07958984375,-0.220703125,0.080078125,43.118235294117646,324.10005339721096
-0.0709013671875,0.0239521484375,0.9998095703125,1.002606546045005,-0.052734375,-0.19091796875,0.09716796875,43.118235294117646,324.43936860724966
-0.0650419921875,0.0400654296875,1.0115283203125005,1.014408814136584,-0.09814453125,-0.095703125,0.0205078125,44.01235294117648,324.43936860724966
-0.0562529296875,0.0469013671875,1.0212939453125005,1.0239167217476508,-0.142578125,0.0107421875,-0.0615234375,43.16529411764706,324.43936860724966
-0.0474638671875,0.0503193359375,1.0237353515625005,1.0260696488525425,-0.15869140625,0.12841796875,-0.1201171875,42.55352941176471,324.43936860724966
-0.0376982421875,0.0420185546875,1.0183642578125005,1.019927682726603,-0.15966796875,0.24755859375,-0.14501953125,43.30647058823529,324.35567465650234
-0.0215849609375,0.0307880859375,1.0256884765625005,1.026377448956996,-0.1962890625,0.42041015625,-0.14599609375,43.447647058823534,324.35567465650234
-0.0054716796875,0.0161396484375,1.0125048828125005,1.0126482929672294,-0.21923828125,0.552734375,-0.18505859375,42.55352941176471,324.35567465650234
-0.0030302734374999,0.0063740234375,1.0056689453125005,1.0056937099822414,-0.1767578125,0.6103515625,-0.150390625,43.91823529411765,324.35567465650234
-0.0157255859375,-0.0053447265624999,0.9954150390625,0.9955535948139128,-0.12109375,0.51806640625,-0.11376953125,44.01235294117648,324.35567465650234
-0.0469755859375,-0.0151103515624999,0.9836962890625,0.9849332045950362,-0.03857421875,0.2919921875,-0.02197265625,42.69470588235294,324.5040327439814
-0.0621123046875,-0.0185283203125,0.9812548828125,0.9833932997995098,-0.02197265625,0.080078125,0.07373046875,43.73,324.5040327439814
-0.0626005859375,-0.0141337890624999,0.9968798828125,0.9989434909489352,-0.0048828125,-0.1474609375,0.10205078125,43.447647058823534,324.5040327439814
-0.0538115234375,-0.0175517578125,1.0007861328125005,1.002385468712896,0.029296875,-0.314453125,0.11279296875,42.69470588235294,324.5040327439814
-0.0508818359375,-0.0155986328124999,1.0110400390625005,1.0124397459412051,0.0205078125,-0.4140625,0.1474609375,43.447647058823534,324.5656696736553
-0.0484404296875,-0.0058330078124999,1.0305712890625005,1.0317255841784645,0.05712890625,-0.34228515625,0.13671875,42.55352941176471,324.5656696736553
-0.0474638671875,2.6367187500001e-05,1.0466845703125005,1.0477601868337452,-0.01025390625,-0.17822265625,0.056640625,43.353529411764704,324.5656696736553
-0.0425810546875,0.0117451171875,1.0437548828125005,1.0446891161445993,-0.04248046875,0.0400390625,-0.037109375,43.25941176470588,324.5656696736553
-0.0440458984375,0.0205341796875,1.0344775390625005,1.0356184010191265,-0.18017578125,0.2177734375,-0.0947265625,43.353529411764704,324.5656696736553
-0.0391630859375,0.0332294921875,1.0364306640625005,1.0377024948703857,-0.28564453125,0.435546875,-0.1552734375,42.60058823529412,324.71705865659004
-0.0362333984375,0.0381123046875,1.0286181640625005,1.0299615208201869,-0.3046875,0.724609375,-0.177734375,43.87117647058824,324.71705865659004
-0.0269560546875,0.0302998046875,1.0100634765625005,1.01087730894206,-0.30078125,0.97900390625,-0.27783203125,42.69470588235294,324.71705865659004
-0.0289091796875,0.0176044921875,0.9900439453125,0.9906223662250536,-0.30712890625,0.890625,-0.306640625,43.02411764705882,324.71705865659004
-0.0450224609375,0.0151630859375,0.9905322265625,0.9916708289663868,-0.345703125,0.48681640625,-0.29541015625,43.353529411764704,324.1962896202506
-0.0547880859375,0.0039326171875,0.9978564453125,0.9993671423907916,-0.251953125,0.08740234375,-0.21533203125,42.60058823529412,324.1962896202506
-0.0533232421875,0.0005146484375,1.0051806640625005,1.0065941587479683,-0.4287109375,0.01611328125,-0.2353515625,43.353529411764704,324.1962896202506
-0.0381865234375,0.0049091796875,1.0110400390625005,1.011772835771424,-0.45751953125,0.2275390625,-0.265625,43.25941176470588,324.1962896202506
-0.0303740234375,-0.0004619140624999,1.0217822265625005,1.022233688147384,-0.4560546875,0.43115234375,-0.25927734375,43.353529411764704,324.1962896202506
-0.0293974609375,-0.0009501953124999,1.0212939453125005,1.021717395522204,-0.43310546875,0.5419921875,-0.22705078125,43.30647058823529,323.9612152449425
-0.0293974609375,-0.0097392578124999,1.0090869140625005,1.0095620159180367,-0.41943359375,0.5791015625,-0.22314453125,43.30647058823529,323.9612152449425
-0.0298857421875,-0.0126689453124999,1.0012744140625005,1.0018004352253158,-0.4150390625,0.52001953125,-0.19970703125,43.91823529411765,323.9612152449425
-0.0245146484375,-0.0199931640625,1.0012744140625005,1.0017739998889208,-0.3974609375,0.40966796875,-0.169921875,43.777058823529416,323.9612152449425
-0.0235380859375,-0.0131572265624999,1.0046923828125005,1.0050541966391056,-0.384765625,0.263671875,-0.13525390625,42.74176470588235,324.22937917015105
-0.0289091796875,-0.0092509765624999,1.0022509765625005,1.002710497231404,-0.388671875,0.18701171875,-0.15576171875,43.25941176470588,324.22937917015105
-0.0250029296875,-0.0107158203124999,1.0115283203125005,1.011894025129191,-0.38427734375,0.1455078125,-0.2177734375,44.01235294117648,324.22937917015105
-0.0323271484375,-0.0131572265624999,1.0115283203125005,1.0121302781416754,-0.396484375,0.130859375,-0.26806640625,43.777058823529416,324.22937917015105
-0.0362333984375,-0.0146220703124999,1.0242236328125005,1.0249686405515974,-0.41015625,0.21044921875,-0.2666015625,44.01235294117648,324.22937917015105
-0.0347685546875,-0.0165751953125,1.0217822265625005,1.0225079500980547,-0.3759765625,0.3046875,-0.1982421875,43.25941176470588,324.2263477802428
-0.0298857421875,-0.0214580078125,1.0193408203125005,1.0200045645195617,-0.3603515625,0.38427734375,-0.162109375,43.02411764705882,324.2263477802428
-0.0289091796875,-0.0268291015625,1.0115283203125005,1.0122969347751098,-0.3740234375,0.39453125,-0.13525390625,43.25941176470588,324.2263477802428
-0.0269560546875,-0.0307353515625,1.0115283203125005,1.0123541048043487,-0.5,0.3349609375,-0.12109375,43.30647058823529,324.2263477802428
-0.0259794921875,-0.0312236328125,1.0081103515625005,1.008928307754222,-0.35791015625,0.21337890625,-0.06298828125,43.118235294117646,324.2799813524743
-0.0284208984375,-0.0302470703125,1.0027392578125005,1.0035978536689123,-0.34912109375,0.17431640625,-0.0478515625,43.353529411764704,324.2799813524743
-0.0264677734375,-0.0356181640625,1.0090869140625005,1.0100621747071326,-0.31787109375,0.162109375,-0.07080078125,43.353529411764704,324.2799813524743
-0.0293974609375,-0.0380595703125,1.0012744140625005,1.0024286477640925,-0.49853515625,0.0869140625,-0.08544921875,43.91823529411765,324.2799813524743
-0.0420927734375,-0.0380595703125,0.9983447265625,0.999956261805078,-0.3984375,0.08447265625,-0.05517578125,43.91823529411765,324.2799813524743
-0.0547880859375,-0.0346416015625,1.0095751953125005,1.0116540168999395,-0.41064453125,0.15478515625,0.04833984375,42.55352941176471,324.42033840174406
-0.0591826171875,-0.0351298828125,1.0071337890625005,1.0094826199172382,-0.40234375,0.2509765625,0.146484375,42.88294117647059,324.42033840174406
-0.0596708984375,-0.0424541015625,1.0081103515625005,1.0107667623083405,-0.3623046875,0.28662109375,0.25537109375,42.88294117647059,324.42033840174406
-0.0538115234375,-0.0458720703125,0.9993212890625,1.001819826946421,-0.3388671875,0.2626953125,0.32861328125,43.447647058823534,324.42033840174406
-0.0562529296875,-0.0453837890625,1.0076220703125005,1.010211025968805,-0.32373046875,0.19677734375,0.25,43.777058823529416,324.4519129024903
-0.0586943359375,-0.0453837890625,0.9885791015625,0.9913593462649825,-0.3427734375,0.14990234375,0.419921875,43.16529411764706,324.4519129024903
-0.0499052734375,-0.0385478515625,1.0007861328125005,1.002770839627258,-0.37060546875,0.1005859375,0.4296875,42.69470588235294,324.4519129024903
-0.0435576171875,-0.0302470703125,1.0076220703125005,1.009016544888334,-0.36474609375,0.05517578125,0.423828125,44.01235294117648,324.4519129024903
-0.0347685546875,-0.0312236328125,1.0012744140625005,1.0023643149560295,-0.3583984375,0.0595703125,0.388671875,43.25941176470588,324.4519129024903
-0.0347685546875,-0.0312236328125,1.0071337890625005,1.0082173558873386,-0.34228515625,0.1005859375,0.25146484375,43.777058823529416,324.0353908178405
-0.0289091796875,-0.0356181640625,0.9993212890625,1.0003736467215258,-0.33154296875,0.09765625,0.361328125,42.97705882352941,324.0353908178405
-0.0293974609375,-0.0365947265625,0.9910205078125,0.9921315596364736,-0.34130859375,0.05078125,0.35986328125,43.353529411764704,324.0353908178405
-0.0357451171875,-0.0356181640625,0.9993212890625,1.0005945261630549,-0.30712890625,-0.0107421875,0.3984375,43.353529411764704,324.0353908178405
-0.0435576171875,-0.0380595703125,0.9959033203125,0.9975816860372324,-0.26953125,-0.07470703125,0.451171875,44.01235294117648,324.2925265203413
-0.0489287109375,-0.0429423828125,1.0134814453125005,1.0155701388817688,-0.22216796875,-0.1318359375,0.533203125,43.02411764705882,324.2925265203413
-0.0523466796875,-0.0488017578125,1.0007861328125005,1.0033417513836924,-0.19580078125,-0.11767578125,0.5947265625,43.30647058823529,324.2925265203413
-0.0528349609375,-0.0585673828125,1.0022509765625005,1.0053500342901762,-0.22998046875,-0.09619140625,0.58251953125,43.02411764705882,324.2925265203413
-0.0557646484375,-0.0561259765625,1.0090869140625005,1.012183887143355,-0.22314453125,-0.06689453125,0.62353515625,43.118235294117646,324.2925265203413
-0.0513701171875,-0.0531962890625,1.0076220703125005,1.010332109106074,-0.24365234375,-0.02197265625,0.6884765625,43.118235294117646,324.0449044397837
-0.0347685546875,-0.0502666015625,1.0203173828125005,1.02214634240751,-0.265625,0.015625,0.67431640625,43.30647058823529,324.0449044397837
-0.0303740234375,-0.0424541015625,1.0193408203125005,1.0206765599320002,-0.259765625,0.13330078125,0.61865234375,42.55352941176471,324.0449044397837
-0.0333037109375,-0.0458720703125,1.0120166015625005,1.0136029724872928,-0.244140625,0.2421875,0.58154296875,43.777058823529416,324.0449044397837
-0.0347685546875,-0.0575908203125,1.0095751953125005,1.0118140293401734,-0.2041015625,0.17236328125,0.615234375,43.02411764705882,324.23889307218536
-0.0289091796875,-0.0551494140625,0.9959033203125,0.997847995413682,-0.2216796875,0.0224609375,0.58984375,43.91823529411765,324.23889307218536
-0.0176787109375,-0.0483134765625,0.9934619140625,0.9947930958398804,-0.21533203125,-0.19140625,0.56591796875,43.447647058823534,324.23889307218536
-0.0088896484375,-0.0439189453125,0.9924853515625,0.9934963878509292,-0.23193359375,-0.361328125,0.50634765625,42.69470588235294,324.23889307218536
-0.0142607421875,-0.0424541015625,0.9973681640625,0.998373163798296,-0.22216796875,-0.3896484375,0.46533203125,43.25941176470588,324.23889307218536
-0.0210966796875,-0.0512431640625,1.0056689453125005,1.0071945985374078,-0.1689453125,-0.29052734375,0.43798828125,42.55352941176471,324.2814966954933
-0.0372099609375,-0.0605205078125,1.0090869140625005,1.011584753340536,-0.11181640625,-0.1875,0.37109375,43.91823529411765,324.2814966954933
-0.0523466796875,-0.0649150390625,1.0081103515625005,1.011553566598556,-0.11083984375,-0.18359375,0.333984375,42.60058823529412,324.2814966954933
-0.0611357421875,-0.0678447265625,1.0022509765625005,1.0064032521388444,-0.240234375,-0.19091796875,0.30517578125,44.01235294117648,324.2814966954933
-0.0723662109375,-0.0658916015625,1.0056689453125005,1.0104200112863355,-0.32373046875,-0.15087890625,0.35302734375,43.02411764705882,324.0133312376224
-0.0606474609375,-0.0624736328125,1.0325244140625005,1.0361890440214403,-0.359375,-0.01123046875,0.52880859375,42.60058823529412,324.0133312376224
-0.0352568359375,-0.0458720703125,1.0457080078125005,1.0473072753104826,-0.27734375,0.30419921875,0.61474609375,43.73,324.0133312376224
-0.0118193359375,-0.0453837890625,1.0261767578125005,1.027247839270664,-0.18017578125,0.6474609375,0.42626953125,43.91823529411765,324.0133312376224
0.0052705078125,-0.0517314453125,1.0188525390625005,1.0201786201645404,-0.0986328125,0.69580078125,0.17919921875,42.60058823529412,324.0133312376224
0.0018525390625,-0.0590556640625,1.0134814453125005,1.0152022672115917,-0.01123046875,0.47607421875,0.02978515625,43.353529411764704,324.30052586683763
-0.0030302734374999,-0.0654033203125,1.0032275390625005,1.0053617617546462,0.05517578125,0.322265625,0.0751953125,43.87117647058824,324.30052586683763
-0.0118193359375,-0.0595439453125,0.9827197265625,0.9845929306573638,0.11328125,0.30517578125,0.18115234375,44.01235294117648,324.30052586683763
-0.0118193359375,-0.0405009765625,0.9773486328125,0.9782588491115134,0.1220703125,0.30810546875,0.345703125,42.69470588235294,324.30052586683763
-0.0079130859375,-0.0238994140625,0.9841845703125,0.9845065095583602,0.1640625,0.2890625,0.431640625,43.353529411764704,324.0228449543477
-0.0079130859375,-0.0092509765624999,0.9856494140625,0.9857245887864236,0.162109375,0.38330078125,0.416015625,42.60058823529412,324.0228449543477
-0.0103544921875,0.0049091796875,0.9797900390625,0.9798570488595572,0.12646484375,0.47412109375,0.3349609375,43.30647058823529,324.0228449543477
0.0038056640625,0.0156513671875,0.9895556640625,0.9896867487503156,0.0751953125,0.49755859375,0.17431640625,44.01235294117648,324.0228449543477
0.0082001953125,0.0205341796875,0.9876025390625,0.9878500244983034,0.01708984375,0.3984375,-0.046875,42.60058823529412,324.0228449543477
0.0062470703125,0.0200458984375,0.9929736328125,0.9931955997649756,-0.0048828125,0.21826171875,-0.25048828125,42.55352941176471,324.354159762306
0.0101533203125,0.0176044921875,0.9988330078125,0.9990397317195716,-0.0498046875,0.0576171875,-0.46240234375,42.55352941176471,324.354159762306
0.0169892578125,0.0102802734375,1.0071337890625005,1.00732953296047,-0.0625,-0.06494140625,-0.6572265625,43.91823529411765,324.354159762306
0.0179658203125,0.0097919921875,1.0061572265625005,1.0063652509772203,-0.05810546875,-0.1318359375,-0.82080078125,43.30647058823529,324.354159762306
0.0204072265625,-0.0029033203124999,1.0100634765625005,1.010273780145924,-0.029296875,-0.21435546875,-0.92431640625,43.118235294117646,324.08750758252586
0.0121064453125,-0.0068095703124999,1.0154345703125005,1.0155295676895268,0.02294921875,-0.2734375,-0.97509765625,43.91823529411765,324.08750758252586
-0.0005888671874999,-0.0331767578125,1.0139697265625005,1.0145125186062247,0.06591796875,-0.259765625,-1.01611328125,42.55352941176471,324.08750758252586
-0.0064482421875,-0.0531962890625,1.0090869140625005,1.0105086962166676,0.1435546875,-0.26953125,-0.98974609375,43.16529411764706,324.08750758252586
-0.0210966796875,-0.0683330078125,1.0007861328125005,1.0033381052667838,0.17236328125,-0.20556640625,-0.93408203125,43.118235294117646,324.08750758252586
-0.0215849609375,-0.0815166015625,1.0007861328125005,1.0043324900145232,0.20068359375,-0.16455078125,-0.87451171875,42.55352941176471,324.22786325567523
-0.0176787109375,-0.0873759765625,1.0022509765625005,1.0062077907277145,0.15771484375,-0.107421875,-0.85107421875,42.60058823529412,324.22786325567523
-0.0176787109375,-0.0888408203125,0.9998095703125,1.0039045796601764,0.0947265625,-0.0595703125,-0.83056640625,43.30647058823529,324.22786325567523
-0.0049833984375,-0.0771220703125,1.0046923828125005,1.007660375360038,0.0791015625,-0.10986328125,-0.8193359375,44.01235294117648,324.22786325567523
0.0042939453125,-0.0663798828125,1.0066455078125005,1.0088408720941249,0.11962890625,-0.2080078125,-0.83740234375,43.118235294117646,324.462942704971
0.0008759765625,-0.0624736328125,1.0056689453125005,1.0076079345150502,0.1103515625,-0.34716796875,-0.78955078125,43.30647058823529,324.462942704971
-0.0010771484374999,-0.0614970703125,1.0037158203125005,1.0055985768940667,0.095703125,-0.47607421875,-0.74853515625,42.69470588235294,324.462942704971
-0.0098662109375,-0.0673564453125,1.0105517578125005,1.0128420844639767,0.09033203125,-0.55419921875,-0.77587890625,43.447647058823534,324.462942704971
