AccX,AccY,AccZ,Magnitude,GyroX,GyroY,GyroZ,Temperature,Altitude
0.0916962890625,0.2324482421875,0.9436572265625,0.9761810057399816,0.69677734375,-2.0458984375,-1.541015625,42.31823529411765,445.9879109900879
0.0677705078125,0.2363544921875,0.9539111328125,0.9850902177008978,0.607421875,-2.42724609375,-1.5888671875,42.224117647058826,445.9879109900879
0.0453095703125,0.2158466796875,0.9710009765625,0.9957337208206573,0.52392578125,-2.50927734375,-1.60107421875,42.31823529411765,445.9879109900879
0.0404267578125,0.1802021484375,0.9827197265625,0.9999225960162096,0.48046875,-2.2568359375,-1.6259765625,42.45941176470589,445.9879109900879
0.0667939453125,0.1567646484375,1.0056689453125005,1.0200032420027394,0.4326171875,-1.8076171875,-1.70458984375,42.41235294117647,445.2408542430307
0.1087861328125,0.1416279296875,1.0398486328125005,1.0550725436300066,0.3603515625,-1.32763671875,-1.92919921875,43.16529411764706,445.2408542430307
0.1561494140625,0.1494404296875,1.0696337890625005,1.091252273418685,0.263671875,-0.919921875,-2.12890625,42.45941176470589,445.2408542430307
0.1908173828125,0.1689716796875,1.0808642578125005,1.1105090030866,0.177734375,-0.587890625,-2.34716796875,42.41235294117647,445.2408542430307
0.1947236328125,0.1802021484375,1.0706103515625005,1.102994393616744,0.0361328125,-0.26904296875,-2.4482421875,42.08294117647059,445.2408542430307
0.1664033203125,0.1997333984375,1.0706103515625005,1.101721389614996,-0.0712890625,0.0732421875,-2.345703125,42.224117647058826,445.38772153005374
0.1454072265625,0.2207294921875,1.0476611328125005,1.0804899904505925,-0.09521484375,0.22705078125,-2.115234375,42.41235294117647,445.38772153005374
0.1356416015625,0.2378193359375,1.0232470703125005,1.059240882671788,-0.04638671875,0.236328125,-1.89892578125,42.224117647058826,445.38772153005374
0.1195283203125,0.2470966796875,1.0012744140625005,1.0382168563096623,0.03466796875,0.10205078125,-1.765625,42.31823529411765,445.38772153005374
0.0824189453125,0.2627216796875,0.9876025390625,1.0252679350720684,0.09814453125,0.0439453125,-1.6943359375,41.98882352941177,445.0622149210978
0.0941376953125,0.2573505859375,0.9963916015625,1.0333864008324318,0.22314453125,-0.07666015625,-1.76806640625,42.31823529411765,445.0622149210978
0.1205048828125,0.2529560546875,1.0012744140625005,1.039739700425507,0.373046875,-0.3251953125,-1.908203125,42.27117647058824,445.0622149210978
0.1136689453125,0.2617451171875,1.0002978515625005,1.0402052332787546,0.412109375,-0.4482421875,-2.13623046875,42.31823529411765,445.0622149210978
0.1156220703125,0.2636982421875,1.0276416015625005,1.0672171697166732,0.41015625,-0.5126953125,-2.3359375,42.224117647058826,445.0622149210978
0.1078095703125,0.2676044921875,1.0413134765625005,1.080540986802711,0.36328125,-0.52392578125,-2.4326171875,42.08294117647059,445.0490292561742
0.0907197265625,0.2749287109375,1.0452197265625005,1.084573714267831,0.2685546875,-0.18798828125,-2.4794921875,42.31823529411765,445.0490292561742
0.0682587890625,0.2724873046875,1.0359423828125005,1.0733523251977322,0.28759765625,0.34423828125,-2.54248046875,41.94176470588236,445.0490292561742
0.0580048828125,0.2622333984375,1.0115283203125005,1.0465755894728297,0.29296875,1.11572265625,-2.5341796875,42.224117647058826,445.0490292561742
0.0628876953125,0.2236591796875,0.9802783203125,1.0074343036421285,0.212890625,1.77294921875,-2.42626953125,42.31823529411765,445.93087954856753
0.0770478515625,0.1948505859375,0.9451220703125,0.9680696514519864,0.169921875,2.1796875,-2.2255859375,41.98882352941177,445.93087954856753
0.0770478515625,0.1675068359375,0.9231494140625,0.9413818312460288,0.1572265625,2.302734375,-2.044921875,41.94176470588236,445.93087954856753
0.0677705078125,0.1455341796875,0.9070361328125,0.9211338585753608,0.046875,2.0029296875,-1.9267578125,42.41235294117647,445.93087954856753
0.0614228515625,0.1279560546875,0.9036181640625,0.9146973844113376,-0.06982421875,1.42333984375,-1.82177734375,42.08294117647059,445.93087954856753
0.0736298828125,0.1220966796875,0.8860400390625001,0.8974385269507718,-0.232421875,0.958984375,-1.76904296875,42.31823529411765,445.9607502718961
0.0746064453125,0.1201435546875,0.8943408203125001,0.9054535318238872,-0.3154296875,0.671875,-1.6689453125,42.224117647058826,445.9607502718961
0.0531220703125,0.1435810546875,0.8899462890625001,0.9030182008329488,-0.4990234375,0.50048828125,-1.4677734375,42.224117647058826,445.9607502718961
0.0448212890625,0.1631123046875,0.9060595703125,0.9217149867765873,-0.35498046875,0.36474609375,-1.18359375,42.45941176470589,445.9607502718961
0.0516572265625,0.1777607421875,0.9153369140625,0.9338677726341352,-0.29296875,0.18212890625,-1.00732421875,42.224117647058826,445.7554803775433
0.0663056640625,0.1850849609375,0.9368212890625,0.9572288187746592,-0.2734375,0.0712890625,-0.912109375,42.27117647058824,445.7554803775433
0.0663056640625,0.1870380859375,0.9529345703125,0.973377615303846,-0.28955078125,0.05517578125,-0.85546875,42.224117647058826,445.7554803775433
0.0653291015625,0.1772724609375,0.9700244140625,0.988251375306454,-0.32861328125,0.15576171875,-0.77099609375,42.41235294117647,445.7554803775433
0.0628876953125,0.1636005859375,0.9856494140625,1.001111772672043,-0.359375,0.31982421875,-0.6103515625,42.27117647058824,445.7554803775433
0.0628876953125,0.1455341796875,1.0042041015625005,1.0166419907096007,-0.35107421875,0.580078125,-0.40087890625,42.224117647058826,446.17491034695496
0.0829072265625,0.1167255859375,0.9944384765625,1.0046921689237378,-0.29248046875,0.9609375,-0.24169921875,42.224117647058826,446.17491034695496
0.1078095703125,0.0942646484375,0.9651416015625,0.9757084802658216,-0.26611328125,1.2451171875,-0.173828125,42.41235294117647,446.17491034695496
0.1253876953125,0.0854755859375,0.9426806640625,0.9548167281339678,-0.333984375,1.23193359375,-0.2158203125,42.224117647058826,446.17491034695496
0.1185517578125,0.0962177734375,0.9412158203125,0.9535195853322764,-0.4248046875,0.95703125,-0.28271484375,42.27117647058824,445.99169511540896
0.0829072265625,0.1328388671875,0.9734423828125,0.9859563101413884,-0.5166015625,0.498046875,-0.27880859375,42.27117647058824,445.99169511540896
0.0775361328125,0.1640888671875,1.0237353515625005,1.039697589814072,-0.50927734375,-0.294921875,-0.23486328125,42.224117647058826,445.99169511540896
0.0731416015625,0.1601826171875,1.0486376953125005,1.0633198863740283,-0.45751953125,-0.28564453125,-0.24169921875,42.224117647058826,445.99169511540896
0.0692353515625,0.1260029296875,1.0403369140625005,1.0502243412513834,-0.375,0.33447265625,-0.26318359375,41.84764705882353,445.99169511540896
0.0858369140625,0.0859638671875,1.0056689453125005,1.0129796591460067,-0.37255859375,0.8271484375,-0.28466796875,42.41235294117647,445.93761972165856
0.1043916015625,0.0488544921875,0.9700244140625,0.976847854970762,-0.517578125,1.00732421875,-0.4150390625,42.41235294117647,445.93761972165856
0.1107392578125,0.0342060546875,0.9270556640625,0.9342726805748472,-0.73681640625,0.88427734375,-0.59375,42.13,445.93761972165856
0.1019501953125,0.0346943359375,0.9036181640625,0.9100128162251804,-0.908203125,0.52685546875,-0.72412109375,42.31823529411765,445.93761972165856
0.0873017578125,0.0415302734375,0.8855517578125001,0.8908132667926285,-1.017578125,0.0732421875,-0.73095703125,42.224117647058826,445.7014059869242
0.0741181640625,0.0381123046875,0.8879931640625001,0.8918956830450064,-1.0439453125,-0.4296875,-0.6455078125,42.224117647058826,445.7014059869242
0.0687470703125,0.0351826171875,0.8938525390625001,0.8971824439974248,-0.98974609375,-0.88916015625,-0.54541015625,42.224117647058826,445.7014059869242
0.0736298828125,0.0327412109375,0.9177783203125,0.92130906419739,-0.95361328125,-1.2216796875,-0.458984375,42.08294117647059,445.7014059869242
0.0970673828125,0.0390888671875,0.9402392578125,0.946044332088022,-0.89501953125,-1.455078125,-0.42431640625,42.27117647058824,445.7014059869242
0.1068330078125,0.0620380859375,0.9724658203125,0.980281483728586,-0.8388671875,-1.47412109375,-0.43115234375,42.224117647058826,445.8956457480085
0.1234345703125,0.0844990234375,0.9939501953125,1.0051433573734043,-0.74951171875,-1.2880859375,-0.49072265625,41.98882352941177,445.8956457480085
0.1332001953125,0.1094013671875,0.9998095703125,1.0145590806169194,-0.68798828125,-0.85302734375,-0.54296875,42.41235294117647,445.8956457480085
0.1488251953125,0.1250263671875,0.9963916015625,1.015173263495543,-0.63427734375,-0.41650390625,-0.59228515625,42.224117647058826,445.8956457480085
0.1488251953125,0.1181904296875,0.9978564453125,1.015792991648012,-0.60888671875,-0.166015625,-0.60009765625,42.27117647058824,446.0457706874291
0.1498017578125,0.1103779296875,0.9934619140625,1.0107375666801646,-0.5283203125,-0.2119140625,-0.57861328125,42.45941176470589,446.0457706874291
0.1527314453125,0.0918232421875,1.0012744140625005,1.017009761235984,-0.49755859375,-0.52734375,-0.5166015625,42.224117647058826,446.0457706874291
0.1390595703125,0.0703388671875,1.0178759765625005,1.0297361914567156,-0.48046875,-0.8408203125,-0.4697265625,42.31823529411765,446.0457706874291
0.1239228515625,0.0581318359375,1.0315478515625005,1.0405898104210207,-0.4365234375,-1.00439453125,-0.47900390625,42.08294117647059,446.0457706874291
0.1043916015625,0.0473896484375,1.0471728515625005,1.053429810811025,-0.37109375,-0.96533203125,-0.52587890625,42.224117647058826,446.00272448539374
0.0941376953125,0.0386005859375,1.0569384765625005,1.06182430474713,-0.3603515625,-0.77490234375,-0.6044921875,42.45941176470589,446.00272448539374
0.0809541015625,0.0278583984375,1.0549853515625005,1.058453470368323,-0.3408203125,-0.46826171875,-0.6708984375,42.27117647058824,446.00272448539374
0.0765595703125,0.0205341796875,1.0569384765625005,1.059906582477971,-0.32470703125,-0.22509765625,-0.720703125,42.41235294117647,446.00272448539374
0.0741181640625,0.0102802734375,1.0432666015625005,1.045946646919294,-0.31689453125,-0.0634765625,-0.68896484375,42.224117647058826,446.1517814081254
0.0814423828125,0.0078388671875,1.0291064453125005,1.032353808217266,-0.30908203125,0.01025390625,-0.58447265625,42.31823529411765,446.1517814081254
0.0980439453125,0.0088154296875,1.0105517578125005,1.015335009851896,-0.33935546875,0.0576171875,-0.4638671875,41.98882352941177,446.1517814081254
0.1224580078125,0.0127216796875,0.9919970703125,0.9996079192963914,-0.33935546875,-0.02197265625,-0.396484375,42.27117647058824,446.1517814081254
0.1288056640625,0.0215107421875,0.9880908203125,0.9966830390399286,-0.400390625,-0.1796875,-0.3671875,42.13,446.1517814081254
0.1341767578125,0.0317646484375,0.9924853515625,1.0020177484922967,-0.41162109375,-0.35107421875,-0.37060546875,42.31823529411765,446.2069279093163
0.1302705078125,0.0342060546875,0.9944384765625,1.0035179834218004,-0.453125,-0.46435546875,-0.39990234375,42.27117647058824,446.2069279093163
0.1390595703125,0.0268818359375,1.0027392578125005,1.0126925576685313,-0.43212890625,-0.537109375,-0.43701171875,42.45941176470589,446.2069279093163
0.1434541015625,0.0136982421875,1.0105517578125005,1.0207749880909436,-0.37158203125,-0.48974609375,-0.46826171875,42.224117647058826,446.2069279093163
0.1502900390625,0.0039326171875,1.0081103515625005,1.0192590653248168,-0.30712890625,-0.40234375,-0.423828125,42.45941176470589,446.1098049257764
0.1581025390625,0.0029560546875,0.9998095703125,1.0122372883893336,-0.3017578125,-0.31103515625,-0.25048828125,42.31823529411765,446.1098049257764
0.1747041015625,0.0083271484375,1.0017626953125005,1.0169165955099886,-0.26318359375,-0.20166015625,-0.267578125,42.31823529411765,446.1098049257764
0.1800751953125,0.0117451171875,0.9983447265625,1.0145231474933118,-0.23974609375,-0.0732421875,-0.2001953125,42.08294117647059,446.1098049257764
0.1678681640625,0.0132099609375,1.0012744140625005,1.0153347604755232,-0.1962890625,-0.02197265625,-0.1982421875,42.224117647058826,446.1098049257764
0.1512666015625,0.0049091796875,0.9934619140625,1.0049240068215102,-0.13232421875,-0.0224609375,-0.23779296875,42.27117647058824,446.2930222558927
0.1439423828125,-0.0043681640624999,0.9905322265625,1.0009458438326626,-0.16357421875,-0.076171875,-0.25146484375,42.27117647058824,446.2930222558927
0.1522431640625,-0.0068095703124999,0.9822314453125,0.9939833818592164,-0.2158203125,-0.0703125,-0.220703125,42.31823529411765,446.2930222558927
0.1512666015625,-0.0038798828124999,0.9705126953125,0.9822380210527591,-0.2412109375,-0.03466796875,-0.12548828125,42.41235294117647,446.2930222558927
0.1590791015625,-0.0033916015624999,0.9710009765625,0.9839515028701464,-0.27099609375,-0.0498046875,-0.02001953125,42.13,446.1528516657299
0.1766572265625,-0.0004619140624999,0.9783251953125,0.994146959380049,-0.25146484375,-0.1181640625,0.07421875,42.13,446.1528516657299
0.1917939453125,0.0010029296875,0.9822314453125,1.000781962011294,-0.20166015625,-0.19482421875,0.126953125,42.31823529411765,446.1528516657299
0.2083955078125,0.0014912109375,0.9846728515625,1.0064847420555938,-0.1259765625,-0.19873046875,0.16162109375,41.84764705882353,446.1528516657299
0.2083955078125,-0.0043681640624999,0.9778369140625,0.9998063807742876,-0.09619140625,-0.21240234375,0.1904296875,42.224117647058826,446.1528516657299
0.1976533203125,-0.0009501953124999,0.9807666015625,1.0004853145559625,-0.13427734375,-0.375,0.21044921875,42.224117647058826,446.4221650926043
0.1864228515625,0.0058857421875,0.9905322265625,1.007939588172156,-0.1494140625,-0.29052734375,0.20947265625,42.224117647058826,446.4221650926043
0.1771455078125,0.0068623046875,0.9983447265625,1.0139624328440011,-0.18359375,-0.24951171875,0.201171875,42.08294117647059,446.4221650926043
0.1756806640625,0.0034443359375,0.9983447265625,1.013690165795567,-0.1826171875,-0.15673828125,0.20263671875,42.41235294117647,446.4221650926043
0.1815400390625,0.0044208984375,1.0002978515625005,1.0166474914966164,-0.18115234375,-0.05322265625,0.23681640625,42.27117647058824,445.99169511540896
0.1795869140625,0.0053974609375,1.0090869140625005,1.0249570685737248,-0.15966796875,0.0712890625,0.265625,42.224117647058826,445.99169511540896
0.1815400390625,0.0049091796875,1.0095751953125005,1.025779196912421,-0.15234375,0.1728515625,0.2861328125,42.31823529411765,445.99169511540896
0.1830048828125,0.0088154296875,1.0076220703125005,1.024143903714044,-0.1142578125,0.23095703125,0.3310546875,42.224117647058826,445.99169511540896
0.1844697265625,0.0097919921875,1.0071337890625005,1.0239352675830795,-0.064453125,0.17138671875,0.33935546875,42.41235294117647,445.99169511540896
0.1883759765625,0.0146748046875,1.0076220703125005,1.0251844200041966,-0.00244140625,0.1572265625,0.29833984375,42.45941176470589,446.2709636360978
0.1849580078125,0.0176044921875,1.0081103515625005,1.0250882224114255,0.02099609375,0.20166015625,0.25146484375,42.31823529411765,446.2709636360978
0.1800751953125,0.0058857421875,1.0002978515625005,1.0163943672455522,0.064453125,0.30224609375,0.23974609375,42.27117647058824,446.2709636360978
0.1834931640625,0.0083271484375,1.0032275390625005,1.0199042003012675,0.08203125,0.44873046875,0.26806640625,42.41235294117647,446.2709636360978
0.1917939453125,0.0049091796875,0.9890673828125,1.0075035013573437,0.11669921875,0.50830078125,0.31787109375,42.506470588235295,446.1407521496182
0.1947236328125,0.0010029296875,0.9832080078125,1.002305485204127,0.1533203125,0.51171875,0.33154296875,42.224117647058826,446.1407521496182
0.1927705078125,0.0049091796875,0.9670947265625,0.9861322319407728,0.11572265625,0.43115234375,0.34423828125,42.31823529411765,446.1407521496182
0.1913056640625,0.0053974609375,0.9612353515625,0.9801022348614704,0.0986328125,0.30224609375,0.3544921875,42.13,446.1407521496182
0.1961884765625,0.0049091796875,0.9729541015625,0.9925490930570692,0.1103515625,0.15966796875,0.35205078125,42.41235294117647,446.1407521496182
0.1927705078125,0.0053974609375,0.9710009765625,0.9899659073686274,0.0947265625,0.07373046875,0.33447265625,42.224117647058826,446.1087344701764
0.1957001953125,0.0136982421875,0.9846728515625,1.0040253148644227,0.0634765625,0.10546875,0.314453125,42.224117647058826,446.1087344701764
0.1937470703125,0.0156513671875,0.9949267578125,1.01373672418474,0.10107421875,0.1923828125,0.33056640625,42.31823529411765,446.1087344701764
0.1947236328125,0.0127216796875,1.0022509765625005,1.0210710819185187,0.1611328125,0.31640625,0.31396484375,42.31823529411765,446.1087344701764
0.1922822265625,0.0005146484375,0.9983447265625,1.016693126056235,0.2119140625,0.48388671875,0.33447265625,42.27117647058824,446.325040381304
0.1893525390625,0.0049091796875,0.9885791015625,1.006562031938787,0.22412109375,0.58349609375,0.3681640625,42.45941176470589,446.325040381304
0.1888642578125,0.0029560546875,0.9910205078125,1.0088607897243935,0.23388671875,0.58154296875,0.36279296875,42.27117647058824,446.325040381304
0.1893525390625,0.0024677734375,0.9797900390625,0.9979223389629324,0.212890625,0.47705078125,0.3466796875,42.13,446.325040381304
0.1922822265625,0.0146748046875,0.9802783203125,0.9990662589734204,0.1953125,0.34912109375,0.3486328125,42.27117647058824,446.325040381304
0.1883759765625,0.0176044921875,0.9788134765625,0.9969309146532788,0.181640625,0.2763671875,0.310546875,42.13,446.3360696925493
0.1873994140625,0.0176044921875,0.9861376953125,1.0039402435665168,0.18115234375,0.28125,0.27587890625,41.84764705882353,446.3360696925493
0.1834931640625,0.0146748046875,0.9890673828125,1.0060513798478945,0.22265625,0.35546875,0.29931640625,42.31823529411765,446.3360696925493
0.1878876953125,0.0127216796875,0.9856494140625,1.0034781485541495,0.2607421875,0.4365234375,0.32568359375,42.31823529411765,446.3360696925493
0.1839814453125,0.0102802734375,0.9890673828125,1.0060860519780577,0.2802734375,0.54052734375,0.3349609375,42.08294117647059,446.45418376157113
0.1869111328125,0.0166279296875,0.9919970703125,1.0095892467352887,0.30224609375,0.62353515625,0.3642578125,42.45941176470589,446.45418376157113
0.1790986328125,0.0176044921875,0.9895556640625,1.0057865830774746,0.3095703125,0.67919921875,0.3681640625,42.31823529411765,446.45418376157113
0.1756806640625,0.0244404296875,0.9822314453125,0.998118050377526,0.3037109375,0.74169921875,0.36962890625,41.84764705882353,446.45418376157113
0.1771455078125,0.0273701171875,0.9939501953125,1.0099834874960891,0.3125,0.78466796875,0.3251953125,42.224117647058826,446.45418376157113
0.1698212890625,0.0342060546875,0.9988330078125,1.0137439035041835,0.28076171875,0.81884765625,0.32421875,42.13,446.0877462889711
0.1639619140625,0.0293232421875,1.0022509765625005,1.0159972351418636,0.275390625,0.8828125,0.30859375,42.08294117647059,446.0877462889711
0.1605439453125,0.0342060546875,1.0139697265625005,1.027170394306134,0.29052734375,1.0048828125,0.30126953125,42.08294117647059,446.0877462889711
0.1561494140625,0.0332294921875,1.0168994140625005,1.029354777024791,0.27880859375,1.197265625,0.3017578125,42.31823529411765,446.0877462889711
0.1507783203125,0.0278583984375,1.0227587890625005,1.0341884416509175,0.25244140625,1.45361328125,0.27197265625,42.31823529411765,445.8856886035609
0.1434541015625,0.0268818359375,1.0164111328125005,1.0268365513866675,0.27099609375,1.70654296875,0.2333984375,42.41235294117647,445.8856886035609
0.1463837890625,0.0156513671875,1.0027392578125005,1.013488627540288,0.2763671875,1.91796875,0.17333984375,42.31823529411765,445.8856886035609
0.1405244140625,0.0102802734375,0.9788134765625,0.9889027337761416,0.2353515625,1.99169921875,0.1796875,42.224117647058826,445.8856886035609
0.1434541015625,0.0122333984375,0.9788134765625,0.9893455196203208,0.13818359375,1.89111328125,0.310546875,42.08294117647059,445.8856886035609
0.1551728515625,0.0156513671875,0.9807666015625,0.993089475272662,0.080078125,1.68505859375,0.4453125,42.27117647058824,445.6252729866584
0.1512666015625,0.0224873046875,0.9841845703125,0.9959952470075232,0.087890625,1.54833984375,0.54296875,41.98882352941177,445.6252729866584
0.1312470703125,0.0254169921875,0.9778369140625,0.9869330511543056,0.10546875,1.50146484375,0.58251953125,42.27117647058824,445.6252729866584
0.1410126953125,0.0239521484375,0.9793017578125,0.9896919816330334,0.0751953125,1.33203125,0.576171875,42.224117647058826,445.6252729866584
0.1444306640625,0.0215107421875,0.9710009765625,0.9819194596484584,-0.0048828125,1.10009765625,0.56982421875,42.224117647058826,445.93761972165856
0.1322236328125,0.0263935546875,0.9768603515625,0.9861216229542824,-0.05029296875,0.91259765625,0.568359375,42.31823529411765,445.93761972165856
0.1234345703125,0.0263935546875,0.9734423828125,0.981591964888136,-0.14111328125,0.83349609375,0.5556640625,42.506470588235295,445.93761972165856
0.1346650390625,0.0317646484375,0.9890673828125,0.9986981292560988,-0.134765625,0.6259765625,0.53857421875,42.31823529411765,445.93761972165856
0.1356416015625,0.0312763671875,0.9983447265625,1.0080025041010765,-0.05126953125,0.46044921875,0.5546875,42.224117647058826,445.93761972165856
0.1332001953125,0.0312763671875,1.0071337890625005,1.016385247948397,0.0283203125,0.42041015625,0.62109375,42.224117647058826,445.9166326080205
0.1297822265625,0.0327412109375,1.0076220703125005,1.016473142688002,0.1005859375,0.4013671875,0.693359375,42.27117647058824,445.9166326080205
0.1327119140625,0.0366474609375,1.0173876953125005,1.0266611958677403,0.1435546875,0.44677734375,0.6875,42.224117647058826,445.9166326080205
0.1375947265625,0.0342060546875,1.0066455078125005,1.0165813009072024,0.1953125,0.45703125,0.537109375,42.31823529411765,445.9166326080205
0.1429658203125,0.0342060546875,1.0012744140625005,1.0120077728017278,0.17919921875,0.4384765625,0.3466796875,42.224117647058826,445.9817372518368
0.1356416015625,0.0400654296875,0.9939501953125,1.0039625857033925,0.12109375,0.40283203125,0.22412109375,42.506470588235295,445.9817372518368
0.1278291015625,0.0405537109375,0.9900439453125,0.9990855300358518,0.09765625,0.44482421875,0.14208984375,42.31823529411765,445.9817372518368
0.1244111328125,0.0390888671875,0.9910205078125,0.999563763053982,0.0732421875,0.54443359375,0.12109375,42.45941176470589,445.9817372518368
0.1151337890625,0.0342060546875,0.9910205078125,0.998272252677654,-0.009765625,0.72314453125,0.09130859375,42.31823529411765,445.9817372518368
0.1141572265625,0.0346943359375,0.9924853515625,0.999631303225707,-0.0068359375,0.8818359375,0.08544921875,42.41235294117647,445.93654847412574
0.1136689453125,0.0298115234375,0.9905322265625,0.9974785450910634,-0.0029296875,0.98974609375,0.11474609375,42.41235294117647,445.93654847412574
0.1068330078125,0.0288349609375,0.9968798828125,1.0030026157925993,0.05078125,1.03662109375,0.15673828125,42.31823529411765,445.93654847412574
0.1087861328125,0.0317646484375,0.9998095703125,1.006212001752674,0.1328125,1.072265625,0.1748046875,42.13,445.93654847412574
0.1185517578125,0.0327412109375,1.0017626953125005,1.00928440188772,0.17919921875,1.12060546875,0.140625,42.31823529411765,446.2058577884541
0.1190400390625,0.0302998046875,1.0042041015625005,1.0116889278128187,0.2255859375,1.16650390625,0.10107421875,42.08294117647059,446.2058577884541
0.2367158203125,0.0317646484375,0.9998095703125,1.0279409269822093,0.25244140625,1.12841796875,0.0361328125,42.224117647058826,446.2058577884541
0.1029267578125,0.0346943359375,1.0032275390625005,1.0090902385581468,0.255859375,1.09033203125,-0.0283203125,42.45941176470589,446.2058577884541
0.1029267578125,0.0293232421875,1.0144580078125005,1.0200876529108107,0.27685546875,1.04296875,-0.06494140625,42.27117647058824,446.2058577884541
0.1102509765625,0.0327412109375,1.0071337890625005,1.0136793052035873,0.2763671875,1.01806640625,-0.03173828125,42.224117647058826,446.13186361820726
0.1170869140625,0.0381123046875,1.0051806640625005,1.0126944557063602,0.28662109375,1.1474609375,0.02978515625,41.98882352941177,446.13186361820726
0.1200166015625,0.0366474609375,0.9934619140625,1.0013558786647752,0.3154296875,1.33837890625,0.0888671875,42.31823529411765,446.13186361820726
0.1190400390625,0.0381123046875,0.9861376953125,0.9940274809002232,0.26318359375,1.38623046875,0.205078125,41.94176470588236,446.13186361820726
0.1136689453125,0.0429951171875,0.9753955078125,0.9829372339530272,0.22900390625,1.216796875,0.24853515625,42.13,445.93761972165856
0.1029267578125,0.0415302734375,0.9739306640625,0.9802344716886918,0.18359375,0.87548828125,0.2119140625,42.31823529411765,445.93761972165856
0.0887666015625,0.0434833984375,0.9744189453125,0.9794195201631194,0.16748046875,0.513671875,0.10693359375,41.98882352941177,445.93761972165856
0.0804658203125,0.0390888671875,0.9744189453125,0.978516718692374,0.1806640625,0.1904296875,0.00927734375,42.31823529411765,445.93761972165856
0.0726533203125,0.0395771484375,0.9861376953125,0.9896021472021592,0.185546875,-0.00830078125,-0.01953125,42.27117647058824,445.93761972165856
0.0628876953125,0.0346943359375,0.9939501953125,0.996541795375196,0.1982421875,-0.08837890625,0.02783203125,42.31823529411765,446.1848692671098
0.0565400390625,0.0346943359375,1.0085986328125005,1.0107777575088293,0.22412109375,-0.0048828125,0.08544921875,42.45941176470589,446.1848692671098
0.0633759765625,0.0356708984375,1.0168994140625005,1.0194966138841488,0.2802734375,0.205078125,0.10693359375,42.13,446.1848692671098
0.0760712890625,0.0361591796875,1.0217822265625005,1.0252478948109691,0.265625,0.466796875,0.13427734375,42.31823529411765,446.1848692671098
0.0863251953125,0.0395771484375,1.0208056640625005,1.025213438170934,0.2109375,0.759765625,0.14453125,42.224117647058826,445.99169511540896
0.0941376953125,0.0459248046875,1.0168994140625005,1.022279517394822,0.162109375,1.041015625,0.1435546875,42.45941176470589,445.99169511540896
0.0916962890625,0.0478779296875,1.0076220703125005,1.012917934563232,0.15234375,1.18115234375,0.13134765625,42.41235294117647,445.99169511540896
0.0902314453125,0.0512958984375,1.0042041015625005,1.009553792779088,0.13671875,1.20849609375,0.09033203125,42.224117647058826,445.99169511540896
0.0824189453125,0.0469013671875,0.9895556640625,0.9940890468507624,0.119140625,1.18994140625,0.06298828125,42.31823529411765,445.99169511540896
0.0785126953125,0.0420185546875,0.9817431640625,0.9857735249268508,0.12646484375,1.1103515625,0.06103515625,41.98882352941177,446.0987756004181
0.0824189453125,0.0390888671875,0.9851611328125,0.9893751966209964,0.126953125,0.97216796875,0.0009765625,42.224117647058826,446.0987756004181
0.0785126953125,0.0478779296875,0.9856494140625,0.989929950510714,0.08935546875,0.84228515625,0.21728515625,42.31823529411765,446.0987756004181
0.0687470703125,0.0493427734375,0.9846728515625,0.98830232903261,0.07763671875,0.7548828125,0.29443359375,42.27117647058824,446.0987756004181
0.0663056640625,0.0498310546875,0.9963916015625,0.9998378862407252,0.0546875,0.72021484375,0.31103515625,42.08294117647059,445.9465069087416
0.0648408203125,0.0527607421875,1.0076220703125005,1.0110837079469843,0.05615234375,0.69775390625,0.3125,42.41235294117647,445.9465069087416
0.0653291015625,0.0508076171875,1.0105517578125005,1.013934988395789,0.0849609375,0.71875,0.2783203125,42.224117647058826,445.9465069087416
0.0672822265625,0.0522724609375,1.0120166015625005,1.015596824542979,0.14990234375,0.80810546875,0.2294921875,42.08294117647059,445.9465069087416
0.0677705078125,0.0532490234375,1.0061572265625005,1.009841900888527,0.103515625,0.84814453125,0.203125,42.27117647058824,445.9465069087416
0.0677705078125,0.0537373046875,1.0037158203125005,1.007435351568445,0.03662109375,0.8984375,0.21337890625,42.31823529411765,445.7444509600249
0.0848603515625,0.0547138671875,1.0090869140625005,1.0141258731844398,-0.0107421875,0.958984375,0.2109375,42.224117647058826,445.7444509600249
0.0902314453125,0.0483662109375,0.9993212890625,1.004551662612317,0.01318359375,1.05224609375,0.18603515625,42.45941176470589,445.7444509600249
0.0990205078125,0.0395771484375,0.9876025390625,0.9933429351480716,0.0400390625,1.115234375,0.1826171875,42.31823529411765,445.7444509600249
0.0990205078125,0.0429951171875,0.9915087890625,0.9973681967345848,0.04052734375,1.12255859375,0.2412109375,42.506470588235295,445.67934718241554
0.0790009765625,0.0425068359375,0.9793017578125,0.9834022159085766,0.0439453125,0.833984375,0.27197265625,42.31823529411765,445.67934718241554
0.0677705078125,0.0508076171875,0.9783251953125,0.9819849507383894,-0.00439453125,0.69970703125,0.30419921875,42.13,445.67934718241554
0.0658173828125,0.0581318359375,0.9797900390625,0.98371731654772,-0.01953125,0.5576171875,0.29248046875,42.41235294117647,445.67934718241554
0.0663056640625,0.0512958984375,0.9783251953125,0.9819103309704612,0.01318359375,0.37548828125,0.32763671875,42.224117647058826,445.67934718241554
0.0760712890625,0.0337177734375,0.9861376953125,0.9896419975837032,0.0048828125,0.17626953125,0.26318359375,42.31823529411765,446.2930222558927
0.0755830078125,0.0317646484375,0.9885791015625,0.99197299560344,0.00830078125,0.02197265625,0.20556640625,42.27117647058824,446.2930222558927
0.0653291015625,0.0332294921875,0.9915087890625,0.994214146675749,-0.02392578125,-0.03955078125,0.1875,42.45941176470589,446.2930222558927
0.0580048828125,0.0386005859375,0.9973681640625,0.999798892953084,0.02685546875,0.009765625,0.1708984375,42.27117647058824,446.2930222558927
0.0619111328125,0.0381123046875,1.0002978515625005,1.00293635290345,0.046875,0.12353515625,0.181640625,41.94176470588236,446.02371197257673
0.0687470703125,0.0342060546875,0.9968798828125,0.9998328433343744,0.056640625,0.26025390625,0.16259765625,42.27117647058824,446.02371197257673
0.0692353515625,0.0405537109375,0.9983447265625,1.0015639422582756,0.07373046875,0.30859375,0.126953125,42.13,446.02371197257673
0.0609345703125,0.0469013671875,0.9973681640625,1.0003279536175262,0.0322265625,0.216796875,0.10986328125,42.45941176470589,446.02371197257673
0.0575166015625,0.0498310546875,1.0022509765625005,1.0051359676616165,0.02001953125,0.146484375,0.1142578125,42.13,446.02371197257673
0.0560517578125,0.0532490234375,1.0061572265625005,1.0091231949642527,0.00439453125,0.15478515625,0.0869140625,42.74176470588235,446.59328966085775
0.0599580078125,0.0591083984375,1.0198291015625005,1.0232986669885125,0.02685546875,0.1533203125,0.05517578125,42.31823529411765,446.59328966085775
0.0619111328125,0.0537373046875,1.0090869140625005,1.012411520288753,0.03125,0.17431640625,-0.01708984375,42.224117647058826,446.59328966085775
0.0526337890625,0.0600849609375,1.0051806640625005,1.0083494858862505,0.03564453125,0.15869140625,-0.0986328125,42.08294117647059,446.59328966085775
0.0482392578125,0.0547138671875,1.0046923828125005,1.007336794393202,0.0244140625,0.1533203125,-0.1455078125,42.41235294117647,446.216887069181
0.0438447265625,0.0527607421875,1.0095751953125005,1.011903222128376,0.083984375,0.146484375,-0.09814453125,42.31823529411765,446.216887069181
0.0409150390625,0.0459248046875,0.9949267578125,0.9968261541103164,0.09228515625,0.1494140625,-0.05224609375,42.27117647058824,446.216887069181
0.0306611328125,0.0503193359375,0.9988330078125,1.0005695968448685,0.1162109375,0.15087890625,0.03271484375,42.13,446.216887069181
0.0287080078125,0.0547138671875,1.0032275390625005,1.005128475424199,0.11181640625,0.12060546875,0.10302734375,42.27117647058824,446.216887069181
0.0409150390625,0.0635029296875,1.0071337890625005,1.0099629357415896,0.09326171875,0.06298828125,0.08349609375,42.27117647058824,446.24890507194834
0.0540986328125,0.0639912109375,1.0144580078125005,1.0179128581388175,0.0859375,0.0830078125,0.0361328125,42.41235294117647,446.24890507194834
0.0672822265625,0.0605732421875,1.0261767578125005,1.0301624891029997,0.0703125,0.208984375,-0.0185546875,42.31823529411765,446.24890507194834
0.0667939453125,0.0522724609375,1.0212939453125005,1.0248098184711365,0.11572265625,0.3994140625,-0.05810546875,42.31823529411765,446.24890507194834
0.0663056640625,0.0425068359375,1.0203173828125005,1.0233527416573118,0.15673828125,0.54296875,-0.0712890625,42.224117647058826,446.1087344701764
0.0623994140625,0.0337177734375,0.9993212890625,1.001835123108819,0.1796875,0.62158203125,-0.1025390625,42.224117647058826,446.1087344701764
0.0628876953125,0.0361591796875,0.9929736328125,0.9956198993382184,0.18896484375,0.5673828125,-0.08056640625,42.224117647058826,446.1087344701764
0.0628876953125,0.0395771484375,0.9836962890625,0.9864986578883396,0.1796875,0.4794921875,-0.048828125,42.224117647058826,446.1087344701764
0.0721650390625,0.0449482421875,0.9758837890625,0.9795801687935604,0.14013671875,0.34716796875,-0.03466796875,42.224117647058826,446.1087344701764
0.0755830078125,0.0473896484375,0.9846728515625,0.9887058179525594,0.11962890625,0.22705078125,-0.01171875,42.08294117647059,446.4011759577937
0.0770478515625,0.0537373046875,0.9900439453125,0.9944903634502522,0.1044921875,0.1669921875,-0.07177734375,42.224117647058826,446.4011759577937
0.0697236328125,0.0566669921875,0.9910205078125,0.9950850113840004,0.0966796875,0.17041015625,-0.107421875,42.27117647058824,446.4011759577937
0.0633759765625,0.0561787109375,0.9959033203125,0.99949786661969,0.09521484375,0.2626953125,-0.14111328125,42.08294117647059,446.4011759577937
0.0575166015625,0.0469013671875,1.0051806640625005,1.007916695518278,0.24951171875,0.35205078125,-0.13134765625,41.94176470588236,446.0888170650336
0.0526337890625,0.0371357421875,1.0066455078125005,1.0087043954984922,0.1572265625,0.41796875,-0.07421875,42.13,446.0888170650336
0.0433564453125,0.0346943359375,1.0002978515625005,1.0018379460455835,0.166015625,0.482421875,-0.02685546875,42.224117647058826,446.0888170650336
0.0335908203125,0.0356708984375,1.0007861328125005,1.001984850102238,0.15625,0.462890625,-0.01123046875,41.98882352941177,446.0888170650336
0.0350556640625,0.0425068359375,0.9905322265625,0.992063416593488,0.16455078125,0.369140625,-0.015625,42.13,446.0888170650336
0.0316376953125,0.0444599609375,0.9846728515625,0.9861836829391754,0.1650390625,0.20703125,0.00927734375,42.41235294117647,446.28199293904447
0.0433564453125,0.0498310546875,0.9836962890625,0.9859114080264708,0.17822265625,0.04052734375,0.01806640625,42.31823529411765,446.28199293904447
0.0443330078125,0.0561787109375,0.9773486328125,0.9799652102012424,0.15576171875,-0.10400390625,0.0400390625,42.45941176470589,446.28199293904447
0.0565400390625,0.0571552734375,0.9905322265625,0.9937895114951496,0.13330078125,-0.37451171875,0.029296875,42.27117647058824,446.28199293904447
0.0560517578125,0.0674091796875,0.9959033203125,0.9997545801192784,0.123046875,-0.35009765625,-0.01611328125,42.31823529411765,446.4652130560028
0.0555634765625,0.0747333984375,1.0134814453125005,1.0177509620542955,0.109375,-0.31640625,-0.0693359375,42.31823529411765,446.4652130560028
0.0614228515625,0.0844990234375,1.0168994140625005,1.022251079714087,0.09814453125,-0.15869140625,-0.13427734375,42.224117647058826,446.4652130560028
0.0677705078125,0.0805927734375,1.0178759765625005,1.023308135667149,0.076171875,0.03369140625,-0.265625,42.31823529411765,446.4652130560028
0.0741181640625,0.0776630859375,1.0232470703125005,1.0288632679148606,0.09716796875,0.22412109375,-0.365234375,42.08294117647059,446.4652130560028
0.0750947265625,0.0664326171875,1.0002978515625005,1.005310052881414,0.0322265625,0.32958984375,-0.43603515625,41.84764705882353,446.62744591605787
0.0687470703125,0.0542255859375,1.0002978515625005,1.004122684579614,-0.03564453125,0.40380859375,-0.44189453125,42.08294117647059,446.62744591605787
0.0638642578125,0.0478779296875,0.9934619140625,0.9966631899843744,-0.05419921875,0.47607421875,-0.3388671875,42.31823529411765,446.62744591605787
0.0482392578125,0.0429951171875,0.9929736328125,0.9950739879813568,0.0234375,0.5341796875,-0.240234375,42.45941176470589,446.62744591605787
0.0453095703125,0.0444599609375,0.9846728515625,0.986716914769729,0.13134765625,0.439453125,-0.22705078125,42.27117647058824,446.54028022634026
0.0399384765625,0.0444599609375,0.9856494140625,0.9874596384047538,0.1328125,0.22412109375,-0.23046875,42.224117647058826,446.54028022634026
0.0521455078125,0.0610615234375,0.9900439453125,0.9932948591830488,0.10205078125,0.11279296875,-0.27490234375,42.45941176470589,446.54028022634026
0.0780244140625,0.0703388671875,0.9822314453125,0.9878329704903052,0.087890625,0.08837890625,-0.33837890625,42.27117647058824,446.54028022634026
0.1078095703125,0.0630146484375,0.9797900390625,0.9877156827826332,0.03759765625,0.13427734375,-0.421875,42.224117647058826,446.54028022634026
0.2391572265625,0.0547138671875,0.9924853515625,1.022358527790431,-0.04736328125,0.09130859375,-0.46826171875,42.41235294117647,446.325040381304
0.0975556640625,0.0581318359375,1.0012744140625005,1.007693837530201,-0.09033203125,0.064453125,-0.484375,42.31823529411765,446.325040381304
0.0746064453125,0.0635029296875,1.0217822265625005,1.026468539352319,-0.0439453125,0.14599609375,-0.43994140625,42.224117647058826,446.325040381304
0.0643525390625,0.0664326171875,1.0173876953125005,1.0215832146641075,0.0146484375,0.2275390625,-0.3896484375,42.224117647058826,446.325040381304
0.0663056640625,0.0678974609375,1.0178759765625005,1.0222905702155294,0.06103515625,0.240234375,-0.34814453125,42.31823529411765,446.1848692671098
0.0716767578125,0.0556904296875,1.0046923828125005,1.008784300854623,0.04248046875,0.2392578125,-0.35693359375,42.31823529411765,446.1848692671098
0.0750947265625,0.0459248046875,1.0022509765625005,1.006109002873728,-0.02294921875,0.1552734375,-0.42724609375,42.08294117647059,446.1848692671098
0.0638642578125,0.0459248046875,1.0115283203125005,1.0145823149975337,-0.017578125,0.06982421875,-0.45654296875,42.224117647058826,446.1848692671098
0.0584931640625,0.0449482421875,1.0203173828125005,1.0229806236616308,0.0048828125,0.044921875,-0.4375,42.224117647058826,446.1848692671098
0.0575166015625,0.0512958984375,1.0232470703125005,1.026145211729278,0.02490234375,0.08154296875,-0.46826171875,42.31823529411765,446.4022458521294
0.0619111328125,0.0459248046875,1.0212939453125005,1.0241989058692087,-0.01025390625,0.162109375,-0.55810546875,42.27117647058824,446.4022458521294
0.0580048828125,0.0390888671875,1.0139697265625005,1.0163794135820174,-0.01171875,0.3515625,-0.58740234375,42.27117647058824,446.4022458521294
0.0511689453125,0.0386005859375,1.0032275390625005,1.005272978515046,-0.0234375,0.5283203125,-0.54638671875,42.224117647058826,446.4022458521294
0.0477509765625,0.0386005859375,0.9895556640625,0.9914588106802856,0.0029296875,0.70361328125,-0.46826171875,42.27117647058824,446.0557290304308
0.0472626953125,0.0429951171875,0.9895556640625,0.9916162336046866,0.04638671875,0.78564453125,-0.38525390625,42.224117647058826,446.0557290304308
0.0580048828125,0.0488544921875,0.9866259765625,0.9895363285220494,0.06787109375,0.72802734375,-0.37060546875,42.31823529411765,446.0557290304308
0.0619111328125,0.0420185546875,0.9846728515625,0.9875116059613572,0.06005859375,0.583984375,-0.39404296875,42.224117647058826,446.0557290304308
0.0492158203125,0.0390888671875,0.9773486328125,0.979367391006816,0.01953125,0.35009765625,-0.38525390625,42.224117647058826,446.0557290304308
0.0326142578125,0.0366474609375,0.9905322265625,0.9917463476437358,0.041015625,0.15625,-0.2548828125,41.98882352941177,445.9486490833349
0.0331025390625,0.0366474609375,1.0115283203125005,1.012733112562129,0.048828125,0.0712890625,-0.09228515625,42.224117647058826,445.9486490833349
0.0301728515625,0.0249287109375,1.0227587890625005,1.0235073923548428,0.09130859375,0.14794921875,0.0439453125,42.31823529411765,445.9486490833349
0.0360322265625,0.0254169921875,1.0261767578125005,1.027123694166134,0.10546875,0.34033203125,0.12451171875,42.27117647058824,445.9486490833349
0.0453095703125,0.0161396484375,1.0188525390625005,1.019987226276728,0.107421875,0.56005859375,0.19873046875,42.31823529411765,446.17598117001
0.0438447265625,0.0127216796875,1.0081103515625005,1.009143538902608,0.0625,0.78173828125,0.25537109375,41.98882352941177,446.17598117001
0.0384736328125,0.0112568359375,0.9963916015625,0.9971976536481616,0.03564453125,0.85888671875,0.359375,42.27117647058824,446.17598117001
0.0360322265625,0.0185810546875,0.9954150390625,0.9962402706858168,0.03271484375,0.84423828125,0.474609375,42.224117647058826,446.17598117001
0.0374970703125,0.0249287109375,0.9861376953125,0.987165145772112,0.0869140625,0.76708984375,0.53466796875,41.84764705882353,446.17598117001
0.0409150390625,0.0293232421875,0.9841845703125,0.9854710352897608,0.115234375,0.55810546875,0.544921875,42.27117647058824,446.0998464377239
0.0409150390625,0.0293232421875,0.9778369140625,0.9791317191558784,0.140625,0.3984375,0.5107421875,42.31823529411765,446.0998464377239
0.0404267578125,0.0312763671875,0.9817431640625,0.9830728223662408,0.150390625,0.294921875,0.48486328125,42.41235294117647,446.0998464377239
0.0482392578125,0.0371357421875,1.0012744140625005,1.0031233930072214,0.1552734375,0.328125,0.44873046875,42.27117647058824,446.0998464377239
0.0643525390625,0.0444599609375,0.9963916015625,0.9994569330764776,0.20751953125,0.3603515625,0.45556640625,42.27117647058824,446.0888170650336
0.0702119140625,0.0542255859375,1.0042041015625005,1.0081150750988368,0.19140625,0.42041015625,0.44775390625,41.94176470588236,446.0888170650336
0.0614228515625,0.0630146484375,0.9978564453125,1.001729054217491,0.177734375,0.4990234375,0.43408203125,41.94176470588236,446.0888170650336
0.0487275390625,0.0620380859375,1.0056689453125005,1.0087582092532543,0.09619140625,0.548828125,0.40478515625,41.94176470588236,446.0888170650336
0.0340791015625,0.0517841796875,1.0022509765625005,1.004166324096611,0.09130859375,0.56689453125,0.421875,42.08294117647059,446.0888170650336
0.0287080078125,0.0298115234375,1.0027392578125005,1.0035929931005851,0.12646484375,0.51318359375,0.4736328125,41.98882352941177,446.4221650926043
0.0355439453125,0.0219990234375,0.9993212890625,1.0001951648823937,0.14892578125,0.47265625,0.59228515625,42.41235294117647,446.4221650926043
0.0492158203125,0.0068623046875,1.0017626953125005,1.002994409712448,0.18408203125,0.35400390625,0.68017578125,42.08294117647059,446.4221650926043
0.0438447265625,0.0034443359375,0.9934619140625,0.994434914003987,0.19775390625,0.29345703125,0.7724609375,41.94176470588236,446.4221650926043
0.0233369140625,0.0156513671875,0.9934619140625,0.9938592211905692,0.20458984375,0.3349609375,0.91162109375,41.98882352941177,445.85260025943575
0.0121064453125,0.0219990234375,0.9900439453125,0.990362325969768,0.20654296875,0.337890625,1.0546875,42.224117647058826,445.85260025943575
0.0282197265625,0.0376240234375,0.9949267578125,0.9960377369950302,0.22900390625,0.25927734375,1.15966796875,42.224117647058826,445.85260025943575
0.0565400390625,0.0420185546875,0.9900439453125,0.9925468999524184,0.2099609375,0.06640625,1.1923828125,42.45941176470589,445.85260025943575
0.0687470703125,0.0415302734375,0.9959033203125,0.9991368007924676,0.16650390625,-0.05712890625,1.06591796875,42.31823529411765,445.85260025943575
0.0628876953125,0.0434833984375,1.0012744140625005,1.004189285153748,0.1181640625,-0.140625,0.9296875,42.41235294117647,446.1727700297415
0.0331025390625,0.0517841796875,1.0017626953125005,1.003646290820654,0.07080078125,-0.10107421875,0.88232421875,42.224117647058826,446.1727700297415
0.0218720703125,0.0620380859375,1.0085986328125005,1.0107414672792383,0.02978515625,-0.01123046875,0.91748046875,41.84764705882353,446.1727700297415
0.0301728515625,0.0771748046875,1.0193408203125005,1.0227033095699494,0.0419921875,0.1279296875,0.931640625,42.27117647058824,446.1727700297415
0.0531220703125,0.0801044921875,1.0227587890625005,1.0272654109953745,0.1064453125,0.2626953125,0.876953125,41.89470588235295,446.2289866071583
0.0580048828125,0.0781513671875,1.0144580078125005,1.0191159169781787,0.173828125,0.45556640625,0.72119140625,42.224117647058826,446.2289866071583
0.0409150390625,0.0708271484375,0.9993212890625,1.002663235663306,0.22998046875,0.49853515625,0.56884765625,42.27117647058824,446.2289866071583
0.0223603515625,0.0639912109375,0.9944384765625,0.996746078029501,0.2314453125,0.34814453125,0.53955078125,42.08294117647059,446.2289866071583
0.0262666015625,0.0635029296875,0.9973681640625,0.9997328698817204,0.15673828125,0.17529296875,0.58056640625,42.224117647058826,446.2289866071583
0.0423798828125,0.0674091796875,0.9856494140625,0.9888603639620168,0.11328125,0.1572265625,0.62890625,42.41235294117647,446.2389456723639
0.0614228515625,0.0659443359375,0.9817431640625,0.9858707127812224,0.09814453125,0.203125,0.57275390625,42.41235294117647,446.2389456723639
0.0765595703125,0.0605732421875,0.9797900390625,0.9846415622558472,0.07763671875,0.12744140625,0.53173828125,42.27117647058824,446.2389456723639
0.0721650390625,0.0630146484375,0.9768603515625,0.9815471385702296,0.11572265625,-0.0126953125,0.568359375,42.31823529411765,446.2389456723639
0.0663056640625,0.0664326171875,0.9797900390625,0.984275497185237,0.18701171875,-0.19970703125,0.654296875,42.13,446.2069279093163
0.0599580078125,0.0644794921875,0.9768603515625,0.9808204290635534,0.18798828125,-0.380859375,0.7119140625,42.31823529411765,446.2069279093163
0.0501923828125,0.0547138671875,0.9871142578125,0.9899027429660606,0.18505859375,-0.5498046875,0.74365234375,42.27117647058824,446.2069279093163
0.0453095703125,0.0512958984375,0.9939501953125,0.9963037775298108,0.169921875,-0.6298828125,0.76513671875,42.224117647058826,446.2069279093163
0.0394501953125,0.0556904296875,1.0085986328125005,1.010905012343008,0.173828125,-0.59716796875,0.76904296875,42.224117647058826,446.2069279093163
0.0291962890625,0.0522724609375,1.0100634765625005,1.0118364789594256,0.1552734375,-0.52783203125,0.716796875,42.41235294117647,446.4972319061613
0.0457978515625,0.0527607421875,1.0188525390625005,1.0212451397573552,0.15673828125,-0.43994140625,0.62890625,42.45941176470589,446.4972319061613
0.0511689453125,0.0552021484375,1.0159228515625005,1.0187074057271752,0.0,-0.2939453125,0.56201171875,42.224117647058826,446.4972319061613
0.0677705078125,0.0683857421875,1.0149462890625005,1.0195025361152563,0.15625,-0.13916015625,0.53173828125,42.27117647058824,446.4972319061613
0.0814423828125,0.0844990234375,1.0051806640625005,1.0120084555403666,0.15576171875,-0.017578125,0.42138671875,42.08294117647059,446.249974994815
0.0838837890625,0.0776630859375,0.9919970703125,0.9985620824432504,0.11376953125,-0.0146484375,0.26513671875,42.224117647058826,446.249974994815
0.0804658203125,0.0805927734375,0.9939501953125,1.000453364295742,0.07275390625,-0.11083984375,0.16259765625,42.224117647058826,446.249974994815
0.0765595703125,0.0718037109375,0.9968798828125,1.0023904635754943,0.0546875,-0.2080078125,0.1083984375,42.224117647058826,446.249974994815
0.0736298828125,0.0693623046875,1.0037158203125005,1.0088002462827512,0.05126953125,-0.23095703125,0.11962890625,42.08294117647059,446.249974994815
0.0799775390625,0.0654560546875,1.0066455078125005,1.0119367965682606,0.044921875,-0.22607421875,0.16259765625,41.94176470588236,445.90560322683
0.0995087890625,0.0649677734375,1.0071337890625005,1.0141209394137862,0.02880859375,-0.1953125,0.20703125,42.27117647058824,445.90560322683
0.1019501953125,0.0644794921875,1.0042041015625005,1.0114234152084691,0.07958984375,-0.12841796875,0.20751953125,42.224117647058826,445.90560322683
0.1058564453125,0.0615498046875,0.9959033203125,1.0034029045606403,0.07958984375,-0.1005859375,0.16455078125,42.45941176470589,445.90560322683
0.0975556640625,0.0586201171875,0.9915087890625,0.998019591249559,0.05615234375,-0.1376953125,0.126953125,42.224117647058826,446.1009177179887
0.0721650390625,0.0615498046875,0.9910205078125,0.995549003427208,0.02685546875,-0.1875,0.19384765625,41.98882352941177,446.1009177179887
0.0584931640625,0.0639912109375,0.9993212890625,1.0030749543742117,0.0234375,-0.24365234375,0.2744140625,42.41235294117647,446.1009177179887
0.0565400390625,0.0625263671875,1.0037158203125005,1.0072496068782806,0.072265625,-0.29150390625,0.3623046875,42.08294117647059,446.1009177179887
0.0677705078125,0.0591083984375,1.0120166015625005,1.0160040582266996,0.1396484375,-0.30908203125,0.32861328125,42.224117647058826,446.1009177179887
0.0746064453125,0.0561787109375,1.0051806640625005,1.0095099487622177,0.19384765625,-0.29296875,0.234375,42.27117647058824,445.9817372518368
0.0848603515625,0.0469013671875,1.0081103515625005,1.01276231092929,0.16357421875,-0.27001953125,0.1162109375,43.16529411764706,445.9817372518368
0.0877900390625,0.0493427734375,1.0056689453125005,1.0106986829985762,0.12939453125,-0.2822265625,0.03369140625,42.41235294117647,445.9817372518368
0.0848603515625,0.0469013671875,1.0115283203125005,1.0161646324811724,0.08935546875,-0.328125,-0.00390625,42.224117647058826,445.9817372518368
0.0814423828125,0.0473896484375,1.0095751953125005,1.013962876779757,0.05419921875,-0.36083984375,0.00244140625,42.27117647058824,445.9927666691535
0.0702119140625,0.0552021484375,1.0046923828125005,1.008654437431321,0.0390625,-0.37744140625,0.0634765625,42.224117647058826,445.9927666691535
0.0794892578125,0.0595966796875,1.0061572265625005,1.0110502810945157,0.072265625,-0.3291015625,0.0390625,42.13,445.9927666691535
0.0897431640625,0.0552021484375,1.0017626953125005,1.007288245939478,0.078125,-0.25830078125,0.0107421875,42.224117647058826,445.9927666691535
0.0980439453125,0.0556904296875,1.0100634765625005,1.0163376731464515,0.060546875,-0.15380859375,-0.02783203125,42.224117647058826,445.9927666691535
0.1073212890625,0.0581318359375,0.9978564453125,1.0052933178367394,0.08203125,-0.009765625,-0.05126953125,41.98882352941177,446.18701059273286
0.1112275390625,0.0605732421875,0.9910205078125,0.9990807424927932,0.09033203125,0.17236328125,-0.08447265625,42.31823529411765,446.18701059273286
0.1190400390625,0.0688740234375,0.9846728515625,0.9942307511884232,0.1083984375,0.15185546875,-0.09521484375,42.45941176470589,446.18701059273286
0.1185517578125,0.0610615234375,0.9817431640625,0.9907586331233208,0.126953125,0.0,-0.15771484375,42.224117647058826,446.18701059273286
0.1141572265625,0.0635029296875,0.9890673828125,0.997656645444166,0.11279296875,-0.18896484375,-0.15673828125,41.98882352941177,446.1848692671098
0.1024384765625,0.0625263671875,0.9905322265625,0.9977761672504388,0.095703125,-0.3310546875,-0.08544921875,42.45941176470589,446.1848692671098
0.0843720703125,0.0591083984375,0.9880908203125,0.9934464848196368,0.1259765625,-0.29541015625,-0.0087890625,42.31823529411765,446.1848692671098
0.0877900390625,0.0581318359375,0.9983447265625,1.0038817631390724,0.17529296875,-0.216796875,0.0205078125,42.41235294117647,446.1848692671098
0.0858369140625,0.0537373046875,1.0061572265625005,1.0112408408953788,0.14599609375,-0.09912109375,-0.0078125,42.08294117647059,446.1848692671098
0.0868134765625,0.0532490234375,1.0027392578125005,1.0078978407399626,0.14990234375,0.01953125,-0.05224609375,42.13,446.3271806414653
0.0843720703125,0.0537373046875,1.0042041015625005,1.0091740294710536,0.1767578125,0.115234375,-0.037109375,42.08294117647059,446.3271806414653
0.0814423828125,0.0542255859375,1.0022509765625005,1.0070155390603108,0.14501953125,0.15771484375,-0.0009765625,42.224117647058826,446.3271806414653
0.0819306640625,0.0561787109375,0.9983447265625,1.0032750741105223,0.11328125,0.2333984375,0.044921875,42.31823529411765,446.3271806414653
0.0960908203125,0.0659443359375,0.9959033203125,1.0026991196765005,0.0703125,0.3818359375,0.0654296875,42.13,446.2830630456362
0.1283173828125,0.0644794921875,0.9929736328125,1.0033043362337577,0.1103515625,0.37744140625,0.056640625,42.08294117647059,446.2830630456362
0.1371064453125,0.0552021484375,0.9856494140625,0.9966695650917085,0.13671875,0.3583984375,-0.0224609375,42.41235294117647,446.2830630456362
0.1092744140625,0.0493427734375,0.9749072265625,0.98225236434584,0.12744140625,0.3251953125,-0.08251953125,42.41235294117647,446.2830630456362
0.0946259765625,0.0410419921875,0.9724658203125,0.9779203915652792,0.0400390625,0.08447265625,-0.09619140625,42.27117647058824,446.2830630456362
0.0951142578125,0.0366474609375,0.9890673828125,0.9943058111949044,0.01123046875,-0.154296875,-0.064453125,42.31823529411765,446.1969690838303
0.0985322265625,0.0361591796875,0.9910205078125,0.9965629598033344,0.01806640625,-0.17333984375,0.0390625,41.98882352941177,446.1969690838303
0.1161103515625,0.0434833984375,0.9919970703125,0.999715263056549,0.025390625,-0.0380859375,0.1396484375,42.27117647058824,446.1969690838303
0.1292939453125,0.0429951171875,0.9944384765625,1.0037297385573394,0.0673828125,0.0458984375,0.26904296875,42.27117647058824,446.1969690838303
0.1229462890625,0.0542255859375,0.9871142578125,0.9962182301791248,0.10595703125,0.1416015625,0.3349609375,42.27117647058824,446.2079984731276
0.1151337890625,0.0561787109375,0.9876025390625,0.9958768056889288,0.0869140625,0.23291015625,0.36181640625,42.224117647058826,446.2079984731276
0.0999970703125,0.0605732421875,0.9949267578125,1.001772322013082,0.0810546875,0.2587890625,0.32470703125,42.41235294117647,446.2079984731276
0.0916962890625,0.0698505859375,0.9988330078125,1.005462426587593,0.10400390625,0.25927734375,0.28271484375,42.31823529411765,446.2079984731276
0.0907197265625,0.0698505859375,0.9998095703125,1.0063440515210755,0.14111328125,0.23583984375,0.23583984375,42.31823529411765,446.2079984731276
0.0936494140625,0.0630146484375,1.0017626953125005,1.0081019573394927,0.1728515625,0.2099609375,0.18408203125,42.31823529411765,446.3040515866472
0.0941376953125,0.0698505859375,1.0105517578125005,1.0173278061925248,0.17333984375,0.17138671875,0.1494140625,42.13,446.3040515866472
0.0956025390625,0.0713154296875,1.0081103515625005,1.015141476304745,0.150390625,0.16650390625,0.1005859375,42.27117647058824,446.3040515866472
0.1097626953125,0.0703388671875,1.0164111328125005,1.0247375256253064,0.09716796875,0.3125,0.029296875,42.08294117647059,446.3040515866472
0.1190400390625,0.0688740234375,1.0193408203125005,1.0285766232808482,0.056640625,0.47998046875,0.02197265625,42.224117647058826,446.3040515866472
0.1209931640625,0.0732685546875,1.0222705078125005,1.0320099892922925,0.1015625,0.65869140625,0.03955078125,42.41235294117647,446.3040515866472
0.1214814453125,0.0654560546875,1.0188525390625005,1.028155014092997,0.14990234375,0.7685546875,0.12158203125,42.13,446.3040515866472
0.1078095703125,0.0586201171875,1.0042041015625005,1.0116744037411396,0.14013671875,0.85205078125,0.193359375,41.98882352941177,446.3040515866472
0.1048798828125,0.0522724609375,1.0056689453125005,1.0124733218989934,0.16455078125,0.90966796875,0.1826171875,42.08294117647059,446.3040515866472
0.0936494140625,0.0591083984375,1.0032275390625005,1.009321311898989,0.1865234375,0.970703125,0.1318359375,42.31823529411765,446.4122053051701
0.0873017578125,0.0586201171875,1.0002978515625005,1.0058099755405008,0.23486328125,0.98974609375,0.09033203125,42.224117647058826,446.4122053051701
0.0775361328125,0.0639912109375,1.0012744140625005,1.0063086898288065,0.2490234375,1.06982421875,0.10107421875,42.08294117647059,446.4122053051701
0.0775361328125,0.0639912109375,1.0115283203125005,1.0165118148664056,0.251953125,1.1826171875,0.08056640625,42.13,446.4122053051701
0.0589814453125,0.0605732421875,1.0085986328125005,1.012135924997973,0.15283203125,1.333984375,0.0322265625,42.224117647058826,446.34709901770094
0.0584931640625,0.0542255859375,1.0100634765625005,1.0132078222644316,0.02197265625,1.4306640625,-0.03662109375,42.08294117647059,446.34709901770094
0.0653291015625,0.0532490234375,0.9973681640625,1.0009228764961928,-0.07568359375,1.361328125,-0.13720703125,42.224117647058826,446.34709901770094
0.0663056640625,0.0508076171875,0.9900439453125,0.9935617085521068,-0.17724609375,1.07373046875,-0.10888671875,42.224117647058826,446.34709901770094
0.0619111328125,0.0556904296875,0.9793017578125,0.9828358688914228,-0.2080078125,0.68505859375,-0.04638671875,42.224117647058826,446.34709901770094
0.0453095703125,0.0610615234375,0.9744189453125,0.9773810658030658,-0.21435546875,0.38623046875,0.064453125,42.27117647058824,446.3140110839652
0.0438447265625,0.0625263671875,0.9768603515625,0.9798408304902474,-0.169921875,0.1923828125,0.1083984375,42.31823529411765,446.3140110839652
0.0501923828125,0.0615498046875,0.9734423828125,0.9766768792211392,-0.12451171875,0.12939453125,0.13818359375,42.224117647058826,446.3140110839652
0.0540986328125,0.0635029296875,0.9876025390625,0.9911195988949942,-0.03173828125,0.21630859375,0.15673828125,42.224117647058826,446.3140110839652
0.0775361328125,0.0639912109375,0.9856494140625,0.9907630869236675,0.04931640625,0.27734375,0.142578125,41.84764705882353,446.2510453606406
0.0902314453125,0.0566669921875,0.9963916015625,1.002072395284415,0.109375,0.44873046875,0.1376953125,42.224117647058826,446.2510453606406
0.1024384765625,0.0561787109375,1.0022509765625005,1.009037516182392,0.14306640625,0.732421875,0.05224609375,42.224117647058826,446.2510453606406
0.0970673828125,0.0571552734375,1.0076220703125005,1.0138989292176184,0.15234375,1.07763671875,-0.01025390625,42.13,446.2510453606406
0.0887666015625,0.0595966796875,1.0007861328125005,1.0064810765297725,0.1533203125,1.4375,-0.001953125,42.41235294117647,446.2510453606406
0.0858369140625,0.0625263671875,1.0032275390625005,1.0088325022236544,0.15283203125,1.6572265625,0.08056640625,42.41235294117647,446.2389456723639
0.0663056640625,0.0727802734375,0.9968798828125,1.0017299586438804,0.15869140625,1.619140625,0.18310546875,42.506470588235295,446.2389456723639
0.0619111328125,0.0859638671875,0.9949267578125,1.000550862394936,0.21435546875,1.4013671875,0.23828125,42.08294117647059,446.2389456723639
0.0599580078125,0.0835224609375,1.0022509765625005,1.0075107861469204,0.28466796875,1.08642578125,0.12548828125,42.08294117647059,446.2389456723639
0.0663056640625,0.0718037109375,1.0139697265625005,1.0186691417611495,0.36767578125,0.7802734375,-0.072265625,42.506470588235295,446.0148255455259
0.0614228515625,0.0644794921875,1.0164111328125005,1.0203048380322506,0.44287109375,0.6103515625,-0.2431640625,42.41235294117647,446.0148255455259
0.0570283203125,0.0664326171875,1.0144580078125005,1.0182291350962969,0.46044921875,0.70361328125,-0.31494140625,42.27117647058824,446.0148255455259
0.0565400390625,0.0674091796875,1.0168994140625005,1.0206983843643465,0.45849609375,0.95166015625,-0.251953125,42.27117647058824,446.0148255455259
0.0501923828125,0.0771748046875,1.0139697265625005,1.0181403793957795,0.42578125,1.35302734375,-0.181640625,42.224117647058826,446.0148255455259
0.0433564453125,0.0742451171875,1.0125048828125005,1.016148737388123,0.404296875,1.7548828125,-0.169921875,42.08294117647059,445.8415708392118
0.0331025390625,0.0688740234375,0.9968798828125,0.9998044358538912,0.35009765625,2.13720703125,-0.1318359375,41.98882352941177,445.8415708392118
0.0350556640625,0.0644794921875,0.9807666015625,0.9835088363792552,0.2978515625,2.28662109375,-0.05615234375,42.224117647058826,445.8415708392118
0.0370087890625,0.0552021484375,0.9602587890625,0.9625559046786673,0.24365234375,2.1005859375,0.099609375,42.41235294117647,445.8415708392118
0.0492158203125,0.0469013671875,0.9426806640625,0.9451289698292,0.11962890625,1.50341796875,0.32080078125,42.27117647058824,445.4872577453701
0.0540986328125,0.0420185546875,0.9387744140625,0.9412702170517234,0.03857421875,0.77880859375,0.55224609375,42.224117647058826,445.4872577453701
0.0804658203125,0.0449482421875,0.9490283203125,0.9534934952423508,0.04931640625,0.3583984375,0.587890625,42.31823529411765,445.4872577453701
0.0985322265625,0.0376240234375,0.9714892578125,0.9771978023184824,0.1611328125,0.17138671875,0.44873046875,41.98882352941177,445.4872577453701
0.0873017578125,0.0288349609375,0.9924853515625,0.9967347816523504,0.2900390625,0.2626953125,0.27099609375,42.41235294117647,445.4872577453701
0.0677705078125,0.0302998046875,1.0061572265625005,1.0088921074412305,0.37451171875,0.42529296875,0.11962890625,42.08294117647059,445.56231622840295
0.0609345703125,0.0464130859375,0.9939501953125,0.996897280148345,0.3505859375,0.48779296875,0.076171875,42.224117647058826,445.56231622840295
0.0414033203125,0.0654560546875,0.9934619140625,0.9964764446392492,0.34228515625,0.47412109375,0.09033203125,42.224117647058826,445.56231622840295
0.0321259765625,0.0703388671875,0.9700244140625,0.9731017410757272,0.33642578125,0.49609375,0.123046875,42.27117647058824,445.56231622840295
0.0335908203125,0.0820576171875,0.9612353515625,0.9653161123907754,0.27734375,0.18701171875,0.12890625,42.31823529411765,445.6484049121063
0.0282197265625,0.0888935546875,0.9563525390625,0.9608894816801424,0.20556640625,0.00244140625,0.201171875,42.224117647058826,445.6484049121063
0.0296845703125,0.0874287109375,0.9543994140625,0.958855147962232,0.13671875,-0.1494140625,0.23876953125,42.31823529411765,445.6484049121063
0.0257783203125,0.0879169921875,0.9675830078125,0.9719108993734537,0.0947265625,-0.388671875,0.2421875,42.31823529411765,445.6484049121063
0.0321259765625,0.0937763671875,0.9959033203125,1.0008244145815195,0.03515625,-0.67578125,0.17236328125,42.27117647058824,445.6484049121063
0.0472626953125,0.0971943359375,1.0134814453125005,1.019227718078373,0.01318359375,-0.95068359375,0.0283203125,41.98882352941177,446.23005729346113
0.0545869140625,0.0962177734375,1.0335009765625005,1.039404569774339,0.0380859375,-1.0830078125,-0.07861328125,42.41235294117647,446.23005729346113
0.0516572265625,0.0874287109375,1.0515673828125005,1.0564592794554146,0.0888671875,-0.96923828125,-0.11474609375,42.27117647058824,446.23005729346113
0.0497041015625,0.0757099609375,1.0554736328125005,1.059352200856594,0.158203125,-0.5927734375,-0.13720703125,42.45941176470589,446.23005729346113
0.0448212890625,0.0600849609375,1.0515673828125005,1.0542357948197436,0.19970703125,-0.10595703125,-0.09716796875,42.41235294117647,446.7146119590929
0.0335908203125,0.0586201171875,1.0374072265625005,1.0396049322085972,0.22412109375,0.32421875,0.04296875,42.31823529411765,446.7146119590929
0.0355439453125,0.0620380859375,1.0261767578125005,1.0286645879147107,0.22021484375,0.53515625,0.2001953125,42.224117647058826,446.7146119590929
0.0311494140625,0.0703388671875,1.0139697265625005,1.0168836947354842,0.23583984375,0.58056640625,0.32470703125,42.224117647058826,446.7146119590929
0.0277314453125,0.0805927734375,1.0017626953125005,1.005381880635032,0.22900390625,0.44873046875,0.39794921875,42.224117647058826,446.7146119590929
0.0306611328125,0.0981708984375,0.9959033203125,1.0011998071188557,0.24267578125,0.28271484375,0.3984375,42.224117647058826,446.4662824318509
0.0326142578125,0.0957294921875,0.9978564453125,1.002968250214749,0.26220703125,0.17919921875,0.33203125,42.27117647058824,446.4662824318509
0.0296845703125,0.0937763671875,0.9988330078125,1.0036645646097546,0.2548828125,0.1220703125,0.1259765625,42.224117647058826,446.4662824318509
0.0326142578125,0.0918232421875,0.9988330078125,1.0035748976106618,0.21240234375,0.146484375,0.1416015625,42.31823529411765,446.4662824318509
0.0384736328125,0.0869404296875,1.0032275390625005,1.0077223595164686,0.1748046875,0.177734375,0.0576171875,42.27117647058824,446.69148478714567
0.0374970703125,0.0830341796875,1.0095751953125005,1.0136778483663682,0.16552734375,0.22216796875,0.06787109375,42.45941176470589,446.69148478714567
0.0316376953125,0.0859638671875,1.0071337890625005,1.0112908579127498,0.173828125,0.2958984375,0.10009765625,42.224117647058826,446.69148478714567
0.0311494140625,0.0810810546875,1.0051806640625005,1.008926454619366,0.21923828125,0.37255859375,0.17041015625,42.27117647058824,446.69148478714567
0.0335908203125,0.0820576171875,0.9973681640625,1.0013016780337278,0.22509765625,0.43359375,0.17138671875,42.27117647058824,446.69148478714567
0.0355439453125,0.0815693359375,0.9968798828125,1.0008428594789127,0.24609375,0.48486328125,0.169921875,42.224117647058826,446.3801870766289
0.0389619140625,0.0825458984375,0.9846728515625,0.9888945751193566,0.2646484375,0.50341796875,0.19677734375,41.98882352941177,446.3801870766289
0.0521455078125,0.0761982421875,0.9836962890625,0.9880200985874842,0.37353515625,0.47265625,0.154296875,42.224117647058826,446.3801870766289
0.0580048828125,0.0791279296875,0.9871142578125,0.9919780005944914,0.12548828125,0.43017578125,0.12744140625,42.31823529411765,446.3801870766289
0.0555634765625,0.0786396484375,0.9880908203125,0.9927713550560948,0.23828125,0.36376953125,0.07177734375,42.224117647058826,446.177052436024
0.0648408203125,0.0801044921875,0.9968798828125,1.0021928768474055,0.20849609375,0.3154296875,0.03369140625,42.224117647058826,446.177052436024
0.0545869140625,0.0830341796875,0.9973681640625,1.002306171221471,0.1962890625,0.30419921875,-0.00537109375,42.224117647058826,446.177052436024
0.0487275390625,0.0942646484375,1.0022509765625005,1.007852775472995,0.2001953125,0.3525390625,-0.02392578125,41.98882352941177,446.177052436024
0.0472626953125,0.0844990234375,0.9998095703125,1.0044864480014448,0.173828125,0.3828125,-0.02685546875,42.27117647058824,446.177052436024
0.0423798828125,0.0820576171875,1.0066455078125005,1.0108732291463545,0.18359375,0.40283203125,-0.0234375,42.224117647058826,446.3801870766289
0.0374970703125,0.0722919921875,0.9939501953125,0.9972808797817267,0.20361328125,0.37646484375,-0.0048828125,42.31823529411765,446.3801870766289
0.0409150390625,0.0713154296875,0.9905322265625,0.99393864136166,0.1669921875,0.28271484375,0.12451171875,42.27117647058824,446.3801870766289
0.0497041015625,0.0708271484375,0.9807666015625,0.9845761064581948,0.10205078125,0.16455078125,-0.0146484375,42.41235294117647,446.3801870766289
0.0453095703125,0.0849873046875,0.9871142578125,0.9918015714328507,0.04345703125,0.15625,0.02001953125,42.27117647058824,445.9717797226384
0.0467744140625,0.0869404296875,0.9910205078125,0.9959257658229768,0.09521484375,0.17724609375,0.0634765625,41.98882352941177,445.9717797226384
0.0482392578125,0.0859638671875,0.9905322265625,0.9954249867845366,0.12646484375,0.22998046875,0.14501953125,42.45941176470589,445.9717797226384
0.0448212890625,0.0844990234375,0.9866259765625,0.9912516585322934,0.13818359375,0.2646484375,0.14306640625,42.224117647058826,445.9717797226384
0.0414033203125,0.0786396484375,0.9778369140625,0.9818673330662072,0.1337890625,0.255859375,0.16552734375,43.02411764705882,445.9717797226384
0.0394501953125,0.0771748046875,0.9856494140625,0.9894528972267946,0.091796875,0.28515625,0.1796875,42.27117647058824,446.1009177179887
0.0516572265625,0.0747333984375,0.9861376953125,0.9903136392145656,0.0537109375,0.3017578125,0.19482421875,42.13,446.1009177179887
0.0604462890625,0.0737568359375,0.9832080078125,0.9878217507908822,0.04736328125,0.24365234375,0.18115234375,42.224117647058826,446.1009177179887
0.0721650390625,0.0708271484375,0.9841845703125,0.9893652238985764,0.025390625,0.1708984375,0.134765625,42.41235294117647,446.1009177179887
0.0623994140625,0.0742451171875,0.9856494140625,0.9904094061262134,0.03173828125,0.19189453125,0.09521484375,42.31823529411765,446.1329346392529
0.0589814453125,0.0757099609375,0.9890673828125,0.9937127838665848,0.00732421875,0.1572265625,0.06396484375,42.31823529411765,446.1329346392529
0.0477509765625,0.0781513671875,0.9988330078125,1.003023015414758,-0.02978515625,0.1806640625,0.08642578125,42.224117647058826,446.1329346392529
0.0477509765625,0.0869404296875,0.9993212890625,1.0042319616754172,-0.05322265625,0.236328125,0.1064453125,42.08294117647059,446.1329346392529
0.0589814453125,0.0918232421875,1.0129931640625005,1.0188549794422812,0.01220703125,0.36328125,0.1552734375,41.98882352941177,446.1329346392529
0.0658173828125,0.0937763671875,1.0066455078125005,1.0131441720319267,0.0654296875,0.498046875,0.15673828125,42.31823529411765,446.15499350981577
0.0492158203125,0.0874287109375,1.0002978515625005,1.0053167502363516,0.12939453125,0.5712890625,0.04736328125,42.41235294117647,446.15499350981577
0.0267548828125,0.0859638671875,0.9993212890625,1.0033686505914352,0.07421875,0.43408203125,0.04052734375,42.224117647058826,446.15499350981577
0.0165009765625,0.0937763671875,0.9988330078125,1.0033611846021186,0.05859375,0.20703125,0.064453125,43.02411764705882,446.15499350981577
0.0291962890625,0.1015888671875,1.0032275390625005,1.008780559073608,0.0322265625,0.24951171875,0.0703125,43.07117647058824,446.23005729346113
0.0404267578125,0.1079365234375,0.9973681640625,1.0040059115983364,0.01611328125,0.22802734375,0.0478515625,41.98882352941177,446.23005729346113
0.0555634765625,0.0996357421875,0.9978564453125,1.0043565435146344,-0.0107421875,0.32080078125,0.001953125,42.27117647058824,446.23005729346113
0.0575166015625,0.0957294921875,1.0012744140625005,1.00748337325535,-0.01171875,0.25,0.02783203125,42.27117647058824,446.23005729346113
0.0555634765625,0.0830341796875,0.9988330078125,1.003817389976809,0.01025390625,0.41162109375,0.0830078125,42.27117647058824,446.23005729346113
0.0594697265625,0.0786396484375,0.9851611328125,0.9900824714579086,0.0693359375,0.46337890625,0.1318359375,42.31823529411765,446.30512181573056
0.0614228515625,0.0664326171875,0.9807666015625,0.9849310565013704,0.1142578125,0.375,0.173828125,42.41235294117647,446.30512181573056
0.0570283203125,0.0517841796875,0.9773486328125,0.9803796104795508,0.12451171875,0.23974609375,0.23779296875,42.27117647058824,446.30512181573056
0.0423798828125,0.0478779296875,0.9793017578125,0.981386918331916,0.09716796875,0.07373046875,0.244140625,42.41235294117647,446.30512181573056
0.0360322265625,0.0537373046875,0.9822314453125,0.9843600110868032,0.046875,0.01025390625,0.26904296875,42.506470588235295,446.4773118014421
0.0238251953125,0.0600849609375,0.9861376953125,0.9882537106324412,-0.0087890625,0.01513671875,0.2568359375,42.27117647058824,446.4773118014421
0.0184541015625,0.0620380859375,0.9973681640625,0.9994661238164452,-0.0419921875,0.072265625,0.37353515625,42.224117647058826,446.4773118014421
0.0233369140625,0.0693623046875,1.0042041015625005,1.0068672298096064,-0.0673828125,0.1259765625,0.24951171875,42.31823529411765,446.4773118014421
0.0321259765625,0.0766865234375,1.0115283203125005,1.0149396258109409,-0.07568359375,0.17431640625,0.21533203125,42.224117647058826,446.4773118014421
0.0477509765625,0.0957294921875,1.0076220703125005,1.0132850181553057,-0.09423828125,0.232421875,0.1689453125,42.45941176470589,446.0689009974206
0.0780244140625,0.1225849609375,1.0095751953125005,1.0199789001877038,-0.1015625,0.3193359375,0.04833984375,42.27117647058824,446.0689009974206
0.0941376953125,0.1303974609375,1.0168994140625005,1.029538645131086,-0.1328125,0.32666015625,-0.1279296875,41.84764705882353,446.0689009974206
0.0921845703125,0.1279560546875,1.0085986328125005,1.0208535394688778,-0.126953125,0.35986328125,-0.30322265625,42.224117647058826,446.0689009974206
0.0746064453125,0.1142841796875,1.0120166015625005,1.0211780438528455,-0.1572265625,0.41064453125,-0.39013671875,42.224117647058826,446.13186361820726
0.0584931640625,0.0991474609375,1.0007861328125005,1.007385007274873,-0.13232421875,0.4375,-0.3349609375,42.45941176470589,446.13186361820726
0.0457978515625,0.0893818359375,0.9998095703125,1.004841147988957,-0.07568359375,0.45751953125,-0.21435546875,42.224117647058826,446.13186361820726
0.0399384765625,0.0810810546875,0.9934619140625,0.9975649322385473,-0.01123046875,0.419921875,-0.09033203125,43.02411764705882,446.13186361820726
0.0379853515625,0.0747333984375,0.9807666015625,0.9843429760585488,0.03955078125,0.4462890625,-0.0146484375,42.224117647058826,446.13186361820726
0.0384736328125,0.0781513671875,0.9744189453125,0.9783047263501244,0.03759765625,0.3427734375,0.0234375,42.08294117647059,446.2620747582464
0.0311494140625,0.0849873046875,0.9744189453125,0.978614024495055,0.0224609375,0.29638671875,0.02001953125,42.224117647058826,446.2620747582464
0.0326142578125,0.1025654296875,0.9832080078125,0.989081060280838,0.02587890625,0.19775390625,-0.02490234375,42.31823529411765,446.2620747582464
0.0423798828125,0.1133076171875,0.9890673828125,0.9964381357231762,0.01171875,0.10546875,-0.08154296875,42.224117647058826,446.2620747582464
0.0414033203125,0.1069599609375,0.9998095703125,1.0063666553821808,-0.01171875,-0.02734375,-0.162109375,42.13,446.2400159769462
0.0433564453125,0.0991474609375,1.0017626953125005,1.0075904416379973,-0.00146484375,-0.1572265625,-0.2578125,42.31823529411765,446.2400159769462
0.0335908203125,0.0942646484375,1.0115283203125005,1.0164662856920244,0.0029296875,-0.19287109375,-0.33056640625,42.13,446.2400159769462
0.0301728515625,0.0869404296875,1.0095751953125005,1.01376087627997,-0.0224609375,-0.18701171875,-0.40478515625,42.224117647058826,446.2400159769462
0.0267548828125,0.0820576171875,1.0095751953125005,1.0132577911287304,-0.07666015625,-0.080078125,-0.4873046875,42.27117647058824,446.2400159769462
0.0355439453125,0.0791279296875,0.9983447265625,1.0021061791847017,-0.140625,0.10791015625,-0.55859375,42.27117647058824,446.1130189503056
0.0526337890625,0.0761982421875,1.0046923828125005,1.0089515706638257,-0.1337890625,0.28857421875,-0.5185546875,42.224117647058826,446.1130189503056
0.0667939453125,0.0708271484375,1.0017626953125005,1.0064821974610192,-0.03662109375,0.43115234375,-0.42724609375,42.08294117647059,446.1130189503056
0.0785126953125,0.0591083984375,0.9890673828125,0.9939377917327866,0.1064453125,0.50927734375,-0.2705078125,42.41235294117647,446.1130189503056
0.0755830078125,0.0556904296875,0.9807666015625,0.9852498879823426,0.169921875,0.541015625,-0.1591796875,42.27117647058824,446.122976627585
0.0633759765625,0.0420185546875,0.9724658203125,0.9754341828228804,0.14111328125,0.46533203125,-0.11767578125,42.41235294117647,446.122976627585
0.0555634765625,0.0298115234375,0.9719775390625,0.9740207201591606,0.12744140625,0.29443359375,-0.083984375,42.224117647058826,446.122976627585
0.0321259765625,0.0293232421875,0.9753955078125,0.976364853711606,0.07470703125,0.20263671875,-0.00537109375,42.224117647058826,446.122976627585
0.0243134765625,0.0346943359375,0.9856494140625,0.98655948098959,0.02783203125,0.11669921875,0.08349609375,42.27117647058824,446.122976627585
0.0433564453125,0.0449482421875,0.9978564453125,0.9998087873576528,0.02490234375,0.07568359375,0.09130859375,42.224117647058826,445.9177046189748
0.0545869140625,0.0522724609375,0.9919970703125,0.994872016325674,0.0283203125,-0.05615234375,0.0703125,42.08294117647059,445.9177046189748
0.0677705078125,0.0688740234375,1.0012744140625005,1.0059259043735955,0.0029296875,-0.140625,0.0068359375,42.31823529411765,445.9177046189748
0.0697236328125,0.0766865234375,1.0007861328125005,1.006138703896884,-0.01806640625,-0.14892578125,-0.08251953125,42.41235294117647,445.9177046189748
0.0775361328125,0.0888935546875,1.0090869140625005,1.0159578318457303,-0.01953125,-0.11572265625,-0.00048828125,42.31823529411765,445.9077475691912
0.0794892578125,0.0898701171875,1.0056689453125005,1.0128006751759369,-0.02197265625,-0.05126953125,-0.2109375,42.224117647058826,445.9077475691912
0.0838837890625,0.0859638671875,1.0164111328125005,1.0234832032986678,-0.00048828125,0.095703125,-0.2822265625,42.45941176470589,445.9077475691912
0.0848603515625,0.0732685546875,1.0056689453125005,1.0118990008589113,0.00732421875,0.21240234375,-0.3046875,42.27117647058824,445.9077475691912
0.0721650390625,0.0595966796875,1.0012744140625005,1.0056391049222728,-0.04052734375,0.2568359375,-0.23974609375,42.27117647058824,445.9077475691912
0.0536103515625,0.0605732421875,0.9924853515625,0.9957762602763232,-0.1142578125,0.16064453125,-0.111328125,42.08294117647059,445.7995981867205
0.0545869140625,0.0708271484375,1.0085986328125005,1.0125548964149544,-0.16357421875,0.03759765625,0.05810546875,42.31823529411765,445.7995981867205
0.0584931640625,0.0747333984375,1.0139697265625005,1.018401265449573,-0.0458984375,-0.02490234375,0.22314453125,42.506470588235295,445.7995981867205
0.0628876953125,0.0644794921875,1.0100634765625005,1.0140713455275223,0.07275390625,0.1484375,0.21875,42.31823529411765,445.7995981867205
0.0580048828125,0.0576435546875,1.0071337890625005,1.0104483237150188,0.107421875,0.26953125,0.13623046875,42.31823529411765,446.5765767536748
0.0428681640625,0.0517841796875,0.9968798828125,0.999144024409024,0.09423828125,0.2216796875,0.02734375,42.27117647058824,446.5765767536748
0.0296845703125,0.0542255859375,1.0081103515625005,1.010003994453671,0.09765625,0.12890625,-0.12255859375,42.08294117647059,446.5765767536748
0.0194306640625,0.0542255859375,1.0007861328125005,1.0024424414927644,0.10302734375,0.16162109375,0.12353515625,42.31823529411765,446.5765767536748
0.0238251953125,0.0639912109375,0.9934619140625,0.9958057489800172,0.0771484375,0.3310546875,0.255859375,42.224117647058826,446.5765767536748
0.0379853515625,0.0771748046875,0.9924853515625,0.996205807289849,0.07666015625,0.3681640625,0.3681640625,42.41235294117647,446.7907489360183
0.0409150390625,0.0869404296875,0.9978564453125,1.0024720266358715,0.08544921875,0.35595703125,0.380859375,42.224117647058826,446.7907489360183
0.0433564453125,0.0932880859375,0.9988330078125,1.004116440371227,0.06005859375,0.3115234375,0.322265625,42.13,446.7907489360183
0.0399384765625,0.0967060546875,1.0002978515625005,1.0057549078994887,0.04638671875,0.373046875,0.26123046875,42.224117647058826,446.7907489360183
0.0428681640625,0.0874287109375,0.9978564453125,1.0025961023452967,0.03515625,0.19287109375,0.17578125,41.98882352941177,447.0380159634934
0.0418916015625,0.0722919921875,0.9876025390625,0.991130573425422,0.0205078125,0.15576171875,0.13330078125,42.41235294117647,447.0380159634934
0.0321259765625,0.0517841796875,0.9856494140625,0.9875314916891264,-0.01318359375,0.123046875,0.10498046875,42.224117647058826,447.0380159634934
0.0360322265625,0.0410419921875,0.9939501953125,0.9954495252073444,-0.03173828125,0.0107421875,0.087890625,42.31823529411765,447.0380159634934
0.0350556640625,0.0434833984375,0.9993212890625,1.000880984081561,-0.03759765625,-0.10205078125,0.1044921875,42.224117647058826,447.0380159634934
0.0428681640625,0.0498310546875,0.9939501953125,0.9961213802861152,-0.0458984375,-0.150390625,0.14404296875,42.41235294117647,446.2830630456362
0.0511689453125,0.0649677734375,1.0012744140625005,1.0046837934425057,-0.0693359375,-0.11181640625,0.10498046875,42.31823529411765,446.2830630456362
0.0575166015625,0.0698505859375,1.0110400390625005,1.0150808954948436,-0.08251953125,-0.064453125,0.0791015625,42.83588235294118,446.2830630456362
0.0746064453125,0.0742451171875,1.0110400390625005,1.0165040185340413,-0.08984375,-0.037109375,0.1240234375,42.41235294117647,446.2830630456362
0.0843720703125,0.0722919921875,1.0120166015625005,1.0180974315955067,-0.02001953125,0.048828125,0.1484375,42.45941176470589,446.50044058490056
0.0760712890625,0.0649677734375,0.9944384765625,0.999457621049038,0.00439453125,0.12060546875,0.14990234375,42.08294117647059,446.50044058490056
0.0633759765625,0.0576435546875,0.9866259765625,0.9903383822866648,-0.02734375,0.0341796875,0.1953125,42.224117647058826,446.50044058490056
0.0467744140625,0.0547138671875,0.9851611328125,0.9877873813113376,-0.07177734375,-0.1376953125,0.25634765625,42.31823529411765,446.50044058490056
0.0326142578125,0.0498310546875,0.9876025390625,0.9893965832701394,-0.0771484375,-0.2021484375,0.33740234375,42.31823529411765,446.50044058490056
0.0262666015625,0.0512958984375,0.9978564453125,0.9995192289325164,-0.0712890625,-0.15283203125,0.39990234375,42.27117647058824,446.0578715439728
0.0296845703125,0.0576435546875,1.0007861328125005,1.0028842588960345,-0.025390625,-0.00244140625,0.50537109375,42.27117647058824,446.0578715439728
0.0433564453125,0.0644794921875,0.9978564453125,1.0008770512478504,-0.00927734375,0.10791015625,0.5048828125,42.41235294117647,446.0578715439728
0.0457978515625,0.0610615234375,0.9963916015625,0.9993108507949532,-0.0166015625,0.0869140625,0.4697265625,42.27117647058824,446.0578715439728
0.0443330078125,0.0600849609375,0.9983447265625,1.0011332634408454,-0.05859375,0.0849609375,0.41259765625,42.31823529411765,446.4022458521294
0.0550751953125,0.0610615234375,1.0071337890625005,1.010485158651332,-0.10009765625,0.0234375,0.42626953125,42.31823529411765,446.4022458521294
0.0643525390625,0.0791279296875,1.0027392578125005,1.0079129415275827,-0.119140625,0.13427734375,0.421875,42.41235294117647,446.4022458521294
0.0750947265625,0.0937763671875,1.0120166015625005,1.0191225769447432,-0.119140625,0.29296875,0.36865234375,42.224117647058826,446.4022458521294
0.0848603515625,0.0967060546875,1.0081103515625005,1.016287272973543,-0.1123046875,0.4521484375,0.26416015625,42.45941176470589,446.4022458521294
0.0785126953125,0.0971943359375,1.0110400390625005,1.0187310453947436,-0.14013671875,0.61279296875,0.18701171875,42.27117647058824,446.3360696925493
0.0697236328125,0.0991474609375,1.0022509765625005,1.0095536756425638,-0.10791015625,0.703125,0.16064453125,42.224117647058826,446.3360696925493
0.0589814453125,0.0835224609375,0.9959033203125,1.0011384698340533,-0.0771484375,0.70751953125,0.15087890625,42.08294117647059,446.3360696925493
0.0467744140625,0.0693623046875,1.0007861328125005,1.0042767839357092,-0.0849609375,0.74951171875,0.2021484375,42.31823529411765,446.3360696925493
0.0433564453125,0.0605732421875,0.9978564453125,1.0006329918960997,-0.11572265625,0.48681640625,0.24267578125,42.41235294117647,446.2200989443695
0.0414033203125,0.0664326171875,1.0051806640625005,1.0082240301462813,-0.107421875,0.427734375,0.283203125,42.31823529411765,446.2200989443695
0.0438447265625,0.0747333984375,1.0076220703125005,1.0113405348695403,-0.09521484375,0.40625,0.26904296875,42.08294117647059,446.2200989443695
0.0570283203125,0.0825458984375,1.0129931640625005,1.0179495100956013,-0.009765625,0.4150390625,0.16259765625,42.27117647058824,446.2200989443695
0.0750947265625,0.0932880859375,1.0173876953125005,1.024411834912434,0.0185546875,0.36669921875,-0.02197265625,42.224117647058826,446.2200989443695
0.0892548828125,0.0976826171875,1.0022509765625005,1.0109477473277035,-0.0107421875,0.31787109375,-0.27734375,42.83588235294118,446.40438696970216
0.0995087890625,0.0923115234375,0.9817431640625,0.9910817608267676,-0.083984375,0.263671875,-0.48583984375,41.84764705882353,446.40438696970216
0.0941376953125,0.0908466796875,0.9631884765625,0.9720324409564642,-0.140625,0.07421875,-0.5751953125,42.224117647058826,446.40438696970216
0.0892548828125,0.0947529296875,0.9661181640625,0.9748481208484392,-0.2109375,-0.2626953125,-0.5498046875,42.41235294117647,446.40438696970216
0.0902314453125,0.1064716796875,0.9724658203125,0.982429490586843,-0.18896484375,-0.71875,-0.56298828125,42.31823529411765,446.09095994604536
0.0951142578125,0.1069599609375,0.9827197265625,0.9930887252698266,-0.1396484375,-1.08203125,-0.7041015625,42.08294117647059,446.09095994604536
0.0946259765625,0.1030537109375,0.9993212890625,1.0090674811685951,-0.1201171875,-1.29833984375,-0.8544921875,42.41235294117647,446.09095994604536
0.0951142578125,0.0971943359375,1.0051806640625005,1.014338024714978,-0.0244140625,-1.431640625,-0.90185546875,41.98882352941177,446.09095994604536
0.0931611328125,0.0781513671875,1.0017626953125005,1.0091160144304268,-0.04833984375,-1.1630859375,-0.90966796875,42.31823529411765,446.09095994604536
0.0804658203125,0.0639912109375,1.0007861328125005,1.006052934464987,-0.0869140625,-0.69970703125,-0.912109375,42.224117647058826,446.1240484733003
0.0736298828125,0.0508076171875,1.0012744140625005,1.0052627645861838,-0.05126953125,-0.17236328125,-0.9619140625,42.13,446.1240484733003
0.0687470703125,0.0464130859375,0.9934619140625,0.9969187072753324,-0.12255859375,0.1298828125,-0.9541015625,42.27117647058824,446.1240484733003
0.0609345703125,0.0459248046875,0.9895556640625,0.992493084017682,-0.208984375,0.15283203125,-0.84375,42.41235294117647,446.1240484733003
0.0746064453125,0.0434833984375,0.9954150390625,0.999153655657447,-0.1845703125,0.0478515625,-0.6669921875,42.31823529411765,446.3261102899002
0.0912080078125,0.0351826171875,1.0046923828125005,1.0094372200997677,-0.1015625,-0.0634765625,-0.56591796875,42.224117647058826,446.3261102899002
0.0916962890625,0.0268818359375,0.9973681640625,1.0019351761549278,-0.0751953125,-0.0859375,-0.54443359375,42.45941176470589,446.3261102899002
0.0873017578125,0.0151630859375,0.9963916015625,1.0003238174494218,-0.19384765625,-0.02783203125,-0.564453125,42.97705882352941,446.3261102899002
0.0765595703125,0.0156513671875,1.0085986328125005,1.01162124098524,-0.3427734375,0.005859375,-0.56787109375,42.31823529411765,446.3261102899002
0.0619111328125,0.0146748046875,1.0081103515625005,1.010116240432858,-0.361328125,0.35009765625,-0.43017578125,42.224117647058826,446.2731041697634
0.0540986328125,0.0112568359375,0.9988330078125,1.0003603130488892,-0.3828125,0.56640625,-0.1953125,42.27117647058824,446.2731041697634
0.0672822265625,0.0068623046875,0.9978564453125,1.0001457267261258,-0.423828125,0.58740234375,-0.12109375,42.224117647058826,446.2731041697634
0.0819306640625,0.0127216796875,0.9939501953125,0.9974023589352246,-0.42236328125,0.53564453125,0.14990234375,42.31823529411765,446.2731041697634
0.0907197265625,0.0195576171875,0.9944384765625,0.9987594569492564,-0.4033203125,0.453125,0.255859375,42.41235294117647,446.3061924877777
0.0863251953125,0.0205341796875,0.9802783203125,0.9842861764527004,-0.44873046875,0.35986328125,0.333984375,42.13,446.3061924877777
0.0711884765625,0.0219990234375,0.9905322265625,0.9933306841562668,-0.47021484375,0.24609375,0.40185546875,42.27117647058824,446.3061924877777
0.0443330078125,0.0185810546875,0.9910205078125,0.9921856268259224,-0.48828125,0.15380859375,0.53955078125,42.224117647058826,446.3061924877777
0.0228486328125,0.0039326171875,0.9880908203125,0.9883627849555916,-0.5,0.12060546875,0.70068359375,42.13,446.3061924877777
0.0042939453125,-0.0082744140624999,0.9919970703125,0.992040871840978,-0.5234375,0.04150390625,0.8427734375,42.31823529411765,446.2289866071583
-0.0025419921874999,-0.0190166015625,0.9939501953125,0.9941353447197344,-0.5556640625,0.0537109375,0.9951171875,42.224117647058826,446.2289866071583
-0.0059599609375,-0.0258525390625,0.9910205078125,0.9913755705156851,-0.62353515625,0.12353515625,1.13525390625,42.27117647058824,446.2289866071583
0.0213837890625,-0.0229228515625,0.9915087890625,0.9920042350446951,-0.69287109375,0.18798828125,1.20751953125,42.224117647058826,446.2289866071583
0.0453095703125,-0.0131572265624999,1.0012744140625005,1.00238541590993,-0.76708984375,0.12548828125,1.2197265625,42.31823529411765,446.4033161894289
0.0843720703125,-0.0024150390624999,1.0105517578125005,1.0140706749928357,-0.837890625,0.10498046875,1.20849609375,42.224117647058826,446.4033161894289
0.1087861328125,-0.0029033203124999,1.0115283203125005,1.0173654184978786,-0.8583984375,0.1611328125,1.142578125,41.98882352941177,446.4033161894289
0.1205048828125,-0.0038798828124999,1.0081103515625005,1.015294519437469,-0.7939453125,0.25634765625,1.02099609375,42.13,446.4033161894289
0.1156220703125,-0.0092509765624999,0.9949267578125,1.0016652620122162,-0.72802734375,0.365234375,0.92626953125,42.45941176470589,446.4033161894289
0.1009736328125,-0.0229228515625,0.9710009765625,0.9765060307711564,-0.6455078125,0.3623046875,0.93701171875,43.02411764705882,445.92873407532
0.0877900390625,-0.0463603515625,0.9553759765625,0.9605204993899632,-0.52685546875,0.3212890625,1.07861328125,41.98882352941177,445.92873407532
0.0736298828125,-0.0741923828125,0.9417041015625,0.9474874586030224,-0.4228515625,0.154296875,1.2470703125,42.224117647058826,445.92873407532
0.0760712890625,-0.0824931640625,0.9373095703125,0.9440027509155238,-0.396484375,0.001953125,1.47314453125,42.224117647058826,445.92873407532
0.0873017578125,-0.0824931640625,0.9377978515625,0.9454583700139504,-0.38037109375,-0.09375,1.64599609375,42.224117647058826,446.0578715439728
0.0907197265625,-0.0776103515625,0.9587939453125,0.9661983569770438,-0.34912109375,-0.06640625,1.7470703125,42.41235294117647,446.0578715439728
0.0912080078125,-0.0614970703125,0.9656298828125,0.9718754348817692,-0.2998046875,0.0244140625,1.62548828125,42.41235294117647,446.0578715439728
0.0780244140625,-0.0566142578125,0.9627001953125,0.9675146765978192,-0.2822265625,0.14453125,1.71240234375,42.31823529411765,446.0578715439728
0.0692353515625,-0.0497783203125,0.9666064453125,0.9703604666302024,-0.3447265625,0.1787109375,1.6953125,42.45941176470589,446.0578715439728
0.0707001953125,-0.0527080078125,0.9666064453125,0.9706207662235832,-0.435546875,0.10986328125,1.68505859375,42.27117647058824,446.2531874211935
0.0838837890625,-0.0497783203125,0.9797900390625,0.9846333794294764,-0.4130859375,-0.08740234375,1.70703125,42.31823529411765,446.2531874211935
0.0946259765625,-0.0531962890625,0.9890673828125,0.9950066373416796,-0.32275390625,-0.291015625,1.72412109375,42.27117647058824,446.2531874211935
0.0975556640625,-0.0693095703125,1.0017626953125005,1.00888523720359,-0.17529296875,-0.5283203125,1.66357421875,42.31823529411765,446.2531874211935
0.0897431640625,-0.0790751953125,1.0100634765625005,1.0171209115415842,-0.08935546875,-0.744140625,1.4951171875,42.31823529411765,446.07993046477486
0.1053681640625,-0.1010478515625,1.0403369140625005,1.0505303484737532,0.0263671875,-1.0478515625,1.20947265625,42.31823529411765,446.07993046477486
0.1180634765625,-0.1152080078125,1.0715869140625005,1.08420956643637,0.18994140625,-1.357421875,0.814453125,42.27117647058824,446.07993046477486
0.1122041015625,-0.1288798828125,1.0745166015625005,1.0880191687808798,0.3427734375,-1.4208984375,0.56884765625,42.224117647058826,446.07993046477486
0.0873017578125,-0.1298564453125,1.0798876953125005,1.0911653072718608,0.42138671875,-1.10498046875,0.603515625,41.98882352941177,446.07993046477486
0.0770478515625,-0.1156962890625,1.0710986328125005,1.0800806839982084,0.486328125,-0.609375,0.7275390625,42.27117647058824,445.8205843861605
0.0887666015625,-0.0966533203125,1.0627978515625005,1.0708691083256874,0.54052734375,-0.07568359375,0.77099609375,42.27117647058824,445.8205843861605
0.1087861328125,-0.0839580078125,1.0627978515625005,1.0716448306477333,0.607421875,0.287109375,0.65771484375,42.31823529411765,445.8205843861605
0.1165986328125,-0.0859111328125,1.0554736328125005,1.065364047392856,0.67333984375,0.53759765625,0.4345703125,42.31823529411765,445.8205843861605
0.1078095703125,-0.0981181640625,1.0276416015625005,1.0379293515610308,0.705078125,0.7578125,0.296875,42.224117647058826,445.8337599824644
0.0999970703125,-0.1166728515625,1.0095751953125005,1.0212022538915009,0.7080078125,0.94287109375,0.2900390625,41.98882352941177,445.8337599824644
0.0780244140625,-0.1352275390625,0.9954150390625,1.0075839401769435,0.751953125,1.07373046875,0.4267578125,42.224117647058826,445.8337599824644
0.0804658203125,-0.1440166015625,0.9812548828125,0.99502596690114,0.78076171875,1.14599609375,0.62451171875,41.98882352941177,445.8337599824644
0.0912080078125,-0.1405986328125,0.9666064453125,0.9810274697262744,0.80859375,1.1474609375,0.7705078125,42.45941176470589,445.8337599824644
0.1126923828125,-0.1293681640625,0.9534228515625,0.9687367180500748,0.8583984375,1.05615234375,0.7734375,42.31823529411765,445.6605080299061
0.1292939453125,-0.1239970703125,0.9465869140625,0.9633893208952036,0.94580078125,0.83349609375,0.67431640625,42.08294117647059,445.6605080299061
0.1600556640625,-0.1108134765625,0.9402392578125,0.960180870522922,0.9873046875,0.49462890625,0.5849609375,42.31823529411765,445.6605080299061
0.1786103515625,-0.1000712890625,0.9348681640625,0.957023722149822,1.03955078125,0.20068359375,0.51904296875,42.08294117647059,445.6605080299061
0.1834931640625,-0.0907939453125,0.9324267578125,0.9546375963934206,1.04541015625,-0.03125,0.52587890625,42.224117647058826,445.42322953834463
0.1605439453125,-0.0859111328125,0.9294970703125,0.9471641277187132,1.00341796875,-0.2294921875,0.60205078125,42.41235294117647,445.42322953834463
0.1195283203125,-0.0815166015625,0.9392626953125,0.9503401425241014,0.9287109375,-0.55419921875,0.73486328125,42.31823529411765,445.42322953834463
0.0882783203125,-0.0746806640625,0.9661181640625,0.9730131398668304,0.90771484375,-0.931640625,0.90673828125,42.224117647058826,445.42322953834463
0.0804658203125,-0.0654033203125,0.9924853515625,0.9978875265342294,1.0361328125,-1.271484375,1.107421875,42.224117647058826,445.42322953834463
0.0746064453125,-0.0898173828125,1.0173876953125005,1.0240659190260826,1.1884765625,-1.23828125,1.15283203125,42.224117647058826,446.0258550045767
0.0853486328125,-0.1220439453125,1.0120166015625005,1.0229157910348807,1.3046875,-0.97314453125,1.0712890625,42.13,446.0258550045767
0.0999970703125,-0.1449931640625,1.0159228515625005,1.0310779175323368,1.30517578125,-0.76318359375,0.89208984375,42.224117647058826,446.0258550045767
0.1161103515625,-0.1630595703125,1.0090869140625005,1.0287499391701778,1.2109375,-0.53857421875,0.69287109375,41.84764705882353,446.0258550045767
0.1253876953125,-0.1786845703125,1.0037158203125005,1.027178513087739,1.07373046875,-0.21240234375,0.5791015625,42.31823529411765,445.9949111055146
0.1156220703125,-0.1869853515625,1.0017626953125005,1.0256024973458606,0.90966796875,0.08837890625,0.53466796875,42.224117647058826,445.9949111055146
0.1009736328125,-0.1947978515625,1.0022509765625005,1.0259867920773662,0.77978515625,0.28857421875,0.5693359375,41.84764705882353,445.9949111055146
0.0990205078125,-0.2055400390625,0.9998095703125,1.025510090400736,0.62890625,0.30908203125,0.6435546875,42.224117647058826,445.9949111055146
0.0936494140625,-0.2079814453125,1.0007861328125005,1.026449890631942,0.4697265625,0.16552734375,0.6875,43.07117647058824,445.9949111055146
0.1068330078125,-0.2040751953125,1.0090869140625005,1.0350441425525196,0.3798828125,-0.078125,0.712890625,41.84764705882353,445.7686561026008
0.1278291015625,-0.2143291015625,0.9973681640625,1.0281150216139563,0.24462890625,-0.26171875,0.7119140625,42.224117647058826,445.7686561026008
0.1463837890625,-0.2045634765625,1.0120166015625005,1.042809681332957,0.13720703125,-0.39208984375,0.74609375,42.13,445.7686561026008
0.1634736328125,-0.1874736328125,1.0208056640625005,1.050673210568783,0.0439453125,-0.4013671875,0.87939453125,41.94176470588236,445.7686561026008
0.1888642578125,-0.1611064453125,1.0374072265625005,1.0666952462275223,0.0185546875,-0.2509765625,0.94287109375,42.41235294117647,446.0379567192106
0.2030244140625,-0.1303447265625,1.0559619140625005,1.0831732199415811,-0.01171875,0.07080078125,0.8623046875,42.13,446.0379567192106
0.2054658203125,-0.1010478515625,1.0627978515625005,1.0871826640026745,-0.11669921875,0.71484375,0.6494140625,42.31823529411765,446.0379567192106
0.1932587890625,-0.0644267578125,1.0686572265625005,1.0879007466475925,-0.23681640625,1.4873046875,0.34130859375,42.41235294117647,446.0379567192106
0.1693330078125,-0.0307353515625,1.0730517578125005,1.0867651100007745,-0.3916015625,2.00439453125,0.06787109375,42.224117647058826,446.0379567192106
0.1624970703125,0.0034443359375,1.0867236328125005,1.0988109097671872,-0.46337890625,2.42529296875,-0.076171875,42.41235294117647,445.3801861788064
0.1820283203125,0.0298115234375,1.0779345703125005,1.093602292517828,-0.5458984375,2.38037109375,-0.1357421875,41.98882352941177,445.3801861788064
0.1922822265625,0.0542255859375,1.0496142578125005,1.0684582158537523,-0.71044921875,2.19287109375,-0.10009765625,42.31823529411765,445.3801861788064
0.1820283203125,0.0840107421875,1.0335009765625005,1.0527660626911977,-0.8203125,1.98486328125,-0.015625,41.98882352941177,445.3801861788064
0.1668916015625,0.0942646484375,1.0237353515625005,1.0415242199084656,-0.87255859375,1.6884765625,0.16064453125,42.13,444.6595055753121
0.1517548828125,0.1030537109375,1.0398486328125005,1.0559047262691137,-0.84521484375,1.17041015625,0.45947265625,42.31823529411765,444.6595055753121
0.1439423828125,0.1011005859375,1.0535205078125005,1.068104020415687,-0.7236328125,0.75439453125,0.77734375,42.31823529411765,444.6595055753121
0.1234345703125,0.1025654296875,1.0671923828125005,1.0791919859080843,-0.61865234375,0.6298828125,1.1396484375,41.84764705882353,444.6595055753121
0.1009736328125,0.1177021484375,1.1096728515625005,1.1204567406932795,-0.44189453125,0.66796875,1.55859375,42.224117647058826,444.6595055753121
0.0995087890625,0.0835224609375,1.1687548828125005,1.1759532204470562,-0.17822265625,0.69189453125,1.70166015625,42.27117647058824,445.1450653632085
0.0814423828125,0.0522724609375,1.2107470703125005,1.2146084719616206,0.05859375,0.85791015625,1.82763671875,42.27117647058824,445.1450653632085
0.0521455078125,0.0444599609375,1.2200244140625005,1.2219473855367646,0.26025390625,1.44775390625,2.06494140625,42.31823529411765,445.1450653632085
0.0428681640625,0.0674091796875,1.1970751953125005,1.1997377631085435,0.44140625,2.30859375,2.35546875,42.224117647058826,445.1450653632085
0.0516572265625,0.1113544921875,1.1536181640625005,1.1601306652448249,0.486328125,2.9423828125,2.404296875,42.41235294117647,445.1550185215271
0.0750947265625,0.1421162109375,1.1169970703125005,1.1285028535433297,0.494140625,3.06103515625,2.1142578125,42.45941176470589,445.1550185215271
0.0848603515625,0.1640888671875,1.0520556640625005,1.0681514667350211,0.46240234375,2.80615234375,1.78125,42.31823529411765,445.1550185215271
0.0790009765625,0.1679951171875,1.0037158203125005,1.0207394190694634,0.3828125,2.49609375,1.49609375,42.31823529411765,445.1550185215271
0.0677705078125,0.1440693359375,0.9763720703125,0.989268029895313,0.1962890625,1.77587890625,1.2939453125,42.41235294117647,445.1550185215271
0.0218720703125,0.1289326171875,0.9783251953125,0.9870269474628414,0.02587890625,1.1640625,1.447265625,41.98882352941177,446.07993046477486
-0.0479521484375,0.1074482421875,0.9836962890625,0.9907082932954026,0.00048828125,0.76806640625,1.8701171875,42.31823529411765,446.07993046477486
-0.0875029296875,0.0595966796875,1.0071337890625005,1.012683067896891,0.0947265625,0.74853515625,2.47705078125,42.27117647058824,446.07993046477486
-0.1104521484375,0.0449482421875,1.0378955078125005,1.0447234594415755,0.4443359375,0.40380859375,3.4931640625,42.224117647058826,446.07993046477486
-0.0933623046875,0.0068623046875,1.0256884765625005,1.0299516795050572,0.79736328125,0.544921875,4.5361328125,42.224117647058826,445.5954047319378
-0.0523466796875,-0.0414775390625,0.9998095703125,1.0020377927051718,0.93701171875,1.02099609375,5.16748046875,42.224117647058826,445.5954047319378
-0.0381865234375,-0.0370830078125,0.9758837890625,0.9773344001904604,0.98388671875,1.6083984375,5.5126953125,42.27117647058824,445.5954047319378
-0.0586943359375,-0.0009501953124999,0.9607470703125,0.9625387582099372,1.03564453125,2.08642578125,5.72509765625,42.224117647058826,445.5954047319378
-0.0694365234375,0.0176044921875,0.9251025390625,0.9278717889407732,1.138671875,2.66552734375,5.83984375,41.98882352941177,445.5954047319378
-0.0626005859375,-0.0136455078124999,0.8572314453125001,0.8596224660138526,1.23095703125,3.1796875,5.8310546875,42.13,446.07993046477486
-0.0333037109375,-0.0380595703125,0.8132861328125001,0.8148570438301999,1.2001953125,3.06103515625,5.94140625,42.31823529411765,446.07993046477486
-0.0035185546874999,-0.0219462890625,0.7752001953125001,0.7755187700134936,1.111328125,2.2724609375,6.13720703125,42.31823529411765,446.07993046477486
0.0545869140625,0.0034443359375,0.7273486328125001,0.7294022403935501,0.80615234375,1.220703125,6.091796875,42.08294117647059,446.07993046477486
0.1004853515625,0.0591083984375,0.6912158203125001,0.7009781871747279,0.3388671875,0.10107421875,5.83935546875,42.31823529411765,445.6163899641464
0.1107392578125,0.1362568359375,0.7043994140625001,0.7259529207132894,-0.025390625,-0.841796875,5.580078125,42.41235294117647,445.6163899641464
0.1151337890625,0.1728779296875,0.7517626953125001,0.77992930321949,-0.09130859375,-1.78515625,5.31787109375,42.45941176470589,445.6163899641464
0.0916962890625,0.1860615234375,0.8054736328125001,0.8317540941215037,-0.09814453125,-2.3916015625,5.07080078125,41.98882352941177,445.6163899641464
0.0658173828125,0.1841083984375,0.8831103515625001,0.9044952864953753,0.02685546875,-2.93408203125,4.7626953125,42.31823529411765,445.6163899641464
0.0321259765625,0.1548115234375,0.9421923828125,0.9553665120722156,0.22607421875,-3.005859375,4.4365234375,42.224117647058826,445.6814933820237
-0.0254912109375,0.1220966796875,0.9915087890625,0.9993233109529456,0.55029296875,-2.56494140625,4.23291015625,42.27117647058824,445.6814933820237
-0.0591826171875,0.0820576171875,1.0037158203125005,1.008802003696091,0.7724609375,-1.8388671875,4.24755859375,42.41235294117647,445.6814933820237
-0.0655302734375,0.0727802734375,1.0037158203125005,1.008482341384333,0.724609375,-0.89794921875,4.45654296875,42.224117647058826,445.6814933820237
-0.0440458984375,0.0869404296875,1.0037158203125005,1.0084364766454104,0.6083984375,0.08447265625,4.60595703125,42.27117647058824,444.62749505265737
-0.0284208984375,0.0859638671875,0.9959033203125,1.0000104786147428,0.4912109375,0.8359375,4.62451171875,42.27117647058824,444.62749505265737
-0.0127958984375,0.0796162109375,0.9949267578125,0.9981892252835434,0.41455078125,1.0771484375,4.7392578125,42.224117647058826,444.62749505265737
-0.0210966796875,0.0488544921875,1.0017626953125005,1.003175123804663,0.38720703125,0.85009765625,4.9228515625,42.08294117647059,444.62749505265737
-0.0445341796875,0.0249287109375,1.0042041015625005,1.005500179703809,0.49365234375,0.5771484375,5.26220703125,42.224117647058826,444.62749505265737
-0.0567412109375,-0.0029033203124999,1.0144580078125005,1.0160477567035902,0.6494140625,0.35107421875,5.61083984375,42.224117647058826,445.1439889030666
-0.0684599609375,-0.0195048828125,0.9924853515625,0.9950348635958604,0.74365234375,0.2236328125,5.8486328125,42.224117647058826,445.1439889030666
-0.0665068359375,-0.0141337890624999,0.9856494140625,0.9879917462516732,0.6728515625,0.1904296875,5.931640625,42.27117647058824,445.1439889030666
-0.0372099609375,0.0293232421875,0.9846728515625,0.9858118777584202,0.6962890625,0.01220703125,5.8427734375,42.31823529411765,445.1439889030666
-0.0230498046875,0.0493427734375,0.9573291015625,0.9588769532557866,0.6884765625,-0.26318359375,5.693359375,42.27117647058824,445.7796856704285
-0.0162138671875,0.0571552734375,0.9460986328125,0.9479621499725456,0.6298828125,-0.53955078125,5.595703125,42.31823529411765,445.7796856704285
-0.0152373046875,0.0561787109375,0.9553759765625,0.9571475746244618,0.65771484375,-0.68408203125,5.57958984375,42.224117647058826,445.7796856704285
-0.0240263671875,0.0337177734375,0.9680712890625,0.9689562298024312,0.5009765625,-0.6083984375,5.58056640625,42.27117647058824,445.7796856704285
-0.0416044921875,0.0151630859375,0.9822314453125,0.983229101026821,0.615234375,-0.4501953125,5.681640625,42.41235294117647,445.7796856704285
-0.0552763671875,0.0049091796875,0.9851611328125,0.9867228762013476,0.5439453125,-0.23681640625,5.82568359375,42.506470588235295,446.2741751010445
-0.0572294921875,-0.0019267578124999,0.9797900390625,0.98146189320717,0.4658203125,-0.01171875,5.853515625,41.47117647058823,446.2741751010445
-0.0484404296875,0.0053974609375,0.9832080078125,0.9844153566658268,0.34814453125,0.0595703125,5.74072265625,42.224117647058826,446.2741751010445
-0.0362333984375,0.0210224609375,0.9915087890625,0.9923933100411272,0.22705078125,-0.01611328125,5.47900390625,42.31823529411765,446.2741751010445
-0.0284208984375,0.0483662109375,1.0037158203125005,1.005282291584827,0.1318359375,-0.1416015625,5.19287109375,42.97705882352941,446.38125729144673
-0.0225615234375,0.0801044921875,1.0090869140625005,1.012512791099756,0.0439453125,-0.078125,4.85986328125,42.224117647058826,446.38125729144673
0.0052705078125,0.0967060546875,1.0295947265625005,1.0341398069077183,-0.08251953125,0.009765625,4.55322265625,42.31823529411765,446.38125729144673
0.0272431640625,0.0986591796875,1.0588916015625005,1.063826699977183,-0.20068359375,0.09619140625,4.21923828125,42.31823529411765,446.38125729144673
0.0052705078125,0.1015888671875,1.0793994140625005,1.084182259247729,-0.25390625,0.13427734375,3.9716796875,42.224117647058826,446.38125729144673
-0.0357451171875,0.1064716796875,1.1013720703125005,1.1070837227792074,-0.2548828125,0.08349609375,3.89111328125,42.31823529411765,446.1340061032526
-0.0875029296875,0.1201435546875,1.1126025390625005,1.1224863680086126,-0.20751953125,-0.01953125,3.99462890625,42.224117647058826,446.1340061032526
-0.1119169921875,0.1362568359375,1.1218798828125005,1.1356521518226368,-0.13037109375,-0.18017578125,4.16455078125,41.98882352941177,446.1340061032526
-0.1114287109375,0.1504169921875,1.1472705078125005,1.1624419328535425,0.015625,-0.3798828125,4.3486328125,42.31823529411765,446.1340061032526
-0.1153349609375,0.1650654296875,1.1394580078125005,1.1571142125392833,0.146484375,-0.67138671875,4.251953125,42.224117647058826,446.2432295484815
-0.1075224609375,0.1689716796875,1.1521533203125005,1.169431392450874,0.17041015625,-0.6484375,4.29248046875,42.31823529411765,446.2432295484815
-0.1246123046875,0.1645771484375,1.1707080078125005,1.1887687343733695,0.21875,-0.64208984375,4.1337890625,41.98882352941177,446.2432295484815
-0.1158232421875,0.1499287109375,1.1946337890625005,1.20956336409633,0.21142578125,-0.8251953125,3.85205078125,42.41235294117647,446.2432295484815
-0.1080107421875,0.1533466796875,1.2444384765625005,1.2584945953591822,0.181640625,-1.14453125,3.59765625,42.224117647058826,446.2432295484815
-0.0572294921875,0.1714130859375,1.3201220703125005,1.3324338412592265,0.232421875,-1.44189453125,3.34423828125,42.506470588235295,445.6946709936906
0.0213837890625,0.1523701171875,1.3782275390625005,1.3867894823933002,0.31201171875,-1.49560546875,2.92724609375,41.84764705882353,445.6946709936906
0.0999970703125,0.1177021484375,1.4270556640625005,1.4353888247268578,0.3759765625,-0.97802734375,2.494140625,42.08294117647059,445.6946709936906
0.1825166015625,0.0503193359375,1.4251025390625005,1.4376235919939198,0.35400390625,0.3115234375,2.072265625,42.224117647058826,445.6946709936906
0.2596650390625,-0.0429423828125,1.3826220703125005,1.407449384549288,0.22216796875,2.00244140625,1.73681640625,41.98882352941177,445.865775317792
0.4530244140625,-0.1640361328125,1.2678759765625005,1.3563364127490884,0.4638671875,3.17138671875,2.4013671875,42.13,445.865775317792
0.6820283203125,-0.2514384765625,1.0681689453125005,1.2920405693840966,0.501953125,1.9736328125,2.42919921875,42.506470588235295,445.865775317792
0.7166962890625,-0.2748759765625,0.9329150390625,1.208114582047635,0.45068359375,-0.0703125,2.2900390625,43.07117647058824,445.865775317792
0.5672822265625,-0.2734111328125,0.8323291015625001,1.043711888131663,0.03662109375,-1.09814453125,2.33447265625,42.41235294117647,445.865775317792
0.4393525390625,-0.2655986328125,0.8313525390625001,0.9770979129740276,-0.46728515625,-0.83203125,2.4150390625,42.45941176470589,446.1140911777366
0.2870087890625,-0.2480205078125,0.8552783203125001,0.9356223717351272,-0.4287109375,-0.490234375,3.056640625,42.31823529411765,446.1140911777366
0.2098603515625,-0.2280009765625,0.8674853515625001,0.9211713454330328,-0.15869140625,0.07470703125,4.2451171875,42.224117647058826,446.1140911777366
0.1805634765625,-0.2055400390625,0.9114306640625,0.951606921012852,0.31298828125,0.11279296875,5.38232421875,42.224117647058826,446.1140911777366
0.1854462890625,-0.2807353515625,0.9265673828125,0.98576355107905,0.5791015625,-0.65673828125,6.1962890625,42.31823529411765,446.7797195305075
0.1659150390625,-0.0942119140625,0.9509814453125,0.9699326751208468,0.4296875,-0.84765625,5.94482421875,42.41235294117647,446.7797195305075
0.1122041015625,-0.0346416015625,0.9949267578125,1.0018328475237552,0.0068359375,-0.29541015625,5.07421875,42.27117647058824,446.7797195305075
0.0609345703125,0.0342060546875,1.0515673828125005,1.0538866336715655,-0.39892578125,0.81640625,4.21142578125,42.224117647058826,446.7797195305075
0.0218720703125,0.0747333984375,1.0715869140625005,1.0744123894910025,-0.3603515625,1.85498046875,3.9248046875,41.84764705882353,446.7797195305075
0.0501923828125,0.0898701171875,0.9988330078125,1.004123145212507,-0.08154296875,2.06640625,4.10693359375,42.224117647058826,447.017024887894
-0.0074248046875,0.1113544921875,0.9304736328125,0.9371425355911844,0.05908203125,2.03125,4.3359375,42.224117647058826,447.017024887894
0.2103486328125,0.1113544921875,0.9026416015625,0.9334924912005126,0.18408203125,1.95703125,4.24951171875,42.41235294117647,447.017024887894
0.2494111328125,0.0449482421875,0.8567431640625001,0.8934400409733071,0.54345703125,1.6357421875,3.70166015625,42.224117647058826,447.017024887894
0.2415986328125,-0.0492900390625,0.7966845703125001,0.8339698507150393,0.81884765625,1.20263671875,3.50634765625,42.31823529411765,446.7167504271514
0.2332978515625,-0.1166728515625,0.7629931640625001,0.8063491862967982,0.73681640625,0.47412109375,3.38623046875,42.31823529411765,446.7167504271514
0.2137666015625,-0.1562236328125,0.7380908203125001,0.7841428711799239,0.685546875,-0.3046875,3.43212890625,42.45941176470589,446.7167504271514
0.1654267578125,-0.1567119140625,0.7170947265625001,0.752429055176124,0.66552734375,-0.8193359375,3.70849609375,42.31823529411765,446.7167504271514
0.1292939453125,-0.1498759765625,0.7004931640625001,0.7279219776482418,0.5966796875,-1.216796875,4.041015625,42.13,446.7167504271514
0.1019501953125,-0.1225322265625,0.7068408203125001,0.7245908736181189,0.51123046875,-1.58203125,4.310546875,42.45941176470589,446.10198944121737
0.0663056640625,-0.0863994140625,0.7122119140625001,0.7204908815312533,0.48193359375,-1.8349609375,4.443359375,42.31823529411765,446.10198944121737
0.0526337890625,-0.0751689453125,0.7102587890625001,0.7161621558913862,0.50048828125,-1.81884765625,4.39794921875,42.224117647058826,446.10198944121737
0.0438447265625,-0.0619853515625,0.7014697265625001,0.705566666686668,0.5009765625,-1.669921875,4.30859375,42.41235294117647,446.10198944121737
0.0467744140625,-0.0551494140625,0.7058642578125001,0.7095587742671631,0.49072265625,-1.51904296875,4.24267578125,41.98882352941177,446.2852045877163
0.0584931640625,-0.0507548828125,0.7131884765625001,0.717380869185186,0.54443359375,-1.41552734375,4.11083984375,42.27117647058824,446.2852045877163
0.0736298828125,-0.0507548828125,0.7224658203125001,0.7279795871397128,0.60546875,-1.427734375,3.84814453125,41.98882352941177,446.2852045877163
0.0775361328125,-0.0409892578125,0.7439501953125001,0.7491020386122602,0.5859375,-1.5439453125,3.54052734375,41.98882352941177,446.2852045877163
0.0619111328125,-0.0278056640625,0.7800830078125001,0.7830297838510873,0.52978515625,-1.78564453125,3.36962890625,42.224117647058826,446.2852045877163
0.0467744140625,-0.0361064453125,0.8176806640625001,0.8198128991335071,0.4345703125,-1.9951171875,2.9853515625,42.13,446.06001582935056
0.0374970703125,-0.0439189453125,0.8665087890625001,0.8684309906733771,0.35205078125,-2.1044921875,2.7783203125,42.08294117647059,446.06001582935056
0.0374970703125,-0.0468486328125,0.9221728515625,0.9241231480908452,0.3369140625,-2.1298828125,2.51513671875,42.224117647058826,446.06001582935056
0.0482392578125,-0.0502666015625,0.9705126953125,0.9730100970646078,0.4189453125,-2.06201171875,2.22265625,42.27117647058824,446.06001582935056
0.0584931640625,-0.0571025390625,1.0115283203125005,1.0148259422204653,0.47412109375,-1.89013671875,1.90869140625,42.31823529411765,446.07211827365575
0.0736298828125,-0.0810283203125,1.0515673828125005,1.0572515826097302,0.60107421875,-1.64306640625,1.61669921875,42.41235294117647,446.07211827365575
0.0829072265625,-0.0947001953125,1.0867236328125005,1.093988112056849,0.74951171875,-1.47509765625,1.38916015625,42.31823529411765,446.07211827365575
0.0916962890625,-0.1098369140625,1.1248095703125005,1.1338734173553933,0.826171875,-1.357421875,1.26806640625,42.27117647058824,446.07211827365575
0.0750947265625,-0.1088603515625,1.1702197265625005,1.1776688849315078,0.87890625,-1.2509765625,1.27783203125,42.45941176470589,446.07211827365575
0.0643525390625,-0.1117900390625,1.1980517578125005,1.204975633162351,0.751953125,-1.107421875,1.39990234375,42.41235294117647,445.5865238576105
0.0721650390625,-0.1161845703125,1.2322314453125005,1.23979876675956,0.88330078125,-0.91552734375,1.6015625,42.224117647058826,445.5865238576105
0.0990205078125,-0.1191142578125,1.2678759765625005,1.2773029238696598,0.99072265625,-0.81982421875,1.720703125,42.27117647058824,445.5865238576105
0.1039033203125,-0.1259501953125,1.2766650390625005,1.287063702244638,1.14892578125,-0.48779296875,1.7587890625,42.41235294117647,445.5865238576105
0.1170869140625,-0.1557353515625,1.2698291015625005,1.2846901542185187,1.2451171875,-0.119140625,1.67578125,42.31823529411765,445.1560950429172
0.1742158203125,-0.1615947265625,1.2844775390625005,1.3062720069174043,1.220703125,0.6875,1.3095703125,42.27117647058824,445.1560950429172
0.3202119140625,-0.1264384765625,1.2854541015625005,1.3307571549636208,1.0634765625,1.0244140625,0.22607421875,42.224117647058826,445.1560950429172
0.1434541015625,-0.1908916015625,1.3567431640625005,1.3775959843265095,1.2197265625,0.7861328125,0.61962890625,42.41235294117647,445.1560950429172
0.1478486328125,-0.2040751953125,1.4460986328125005,1.4678920802935558,1.3349609375,0.54296875,1.2958984375,42.31823529411765,445.1560950429172
0.2196259765625,-0.1801494140625,1.5442431640625005,1.570151690354106,1.33154296875,0.41455078125,1.5478515625,42.45941176470589,445.3062051616835
0.4076142578125,-0.0981181640625,1.5291064453125005,1.5855418879320915,0.9208984375,0.76171875,0.93115234375,42.27117647058824,445.3062051616835
0.6371064453125,-0.0009501953124999,1.4138720703125005,1.5507868185987452,0.02587890625,1.44677734375,-0.40966796875,42.97705882352941,445.3062051616835
0.6869111328125,0.0771748046875,1.3660205078125005,1.5309522796693,-0.16357421875,1.328125,-0.33984375,42.31823529411765,445.3062051616835
0.7899384765625,0.1382099609375,1.3235400390625005,1.547534498826373,-0.2109375,1.22802734375,-0.1181640625,42.224117647058826,445.24217940157246
0.8465791015625,0.1909443359375,1.2991259765625005,1.5623329407038862,-0.1484375,1.09228515625,0.29736328125,42.224117647058826,445.24217940157246
0.7796845703125,0.1958271484375,1.2302783203125005,1.4696397676571962,0.3583984375,0.27685546875,0.9521484375,42.224117647058826,445.24217940157246
0.6849580078125,0.1963154296875,1.1506884765625005,1.3534368069819829,1.04443359375,-0.2294921875,1.6474609375,42.31823529411765,445.24217940157246
0.6136689453125,0.2173115234375,1.0730517578125005,1.255091210870421,1.28369140625,-0.6826171875,2.31494140625,42.31823529411765,445.24217940157246
0.5467744140625,0.2597919921875,0.9963916015625,1.1658689303444123,1.0986328125,-0.7060546875,2.4951171875,42.45941176470589,446.3933574525121
0.4554658203125,0.2861591796875,0.9710009765625,1.1100356237876738,0.8603515625,-0.34423828125,1.84765625,42.31823529411765,446.3933574525121
0.3216767578125,0.2529560546875,0.9714892578125,1.0541603673848252,0.77685546875,0.154296875,0.53466796875,42.31823529411765,446.3933574525121
0.1742158203125,0.1831318359375,0.9812548828125,1.013286517439352,0.8037109375,0.63037109375,0.00048828125,42.27117647058824,446.3933574525121
0.0755830078125,0.1245380859375,0.9763720703125,0.9871803004544196,0.95166015625,1.72802734375,0.2138671875,42.224117647058826,446.5015110304212
0.0995087890625,0.0503193359375,0.9519580078125,0.958466526962846,1.228515625,2.3203125,0.7177734375,42.27117647058824,446.5015110304212
0.1683564453125,-0.0229228515625,0.9036181640625,0.919453716195492,1.1572265625,2.5849609375,1.01318359375,42.224117647058826,446.5015110304212
0.2372041015625,-0.0639384765625,0.9002001953125001,0.9331207350733716,0.8330078125,2.61865234375,0.90283203125,42.41235294117647,446.5015110304212
