AccX,AccY,AccZ,Magnitude,GyroX,GyroY,GyroZ,Temperature,Altitude
-0.1539091796875,-0.0922587890625,0.9944384765625,1.0104986904589754,0.11376953125,0.15283203125,0.11279296875,45.7535294117647,212.3334169032634
-0.1553740234375,-0.0937236328125,0.9983447265625,1.014700645294898,0.1142578125,0.1455078125,0.10546875,45.7535294117647,212.3334169032634
-0.1524443359375,-0.0907939453125,0.9934619140625,1.0091825358960391,0.099609375,0.12939453125,0.09326171875,45.94176470588236,212.3334169032634
-0.1631865234375,-0.0893291015625,1.0027392578125005,1.0198507483823038,0.09619140625,0.1171875,0.11669921875,45.89470588235295,212.3334169032634
-0.1631865234375,-0.0878642578125,0.9934619140625,1.0106020700183065,0.08251953125,0.11865234375,0.109375,45.84764705882353,212.41387471627647
-0.1597685546875,-0.0898173828125,0.9929736328125,1.009747388599284,0.05712890625,0.11083984375,0.09423828125,45.84764705882353,212.41387471627647
-0.1602568359375,-0.0898173828125,0.9939501953125,1.0107850446468545,0.06396484375,0.1103515625,0.07373046875,45.89470588235295,212.41387471627647
-0.1563505859375,-0.0961650390625,0.9890673828125,1.0059560170327828,0.05029296875,0.13232421875,0.0556640625,45.70647058823529,212.41387471627647
-0.1548857421875,-0.1015361328125,1.0017626953125005,1.018738277046296,0.05615234375,0.17626953125,0.04638671875,46.08294117647059,212.41387471627647
-0.1509794921875,-0.0986064453125,0.9993212890625,1.0154610169237908,0.0439453125,0.16357421875,0.05712890625,45.89470588235295,212.97038551699703
-0.1514677734375,-0.0942119140625,0.9910205078125,1.0069458863545644,0.02783203125,0.12744140625,0.08740234375,45.7535294117647,212.97038551699703
-0.1456083984375,-0.0912822265625,0.9929736328125,1.0077355238566292,0.0185546875,0.11083984375,0.10107421875,45.94176470588236,212.97038551699703
-0.1500029296875,-0.0942119140625,0.9973681640625,1.0129758231821504,0.01220703125,0.12109375,0.09228515625,45.7535294117647,212.97038551699703
-0.1519560546875,-0.0942119140625,0.9949267578125,1.010863878432108,0.015625,0.1455078125,0.1005859375,45.7535294117647,212.7239776956452
-0.1441435546875,-0.0976298828125,0.9993212890625,1.0143727111616654,-0.009765625,0.15771484375,0.09912109375,45.84764705882353,212.7239776956452
-0.1446318359375,-0.0986064453125,0.9924853515625,1.0078039353415713,0.0224609375,0.11865234375,0.0927734375,45.565294117647056,212.7239776956452
-0.1485380859375,-0.1000712890625,0.9924853515625,1.008516236326786,-0.00830078125,0.09375,0.1025390625,45.84764705882353,212.7239776956452
-0.1519560546875,-0.1010478515625,0.9915087890625,1.0081621841994337,-0.009765625,0.1005859375,0.10888671875,45.84764705882353,212.7239776956452
-0.1539091796875,-0.0961650390625,0.9968798828125,1.0132646500723466,-0.00927734375,0.1005859375,0.1474609375,45.89470588235295,212.5938433456645
-0.1509794921875,-0.1005595703125,1.0032275390625005,1.01949621351726,-0.0166015625,0.0791015625,0.146484375,45.70647058823529,212.5938433456645
-0.1446318359375,-0.1069072265625,0.9973681640625,1.013454872080321,-0.0166015625,0.0888671875,0.1591796875,45.7535294117647,212.5938433456645
-0.1441435546875,-0.1049541015625,0.9885791015625,1.0045304215596758,-0.02001953125,0.0966796875,0.14599609375,46.08294117647059,212.5938433456645
-0.1377958984375,-0.0956767578125,0.9905322265625,1.004637170062194,-0.029296875,0.07666015625,0.14794921875,46.08294117647059,212.49515695832716
-0.1368193359375,-0.1015361328125,0.9900439453125,1.004597496812946,-0.025390625,0.06640625,0.1376953125,45.89470588235295,212.49515695832716
-0.1324248046875,-0.1000712890625,0.9890673828125,1.0028982398701882,-0.017578125,0.0546875,0.1650390625,45.7535294117647,212.49515695832716
-0.1348662109375,-0.1010478515625,0.9905322265625,1.0047654726436908,-0.0068359375,0.03125,0.16455078125,45.7535294117647,212.49515695832716
-0.1324248046875,-0.1000712890625,0.9993212890625,1.0130121571652977,-0.00048828125,0.00732421875,0.18359375,46.03588235294118,212.49515695832716
-0.1285185546875,-0.1064189453125,0.9934619140625,1.007377082086502,-0.0078125,-0.0263671875,0.20947265625,46.03588235294118,212.89880355426268
-0.1353544921875,-0.1020244140625,0.9973681640625,1.0116684606656148,-0.123046875,-0.0166015625,0.2255859375,45.94176470588236,212.89880355426268
-0.1304716796875,-0.0981181640625,0.9959033203125,1.0091944593233433,-0.01416015625,-0.0068359375,0.22900390625,45.7535294117647,212.89880355426268
-0.1373076171875,-0.1000712890625,0.9954150390625,1.0098112420765268,-0.0029296875,0.00244140625,0.22216796875,45.7535294117647,212.89880355426268
-0.1382841796875,-0.0986064453125,0.9910205078125,1.005468742584252,-0.01708984375,0.01513671875,0.1826171875,45.61235294117647,212.4717789576665
-0.1407255859375,-0.1010478515625,0.9959033203125,1.0108599221713717,-0.00732421875,0.00048828125,0.1650390625,45.94176470588236,212.4717789576665
-0.1417021484375,-0.1039775390625,0.9924853515625,1.0079275770448173,-0.009765625,-0.03369140625,0.16748046875,45.7535294117647,212.4717789576665
-0.1397490234375,-0.1069072265625,1.0017626953125005,1.0170975579376769,-0.00439453125,-0.06494140625,0.18603515625,45.565294117647056,212.4717789576665
-0.1470732421875,-0.1073955078125,0.9988330078125,1.0152988285040092,-0.01806640625,-0.0400390625,0.21044921875,45.7535294117647,212.4717789576665
-0.1441435546875,-0.1039775390625,1.0012744140625005,1.0169263224263818,-0.01025390625,-0.03271484375,0.21337890625,45.89470588235295,212.4717789576665
-0.1382841796875,-0.0986064453125,1.0017626953125005,1.0160581888498204,0.0146484375,0.01123046875,0.2021484375,46.03588235294118,212.4717789576665
-0.1373076171875,-0.1015361328125,1.0012744140625005,1.0157329473146128,0.00830078125,0.0498046875,0.20654296875,45.89470588235295,212.4717789576665
-0.1353544921875,-0.1039775390625,1.0027392578125005,1.0171618289845494,-0.00341796875,0.095703125,0.21875,45.61235294117647,212.4717789576665
-0.1377958984375,-0.1020244140625,0.9939501953125,1.0086296056792856,-0.01611328125,0.16162109375,0.26171875,45.7535294117647,212.5361214475544
-0.1358427734375,-0.1044658203125,1.0037158203125005,1.0182395664353017,-0.0146484375,0.20654296875,0.27294921875,46.08294117647059,212.5361214475544
-0.2564482421875,-0.1044658203125,0.9968798828125,1.034624719060436,-0.01171875,0.20361328125,0.2666015625,45.7535294117647,212.5361214475544
-0.1280302734375,-0.1049541015625,0.9968798828125,1.010532837223777,0.0234375,0.18408203125,0.259765625,45.7535294117647,212.5361214475544
-0.1338896484375,-0.1064189453125,0.9968798828125,1.0114449716303928,0.0087890625,0.1416015625,0.244140625,46.03588235294118,212.5361214475544
-0.1377958984375,-0.1054423828125,0.9919970703125,1.007057095316824,-0.00146484375,0.1171875,0.37451171875,46.03588235294118,212.8001184909372
-0.1417021484375,-0.1025126953125,0.9988330078125,1.014029451775343,0.00830078125,0.11669921875,0.251953125,45.84764705882353,212.8001184909372
-0.1353544921875,-0.1049541015625,0.9983447265625,1.0129305973487426,0.048828125,0.0927734375,0.2783203125,45.7535294117647,212.8001184909372
-0.1260771484375,-0.1005595703125,0.9968798828125,1.0098401731441613,0.04248046875,0.08740234375,0.28759765625,45.7535294117647,212.8001184909372
-0.1221708984375,-0.1020244140625,0.9978564453125,1.0104712736844728,0.044921875,0.04736328125,0.2998046875,45.84764705882353,212.6304648717173
-0.1187529296875,-0.1020244140625,0.9998095703125,1.0119932886450516,0.04638671875,0.0537109375,0.26171875,45.565294117647056,212.6304648717173
-0.1202177734375,-0.1000712890625,0.9993212890625,1.0114888109704612,0.05126953125,0.0517578125,0.24658203125,45.89470588235295,212.6304648717173
-0.1226591796875,-0.0966533203125,1.0012744140625005,1.01337929273557,0.03076171875,0.09130859375,0.24658203125,45.7535294117647,212.6304648717173
-0.1338896484375,-0.0986064453125,1.0022509765625005,1.0159511253187183,0.04150390625,0.140625,0.24462890625,45.84764705882353,212.6304648717173
-0.1334013671875,-0.0956767578125,0.9978564453125,1.0112702172044348,0.03662109375,0.19580078125,0.2412109375,45.89470588235295,212.63853699455157
-0.1368193359375,-0.0917705078125,0.9983447265625,1.0118466039107388,0.03271484375,0.201171875,0.20947265625,45.94176470588236,212.63853699455157
-0.1324248046875,-0.0937236328125,1.0061572265625005,1.0191529879306822,0.05712890625,0.18017578125,0.173828125,45.89470588235295,212.63853699455157
-0.1319365234375,-0.0947001953125,0.9895556640625,1.0027939895547715,0.052734375,0.1220703125,0.1416015625,45.7535294117647,212.63853699455157
-0.1319365234375,-0.0937236328125,1.0022509765625005,1.015233168087426,0.03271484375,0.130859375,0.162109375,45.7535294117647,212.77674293575467
-0.1280302734375,-0.0937236328125,0.9988330078125,1.0113571316601369,0.0390625,0.12060546875,0.2041015625,45.84764705882353,212.77674293575467
-0.1241240234375,-0.0966533203125,1.0007861328125005,1.0130752791138196,0.0712890625,0.13525390625,0.232421875,45.61235294117647,212.77674293575467
-0.1255888671875,-0.0947001953125,1.0042041015625005,1.0164480154678908,0.0703125,0.1826171875,0.27001953125,45.70647058823529,212.77674293575467
-0.1290068359375,-0.1010478515625,0.9988330078125,1.0121861535902217,0.08935546875,0.23828125,0.24560546875,45.565294117647056,212.77674293575467
-0.1363310546875,-0.1054423828125,1.0090869140625005,1.0236994933561137,0.06982421875,0.2607421875,0.22265625,45.61235294117647,212.46888457520896
-0.1334013671875,-0.1025126953125,1.0022509765625005,1.0162734855776832,0.0732421875,0.3193359375,0.1708984375,45.94176470588236,212.46888457520896
-0.1324248046875,-0.0956767578125,0.9988330078125,1.0121056013963168,0.11083984375,0.3515625,0.189453125,45.94176470588236,212.46888457520896
-0.1299833984375,-0.0961650390625,0.9919970703125,1.005087849949365,0.109375,0.35400390625,0.2001953125,45.94176470588236,212.46888457520896
-0.1226591796875,-0.0951884765625,1.0002978515625005,1.0122756108256554,0.1142578125,0.33349609375,0.21044921875,45.7535294117647,212.58660511656925
-0.1207060546875,-0.1005595703125,0.9915087890625,1.003878407780465,0.12548828125,0.306640625,0.2138671875,45.84764705882353,212.58660511656925
-0.1226591796875,-0.0995830078125,0.9924853515625,1.0049822002765691,0.12060546875,0.33837890625,0.20361328125,45.89470588235295,212.58660511656925
-0.1226591796875,-0.0951884765625,0.9973681640625,1.009380688896564,0.11328125,0.3271484375,0.21142578125,46.03588235294118,212.58660511656925
-0.1314482421875,-0.0956767578125,1.0007861328125005,1.013906093279597,0.13818359375,0.29638671875,0.1962890625,46.03588235294118,212.58660511656925
-0.1290068359375,-0.0937236328125,0.9983447265625,1.010999048526422,0.12109375,0.24169921875,0.17138671875,45.70647058823529,213.0312296603692
-0.1334013671875,-0.0898173828125,0.9973681640625,1.010250633114468,0.12890625,0.16455078125,0.14501953125,46.03588235294118,213.0312296603692
-0.1324248046875,-0.0878642578125,0.9993212890625,1.0118791901561175,0.10205078125,0.12890625,0.099609375,45.7535294117647,213.0312296603692
-0.1294951171875,-0.0912822265625,1.0002978515625005,1.0127671114832697,0.083984375,0.1298828125,0.08935546875,45.84764705882353,213.0312296603692
-0.1324248046875,-0.0922587890625,1.0061572265625005,1.0190193215144372,0.09716796875,0.166015625,0.09521484375,45.94176470588236,212.9039855359588
-0.1314482421875,-0.0956767578125,1.0066455078125005,1.0196900807396243,0.107421875,0.18017578125,0.10595703125,45.7535294117647,212.9039855359588
-0.1260771484375,-0.0937236328125,1.0002978515625005,1.0125588173268047,0.08984375,0.1943359375,0.1396484375,45.89470588235295,212.9039855359588
-0.1275419921875,-0.0927470703125,0.9983447265625,1.0107230935710638,0.103515625,0.22412109375,0.1220703125,45.70647058823529,212.9039855359588
-0.1309599609375,-0.0976298828125,1.0012744140625005,1.0145109943430566,0.10693359375,0.24951171875,0.1474609375,45.7535294117647,212.9039855359588
-0.1309599609375,-0.0976298828125,0.9934619140625,1.0068012117987644,0.11328125,0.27392578125,0.00048828125,45.70647058823529,212.3716476382044
-0.1334013671875,-0.0986064453125,1.0012744140625005,1.0149234493698844,0.0927734375,0.25732421875,0.1337890625,45.7535294117647,212.3716476382044
-0.1309599609375,-0.0961650390625,0.9963916015625,1.0095516082751428,0.10205078125,0.25341796875,0.130859375,45.89470588235295,212.3716476382044
-0.1299833984375,-0.0981181640625,0.9983447265625,1.011540929000656,0.095703125,0.24609375,0.13525390625,45.89470588235295,212.3716476382044
-0.1329130859375,-0.0986064453125,1.0056689453125005,1.019195342923305,0.080078125,0.2021484375,0.1044921875,45.7535294117647,212.88205588592712
-0.1309599609375,-0.0976298828125,1.0017626953125005,1.014992907909459,0.05712890625,0.19384765625,0.0732421875,45.84764705882353,212.88205588592712
-0.1338896484375,-0.0971416015625,1.0037158203125005,1.017255315374877,0.064453125,0.2060546875,0.03955078125,45.94176470588236,212.88205588592712
-0.1348662109375,-0.0976298828125,1.0022509765625005,1.0159859786882428,0.05078125,0.203125,0.0498046875,46.03588235294118,212.88205588592712
-0.1353544921875,-0.0976298828125,1.0042041015625005,1.0179775587743902,0.05419921875,0.236328125,0.07275390625,45.7535294117647,212.88205588592712
-0.1314482421875,-0.0956767578125,0.9959033203125,1.009086768206361,0.052734375,0.25537109375,0.06689453125,45.7535294117647,212.73143861151465
-0.1280302734375,-0.0966533203125,0.9963916015625,1.0092223931860589,0.0361328125,0.265625,0.07373046875,45.89470588235295,212.73143861151465
-0.1314482421875,-0.0937236328125,0.9949267578125,1.0079394888251223,0.0283203125,0.26171875,0.0712890625,45.94176470588236,212.73143861151465
-0.1299833984375,-0.1025126953125,0.9929736328125,1.006678286261529,0.02099609375,0.28955078125,0.125,45.84764705882353,212.73143861151465
-0.1280302734375,-0.0942119140625,0.9998095703125,1.0123669357284772,0.029296875,0.31689453125,0.2490234375,46.08294117647059,212.6575753876999
-0.1255888671875,-0.0961650390625,1.0012744140625005,1.0136916348453977,0.013671875,0.33447265625,0.1162109375,45.7535294117647,212.6575753876999
-0.1275419921875,-0.0942119140625,1.0017626953125005,1.014234362582062,-0.00537109375,0.35107421875,0.09130859375,45.7535294117647,212.6575753876999
-0.1299833984375,-0.0947001953125,1.0032275390625005,1.0160360751444744,0.12451171875,0.3271484375,0.0654296875,46.03588235294118,212.6575753876999
-0.1246123046875,-0.0990947265625,0.9919970703125,1.004692081595456,0.029296875,0.2958984375,0.05615234375,45.89470588235295,212.6575753876999
-0.1236357421875,-0.0961650390625,1.0022509765625005,1.0144163501761156,0.02490234375,0.251953125,0.07373046875,46.27117647058824,212.7219188319753
-0.1187529296875,-0.0971416015625,0.9988330078125,1.010547439044431,0.01025390625,0.25634765625,0.0615234375,45.89470588235295,212.7219188319753
-0.1329130859375,-0.0981181640625,1.0002978515625005,1.0138485362089245,0.01806640625,0.259765625,0.07568359375,45.89470588235295,212.7219188319753
-0.1343779296875,-0.0947001953125,0.9963916015625,1.0098622572626468,0.00927734375,0.29443359375,0.08935546875,45.84764705882353,212.7219188319753
-0.1343779296875,-0.0971416015625,0.9949267578125,1.0086491819024688,0.01318359375,0.3271484375,0.0859375,45.89470588235295,212.54274558387957
-0.1358427734375,-0.0995830078125,1.0007861328125005,1.0148610339203965,0.00439453125,0.3271484375,0.0966796875,45.89470588235295,212.54274558387957
-0.1324248046875,-0.0981181640625,0.9939501953125,1.007521956970306,0.005859375,0.337890625,0.10546875,45.94176470588236,212.54274558387957
-0.1343779296875,-0.0961650390625,0.9924853515625,1.0061472634714712,0.013671875,0.32373046875,0.10595703125,46.03588235294118,212.54274558387957
-0.1334013671875,-0.0951884765625,0.9963916015625,1.0097786859020483,0.00830078125,0.3056640625,0.11279296875,45.84764705882353,212.54274558387957
-0.1353544921875,-0.0942119140625,0.9963916015625,1.0099470020604744,0.0087890625,0.29248046875,0.09423828125,45.70647058823529,212.53033470354129
-0.1324248046875,-0.0942119140625,1.0002978515625005,1.0134140345823104,-0.009765625,0.2939453125,0.0810546875,45.61235294117647,212.53033470354129
-0.1309599609375,-0.0971416015625,1.0017626953125005,1.0149460576023952,-0.01220703125,0.2939453125,0.078125,45.89470588235295,212.53033470354129
-0.1290068359375,-0.1000712890625,1.0032275390625005,1.0164263484122378,-0.0146484375,0.33203125,0.08935546875,45.7535294117647,212.53033470354129
-0.1319365234375,-0.0947001953125,1.0022509765625005,1.0153237873848349,0.001953125,0.36279296875,0.1083984375,45.84764705882353,212.3401999272392
-0.1270537109375,-0.0986064453125,1.0002978515625005,1.0131444459506802,-0.00927734375,0.42578125,0.10693359375,45.84764705882353,212.3401999272392
-0.1285185546875,-0.1000712890625,0.9988330078125,1.01202700521743,0.0234375,0.4169921875,0.0771484375,45.61235294117647,212.3401999272392
-0.1304716796875,-0.0986064453125,0.9905322265625,1.0039423201143125,0.00146484375,0.41650390625,0.0791015625,45.89470588235295,212.3401999272392
-0.1363310546875,-0.0986064453125,0.9988330078125,1.0129051115603769,0.00537109375,0.36083984375,0.06201171875,45.89470588235295,212.3401999272392
-0.1334013671875,-0.0990947265625,0.9929736328125,1.006783156921511,0.009765625,0.3330078125,0.0537109375,45.84764705882353,212.65613036625837
-0.1290068359375,-0.0966533203125,0.9944384765625,1.0074187370274497,0.00634765625,0.2724609375,0.04150390625,46.03588235294118,212.65613036625837
-0.1334013671875,-0.0981181640625,0.9963916015625,1.010059068842399,0.0078125,0.26416015625,0.04541015625,46.03588235294118,212.65613036625837
-0.1309599609375,-0.1064189453125,1.0012744140625005,1.0153944827240198,0.0224609375,0.2646484375,0.052734375,45.7535294117647,212.65613036625837
-0.1294951171875,-0.0971416015625,0.9939501953125,1.0070464075162022,0.033203125,0.26904296875,0.0546875,45.89470588235295,212.62468115910636
-0.1343779296875,-0.0995830078125,1.0007861328125005,1.0146659977854202,0.0322265625,0.2734375,0.0595703125,45.7535294117647,212.62468115910636
-0.1343779296875,-0.1020244140625,1.0017626953125005,1.0158715011120554,0.03759765625,0.2880859375,0.05712890625,45.61235294117647,212.62468115910636
-0.1358427734375,-0.1000712890625,1.0017626953125005,1.0158720488868604,0.04345703125,0.2744140625,0.06787109375,45.89470588235295,212.62468115910636
-0.1348662109375,-0.0990947265625,1.0002978515625005,1.0142013860795542,0.04931640625,0.2958984375,0.087890625,45.7535294117647,212.62468115910636
-0.1387724609375,-0.1020244140625,0.9988330078125,1.013574937769878,0.06201171875,0.31494140625,0.08837890625,45.84764705882353,212.8915760815915
-0.1319365234375,-0.1005595703125,0.9954150390625,1.0091434850357046,0.0859375,0.35693359375,0.076171875,45.61235294117647,212.8915760815915
-0.1260771484375,-0.1054423828125,0.9968798828125,1.0103380841122307,0.0791015625,0.341796875,0.04248046875,45.94176470588236,212.8915760815915
-0.1299833984375,-0.0995830078125,0.9973681640625,1.0107203935806126,0.06298828125,0.318359375,0.041015625,45.7535294117647,212.8915760815915
-0.1304716796875,-0.0951884765625,0.9900439453125,1.0031304595717887,0.068359375,0.29248046875,0.05712890625,46.08294117647059,212.5508185738209
-0.1299833984375,-0.0990947265625,0.9973681640625,1.0106724016155089,0.06396484375,0.2880859375,0.05908203125,45.89470588235295,212.5508185738209
-0.1304716796875,-0.1015361328125,1.0002978515625005,1.0138679585170591,0.0654296875,0.2783203125,0.05908203125,45.89470588235295,212.5508185738209
-0.1358427734375,-0.1015361328125,0.9949267578125,1.0092780086641155,0.08349609375,0.28857421875,0.0771484375,45.7535294117647,212.5508185738209
-0.1392607421875,-0.1034892578125,0.9983447265625,1.0133093179539745,0.09814453125,0.2880859375,0.04345703125,46.08294117647059,212.5508185738209
-0.1338896484375,-0.1030009765625,1.0022509765625005,1.0163870616807515,0.10205078125,0.302734375,0.03076171875,45.84764705882353,212.6027517428913
-0.1373076171875,-0.0966533203125,0.9973681640625,1.0114042222329025,0.07958984375,0.29833984375,-0.001953125,45.89470588235295,212.6027517428913
-0.1353544921875,-0.1010478515625,0.9939501953125,1.0082006236967374,0.0615234375,0.294921875,-0.0087890625,45.84764705882353,212.6027517428913
-0.1324248046875,-0.1020244140625,0.9983447265625,1.0122437962351123,0.06103515625,0.29443359375,-0.00439453125,45.84764705882353,212.6027517428913
-0.1324248046875,-0.1025126953125,0.9915087890625,1.005552017741967,0.0693359375,0.2998046875,0.01123046875,45.84764705882353,212.65613036625837
-0.1294951171875,-0.1005595703125,0.9973681640625,1.010754405007587,0.0703125,0.314453125,0.05810546875,46.03588235294118,212.65613036625837
-0.1309599609375,-0.1010478515625,0.9895556640625,1.0032853990526942,0.080078125,0.32373046875,0.06982421875,45.70647058823529,212.65613036625837
-0.1324248046875,-0.1020244140625,0.9939501953125,1.007909867360706,0.095703125,0.32666015625,0.0810546875,45.7535294117647,212.65613036625837
-0.1353544921875,-0.0995830078125,0.9939501953125,1.008054861980278,0.08154296875,0.314453125,0.0673828125,45.7535294117647,212.65613036625837
-0.1402373046875,-0.0990947265625,0.9963916015625,1.0110798633751912,0.087890625,0.2646484375,0.05078125,45.7535294117647,212.5822674117765
-0.1392607421875,-0.0995830078125,0.9934619140625,1.0081056018356034,0.09228515625,0.216796875,0.0498046875,45.94176470588236,212.5822674117765
-0.1397490234375,-0.1000712890625,1.0042041015625005,1.0188080928424714,0.09814453125,0.2099609375,0.060546875,45.565294117647056,212.5822674117765
-0.1387724609375,-0.1000712890625,1.0051806640625005,1.019637301305915,0.08984375,0.19873046875,0.02978515625,45.94176470588236,212.5822674117765
-0.1353544921875,-0.1005595703125,0.9973681640625,1.0115217844526003,0.060546875,0.23876953125,0.02392578125,46.13,212.40020363898725
-0.1348662109375,-0.1044658203125,1.0085986328125005,1.022923850820503,0.08740234375,0.29150390625,0.02392578125,45.7535294117647,212.40020363898725
-0.1407255859375,-0.1039775390625,0.9998095703125,1.0150045300664488,0.09326171875,0.3173828125,0.0244140625,46.03588235294118,212.40020363898725
-0.1353544921875,-0.1020244140625,1.0017626953125005,1.016001140422538,0.07373046875,0.326171875,0.01513671875,45.94176470588236,212.40020363898725
-0.1417021484375,-0.1025126953125,0.9919970703125,1.007296648997017,0.08056640625,0.31005859375,0.00634765625,45.61235294117647,212.40020363898725
-0.1397490234375,-0.1025126953125,0.9949267578125,1.0099098453145516,0.09375,0.32763671875,0.03173828125,45.89470588235295,212.888688144982
-0.1407255859375,-0.1049541015625,0.9959033203125,1.0112578688849378,0.09033203125,0.29296875,0.0654296875,45.7535294117647,212.888688144982
-0.1343779296875,-0.1044658203125,0.9973681640625,1.0117874234670363,0.0927734375,0.3076171875,0.06298828125,45.61235294117647,212.888688144982
-0.1363310546875,-0.1020244140625,0.9983447265625,1.0127622280635054,0.07861328125,0.31982421875,0.07861328125,45.61235294117647,212.888688144982
-0.1334013671875,-0.1025126953125,1.0012744140625005,1.0153104105267172,0.0966796875,0.3134765625,0.07275390625,46.03588235294118,212.62468115910636
-0.1334013671875,-0.1015361328125,0.9983447265625,1.0123229248066867,0.0927734375,0.3212890625,0.08349609375,46.03588235294118,212.62468115910636
-0.1314482421875,-0.0981181640625,0.9968798828125,1.0102847693840795,0.060546875,0.31494140625,0.068359375,44.95352941176471,212.62468115910636
-0.1314482421875,-0.1000712890625,0.9998095703125,1.013366705668427,0.0634765625,0.31640625,0.05810546875,45.89470588235295,212.62468115910636
-0.1368193359375,-0.1000712890625,0.9959033203125,1.0102263196880543,0.05810546875,0.302734375,0.033203125,46.03588235294118,212.62468115910636
-0.1407255859375,-0.0981181640625,0.9944384765625,1.0091277165574208,0.04296875,0.27294921875,0.0166015625,45.565294117647056,212.9639972344518
-0.1407255859375,-0.0986064453125,1.0012744140625005,1.0159120896272584,0.03857421875,0.2255859375,0.0166015625,45.94176470588236,212.9639972344518
-0.1373076171875,-0.1020244140625,1.0037158203125005,1.0181884947042472,0.0322265625,0.2451171875,0.02978515625,45.94176470588236,212.9639972344518
-0.1353544921875,-0.1044658203125,1.0090869140625005,1.0234697583715306,0.03515625,0.28466796875,0.05859375,45.7535294117647,212.9639972344518
-0.1343779296875,-0.1020244140625,0.9944384765625,1.008649737381536,0.04150390625,0.34375,0.0712890625,46.03588235294118,212.69854445781996
-0.0103544921875,-0.1049541015625,0.9973681640625,1.0029286283822267,0.04345703125,0.39697265625,0.08740234375,45.89470588235295,212.69854445781996
-0.1373076171875,-0.1083720703125,0.9910205078125,1.006339671416402,0.0400390625,0.37255859375,0.072265625,45.89470588235295,212.69854445781996
-0.1387724609375,-0.1083720703125,0.9915087890625,1.0070213405517543,0.03857421875,0.3212890625,0.095703125,45.94176470588236,212.69854445781996
-0.1338896484375,-0.1030009765625,0.9973681640625,1.0115724856958834,0.04345703125,0.271484375,0.087890625,46.03588235294118,212.69854445781996
-0.1338896484375,-0.1054423828125,0.9959033203125,1.010380105436245,0.044921875,0.2373046875,0.0986328125,45.84764705882353,212.45358158197777
-0.1343779296875,-0.1044658203125,0.9998095703125,1.0141941197271498,0.0615234375,0.26953125,0.10400390625,46.08294117647059,212.45358158197777
-0.1329130859375,-0.1005595703125,0.9939501953125,1.0078269228179118,0.0673828125,0.275390625,0.0908203125,45.7535294117647,212.45358158197777
-0.1343779296875,-0.1000712890625,1.0027392578125005,1.0166404035056311,0.0361328125,0.30810546875,0.07763671875,46.03588235294118,212.45358158197777
-0.1417021484375,-0.1044658203125,0.9988330078125,1.0142287631403146,0.03857421875,0.3330078125,0.0458984375,45.89470588235295,212.7190293635152
-0.1387724609375,-0.1039775390625,0.9973681640625,1.012330173031282,0.04638671875,0.33203125,0.03857421875,45.61235294117647,212.7190293635152
-0.1358427734375,-0.1020244140625,0.9949267578125,1.00932724800794,0.02197265625,0.3173828125,0.05029296875,45.61235294117647,212.7190293635152
-0.1421904296875,-0.1034892578125,0.9915087890625,1.0069845200227674,0.03076171875,0.298828125,0.0625,45.89470588235295,212.7190293635152
-0.1407255859375,-0.1015361328125,0.9983447265625,1.0133141022699346,0.0380859375,0.27587890625,0.07666015625,45.89470588235295,212.7190293635152
-0.1368193359375,-0.1073955078125,0.9973681640625,1.012421147778969,0.03466796875,0.29443359375,0.10302734375,45.84764705882353,212.7204738797116
-0.1368193359375,-0.1010478515625,0.9973681640625,1.0117674899289746,0.04150390625,0.3056640625,0.10009765625,45.89470588235295,212.7204738797116
-0.1334013671875,-0.1025126953125,0.9963916015625,1.0104954236076538,0.04541015625,0.3251953125,0.08349609375,45.94176470588236,212.7204738797116
-0.1334013671875,-0.1054423828125,0.9949267578125,1.009352898778205,0.05224609375,0.32958984375,0.068359375,45.94176470588236,212.7204738797116
-0.1363310546875,-0.1088603515625,0.9939501953125,1.0091450457571869,0.03369140625,0.3515625,0.0888671875,45.84764705882353,212.6232363210996
-0.2579130859375,-0.1020244140625,0.9929736328125,1.0309824326454131,0.06298828125,0.32080078125,0.0625,45.7535294117647,212.6232363210996
-0.1377958984375,-0.1020244140625,0.9978564453125,1.012479222573329,0.0517578125,0.294921875,0.07421875,46.03588235294118,212.6232363210996
-0.1304716796875,-0.1005595703125,0.9954150390625,1.008953014948521,0.0595703125,0.2900390625,0.0595703125,45.7535294117647,212.6232363210996
-0.1373076171875,-0.1025126953125,0.9949267578125,1.0095749045262743,0.04443359375,0.2919921875,0.0595703125,45.94176470588236,212.6232363210996
-0.1353544921875,-0.1049541015625,0.9949267578125,1.009562011667149,0.03515625,0.30712890625,0.06640625,45.7535294117647,212.64661063093223
-0.1382841796875,-0.1039775390625,0.9978564453125,1.0127444536668848,0.0498046875,0.322265625,0.07177734375,45.89470588235295,212.64661063093223
-0.1353544921875,-0.1103251953125,0.9978564453125,1.0130202232570562,0.041015625,0.3076171875,0.0830078125,45.7535294117647,212.64661063093223
-0.1358427734375,-0.1073955078125,0.9910205078125,1.0060361330978338,0.04150390625,0.2783203125,0.0771484375,46.08294117647059,212.64661063093223
-0.1377958984375,-0.1049541015625,0.9993212890625,1.0142219243511383,0.0322265625,0.28173828125,0.09326171875,46.03588235294118,212.5112974260299
-0.1402373046875,-0.1030009765625,0.9929736328125,1.0081033370938204,0.03466796875,0.29541015625,0.0869140625,45.70647058823529,212.5112974260299
-0.1397490234375,-0.1059306640625,0.9924853515625,1.0078582579939486,0.05419921875,0.28955078125,0.10107421875,45.84764705882353,212.5112974260299
-0.1387724609375,-0.1044658203125,0.9983447265625,1.0133425366495608,0.0234375,0.287109375,0.08447265625,45.70647058823529,212.5112974260299
-0.1407255859375,-0.1049541015625,0.9939501953125,1.0093344563295168,0.0224609375,0.31591796875,0.1044921875,45.61235294117647,212.5112974260299
-0.1417021484375,-0.1059306640625,0.9968798828125,1.0124575572421737,0.041015625,0.32861328125,0.24755859375,45.84764705882353,212.93110326374423
-0.1397490234375,-0.1039775390625,0.9968798828125,1.0119835072457912,0.03125,0.35693359375,0.2490234375,45.89470588235295,212.93110326374423
-0.1377958984375,-0.1069072265625,0.9944384765625,1.0096161391268612,0.05810546875,0.35546875,0.13330078125,45.94176470588236,212.93110326374423
-0.1377958984375,-0.1098369140625,0.9959033203125,1.011372968160823,0.0361328125,0.32080078125,0.12548828125,45.61235294117647,212.93110326374423
-0.1412138671875,-0.1073955078125,0.9993212890625,1.014947382950412,0.04052734375,0.3115234375,0.11328125,46.17705882352941,212.794337841934
-0.1373076171875,-0.1108134765625,1.0017626953125005,1.017183123161873,0.04736328125,0.2783203125,0.11865234375,46.08294117647059,212.794337841934
-0.1343779296875,-0.1069072265625,0.9973681640625,1.0120424090737434,0.04541015625,0.2705078125,0.12548828125,45.89470588235295,212.794337841934
-0.0118193359375,-0.1073955078125,0.9978564453125,1.0036886854259175,0.05859375,0.32177734375,0.1181640625,45.7535294117647,212.794337841934
-0.1382841796875,-0.1108134765625,0.9919970703125,1.0077005152565397,0.05224609375,0.31494140625,0.1181640625,46.03588235294118,212.794337841934
-0.1407255859375,-0.1034892578125,0.9939501953125,1.0091831884161526,0.037109375,0.3154296875,0.06640625,46.03588235294118,212.76144380484757
-0.1460966796875,-0.1049541015625,0.9895556640625,1.005773342025269,0.02880859375,0.29150390625,0.03271484375,46.03588235294118,212.76144380484757
-0.1412138671875,-0.1064189453125,0.9954150390625,1.0109982434204683,0.033203125,0.26171875,0.04931640625,45.94176470588236,212.76144380484757
-0.1397490234375,-0.1030009765625,0.9900439453125,1.0051497422645563,0.044921875,0.23486328125,0.0693359375,45.70647058823529,212.76144380484757
-0.1334013671875,-0.1030009765625,0.9978564453125,1.011989432450765,0.05224609375,0.21875,0.11328125,45.89470588235295,212.66709507578256
-0.1290068359375,-0.1039775390625,0.9944384765625,1.008147794728553,0.04638671875,0.125,0.13916015625,45.70647058823529,212.66709507578256
-0.1334013671875,-0.1064189453125,1.0012744140625005,1.0157122471178155,0.0673828125,0.30517578125,0.16796875,46.13,212.66709507578256
-0.1353544921875,-0.1108134765625,0.9895556640625,1.0048984413468751,0.05810546875,0.32470703125,0.17724609375,45.70647058823529,212.66709507578256
-0.1417021484375,-0.1069072265625,0.9924853515625,1.008234014021164,0.06103515625,0.27783203125,0.19921875,46.03588235294118,212.66709507578256
-0.1407255859375,-0.1098369140625,0.9871142578125,1.0031263111916409,0.0791015625,0.2236328125,0.18408203125,45.84764705882353,212.6780597992132
-0.1397490234375,-0.1098369140625,0.9910205078125,1.0068344373070746,0.07568359375,0.17431640625,0.17626953125,45.89470588235295,212.6780597992132
-0.1368193359375,-0.1064189453125,0.9988330078125,1.0137612638602689,0.078125,0.15869140625,0.13330078125,45.7535294117647,212.6780597992132
-0.1382841796875,-0.1127666015625,0.9973681640625,1.013203866684885,0.0576171875,0.14111328125,0.140625,45.7535294117647,212.6780597992132
-0.1392607421875,-0.1069072265625,0.9983447265625,1.0136640974509514,0.05712890625,0.18212890625,0.11083984375,45.84764705882353,212.61371644404807
-0.1407255859375,-0.1059306640625,0.9968798828125,1.012321340722618,0.04150390625,0.2236328125,0.103515625,45.7535294117647,212.61371644404807
-0.1426787109375,-0.1103251953125,0.9963916015625,1.0125833728339666,0.06298828125,0.251953125,0.10595703125,45.70647058823529,212.61371644404807
-0.1417021484375,-0.1088603515625,1.0007861328125005,1.0166134755372436,0.06103515625,0.2900390625,0.10498046875,45.70647058823529,212.61371644404807
-0.1412138671875,-0.1054423828125,0.9876025390625,1.0032039810237614,0.0751953125,0.2978515625,0.09326171875,46.03588235294118,212.61371644404807
-0.1446318359375,-0.1093486328125,0.9929736328125,1.0093919590156584,0.044921875,0.2978515625,0.103515625,45.89470588235295,212.59178705564096
-0.1446318359375,-0.1142314453125,0.9949267578125,1.0118529757213386,0.03662109375,0.27197265625,0.12744140625,45.84764705882353,212.59178705564096
-0.1441435546875,-0.1098369140625,0.9959033203125,1.012257346457996,0.0634765625,0.126953125,0.1484375,45.84764705882353,212.59178705564096
-0.1421904296875,-0.1093486328125,0.9939501953125,1.0100060557018635,0.052734375,0.2294921875,0.1611328125,45.89470588235295,212.59178705564096
-0.1417021484375,-0.1059306640625,0.9959033203125,1.011496034530036,0.05419921875,0.25341796875,0.17431640625,45.565294117647056,212.91061745594703
-0.1387724609375,-0.1039775390625,0.9983447265625,1.013292315967755,0.06689453125,0.263671875,0.18408203125,45.84764705882353,212.91061745594703
-0.1377958984375,-0.1083720703125,0.9968798828125,1.0121767217271296,0.05712890625,0.2939453125,0.16796875,45.61235294117647,212.91061745594703
-0.1348662109375,-0.1049541015625,0.9993212890625,1.013828041169195,0.06396484375,0.29736328125,0.150390625,46.03588235294118,212.91061745594703
-0.1392607421875,-0.1064189453125,0.9890673828125,1.0044763979206317,0.05078125,0.28955078125,0.14794921875,45.89470588235295,212.91061745594703
-0.1392607421875,-0.1073955078125,0.9866259765625,1.0021767144774545,0.0322265625,0.23583984375,0.1298828125,45.70647058823529,212.7190293635152
-0.1451201171875,-0.1059306640625,0.9963916015625,1.0124610499498337,0.00390625,0.18212890625,0.11328125,45.61235294117647,212.7190293635152
-0.1456083984375,-0.1088603515625,0.9856494140625,1.0022759845868774,0.02392578125,0.19140625,0.12060546875,45.94176470588236,212.7190293635152
-0.1436552734375,-0.1069072265625,1.0007861328125005,1.016680321589578,0.03564453125,0.23876953125,0.15478515625,45.7535294117647,212.7190293635152
-0.1480498046875,-0.1059306640625,0.9973681640625,1.0138457993906822,0.04296875,0.3037109375,0.16357421875,45.84764705882353,212.81337931681225
-0.1465849609375,-0.1093486328125,0.9993212890625,1.01591698137424,0.04248046875,0.33251953125,0.17724609375,45.89470588235295,212.81337931681225
-0.1539091796875,-0.1113017578125,0.9939501953125,1.0119353277981695,0.029296875,0.28466796875,0.20166015625,46.08294117647059,212.81337931681225
-0.1504912109375,-0.1083720703125,0.9895556640625,1.006783254961776,0.03857421875,0.23583984375,0.203125,45.7535294117647,212.81337931681225
-0.1431669921875,-0.1044658203125,0.9983447265625,1.0139536914084055,0.03173828125,0.21875,0.1533203125,45.7535294117647,212.81337931681225
-0.1392607421875,-0.1039775390625,0.9910205078125,1.006144388171525,0.029296875,0.22119140625,0.1162109375,45.7535294117647,212.72999403417327
-0.1402373046875,-0.1073955078125,0.9949267578125,1.0104848094531718,0.03662109375,0.25390625,0.11181640625,45.28294117647059,212.72999403417327
-0.1363310546875,-0.1069072265625,0.9998095703125,1.0147090659159197,0.01123046875,0.26416015625,0.126953125,45.89470588235295,212.72999403417327
-0.1373076171875,-0.1049541015625,1.0007861328125005,1.015599147696718,0.01708984375,0.22607421875,0.14013671875,45.7535294117647,212.72999403417327
-0.1421904296875,-0.1030009765625,0.9963916015625,1.011742824601108,0.0244140625,0.2294921875,0.10205078125,45.70647058823529,212.80385841553613
-0.1402373046875,-0.1044658203125,0.9929736328125,1.0082540576166463,0.02001953125,0.18798828125,0.1220703125,45.89470588235295,212.80385841553613
-0.1451201171875,-0.1044658203125,0.9876025390625,1.0036591708288098,0.0361328125,0.1435546875,0.11181640625,45.84764705882353,212.80385841553613
-0.1392607421875,-0.1054423828125,0.9963916015625,1.0115868099535872,0.03955078125,0.130859375,0.13427734375,45.89470588235295,212.80385841553613
-0.1382841796875,-0.1059306640625,0.9973681640625,1.0124658387451742,0.03466796875,0.140625,0.134765625,45.89470588235295,212.80385841553613
-0.1319365234375,-0.1083720703125,0.9949267578125,1.0094706559637503,0.0458984375,0.16943359375,0.134765625,45.94176470588236,212.80385841553613
-0.1377958984375,-0.1073955078125,0.9993212890625,1.0144774731348347,0.0546875,0.2041015625,0.15771484375,45.84764705882353,212.80385841553613
-0.1412138671875,-0.1083720703125,1.0007861328125005,1.0164933573514712,0.06396484375,0.2265625,0.15771484375,45.94176470588236,212.80385841553613
-0.1397490234375,-0.1054423828125,0.9915087890625,1.006845352789145,0.06982421875,0.2109375,0.18310546875,45.94176470588236,212.80385841553613
-0.1412138671875,-0.1049541015625,0.9944384765625,1.009883460300636,0.06982421875,0.216796875,0.16650390625,45.89470588235295,213.10076543243449
-0.1402373046875,-0.1054423828125,0.9963916015625,1.0117217114322872,0.06591796875,0.20458984375,0.162109375,45.89470588235295,213.10076543243449
-0.1373076171875,-0.1034892578125,0.9949267578125,1.009674532525994,0.064453125,0.205078125,0.1171875,45.94176470588236,213.10076543243449
-0.1387724609375,-0.1059306640625,0.9910205078125,1.0062806509161932,0.0517578125,0.169921875,0.1064453125,46.03588235294118,213.10076543243449
-0.1387724609375,-0.1064189453125,0.9978564453125,1.0130647922456752,0.05126953125,0.1904296875,0.10009765625,45.70647058823529,213.10076543243449
-0.1387724609375,-0.1088603515625,0.9954150390625,1.01092011160564,0.06396484375,0.17041015625,0.1044921875,46.03588235294118,212.82434392915877
-0.1402373046875,-0.1093486328125,0.9959033203125,1.0116555977868356,0.04833984375,0.19384765625,0.09814453125,45.70647058823529,212.82434392915877
-0.1373076171875,-0.1054423828125,0.9939501953125,1.008914500139949,0.04541015625,0.17529296875,0.10595703125,45.7535294117647,212.82434392915877
-0.1348662109375,-0.1054423828125,0.9963916015625,1.010991204022122,0.05224609375,0.1943359375,0.111328125,45.84764705882353,212.82434392915877
-0.1382841796875,-0.1064189453125,0.9983447265625,1.013479007838062,0.056640625,0.1796875,0.1171875,46.03588235294118,212.89965279351375
-0.1358427734375,-0.1088603515625,0.9973681640625,1.0124460923540104,0.05322265625,0.20166015625,0.107421875,45.89470588235295,212.89965279351375
-0.1377958984375,-0.1005595703125,0.9963916015625,1.0108887972828249,0.064453125,0.1796875,0.09912109375,45.84764705882353,212.89965279351375
-0.1343779296875,-0.1059306640625,1.0017626953125005,1.0162712390378792,0.0654296875,0.19140625,0.08935546875,45.7535294117647,212.89965279351375
-0.1387724609375,-0.1049541015625,0.9963916015625,1.0114689234048295,0.06689453125,0.20458984375,0.09619140625,46.03588235294118,212.89965279351375
-0.1334013671875,-0.1069072265625,0.9968798828125,1.0114319456172245,0.08984375,0.21044921875,0.0712890625,45.89470588235295,212.80385841553613
-0.1338896484375,-0.1137431640625,0.9963916015625,1.0117609248206565,0.07275390625,0.20166015625,0.06591796875,45.7535294117647,212.80385841553613
-0.1377958984375,-0.1108134765625,0.9954150390625,1.0109987320495828,0.0537109375,0.19287109375,0.06298828125,46.08294117647059,212.80385841553613
-0.1387724609375,-0.1044658203125,0.9968798828125,1.011899404231704,0.060546875,0.2177734375,0.07666015625,45.84764705882353,212.80385841553613
-0.1319365234375,-0.1059306640625,0.9910205078125,1.0053607306387304,0.05810546875,0.197265625,0.1025390625,46.03588235294118,212.92013863464803
-0.1353544921875,-0.1098369140625,0.9954150390625,1.0105622624251844,0.05908203125,0.177734375,0.00146484375,45.84764705882353,212.92013863464803
-0.1363310546875,-0.1049541015625,0.9973681640625,1.0120991920718043,0.07373046875,0.18115234375,0.1005859375,45.89470588235295,212.92013863464803
-0.1446318359375,-0.1078837890625,1.0037158203125005,1.0198052401584967,0.0830078125,0.203125,0.087890625,45.7535294117647,212.92013863464803
-0.1417021484375,-0.1054423828125,1.0022509765625005,1.0176957379224236,0.06884765625,0.1904296875,0.08447265625,46.03588235294118,212.92013863464803
-0.1417021484375,-0.1020244140625,1.0056689453125005,1.0207147042648874,0.06689453125,0.2216796875,0.06689453125,45.70647058823529,212.68613543496477
-0.1392607421875,-0.1054423828125,0.9978564453125,1.0130296816280804,0.078125,0.25830078125,0.0517578125,46.03588235294118,212.68613543496477
-0.2593779296875,-0.1044658203125,0.9968798828125,1.0353547791838318,0.064453125,0.28369140625,0.0830078125,45.84764705882353,212.68613543496477
-0.1294951171875,-0.1073955078125,0.9978564453125,1.0119388647173344,0.068359375,0.2861328125,0.12060546875,46.03588235294118,212.68613543496477
-0.1319365234375,-0.1030009765625,0.9910205078125,1.0050562642432257,0.06982421875,0.3330078125,0.13232421875,45.70647058823529,212.5588930773088
-0.1304716796875,-0.1069072265625,0.9890673828125,1.0033475479789304,0.08349609375,0.37744140625,0.154296875,45.7535294117647,212.5588930773088
-0.1363310546875,-0.1073955078125,0.9929736328125,1.008026084499486,0.1064453125,0.373046875,0.15185546875,45.7535294117647,212.5588930773088
-0.1392607421875,-0.1025126953125,0.9900439453125,1.0050320495709515,0.11474609375,0.31494140625,0.154296875,45.84764705882353,212.5588930773088
-0.1392607421875,-0.1025126953125,0.9959033203125,1.0108045461038988,0.1142578125,0.275390625,0.1533203125,45.7535294117647,212.5588930773088
-0.1382841796875,-0.0990947265625,0.9983447265625,1.0127361315957353,0.10205078125,0.20751953125,0.13134765625,45.94176470588236,212.66709507578256
-0.1377958984375,-0.1020244140625,0.9968798828125,1.0115167776400242,0.0810546875,0.21044921875,0.08740234375,45.7535294117647,212.66709507578256
-0.1407255859375,-0.1064189453125,1.0007861328125005,1.0162192509929524,0.08349609375,0.22802734375,0.08203125,45.89470588235295,212.66709507578256
-0.1353544921875,-0.1039775390625,1.0002978515625005,1.014755122689895,0.08251953125,0.2607421875,0.1103515625,45.94176470588236,212.66709507578256
-0.1402373046875,-0.1069072265625,1.0061572265625005,1.0214930353562095,0.07177734375,0.28076171875,0.1162109375,45.89470588235295,212.61227166718132
-0.1421904296875,-0.1020244140625,1.0032275390625005,1.018377432238614,0.068359375,0.3115234375,0.13720703125,45.94176470588236,212.61227166718132
-0.1426787109375,-0.1069072265625,1.0002978515625005,1.0160620854488305,0.06396484375,0.31591796875,0.14013671875,45.89470588235295,212.61227166718132
-0.1441435546875,-0.1083720703125,1.0017626953125005,1.0178655941240626,0.07080078125,0.33251953125,0.109375,45.94176470588236,212.61227166718132
-0.1451201171875,-0.1044658203125,0.9978564453125,1.013750680136776,0.0654296875,0.341796875,0.12744140625,45.94176470588236,212.61227166718132
-0.1421904296875,-0.1078837890625,0.9885791015625,1.0045624272703602,0.0439453125,0.333984375,0.12890625,45.61235294117647,212.67372698436824
-0.1421904296875,-0.1083720703125,1.0085986328125005,1.0243211537549042,0.06884765625,0.34375,0.1328125,45.84764705882353,212.67372698436824
-0.1373076171875,-0.1025126953125,0.9954150390625,1.0100561045950571,0.0703125,0.34130859375,0.1337890625,45.18882352941176,212.67372698436824
-0.1348662109375,-0.1059306640625,0.9978564453125,1.0124858941699182,0.06201171875,0.375,0.1484375,46.03588235294118,212.67372698436824
-0.1348662109375,-0.1000712890625,0.9963916015625,1.010445140228579,0.07421875,0.38916015625,0.154296875,46.03588235294118,213.02545584042016
-0.1353544921875,-0.1039775390625,0.9939501953125,1.0084984670025965,0.07763671875,0.42431640625,0.12646484375,45.61235294117647,213.02545584042016
-0.1319365234375,-0.1044658203125,0.9968798828125,1.010984596611937,0.06787109375,0.41796875,0.13037109375,45.94176470588236,213.02545584042016
-0.1373076171875,-0.1044658203125,0.9880908203125,1.0030403573820457,0.03515625,0.35693359375,0.1318359375,45.94176470588236,213.02545584042016
-0.1387724609375,-0.1030009765625,0.9876025390625,1.0026094814284252,0.06591796875,0.3076171875,0.1240234375,45.94176470588236,213.02545584042016
-0.1412138671875,-0.1039775390625,0.9968798828125,1.0121868333819632,0.044921875,0.26904296875,0.1328125,45.84764705882353,212.5684131905726
-0.1451201171875,-0.1015361328125,0.9998095703125,1.0153760936556944,0.02587890625,0.26220703125,0.13720703125,45.84764705882353,212.5684131905726
-0.1456083984375,-0.1049541015625,1.0012744140625005,1.017235283199776,0.02783203125,0.31982421875,0.16455078125,45.89470588235295,212.5684131905726
-0.1431669921875,-0.1098369140625,0.9998095703125,1.015962652970696,0.03369140625,0.3623046875,0.1650390625,45.7535294117647,212.5684131905726
-0.1436552734375,-0.1073955078125,0.9944384765625,1.0104842979248383,0.01953125,0.39794921875,0.1689453125,45.84764705882353,212.71758528338117
-0.1470732421875,-0.1049541015625,0.9929736328125,1.0092782259928073,0.0322265625,0.39501953125,0.15234375,45.7535294117647,212.71758528338117
-0.1534208984375,-0.1064189453125,0.9880908203125,1.0055776614387493,0.02685546875,0.36376953125,0.15966796875,45.61235294117647,212.71758528338117
-0.1470732421875,-0.1049541015625,0.9910205078125,1.0073567138344193,0.0244140625,0.376953125,0.15576171875,46.03588235294118,212.71758528338117
-0.1446318359375,-0.1069072265625,0.9924853515625,1.008649937353925,0.03857421875,0.37744140625,0.14990234375,45.84764705882353,212.71758528338117
-0.1436552734375,-0.1064189453125,0.9959033203125,1.0118227378930016,0.04736328125,0.3564453125,0.17529296875,45.94176470588236,213.04738502371376
-0.1426787109375,-0.1069072265625,0.9919970703125,1.007891143504424,0.0283203125,0.35986328125,0.1669921875,45.7535294117647,213.04738502371376
-0.1431669921875,-0.1044658203125,0.9988330078125,1.014434459569146,0.04296875,0.37060546875,0.15234375,45.7535294117647,213.04738502371376
-0.1465849609375,-0.1030009765625,0.9944384765625,1.0104475422375092,0.0205078125,0.3857421875,0.14697265625,45.7535294117647,213.04738502371376
-0.1480498046875,-0.1025126953125,0.9968798828125,1.0130138686733288,0.01953125,0.35986328125,0.1259765625,45.89470588235295,212.7599999161911
-0.1470732421875,-0.1044658203125,0.9890673828125,1.0053844706999782,0.00390625,0.35888671875,0.1376953125,45.7535294117647,212.7599999161911
-0.1456083984375,-0.1030009765625,0.9944384765625,1.010306334997613,-0.00830078125,0.34228515625,0.138671875,45.89470588235295,212.7599999161911
-0.1485380859375,-0.1005595703125,0.9993212890625,1.0152924844245363,0.0107421875,0.3466796875,0.13134765625,45.7535294117647,212.7599999161911
-0.1460966796875,-0.0971416015625,0.9934619140625,1.008834627311417,-0.00146484375,0.34619140625,0.1279296875,45.94176470588236,212.7599999161911
-0.1456083984375,-0.1005595703125,0.9929736328125,1.0086181975047952,-0.0126953125,0.3525390625,0.14404296875,45.84764705882353,212.7271061876776
-0.1504912109375,-0.1015361328125,0.9934619140625,1.0099127514437467,-0.001953125,0.3525390625,0.14111328125,45.89470588235295,212.7271061876776
-0.1451201171875,-0.1005595703125,0.9939501953125,1.009509319598242,0.0068359375,0.33203125,0.142578125,46.03588235294118,212.7271061876776
-0.1456083984375,-0.1064189453125,0.9905322265625,1.0068172075783282,0.005859375,0.32080078125,0.13330078125,45.61235294117647,212.7271061876776
-0.1426787109375,-0.1025126953125,0.9880908203125,1.0035883301637427,-0.005859375,0.29052734375,0.09814453125,45.61235294117647,212.8338651108752
-0.1436552734375,-0.1083720703125,0.9890673828125,1.0053037505917248,-0.02197265625,0.28955078125,0.08349609375,45.7535294117647,212.8338651108752
-0.1504912109375,-0.1030009765625,0.9895556640625,1.0062192693545673,-0.00439453125,0.28076171875,0.06103515625,45.94176470588236,212.8338651108752
-0.1495146484375,-0.1088603515625,0.9919970703125,1.009090379375546,-0.02392578125,0.2626953125,0.01953125,45.7535294117647,212.8338651108752
-0.1500029296875,-0.1049541015625,0.9934619140625,1.0101894956107744,-0.03173828125,0.23681640625,-0.02783203125,45.89470588235295,212.8338651108752
-0.1431669921875,-0.1078837890625,0.9954150390625,1.0114280990689828,-0.0341796875,0.21044921875,-0.060546875,45.94176470588236,213.0993230756877
-0.1412138671875,-0.1098369140625,0.9983447265625,1.0142473549543891,-0.02783203125,0.193359375,-0.06494140625,45.565294117647056,213.0993230756877
-0.1421904296875,-0.1132548828125,1.0022509765625005,1.0186028700117011,-0.03466796875,0.2099609375,-0.08251953125,45.7535294117647,213.0993230756877
-0.1387724609375,-0.1137431640625,0.9968798828125,1.012899207247129,-0.05029296875,0.283203125,-0.07470703125,45.7535294117647,213.0993230756877
-0.1353544921875,-0.1103251953125,0.9939501953125,1.0091726700807124,-0.01513671875,0.2861328125,-0.06689453125,45.84764705882353,212.95303256364616
-0.1387724609375,-0.1117900390625,0.9934619140625,1.009317285813025,-0.03955078125,0.27783203125,-0.06591796875,46.08294117647059,212.95303256364616
-0.1417021484375,-0.1166728515625,0.9910205078125,1.0078758356407171,-0.0322265625,0.12548828125,-0.07861328125,45.84764705882353,212.95303256364616
-0.1397490234375,-0.1171611328125,0.9924853515625,1.0091004378454025,-0.01123046875,0.212890625,-0.08935546875,45.84764705882353,212.95303256364616
-0.1465849609375,-0.1200908203125,0.9885791015625,1.006577168399173,-0.025390625,0.16064453125,-0.12060546875,45.84764705882353,212.95303256364616
-0.1504912109375,-0.1152080078125,0.9910205078125,1.0089807414111065,-0.01806640625,0.15478515625,-0.1181640625,46.03588235294118,212.7080647067636
-0.1529326171875,-0.1083720703125,0.9968798828125,1.014348259612989,-0.0322265625,0.17431640625,-0.14013671875,45.7535294117647,212.7080647067636
-0.1509794921875,-0.1147197265625,0.9998095703125,1.0176318585874933,-0.0419921875,0.17919921875,-0.1220703125,45.7535294117647,212.7080647067636
-0.1509794921875,-0.1186259765625,0.9998095703125,1.0180796168596384,-0.0302734375,0.19580078125,-0.10107421875,45.7535294117647,212.7080647067636
-0.1514677734375,-0.1186259765625,1.0017626953125005,1.0200701477963592,-0.01025390625,0.2333984375,-0.107421875,46.03588235294118,212.93110326374423
-0.1514677734375,-0.1191142578125,0.9963916015625,1.0148531501988949,-0.01416015625,0.232421875,-0.08740234375,46.03588235294118,212.93110326374423
-0.1558623046875,-0.1176494140625,1.0027392578125005,1.0215774379899512,0.00244140625,0.23291015625,-0.1005859375,45.61235294117647,212.93110326374423
-0.1548857421875,-0.1161845703125,1.0037158203125005,1.0222200817129687,0.0087890625,0.125,-0.0849609375,46.03588235294118,212.93110326374423
-0.1504912109375,-0.1078837890625,1.0046923828125005,1.0216130875206018,0.0185546875,0.23974609375,-0.05126953125,46.08294117647059,212.93110326374423
-0.1441435546875,-0.1088603515625,1.0115283203125005,1.0275297967915518,0.00732421875,0.2294921875,0.01171875,45.70647058823529,212.5464840356871
-0.1353544921875,-0.1098369140625,1.0168994140625005,1.0317312656727842,0.04443359375,0.22802734375,0.10107421875,45.7535294117647,212.5464840356871
-0.1251005859375,-0.1117900390625,1.0203173828125005,1.0340187286044926,0.0634765625,0.29345703125,0.16552734375,45.7535294117647,212.5464840356871
-0.1226591796875,-0.1142314453125,1.0217822265625005,1.0354385621459217,0.0556640625,0.41015625,0.2236328125,46.03588235294118,212.5464840356871
-0.1314482421875,-0.1127666015625,1.0217822265625005,1.0363560514230423,0.06005859375,0.4892578125,0.2685546875,45.94176470588236,212.3453804397005
-0.1485380859375,-0.1176494140625,1.0198291015625005,1.0372831551688295,0.06591796875,0.57568359375,0.29638671875,45.89470588235295,212.3453804397005
-0.1695341796875,-0.1122783203125,1.0217822265625005,1.041819167520703,0.0576171875,0.7099609375,0.29931640625,45.61235294117647,212.3453804397005
-0.1846708984375,-0.1166728515625,1.0168994140625005,1.040096300032884,0.0771484375,0.82373046875,0.287109375,46.03588235294118,212.3453804397005
-0.1812529296875,-0.1196025390625,1.0051806640625005,1.0283703414994172,0.0625,0.88427734375,0.25390625,45.70647058823529,212.3453804397005
-0.1695341796875,-0.1156962890625,1.0012744140625005,1.0220948691982317,0.03564453125,0.93603515625,0.21435546875,45.84764705882353,212.5588930773088
-0.1563505859375,-0.1181376953125,0.9817431640625,1.0011102141923225,0.02099609375,0.97802734375,0.16357421875,45.89470588235295,212.5588930773088
-0.1421904296875,-0.1220439453125,0.9714892578125,0.989395886855832,0.03076171875,0.95751953125,0.1083984375,45.7535294117647,212.5588930773088
-0.1363310546875,-0.1181376953125,0.9578173828125,0.9746572784028972,0.0068359375,0.8662109375,0.07568359375,45.94176470588236,212.5588930773088
-0.1382841796875,-0.1156962890625,0.9456103515625,0.9626458760296194,0.02197265625,0.7099609375,-0.001953125,45.94176470588236,212.9515893186399
-0.1392607421875,-0.1235087890625,0.9446337890625,0.9627985099328282,0.0068359375,0.52490234375,-0.0908203125,45.70647058823529,212.9515893186399
-0.1504912109375,-0.1259501953125,0.9485400390625,0.9686275145655224,0.02587890625,0.318359375,-0.193359375,45.89470588235295,212.9515893186399
-0.1607451171875,-0.1342509765625,0.9602587890625,0.9828322641119324,0.07421875,0.1220703125,-0.19091796875,46.03588235294118,212.9515893186399
-0.1519560546875,-0.1352275390625,0.9705126953125,0.9916007370105288,0.09521484375,-0.0322265625,-0.15576171875,45.7535294117647,212.9515893186399
-0.1519560546875,-0.1308330078125,0.9783251953125,0.9986631595651748,0.09814453125,-0.13427734375,-0.09521484375,46.08294117647059,212.9706331254919
-0.1534208984375,-0.1244853515625,0.9861376953125,1.005734621531574,0.1025390625,-0.11572265625,-0.0751953125,45.89470588235295,212.9706331254919
-0.1495146484375,-0.1225322265625,0.9885791015625,1.0073020483895945,0.11083984375,-0.0302734375,-0.0517578125,45.70647058823529,212.9706331254919
-0.1500029296875,-0.1269267578125,0.9919970703125,1.0112712140035478,0.12353515625,0.06640625,-0.0615234375,45.94176470588236,212.9706331254919
-0.1490263671875,-0.1244853515625,0.9861376953125,1.0050736365993251,0.10400390625,0.1171875,-0.1171875,45.84764705882353,212.81193599456063
-0.1451201171875,-0.1215556640625,0.9876025390625,1.005581624255777,0.12646484375,0.162109375,-0.17333984375,45.89470588235295,212.81193599456063
-0.1500029296875,-0.1269267578125,0.9905322265625,1.0098343292949048,0.11376953125,0.1025390625,-0.19140625,45.89470588235295,212.81193599456063
-0.1514677734375,-0.1283916015625,0.9827197265625,1.0025791493527942,0.10302734375,0.04931640625,-0.201171875,45.84764705882353,212.81193599456063
-0.1485380859375,-0.1259501953125,0.9880908203125,1.0071000366691794,0.07421875,-0.033203125,-0.224609375,45.70647058823529,212.81193599456063
-0.1587919921875,-0.1230205078125,0.9895556640625,1.0097372699883351,0.09033203125,-0.10107421875,-0.22802734375,45.7535294117647,212.87339505938664
-0.1622099609375,-0.1279033203125,0.9924853515625,1.013754656630709,0.099609375,-0.1162109375,-0.23681640625,45.89470588235295,212.87339505938664
-0.1636748046875,-0.1205791015625,1.0061572265625005,1.0264897106094408,0.09228515625,-0.1376953125,-0.177734375,45.84764705882353,212.87339505938664
-0.1617216796875,-0.1220439453125,1.0066455078125005,1.026831926201885,0.1162109375,-0.064453125,-0.11083984375,46.08294117647059,212.87339505938664
-0.1612333984375,-0.1176494140625,1.0110400390625005,1.0305530330790635,0.13720703125,0.005859375,-0.01318359375,46.03588235294118,213.034977999162
-0.1587919921875,-0.1191142578125,1.0076220703125005,1.0269884808399494,0.173828125,0.12939453125,0.03173828125,45.84764705882353,213.034977999162
-0.1597685546875,-0.1161845703125,1.0017626953125005,1.021055014759439,0.2109375,0.24169921875,0.06201171875,45.94176470588236,213.034977999162
-0.1592802734375,-0.1127666015625,1.0056689453125005,1.0244298607031312,0.18017578125,0.31298828125,0.06396484375,45.84764705882353,213.034977999162
-0.1568388671875,-0.1152080078125,1.0056689453125005,1.0243248229398427,0.1708984375,0.36572265625,0.06689453125,45.94176470588236,213.034977999162
-0.1543974609375,-0.1127666015625,0.9983447265625,1.0164876169570662,0.1845703125,0.40966796875,0.0693359375,45.7535294117647,212.472620831544
-0.1553740234375,-0.1147197265625,1.0002978515625005,1.0187725431431127,0.1669921875,0.408203125,0.09521484375,45.7535294117647,212.472620831544
-0.1553740234375,-0.1215556640625,0.9954150390625,1.0147748354273625,0.16162109375,0.400390625,0.08935546875,46.08294117647059,212.472620831544
-0.1548857421875,-0.1171611328125,0.9924853515625,1.011307815277337,0.154296875,0.38818359375,0.10302734375,45.7535294117647,212.472620831544
-0.1539091796875,-0.1205791015625,0.9915087890625,1.01060231254133,0.15869140625,0.36962890625,0.10107421875,46.08294117647059,212.81337931681225
-0.1543974609375,-0.1210673828125,1.0032275390625005,1.0222335262837037,0.15380859375,0.35107421875,0.11328125,46.03588235294118,212.81337931681225
-0.1519560546875,-0.1156962890625,0.9910205078125,1.0092561224802996,0.14501953125,0.38720703125,0.10400390625,46.03588235294118,212.81337931681225
-0.1465849609375,-0.1156962890625,0.9885791015625,1.0060623351075229,0.12158203125,0.38623046875,0.0849609375,45.61235294117647,212.81337931681225
-0.1504912109375,-0.1156962890625,0.9915087890625,1.0095161785035711,0.14208984375,0.3955078125,0.0908203125,45.84764705882353,212.81337931681225
-0.1509794921875,-0.1147197265625,0.9978564453125,1.0157130048273817,0.138671875,0.365234375,0.09716796875,45.7535294117647,212.8229005457672
-0.1534208984375,-0.1137431640625,0.9900439453125,1.0082968278727544,0.123046875,0.3486328125,0.11474609375,45.7535294117647,212.8229005457672
-0.1529326171875,-0.1117900390625,0.9983447265625,1.0161582511048988,0.15478515625,0.3564453125,0.13037109375,45.89470588235295,212.8229005457672
-0.1534208984375,-0.1098369140625,0.9924853515625,1.0102619921754366,0.1201171875,0.30615234375,0.13623046875,45.7535294117647,212.8229005457672
-0.1485380859375,-0.1127666015625,0.9949267578125,1.012254475323881,0.13232421875,0.265625,0.15087890625,45.61235294117647,212.7080647067636
-0.1465849609375,-0.1122783203125,0.9919970703125,1.009035063560146,0.11669921875,0.25390625,0.150390625,45.7535294117647,212.7080647067636
-0.1456083984375,-0.1142314453125,1.0037158203125005,1.0206351339922175,0.10498046875,0.2646484375,0.15478515625,46.08294117647059,212.7080647067636
-0.1470732421875,-0.1103251953125,0.9988330078125,1.015612901052389,0.1064453125,0.2744140625,0.17333984375,45.84764705882353,212.7080647067636
-0.1500029296875,-0.1103251953125,0.9915087890625,1.0088420126183086,0.1181640625,0.3505859375,0.19873046875,46.03588235294118,212.7080647067636
-0.1500029296875,-0.1117900390625,0.9919970703125,1.0094830752702155,0.09814453125,0.38525390625,0.1767578125,45.84764705882353,212.75855646360196
-0.1539091796875,-0.1127666015625,0.9924853515625,1.0106589509256692,0.08837890625,0.3984375,0.18310546875,45.70647058823529,212.75855646360196
-0.1519560546875,-0.1098369140625,0.9934619140625,1.0110001804844992,0.10205078125,0.41259765625,0.19091796875,45.84764705882353,212.75855646360196
-0.1529326171875,-0.1073955078125,0.9924853515625,1.0099254198029983,0.10498046875,0.3857421875,0.18798828125,46.08294117647059,212.75855646360196
-0.1568388671875,-0.1093486328125,0.9963916015625,1.014569749905301,0.11181640625,0.36865234375,0.1943359375,45.7535294117647,212.8967664788884
-0.1587919921875,-0.1088603515625,0.9934619140625,1.0119446860465806,0.10546875,0.341796875,0.16845703125,45.89470588235295,212.8967664788884
-0.1573271484375,-0.1083720703125,0.9968798828125,1.015020117049685,0.08056640625,0.3427734375,0.16064453125,45.70647058823529,212.8967664788884
-0.1558623046875,-0.1088603515625,1.0007861328125005,1.0186837182337851,0.06640625,0.353515625,0.1572265625,45.61235294117647,212.8967664788884
-0.1514677734375,-0.1147197265625,0.9988330078125,1.0167450415657084,0.05712890625,0.38720703125,0.18115234375,45.70647058823529,212.8967664788884
-0.1539091796875,-0.1152080078125,0.9929736328125,1.0114136424416362,0.0712890625,0.40625,0.16455078125,45.89470588235295,212.81193599456063
-0.1578154296875,-0.1117900390625,0.9934619140625,1.0121113068105565,0.07421875,0.39013671875,0.181640625,46.03588235294118,212.81193599456063
-0.1646513671875,-0.1098369140625,0.9924853515625,1.0120283560620351,0.06005859375,0.3994140625,0.1767578125,45.84764705882353,212.81193599456063
-0.1597685546875,-0.1093486328125,0.9944384765625,1.0131095687204033,0.06298828125,0.380859375,0.1611328125,45.565294117647056,212.81193599456063
-0.1597685546875,-0.1088603515625,0.9910205078125,1.0097020422452303,0.05517578125,0.3515625,0.171875,45.89470588235295,212.82434392915877
-0.1558623046875,-0.1113017578125,0.9885791015625,1.0069606642569369,0.03271484375,0.34521484375,0.1552734375,45.89470588235295,212.82434392915877
-0.1480498046875,-0.1059306640625,0.9866259765625,1.003280054563349,0.046875,0.36669921875,0.17626953125,46.224117647058826,212.82434392915877
-0.1441435546875,-0.1108134765625,0.9866259765625,1.0032386598281204,0.03662109375,0.3916015625,0.197265625,45.94176470588236,212.82434392915877
-0.1460966796875,-0.1078837890625,0.9832080078125,0.9998405564812918,0.05126953125,0.3701171875,0.21630859375,46.03588235294118,212.82434392915877
-0.1470732421875,-0.1142314453125,0.9900439453125,1.007405764980361,0.06005859375,0.359375,0.23779296875,46.03588235294118,212.81337931681225
-0.1607451171875,-0.1103251953125,0.9876025390625,1.0066625137468177,0.04443359375,0.322265625,0.2265625,45.7535294117647,212.81337931681225
-0.1578154296875,-0.1108134765625,0.9900439453125,1.0086487743933756,0.0595703125,0.31640625,0.20703125,46.03588235294118,212.81337931681225
-0.1651396484375,-0.1059306640625,0.9934619140625,1.012649487121536,0.0419921875,0.33056640625,0.1943359375,45.61235294117647,212.81337931681225
-0.1622099609375,-0.1113017578125,0.9924853515625,1.0117941123497591,0.05078125,0.322265625,0.19775390625,45.7535294117647,213.0569070879736
-0.1597685546875,-0.1108134765625,0.9944384765625,1.0132687211804905,0.0634765625,0.3125,0.18115234375,46.03588235294118,213.0569070879736
-0.1553740234375,-0.1098369140625,0.9866259765625,1.0048064751372956,0.06298828125,0.29296875,0.19287109375,46.03588235294118,213.0569070879736
-0.1504912109375,-0.1069072265625,0.9905322265625,1.0075866471522856,0.06884765625,0.30859375,0.19580078125,45.7535294117647,213.0569070879736
-0.1563505859375,-0.1108134765625,0.9939501953125,1.0122559572917436,0.0556640625,0.31298828125,0.17578125,45.84764705882353,213.0569070879736
-0.1578154296875,-0.1034892578125,0.9919970703125,1.0097890491774089,0.06396484375,0.314453125,0.14404296875,46.03588235294118,212.7804855631717
-0.1587919921875,-0.1073955078125,0.9919970703125,1.010349879690082,0.046875,0.3212890625,0.1572265625,45.7535294117647,212.7804855631717
-0.1563505859375,-0.1078837890625,0.9885791015625,1.0066643222602067,0.04736328125,0.330078125,0.17431640625,45.84764705882353,212.7804855631717
-0.1597685546875,-0.1039775390625,0.9895556640625,1.0077488436979731,0.06201171875,0.31591796875,0.17431640625,45.7535294117647,212.7804855631717
-0.1631865234375,-0.1078837890625,0.9949267578125,1.0139763344306378,0.048828125,0.2998046875,0.1826171875,45.70647058823529,212.9391819750965
-0.1612333984375,-0.1059306640625,0.9924853515625,1.0110611689836413,0.0498046875,0.2880859375,0.2041015625,45.70647058823529,212.9391819750965
-0.1548857421875,-0.1049541015625,0.9890673828125,1.0066077907066548,0.04248046875,0.26416015625,0.201171875,45.7535294117647,212.9391819750965
-0.1553740234375,-0.1039775390625,0.9851611328125,1.0027436728262409,0.03076171875,0.2724609375,0.1953125,45.7535294117647,212.9391819750965
-0.1514677734375,-0.1049541015625,0.9905322265625,1.007527638173648,0.05810546875,0.265625,0.19970703125,45.7535294117647,212.9391819750965
-0.1573271484375,-0.1034892578125,0.9822314453125,1.0001202279119947,0.060546875,0.23779296875,0.19580078125,45.89470588235295,212.58889818255952
-0.1548857421875,-0.1049541015625,0.9861376953125,1.0037293014971782,0.06591796875,0.2197265625,0.1845703125,46.03588235294118,212.58889818255952
-0.1558623046875,-0.1030009765625,0.9817431640625,0.9993607453661448,0.06591796875,0.19921875,0.18017578125,45.61235294117647,212.58889818255952
-0.1558623046875,-0.1073955078125,0.9895556640625,1.007495541131066,0.06689453125,0.16748046875,0.1943359375,45.84764705882353,212.58889818255952
-0.1568388671875,-0.1069072265625,0.9846728515625,1.0028001844615753,0.064453125,0.1669921875,0.20654296875,46.224117647058826,212.6108273263868
-0.1534208984375,-0.1078837890625,0.9890673828125,1.0066931865088888,0.0791015625,0.20068359375,0.22021484375,45.89470588235295,212.6108273263868
-0.1587919921875,-0.1054423828125,0.9841845703125,1.002473072614548,0.08544921875,0.2470703125,0.22216796875,45.7535294117647,212.6108273263868
-0.1626982421875,-0.1034892578125,0.9802783203125,0.99906272564248,0.07568359375,0.22314453125,0.2001953125,45.84764705882353,212.6108273263868
-0.1670927734375,-0.1073955078125,0.9812548828125,1.001156798447033,0.09765625,0.15576171875,0.16162109375,45.7535294117647,212.6108273263868
-0.1753935546875,-0.1078837890625,0.9885791015625,1.009797232623718,0.10791015625,0.0693359375,0.134765625,45.94176470588236,212.37682914168604
-0.1788115234375,-0.1078837890625,0.9978564453125,1.019475334820917,0.00146484375,0.068359375,0.1025390625,45.89470588235295,212.37682914168604
-0.1758818359375,-0.1083720703125,0.9978564453125,1.0190173753613143,0.11669921875,0.109375,0.0390625,45.7535294117647,212.37682914168604
-0.1729521484375,-0.1088603515625,1.0027392578125005,1.0233518656600096,0.11279296875,0.15478515625,-0.0087890625,45.89470588235295,212.37682914168604
-0.1724638671875,-0.1088603515625,0.9959033203125,1.0165715838233138,0.095703125,0.140625,-0.02001953125,45.84764705882353,212.51503463418464
-0.1705107421875,-0.1103251953125,1.0046923828125005,1.0250133394271184,0.1064453125,0.1376953125,-0.03466796875,45.7535294117647,212.51503463418464
-0.1714873046875,-0.1025126953125,0.9973681640625,1.0171823843611425,0.103515625,0.15283203125,-0.068359375,46.03588235294118,212.51503463418464
-0.1675810546875,-0.1054423828125,0.9895556640625,1.0091689245421345,0.0947265625,0.19677734375,-0.09716796875,45.7535294117647,212.51503463418464
-0.1641630859375,-0.1069072265625,1.0042041015625005,1.023134669274166,0.095703125,0.15576171875,-0.11181640625,45.7535294117647,212.51503463418464
-0.1622099609375,-0.1073955078125,0.9963916015625,1.015205442356341,0.10302734375,0.13037109375,-0.09521484375,45.84764705882353,212.8557942828056
-0.1607451171875,-0.1088603515625,0.9963916015625,1.0151284610856983,0.10302734375,0.08544921875,-0.064453125,45.61235294117647,212.8557942828056
-0.1543974609375,-0.1054423828125,0.9939501953125,1.0113820558022977,0.08349609375,0.09375,-0.0556640625,45.84764705882353,212.8557942828056
-0.1451201171875,-0.1030009765625,1.0027392578125005,1.018408105203266,0.11767578125,0.1328125,-0.0751953125,46.08294117647059,212.8557942828056
-0.1421904296875,-0.1098369140625,0.9973681640625,1.0134226762170315,0.10595703125,0.20654296875,-0.07568359375,45.84764705882353,212.5574486061816
-0.1407255859375,-0.1103251953125,1.0076220703125005,1.0233658074408405,0.091796875,0.26611328125,-0.0712890625,45.84764705882353,212.5574486061816
-0.1412138671875,-0.1064189453125,1.0051806640625005,1.020614773365839,0.1015625,0.35986328125,-0.07421875,45.7535294117647,212.5574486061816
-0.1412138671875,-0.1049541015625,0.9949267578125,1.010364277442613,0.08251953125,0.4111328125,-0.05126953125,45.70647058823529,212.5574486061816
-0.1324248046875,-0.1078837890625,0.9973681640625,1.0118885786115024,0.04833984375,0.35693359375,-0.0634765625,45.7535294117647,212.5574486061816
-0.1446318359375,-0.1069072265625,0.9963916015625,1.0124938255230111,0.09521484375,0.31787109375,-0.07275390625,45.70647058823529,212.60938342163988
-0.1441435546875,-0.1088603515625,0.9968798828125,1.0131127485411104,0.09130859375,0.3115234375,-0.03466796875,45.7535294117647,212.60938342163988
-0.1451201171875,-0.1078837890625,0.9934619140625,1.0097847964035318,0.09033203125,0.291015625,0.00341796875,45.84764705882353,212.60938342163988
-0.1470732421875,-0.1059306640625,0.9998095703125,1.0161058119333497,0.099609375,0.27978515625,0.03759765625,45.94176470588236,212.60938342163988
-0.1426787109375,-0.1039775390625,1.0027392578125005,1.0181623457693985,0.11328125,0.29248046875,0.0546875,45.7535294117647,212.58889818255952
-0.1402373046875,-0.1054423828125,1.0071337890625005,1.0223028253852091,0.10986328125,0.35009765625,0.06005859375,45.84764705882353,212.58889818255952
-0.1441435546875,-0.1078837890625,0.9978564453125,1.013969310064229,0.11328125,0.38232421875,0.04736328125,45.70647058823529,212.58889818255952
-0.1456083984375,-0.1073955078125,0.9934619140625,1.0098030379665952,0.0859375,0.4091796875,0.05078125,45.7535294117647,212.58889818255952
-0.1470732421875,-0.1093486328125,0.9861376953125,1.0030230387093584,0.07958984375,0.37744140625,0.0302734375,45.7535294117647,212.58889818255952
-0.1509794921875,-0.1117900390625,0.9861376953125,1.0038721900775216,0.08984375,0.3388671875,0.03076171875,46.08294117647059,212.79000693385208
-0.1548857421875,-0.1113017578125,0.9895556640625,1.007768865714406,0.0888671875,0.31396484375,0.0029296875,45.94176470588236,212.79000693385208
-0.1578154296875,-0.1098369140625,0.9880908203125,1.0066247199051157,0.08056640625,0.28955078125,-0.033203125,45.565294117647056,212.79000693385208
-0.1626982421875,-0.1098369140625,0.9949267578125,1.0141075480997903,0.07275390625,0.33837890625,-0.05419921875,45.61235294117647,212.79000693385208
-0.1617216796875,-0.1088603515625,0.9993212890625,1.0181588857328674,0.03076171875,0.3701171875,-0.06982421875,45.70647058823529,212.504070058166
-0.1607451171875,-0.1113017578125,0.9856494140625,1.0048541393821917,0.048828125,0.38525390625,-0.0439453125,46.03588235294118,212.504070058166
-0.1583037109375,-0.1147197265625,0.9949267578125,1.0139526290564325,0.0654296875,0.3330078125,-0.068359375,45.84764705882353,212.504070058166
-0.1646513671875,-0.1152080078125,0.9895556640625,1.009754113662833,0.072265625,0.31982421875,-0.07421875,46.03588235294118,212.504070058166
-0.1636748046875,-0.1161845703125,0.9905322265625,1.0106643299963918,0.0732421875,0.3330078125,-0.08203125,45.61235294117647,212.504070058166
-0.1626982421875,-0.1113017578125,0.9963916015625,1.0157042005265795,0.0595703125,0.3369140625,-0.12158203125,45.00058823529412,212.6079399529553
-0.1602568359375,-0.1093486328125,0.9934619140625,1.0122282112524763,0.0703125,0.34130859375,-0.130859375,45.84764705882353,212.6079399529553
-0.1543974609375,-0.1122783203125,0.9910205078125,1.0092406274328678,0.0439453125,0.3271484375,-0.11083984375,46.03588235294118,212.6079399529553
-0.1553740234375,-0.1083720703125,0.9900439453125,1.0080042690549058,0.05029296875,0.31201171875,-0.09521484375,45.7535294117647,212.6079399529553
-0.1495146484375,-0.1098369140625,0.9939501953125,1.0111161004305684,0.056640625,0.333984375,-0.0390625,45.7535294117647,212.86531569771887
-0.1490263671875,-0.1088603515625,0.9919970703125,1.0090181473928,0.05322265625,0.3603515625,-0.021484375,46.13,212.86531569771887
-0.1495146484375,-0.1098369140625,0.9890673828125,1.0063165831544916,0.0771484375,0.38427734375,-0.01953125,45.84764705882353,212.86531569771887
-0.1490263671875,-0.1108134765625,0.9900439453125,1.0073110236440936,0.09912109375,0.400390625,-0.017578125,46.03588235294118,212.86531569771887
-0.1563505859375,-0.1088603515625,0.9934619140625,1.011564459912485,0.107421875,0.34033203125,-0.01953125,45.84764705882353,212.86531569771887
-0.1626982421875,-0.1117900390625,0.9929736328125,1.0124052381854567,0.1220703125,0.2900390625,-0.03564453125,45.61235294117647,212.9296601410279
-0.1563505859375,-0.1152080078125,0.9978564453125,1.016580481928914,0.11376953125,0.2314453125,-0.05224609375,45.7535294117647,212.9296601410279
-0.1563505859375,-0.1137431640625,0.9983447265625,1.0168948845131935,0.1279296875,0.1826171875,-0.05224609375,45.84764705882353,212.9296601410279
-0.1514677734375,-0.1147197265625,0.9998095703125,1.0177044162924491,0.0,0.1396484375,-0.02978515625,45.84764705882353,212.9296601410279
-0.1524443359375,-0.1103251953125,1.0066455078125005,1.024083054580659,0.11572265625,0.1376953125,-0.04833984375,45.565294117647056,212.59986274751995
-0.1490263671875,-0.1113017578125,1.0120166015625005,1.028967706610547,0.109375,0.19970703125,-0.00244140625,46.03588235294118,212.59986274751995
-0.1441435546875,-0.1166728515625,1.0051806640625005,1.0221438675914476,0.09814453125,0.306640625,0.01953125,45.7535294117647,212.59986274751995
-0.1334013671875,-0.1132548828125,0.9939501953125,1.0092371297223088,0.091796875,0.3466796875,0.07275390625,45.89470588235295,212.59986274751995
-0.1363310546875,-0.1127666015625,0.9797900390625,0.9956359693915529,0.08837890625,0.30517578125,0.07666015625,46.03588235294118,212.59986274751995
-0.1412138671875,-0.1103251953125,0.9797900390625,0.9960429336393516,0.0947265625,0.12646484375,0.1064453125,46.03588235294118,212.6627624443724
-0.1441435546875,-0.1113017578125,0.9851611328125,1.0018522362377145,0.1044921875,0.232421875,0.12158203125,45.84764705882353,212.6627624443724
-0.1548857421875,-0.1069072265625,0.9817431640625,0.9996191216697023,0.10009765625,0.28857421875,0.06640625,45.94176470588236,212.6627624443724
-0.1597685546875,-0.1098369140625,0.9905322265625,1.009328603883081,0.0908203125,0.29248046875,0.048828125,45.89470588235295,212.6627624443724
-0.1636748046875,-0.1073955078125,0.9959033203125,1.014961408230509,0.09033203125,0.306640625,0.04052734375,45.84764705882353,212.8338651108752
-0.1592802734375,-0.1113017578125,0.9954150390625,1.014203819155832,0.08154296875,0.298828125,0.05517578125,45.94176470588236,212.8338651108752
-0.1578154296875,-0.1098369140625,1.0017626953125005,1.0200482122223384,0.099609375,0.3037109375,0.056640625,46.08294117647059,212.8338651108752
-0.1592802734375,-0.1132548828125,0.9934619140625,1.0125035548974255,0.0869140625,0.31591796875,0.08740234375,45.84764705882353,212.8338651108752
-0.1568388671875,-0.1108134765625,0.9983447265625,1.0166465707922685,0.09130859375,0.34375,0.0849609375,46.08294117647059,212.8338651108752
-0.1597685546875,-0.1098369140625,0.9905322265625,1.009328603883081,0.0791015625,0.3388671875,0.0947265625,45.89470588235295,212.70517710484276
-0.1622099609375,-0.1113017578125,0.9910205078125,1.0103572633600668,0.033203125,0.36328125,0.08837890625,45.7535294117647,212.70517710484276
-0.1617216796875,-0.1108134765625,0.9876025390625,1.0068725358413104,0.03662109375,0.3828125,0.07568359375,45.7535294117647,212.70517710484276
-0.1622099609375,-0.1103251953125,0.9861376953125,1.005460727360515,0.02880859375,0.3876953125,0.07568359375,45.70647058823529,212.70517710484276
-0.1602568359375,-0.1083720703125,0.9871142578125,1.0058932930809503,0.029296875,0.36376953125,0.07958984375,45.94176470588236,212.5793777888701
-0.1617216796875,-0.1147197265625,0.9822314453125,1.0020444748134705,0.04345703125,0.267578125,0.07568359375,45.89470588235295,212.5793777888701
-0.1617216796875,-0.1147197265625,0.9856494140625,1.0053950889005132,0.0283203125,0.17919921875,0.06884765625,45.94176470588236,212.5793777888701
-0.1612333984375,-0.1176494140625,0.9910205078125,1.0109199969858649,0.04345703125,0.169921875,0.12646484375,45.7535294117647,212.5793777888701
-0.1563505859375,-0.1147197265625,0.9890673828125,1.007899007405575,0.06982421875,0.21826171875,0.11962890625,46.08294117647059,212.5793777888701
-0.1524443359375,-0.1132548828125,0.9934619140625,1.011450700100121,0.05517578125,0.22314453125,0.1259765625,45.89470588235295,212.9048463263904
-0.1534208984375,-0.1152080078125,0.9934619140625,1.011818873037176,0.0263671875,0.23193359375,0.107421875,45.7535294117647,212.9048463263904
-0.1583037109375,-0.1093486328125,0.9900439453125,1.0085654178309342,0.02734375,0.2275390625,0.134765625,45.94176470588236,212.9048463263904
-0.1602568359375,-0.1059306640625,0.9924853515625,1.010905896767627,0.0302734375,0.25146484375,0.12451171875,45.84764705882353,212.9048463263904
-0.1695341796875,-0.1137431640625,1.0002978515625005,1.0209187711536194,0.0341796875,0.2412109375,0.1416015625,45.84764705882353,212.87483744030607
-0.1666044921875,-0.1117900390625,0.9939501953125,1.0139975643029953,0.04150390625,0.23779296875,0.14453125,45.70647058823529,212.87483744030607
-0.1622099609375,-0.1156962890625,0.9915087890625,1.0113295118399166,0.05224609375,0.24853515625,0.18408203125,45.94176470588236,212.87483744030607
-0.1607451171875,-0.1161845703125,0.9890673828125,1.0087577185934649,0.03125,0.24609375,0.1865234375,45.18882352941176,212.87483744030607
-0.1583037109375,-0.1132548828125,0.9924853515625,1.0113920636645295,0.033203125,0.220703125,0.19384765625,45.7535294117647,212.87483744030607
-0.1553740234375,-0.1098369140625,0.9919970703125,1.0100808989177614,0.03955078125,0.2490234375,0.19091796875,46.03588235294118,213.07595219955448
-0.1514677734375,-0.1137431640625,0.9876025390625,1.0056036838256708,0.02392578125,0.26806640625,0.2001953125,45.94176470588236,213.07595219955448
-0.1534208984375,-0.1117900390625,0.9895556640625,1.007598827504846,0.01708984375,0.27197265625,0.20556640625,45.89470588235295,213.07595219955448
-0.1568388671875,-0.1137431640625,0.9905322265625,1.0093017534367366,0.0205078125,0.27392578125,0.24169921875,46.08294117647059,213.07595219955448
-0.1573271484375,-0.1117900390625,0.9919970703125,1.0105973639277186,0.04638671875,0.2763671875,0.21484375,45.70647058823529,212.9911199883813
-0.1622099609375,-0.1083720703125,0.9871142578125,1.006206308382076,0.0283203125,0.2421875,0.228515625,45.89470588235295,212.9911199883813
-0.1612333984375,-0.1098369140625,0.9905322265625,1.0095615128962387,0.02197265625,0.220703125,0.234375,46.03588235294118,212.9911199883813
-0.1641630859375,-0.1088603515625,0.9949267578125,1.014238309441192,0.01318359375,0.205078125,0.216796875,45.84764705882353,212.9911199883813
-0.1592802734375,-0.1093486328125,0.9900439453125,1.008719159456302,0.02490234375,0.18359375,0.23388671875,45.89470588235295,212.9911199883813
-0.1607451171875,-0.1156962890625,0.9915087890625,1.011095595278034,-0.00439453125,0.193359375,0.24658203125,46.03588235294118,212.90628845467745
-0.1568388671875,-0.1122783203125,0.9929736328125,1.011534224301733,0.00732421875,0.18115234375,0.25927734375,45.84764705882353,212.90628845467745
-0.1573271484375,-0.1122783203125,0.9924853515625,1.0111307659812407,0.00439453125,0.17431640625,0.27587890625,45.7535294117647,212.90628845467745
-0.1602568359375,-0.1122783203125,0.9934619140625,1.012548887397355,0.12451171875,0.197265625,0.28515625,46.03588235294118,212.90628845467745
-0.1656279296875,-0.1098369140625,0.9910205078125,1.0107514064735632,0.02294921875,0.19921875,0.28662109375,45.7535294117647,213.0006426637709
-0.1690458984375,-0.1093486328125,0.9934619140625,1.0136568521788971,0.01611328125,0.21435546875,0.283203125,45.94176470588236,213.0006426637709
-0.1656279296875,-0.1137431640625,0.9876025390625,1.007833762892578,0.02294921875,0.2314453125,0.26171875,45.565294117647056,213.0006426637709
-0.1641630859375,-0.1117900390625,0.9895556640625,1.0092903169535978,0.02587890625,0.2060546875,0.25537109375,45.70647058823529,213.0006426637709
-0.1670927734375,-0.1093486328125,0.9983447265625,1.018120479849095,0.0146484375,0.18115234375,0.24267578125,46.03588235294118,213.0006426637709
-0.1626982421875,-0.1113017578125,0.9939501953125,1.013309325953735,-0.0048828125,0.1591796875,0.22705078125,45.70647058823529,212.7695210064361
-0.1607451171875,-0.1078837890625,0.9924853515625,1.0111899315698532,-0.02001953125,0.1953125,0.25341796875,45.7535294117647,212.7695210064361
-0.1539091796875,-0.1108134765625,0.9856494140625,1.0037292611166104,-0.12353515625,0.1884765625,0.2919921875,45.7535294117647,212.7695210064361
-0.1529326171875,-0.1161845703125,0.9919970703125,1.0104184416800308,0.01513671875,0.19482421875,0.30126953125,45.94176470588236,212.7695210064361
-0.1612333984375,-0.1098369140625,0.9939501953125,1.0129152714932457,0.037109375,0.185546875,0.28857421875,45.94176470588236,212.83242210240095
-0.1636748046875,-0.1117900390625,0.9880908203125,1.0077747385745068,0.00830078125,0.18505859375,0.28515625,46.03588235294118,212.83242210240095
-0.1680693359375,-0.1132548828125,0.9939501953125,1.0144017749023817,0.005859375,0.16064453125,0.24169921875,45.7535294117647,212.83242210240095
-0.1670927734375,-0.1156962890625,0.9959033203125,1.0164295596091897,0.02001953125,0.1689453125,0.23291015625,45.89470588235295,212.83242210240095
-0.1666044921875,-0.1132548828125,0.9900439453125,1.010331994419591,0.00634765625,0.17822265625,0.24560546875,45.94176470588236,212.83242210240095
-0.1573271484375,-0.1122783203125,0.9959033203125,1.0144859172295757,0.01220703125,0.162109375,0.36962890625,46.03588235294118,212.87195311453445
-0.1490263671875,-0.1103251953125,0.9915087890625,1.0086972715468352,0.02001953125,0.18212890625,0.26513671875,45.84764705882353,212.87195311453445
-0.1451201171875,-0.1083720703125,0.9905322265625,1.0069550366799875,0.0107421875,0.216796875,0.287109375,46.08294117647059,212.87195311453445
-0.1456083984375,-0.1093486328125,0.9797900390625,0.9965678350416454,0.01416015625,0.24169921875,0.28076171875,45.94176470588236,212.87195311453445
-0.1456083984375,-0.1083720703125,0.9905322265625,1.0070255226051696,0.02294921875,0.2822265625,0.25634765625,45.61235294117647,213.13885621049036
-0.1543974609375,-0.1156962890625,0.9895556640625,1.0081887816896973,0.01708984375,0.2255859375,0.2333984375,45.7535294117647,213.13885621049036
-0.1573271484375,-0.1113017578125,0.9851611328125,1.0038338361163346,0.0146484375,0.125,0.2294921875,45.18882352941176,213.13885621049036
-0.1553740234375,-0.1132548828125,0.9915087890625,1.0099789277149376,0.03662109375,0.06201171875,0.21728515625,45.7535294117647,213.13885621049036
-0.1568388671875,-0.1142314453125,0.9959033203125,1.0146283441577526,0.02734375,0.02734375,0.2021484375,45.61235294117647,213.13885621049036
-0.1587919921875,-0.1156962890625,0.9939501953125,1.0131818784638154,0.025390625,0.01416015625,0.1953125,45.70647058823529,212.87339505938664
-0.1607451171875,-0.1147197265625,0.9954150390625,1.0148156031289608,0.02880859375,0.06005859375,0.208984375,45.7535294117647,212.87339505938664
-0.1592802734375,-0.1108134765625,0.9978564453125,1.0165467611211454,0.02685546875,0.10595703125,0.23095703125,45.94176470588236,212.87339505938664
-0.1563505859375,-0.1069072265625,1.0051806640625005,1.022869897992611,0.0234375,0.15966796875,0.22705078125,45.84764705882353,212.87339505938664
-0.1539091796875,-0.1122783203125,0.9959033203125,1.0139614786636313,0.0439453125,0.22607421875,0.19677734375,45.70647058823529,212.71614163930448
-0.1587919921875,-0.1152080078125,0.9949267578125,1.0140843334054093,0.033203125,0.25390625,0.166015625,45.7535294117647,212.71614163930448
-0.1553740234375,-0.1156962890625,0.9983447265625,1.0169655409683964,0.0234375,0.22314453125,0.15380859375,45.70647058823529,212.71614163930448
-0.1583037109375,-0.1108134765625,0.9890673828125,1.0077668278069187,0.02783203125,0.2275390625,0.16650390625,45.70647058823529,212.71614163930448
-0.1573271484375,-0.1166728515625,0.9949267578125,1.0140234905259806,0.0283203125,0.18798828125,0.14306640625,45.89470588235295,212.71614163930448
-0.1548857421875,-0.1117900390625,0.9900439453125,1.0083023453391888,0.02294921875,0.17138671875,0.13818359375,45.7535294117647,212.81049310837145
-0.1504912109375,-0.1127666015625,0.9905322265625,1.0082251746788782,0.01220703125,0.1513671875,0.13916015625,45.89470588235295,212.81049310837145
-0.1490263671875,-0.1088603515625,0.9919970703125,1.0090181473928,0.0419921875,0.14306640625,0.130859375,45.94176470588236,212.81049310837145
-0.1456083984375,-0.1098369140625,0.9983447265625,1.0148685365314365,0.06201171875,0.16162109375,0.11083984375,45.84764705882353,212.81049310837145
-0.1519560546875,-0.1103251953125,0.9929736328125,1.0105735632490025,0.04443359375,0.1640625,0.111328125,45.61235294117647,212.78856416995765
-0.1573271484375,-0.1108134765625,0.9915087890625,1.0100104638128895,0.0478515625,0.1640625,0.11083984375,46.03588235294118,212.78856416995765
-0.1534208984375,-0.1161845703125,0.9929736328125,1.0114511663530394,0.056640625,0.1376953125,0.11181640625,45.7535294117647,212.78856416995765
-0.1524443359375,-0.1161845703125,0.9954150390625,1.013700759558719,0.0556640625,0.11083984375,0.1220703125,46.03588235294118,212.78856416995765
-0.1465849609375,-0.1156962890625,0.9934619140625,1.010860700971508,0.0771484375,0.1171875,0.10595703125,45.89470588235295,212.78856416995765
-0.1446318359375,-0.1127666015625,0.9983447265625,1.0150501797693356,0.05615234375,0.1396484375,0.09716796875,45.84764705882353,212.53407556630927
-0.1446318359375,-0.1152080078125,0.9915087890625,1.0086034561803574,0.0673828125,0.15869140625,0.05029296875,45.89470588235295,212.53407556630927
-0.1504912109375,-0.1156962890625,0.9924853515625,1.0104753381148932,0.0693359375,0.1728515625,0.037109375,44.85941176470588,212.53407556630927
-0.1504912109375,-0.1152080078125,0.9959033203125,1.0137770529278232,0.08056640625,0.14111328125,0.03369140625,45.89470588235295,212.53407556630927
-0.1534208984375,-0.1147197265625,0.9973681640625,1.0155992528676587,0.0810546875,0.13720703125,0.0595703125,45.84764705882353,212.80905065824945
-0.1514677734375,-0.1142314453125,1.0002978515625005,1.018129216420416,0.091796875,0.1435546875,0.07763671875,45.94176470588236,212.80905065824945
-0.1480498046875,-0.1156962890625,0.9978564453125,1.015392466695779,0.125,0.17822265625,0.064453125,46.03588235294118,212.80905065824945
-0.1436552734375,-0.1137431640625,0.9983447265625,1.0150204618688752,0.095703125,0.20947265625,0.037109375,45.89470588235295,212.80905065824945
-0.1475615234375,-0.1152080078125,0.9988330078125,1.016225696269823,0.0986328125,0.228515625,0.02294921875,46.08294117647059,212.80905065824945
-0.1485380859375,-0.1127666015625,0.9959033203125,1.013214337053811,0.08642578125,0.2685546875,0.00341796875,45.84764705882353,212.76663528715483
-0.1495146484375,-0.1142314453125,0.9959033203125,1.013522015846244,0.0810546875,0.2685546875,-0.02978515625,46.03588235294118,212.76663528715483
-0.1543974609375,-0.1122783203125,0.9959033203125,1.014035709709281,0.0693359375,0.2587890625,-0.02197265625,45.7535294117647,212.76663528715483
-0.1509794921875,-0.1166728515625,0.9963916015625,1.0144967151337674,0.0751953125,0.23681640625,-0.01806640625,46.03588235294118,212.76663528715483
-0.1490263671875,-0.1191142578125,0.9885791015625,1.0068195988246584,0.07373046875,0.22509765625,-0.01806640625,45.7535294117647,212.74470645996783
-0.1524443359375,-0.1152080078125,0.9905322265625,1.0087944550216432,0.08837890625,0.220703125,-0.0205078125,46.03588235294118,212.74470645996783
-0.1543974609375,-0.1152080078125,0.9915087890625,1.0100500679650772,0.1083984375,0.22998046875,-0.01123046875,45.84764705882353,212.74470645996783
-0.1504912109375,-0.1132548828125,0.9871142578125,1.0049223009899977,0.08935546875,0.2373046875,-0.0146484375,45.94176470588236,212.74470645996783
-0.1490263671875,-0.1161845703125,0.9973681640625,1.015111307779204,0.0927734375,0.24853515625,-0.0126953125,46.08294117647059,212.74470645996783
-0.1441435546875,-0.1103251953125,0.9949267578125,1.0113497251148995,0.10302734375,0.12548828125,-0.0126953125,46.27117647058824,212.893881908532
-0.1460966796875,-0.1161845703125,1.0012744140625005,1.018525182040491,0.09765625,0.25927734375,-0.0322265625,45.7535294117647,212.893881908532
-0.1397490234375,-0.1156962890625,0.9968798828125,1.013254618351593,0.1025390625,0.28076171875,0.00439453125,45.7535294117647,212.893881908532
-0.1417021484375,-0.1166728515625,0.9978564453125,1.0145982153617397,0.11767578125,0.27587890625,-0.01513671875,46.27117647058824,212.893881908532
-0.1426787109375,-0.1147197265625,0.9978564453125,1.0145123536305805,0.09814453125,0.2890625,-0.0029296875,45.84764705882353,212.89532397567905
-0.1436552734375,-0.1186259765625,0.9934619140625,1.010779666690291,0.12109375,0.263671875,0.0048828125,45.7535294117647,212.89532397567905
-0.1470732421875,-0.1176494140625,0.9910205078125,1.008758430002812,0.11474609375,0.27099609375,-0.0146484375,45.84764705882353,212.89532397567905
-0.1441435546875,-0.1152080078125,0.9919970703125,1.0090135960088231,0.1025390625,0.2568359375,-0.00341796875,45.94176470588236,212.89532397567905
-0.1465849609375,-0.1156962890625,0.9924853515625,1.0099009630364857,0.1025390625,0.2646484375,0.0107421875,45.89470588235295,212.89532397567905
-0.1446318359375,-0.1147197265625,0.9978564453125,1.0147888790684123,0.1025390625,0.24169921875,-0.015625,45.94176470588236,212.74470645996783
-0.1500029296875,-0.1191142578125,0.9924853515625,1.0107998112362284,0.1025390625,0.2373046875,-0.0283203125,45.7535294117647,212.74470645996783
-0.1500029296875,-0.1142314453125,0.9910205078125,1.0087969810214348,0.08740234375,0.23681640625,-0.0166015625,45.89470588235295,212.74470645996783
-0.1485380859375,-0.1142314453125,0.9929736328125,1.0104993921487595,0.08642578125,0.26171875,-0.01953125,46.03588235294118,212.74470645996783
-0.1490263671875,-0.1152080078125,0.9949267578125,1.0126011043804573,0.09228515625,0.287109375,-0.00439453125,45.7535294117647,212.97871383628384
-0.1480498046875,-0.1142314453125,0.9934619140625,1.0109075835401156,0.115234375,0.31640625,0.00927734375,45.84764705882353,212.97871383628384
-0.1500029296875,-0.1171611328125,0.9988330078125,1.0168062683975287,0.09326171875,0.31103515625,0.00927734375,45.7535294117647,212.97871383628384
-0.1500029296875,-0.1127666015625,0.9919970703125,1.009591686203572,0.08203125,0.29248046875,-0.00439453125,46.03588235294118,212.97871383628384
-0.1504912109375,-0.1113017578125,0.9954150390625,1.0128606941990523,0.0703125,0.26806640625,-0.01171875,45.89470588235295,212.97871383628384
-0.1465849609375,-0.1161845703125,0.9978564453125,1.015235682294238,0.08935546875,0.2763671875,0.01171875,45.94176470588236,212.79664429032945
-0.1426787109375,-0.1176494140625,0.9983447265625,1.0153279235001809,0.08154296875,0.30419921875,0.04052734375,45.89470588235295,212.79664429032945
-0.1446318359375,-0.1191142578125,0.9954150390625,1.012895687804363,0.11083984375,0.3359375,0.0390625,46.08294117647059,212.79664429032945
-0.1519560546875,-0.1122783203125,0.9949267578125,1.01270741933674,0.08740234375,0.34521484375,0.03564453125,45.61235294117647,212.79664429032945
-0.1563505859375,-0.1088603515625,0.9905322265625,1.0086873518212542,0.05615234375,0.35400390625,0.00341796875,45.7535294117647,212.6913268489058
-0.1573271484375,-0.1078837890625,0.9944384765625,1.0125703073100174,0.06787109375,0.35205078125,-0.01953125,45.70647058823529,212.6913268489058
-0.1583037109375,-0.1137431640625,0.9949267578125,1.013842603996708,0.06982421875,0.34619140625,-0.02587890625,45.84764705882353,212.6913268489058
-0.1509794921875,-0.1147197265625,0.9856494140625,1.003723164107275,0.06884765625,0.3408203125,-0.00244140625,45.89470588235295,212.6913268489058
-0.1524443359375,-0.1122783203125,0.9968798828125,1.0146995602284874,0.06591796875,0.302734375,-0.00146484375,45.61235294117647,212.6913268489058
-0.1534208984375,-0.1093486328125,0.9910205078125,1.008769915530929,0.0634765625,0.318359375,0.0224609375,46.03588235294118,212.38346063954296
-0.1529326171875,-0.1137431640625,1.0012744140625005,1.019252836653875,0.0615234375,0.3662109375,0.0263671875,45.7535294117647,212.38346063954296
-0.1558623046875,-0.1117900390625,0.9949267578125,1.0132469216668696,0.07080078125,0.44580078125,0.01904296875,45.89470588235295,212.38346063954296
-0.1548857421875,-0.1147197265625,1.0012744140625005,1.0196571291624212,0.06787109375,0.48974609375,0.025390625,45.7535294117647,212.38346063954296
-0.1568388671875,-0.1161845703125,0.9993212890625,1.0182044605151244,0.060546875,0.533203125,0.00341796875,46.08294117647059,212.76663528715483
-0.1607451171875,-0.1196025390625,1.0002978515625005,1.020166433426612,0.056640625,0.57275390625,0.1240234375,46.03588235294118,212.76663528715483
-0.1612333984375,-0.1147197265625,0.9934619140625,1.0129774919152976,0.0634765625,0.59375,-0.001953125,45.7535294117647,212.76663528715483
-0.1602568359375,-0.1108134765625,1.0017626953125005,1.0205343589376754,0.044921875,0.6142578125,-0.01220703125,45.84764705882353,212.76663528715483
-0.1592802734375,-0.1132548828125,0.9919970703125,1.011066299258254,0.05224609375,0.61669921875,0.00390625,45.7535294117647,212.76663528715483
-0.1675810546875,-0.1103251953125,0.9988330078125,1.0187847839984074,0.04931640625,0.68798828125,-0.00927734375,45.7535294117647,212.76519308161755
-0.1666044921875,-0.1152080078125,0.9968798828125,1.0172509241271024,0.01904296875,0.72216796875,-0.033203125,45.89470588235295,212.76519308161755
-0.1646513671875,-0.1152080078125,1.0017626953125005,1.0217198517698496,0.0390625,0.71044921875,-0.07275390625,45.84764705882353,212.76519308161755
-0.1617216796875,-0.1152080078125,1.0002978515625005,1.0198149727208488,0.05224609375,0.666015625,-0.107421875,45.7535294117647,212.76519308161755
-0.1636748046875,-0.1152080078125,0.9934619140625,1.0134243442143782,0.0380859375,0.67431640625,-0.109375,46.03588235294118,212.62842575290156
-0.1680693359375,-0.1117900390625,0.9959033203125,1.0161534027525223,0.029296875,0.74658203125,-0.08056640625,46.03588235294118,212.62842575290156
-0.1680693359375,-0.1137431640625,0.9949267578125,1.015413247138678,0.02294921875,0.84375,-0.06982421875,45.61235294117647,212.62842575290156
-0.1597685546875,-0.1161845703125,0.9968798828125,1.016264899621106,0.00927734375,0.89990234375,-0.0380859375,45.84764705882353,212.62842575290156
-0.1553740234375,-0.1176494140625,0.9939501953125,1.0128768249644984,0.01513671875,0.90185546875,-0.03076171875,45.565294117647056,212.62842575290156
-0.1534208984375,-0.1186259765625,0.9827197265625,1.001672678756814,0.029296875,0.90673828125,-0.0224609375,45.7535294117647,212.9253333893069
-0.1500029296875,-0.1147197265625,0.9753955078125,0.9935078717545286,-0.1240234375,0.83056640625,-0.013671875,46.03588235294118,212.9253333893069
-0.1539091796875,-0.1186259765625,0.9763720703125,0.9955212592374928,0.0302734375,0.720703125,-0.00732421875,45.94176470588236,212.9253333893069
-0.1587919921875,-0.1176494140625,0.9734423828125,0.9933007369713376,0.00634765625,0.58642578125,-0.02685546875,45.7535294117647,212.9253333893069
-0.1680693359375,-0.1171611328125,0.9846728515625,1.0057607356268217,0.0283203125,0.482421875,-0.044921875,45.7535294117647,212.6584337375135
-0.1709990234375,-0.1161845703125,0.9895556640625,1.010920339430093,0.0126953125,0.3818359375,0.00732421875,45.84764705882353,212.6584337375135
-0.1729521484375,-0.1239970703125,1.0007861328125005,1.023162060831533,0.00634765625,0.44921875,0.06640625,46.08294117647059,212.6584337375135
-0.1651396484375,-0.1239970703125,0.9998095703125,1.0209140775895933,0.03125,0.6318359375,0.12255859375,45.89470588235295,212.6584337375135
-0.1612333984375,-0.1239970703125,0.9929736328125,1.0135916917963774,0.02392578125,0.83642578125,0.13525390625,45.94176470588236,212.6584337375135
-0.1666044921875,-0.1191142578125,0.9944384765625,1.0153093848178611,0.0302734375,0.97998046875,0.1357421875,45.94176470588236,212.7008489724364
-0.1797880859375,-0.1210673828125,0.9959033203125,1.0192175873853435,0.033203125,1.06591796875,0.12109375,45.7535294117647,212.7008489724364
-0.1812529296875,-0.1117900390625,1.0002978515625005,1.0227147350040728,0.05908203125,1.13720703125,0.14892578125,45.7535294117647,212.7008489724364
-0.1876005859375,-0.1176494140625,0.9890673828125,1.0135529844151767,0.0302734375,1.1318359375,0.1279296875,45.89470588235295,212.7008489724364
-0.1866240234375,-0.1142314453125,0.9851611328125,1.0091678784159708,0.048828125,1.0791015625,0.12890625,45.61235294117647,212.53407556630927
-0.1753935546875,-0.1147197265625,0.9778369140625,1.0000442716158944,0.013671875,0.90283203125,0.12060546875,45.70647058823529,212.53407556630927
-0.1744169921875,-0.1127666015625,0.9714892578125,0.9934429886192626,0.00146484375,0.69384765625,0.05322265625,46.08294117647059,212.53407556630927
-0.1753935546875,-0.1186259765625,0.9685595703125,0.991434648670934,0.01171875,0.5322265625,0.02734375,46.08294117647059,212.53407556630927
-0.1836943359375,-0.1235087890625,0.9724658203125,0.9973403640218658,-0.0009765625,0.44873046875,0.01220703125,45.7535294117647,212.53407556630927
-0.1832060546875,-0.1200908203125,0.9793017578125,1.0035029628517005,0.015625,0.41650390625,0.0322265625,45.61235294117647,212.2781484337893
-0.1856474609375,-0.1196025390625,0.9885791015625,1.0129454018597732,0.001953125,0.40673828125,0.052734375,45.7535294117647,212.2781484337893
-0.1915068359375,-0.1161845703125,0.9939501953125,1.0188771826629792,0.03076171875,0.43115234375,0.06787109375,45.84764705882353,212.2781484337893
-0.1929716796875,-0.1196025390625,0.9910205078125,1.016692915002636,0.05029296875,0.466796875,0.09423828125,45.7535294117647,212.2781484337893
-0.1900419921875,-0.1191142578125,0.9924853515625,1.017512328315955,0.02001953125,0.49755859375,0.1201171875,45.84764705882353,212.9553439386173
-0.1929716796875,-0.1205791015625,0.9876025390625,1.013477263710307,0.03662109375,0.55029296875,0.1376953125,45.89470588235295,212.9553439386173
-0.1959013671875,-0.1142314453125,0.9866259765625,1.0123522047153457,0.03564453125,0.58154296875,0.1552734375,46.08294117647059,212.9553439386173
-0.1973662109375,-0.1200908203125,0.9934619140625,1.0199714706970393,0.033203125,0.6484375,0.1953125,46.03588235294118,212.9553439386173
-0.1954130859375,-0.1156962890625,0.9910205078125,1.0167072107364026,0.02734375,0.66845703125,0.17626953125,45.70647058823529,212.9553439386173
-0.1866240234375,-0.1171611328125,0.9778369140625,1.0023573652491322,0.029296875,0.63916015625,0.1513671875,45.61235294117647,212.5655254341907
-0.1895537109375,-0.1181376953125,0.9763720703125,1.0015935024101563,-0.00537109375,0.55419921875,0.00048828125,45.7535294117647,212.5655254341907
-0.1919951171875,-0.1132548828125,0.9812548828125,1.0062554042329852,0.0048828125,0.43408203125,0.11083984375,45.89470588235295,212.5655254341907
-0.1983427734375,-0.1171611328125,0.9783251953125,1.0050804816531007,0.02392578125,0.3984375,0.09033203125,45.84764705882353,212.5655254341907
-0.1968779296875,-0.1200908203125,0.9861376953125,1.0127439352756522,0.01708984375,0.39453125,0.08642578125,45.89470588235295,212.93629778772487
-0.2002958984375,-0.1264384765625,0.9924853515625,1.0203589115367544,0.01123046875,0.40234375,0.10400390625,45.84764705882353,212.93629778772487
-0.2046904296875,-0.1254619140625,0.9890673828125,1.0177883628876134,0.0302734375,0.4541015625,0.0771484375,45.89470588235295,212.93629778772487
-0.2056669921875,-0.1210673828125,0.9939501953125,1.0222001827520275,0.01220703125,0.54052734375,0.0908203125,45.61235294117647,212.93629778772487
-0.2139677734375,-0.1215556640625,0.9944384765625,1.0244344152767528,0.0732421875,0.625,0.123046875,45.61235294117647,212.93629778772487
-0.2022490234375,-0.1186259765625,0.9871142578125,1.0145793945145702,0.037109375,0.83984375,0.11474609375,45.7535294117647,212.7337420672315
-0.1905302734375,-0.1171611328125,0.9797900390625,1.0049960381932717,0.00927734375,0.87109375,0.0732421875,45.84764705882353,212.7337420672315
-0.1919951171875,-0.1181376953125,0.9719775390625,0.997777017434048,0.048828125,0.62890625,0.078125,45.89470588235295,212.7337420672315
-0.1866240234375,-0.1166728515625,0.9729541015625,0.9975373497584024,0.015625,0.46923828125,0.11279296875,46.03588235294118,212.7337420672315
-0.1885771484375,-0.1161845703125,0.9739306640625,0.9987998466623538,0.03857421875,0.34521484375,0.1396484375,45.61235294117647,212.7871218421256
-0.1973662109375,-0.1186259765625,0.9841845703125,1.0107644690908129,0.06103515625,0.28955078125,0.162109375,45.89470588235295,212.7871218421256
-0.2071318359375,-0.1200908203125,0.9827197265625,1.0114659972323556,0.0791015625,0.2919921875,0.19677734375,45.84764705882353,212.7871218421256
-0.2281279296875,-0.1230205078125,0.9939501953125,1.027187124338943,0.1044921875,0.4208984375,0.25341796875,45.61235294117647,212.7871218421256
-0.2261748046875,-0.1166728515625,0.9988330078125,1.030744863709211,0.05908203125,0.5625,0.25390625,45.84764705882353,212.7871218421256
-0.2188505859375,-0.1191142578125,0.9924853515625,1.0232843976361357,0.0615234375,0.6552734375,0.23046875,45.94176470588236,212.69276949856297
-0.2173857421875,-0.1176494140625,0.9793017578125,1.0100147911740265,0.05126953125,0.68115234375,0.18701171875,45.84764705882353,212.69276949856297
-0.2369169921875,-0.1264384765625,1.0012744140625005,1.036661372772624,0.236328125,0.9755859375,0.19287109375,45.84764705882353,212.69276949856297
-0.2198271484375,-0.1293681640625,0.9734423828125,1.006305207041453,0.05859375,1.0859375,0.13916015625,45.94176470588236,212.69276949856297
-0.2139677734375,-0.1186259765625,0.9666064453125,0.9970869322706396,0.0400390625,0.97314453125,0.0244140625,46.03588235294118,212.72277768839663
-0.2212919921875,-0.1196025390625,0.9627001953125,0.995020893856624,0.046875,0.8251953125,0.00439453125,45.89470588235295,212.72277768839663
-0.2134794921875,-0.1147197265625,0.9617236328125,0.9917895216008688,0.02783203125,0.634765625,0.02978515625,45.84764705882353,212.72277768839663
-0.2105498046875,-0.1186259765625,0.9670947265625,0.9968327606546384,0.0625,0.4892578125,0.048828125,46.03588235294118,212.72277768839663
-0.2071318359375,-0.1147197265625,0.9758837890625,1.00419788033853,0.0517578125,0.357421875,0.04736328125,45.89470588235295,212.72277768839663
-0.2032255859375,-0.1161845703125,0.9778369140625,1.0054673160583658,0.07958984375,0.30078125,0.07861328125,45.89470588235295,212.6050543237632
-0.2046904296875,-0.1166728515625,0.9817431640625,1.009618921415812,0.0908203125,0.26025390625,0.12109375,45.89470588235295,212.6050543237632
-0.2144560546875,-0.1181376953125,0.9788134765625,1.0089716231620416,0.06884765625,0.275390625,0.13232421875,45.84764705882353,212.6050543237632
-0.2212919921875,-0.1181376953125,0.9832080078125,1.0147042167482536,0.07177734375,0.29296875,0.14306640625,45.70647058823529,212.6050543237632
-0.2212919921875,-0.1225322265625,0.9788134765625,1.010969887906185,0.06689453125,0.28125,0.13330078125,45.94176470588236,212.881475934655
-0.2247099609375,-0.1210673828125,0.9734423828125,1.0063508088044044,0.08544921875,0.24609375,0.14599609375,45.7535294117647,212.881475934655
-0.2256865234375,-0.1191142578125,0.9836962890625,1.0162583344754728,0.0849609375,0.12646484375,0.14404296875,46.08294117647059,212.881475934655
-0.2237333984375,-0.1171611328125,0.9788134765625,1.0108705092734032,0.0849609375,0.27587890625,0.1279296875,45.61235294117647,212.881475934655
-0.2291044921875,-0.1215556640625,0.9807666015625,1.0144790656029443,0.08642578125,0.35498046875,0.1025390625,45.84764705882353,212.881475934655
-0.2291044921875,-0.1215556640625,0.9856494140625,1.0192003803217096,0.0390625,0.46728515625,0.12255859375,45.7535294117647,212.8705116057544
-0.2242216796875,-0.1220439453125,0.9910205078125,1.0233727244431865,0.05712890625,0.51953125,0.10400390625,46.03588235294118,212.8705116057544
-0.2129912109375,-0.1181376953125,0.9802783203125,1.0100828462384004,0.03515625,0.51123046875,0.09521484375,45.61235294117647,212.8705116057544
-0.2149443359375,-0.1200908203125,0.9793017578125,1.009779582646428,0.037109375,0.4375,0.09521484375,45.61235294117647,212.8705116057544
-0.2149443359375,-0.1235087890625,0.9758837890625,1.0068786710832045,0.06201171875,0.408203125,0.12158203125,45.84764705882353,212.8609887383904
-0.2168974609375,-0.1176494140625,0.9739306640625,1.0047023597024176,0.05517578125,0.369140625,0.111328125,45.70647058823529,212.8609887383904
-0.2188505859375,-0.1181376953125,0.9832080078125,1.0141745809502234,0.0634765625,0.35888671875,0.158203125,46.27117647058824,212.8609887383904
-0.2212919921875,-0.1225322265625,0.9773486328125,1.0095517036849275,0.083984375,0.42138671875,0.18359375,45.61235294117647,212.8609887383904
-0.2227568359375,-0.1181376953125,0.9802783203125,1.0121870915425328,0.07275390625,0.453125,0.1962890625,46.03588235294118,212.8609887383904
-0.2242216796875,-0.1156962890625,0.9783251953125,1.0103371619058454,0.09228515625,0.451171875,0.18310546875,46.03588235294118,212.6722835848713
-0.2266630859375,-0.1200908203125,0.9812548828125,1.01422832966419,0.076171875,0.4248046875,0.19482421875,45.84764705882353,212.6722835848713
-0.2286162109375,-0.1215556640625,0.9710009765625,1.004929872107713,0.0771484375,0.34912109375,0.17138671875,45.89470588235295,212.6722835848713
-0.2300810546875,-0.1196025390625,0.9817431640625,1.0154120834714142,0.08154296875,0.314453125,0.16455078125,45.84764705882353,212.6722835848713
-0.2330107421875,-0.1200908203125,0.9817431640625,1.0161375159305692,0.087890625,0.3134765625,0.1689453125,45.89470588235295,212.63939019003803
-0.2300810546875,-0.1181376953125,0.9822314453125,1.015712763994105,0.0615234375,0.32958984375,0.15966796875,45.565294117647056,212.63939019003803
-0.2344755859375,-0.1220439453125,0.9812548828125,1.0162355386580155,0.06591796875,0.37353515625,0.1396484375,45.565294117647056,212.63939019003803
-0.2442412109375,-0.1220439453125,0.9973681640625,1.0340656402729271,0.0517578125,0.4306640625,0.115234375,45.84764705882353,212.63939019003803
-0.2393583984375,-0.1269267578125,0.9836962890625,1.0203240827632618,0.0166015625,0.498046875,0.1025390625,45.89470588235295,212.63939019003803
-0.2354521484375,-0.1176494140625,0.9934619140625,1.0277381347044636,0.03857421875,0.47509765625,0.08349609375,45.565294117647056,212.64746939485403
-0.2354521484375,-0.1191142578125,0.9851611328125,1.01988645359298,0.0439453125,0.5205078125,0.0771484375,46.03588235294118,212.64746939485403
-0.2393583984375,-0.1156962890625,0.9832080078125,1.0185165982113515,0.0537109375,0.52685546875,0.138671875,45.7535294117647,212.64746939485403
-0.2325224609375,-0.1166728515625,0.9895556640625,1.0231811478962716,0.0283203125,0.5400390625,0.16552734375,46.03588235294118,212.64746939485403
-0.2364287109375,-0.1200908203125,0.9827197265625,1.0178695404883535,0.05126953125,0.56396484375,0.17822265625,45.70647058823529,212.6722835848713
-0.2349638671875,-0.1117900390625,0.9797900390625,1.013752214480144,0.025390625,0.6005859375,0.1767578125,45.84764705882353,212.6722835848713
-0.2227568359375,-0.1152080078125,0.9744189453125,1.0061738289206972,-0.01513671875,0.5654296875,0.13037109375,45.70647058823529,212.6722835848713
-0.2242216796875,-0.1122783203125,0.9719775390625,1.0038038251053212,-0.0126953125,0.44580078125,0.0791015625,45.7535294117647,212.6722835848713
-0.2242216796875,-0.1210673828125,0.9675830078125,1.000574609826992,0.02001953125,0.37109375,0.0595703125,45.7535294117647,212.6722835848713
-0.2295927734375,-0.1210673828125,0.9739306640625,1.0079241495256546,0.01220703125,0.29345703125,0.05810546875,45.7535294117647,212.98823693384895
-0.2457060546875,-0.1269267578125,0.9802783203125,1.018541826550872,0.029296875,0.29833984375,0.07470703125,45.70647058823529,212.98823693384895
-0.2471708984375,-0.1269267578125,0.9836962890625,1.0221850341295982,0.029296875,0.36572265625,0.08056640625,45.70647058823529,212.98823693384895
-0.2461943359375,-0.1264384765625,0.9866259765625,1.0247093036715629,0.04345703125,0.37548828125,0.10400390625,45.84764705882353,212.98823693384895
-0.2452177734375,-0.1244853515625,0.9841845703125,1.0218843513844826,0.0244140625,0.64208984375,0.13525390625,45.94176470588236,212.9253333893069
-0.2364287109375,-0.1220439453125,0.9812548828125,1.0166879585135165,-0.02001953125,0.732421875,0.15673828125,45.89470588235295,212.9253333893069
-0.2383818359375,-0.1181376953125,0.9763720703125,1.0119707675842222,-0.0380859375,0.64111328125,0.13037109375,45.7535294117647,212.9253333893069
-0.2461943359375,-0.1191142578125,0.9705126953125,1.0083128230983989,-0.01318359375,0.53271484375,0.11962890625,46.03588235294118,212.9253333893069
-0.2481474609375,-0.1215556640625,0.9739306640625,1.0123704263937316,0.02490234375,0.43212890625,0.14306640625,45.84764705882353,212.9253333893069
-0.2437529296875,-0.1171611328125,0.9627001953125,0.9999669433675662,0.037109375,0.4189453125,0.21728515625,45.7535294117647,212.54359652388493
-0.2330107421875,-0.1083720703125,0.9729541015625,1.0063191319585845,0.05224609375,0.4013671875,0.21484375,45.61235294117647,212.54359652388493
-0.2291044921875,-0.1161845703125,0.9651416015625,0.9987422258950606,0.02001953125,0.43798828125,0.22314453125,45.7535294117647,212.54359652388493
-0.2222685546875,-0.1137431640625,0.9680712890625,0.9997513883365952,0.0634765625,0.3779296875,0.16455078125,46.03588235294118,212.54359652388493
-0.2276396484375,-0.1186259765625,0.9602587890625,0.9939762943993856,0.04541015625,0.34130859375,0.1123046875,45.7535294117647,212.7118133234633
-0.2383818359375,-0.1264384765625,0.9690478515625,1.0059156657882788,0.041015625,0.33349609375,0.0888671875,46.08294117647059,212.7118133234633
-0.2457060546875,-0.1239970703125,0.9724658203125,1.010661422253884,0.05078125,0.25,0.10107421875,45.94176470588236,212.7118133234633
-0.2491240234375,-0.1220439453125,0.9724658203125,1.0112602411432936,0.029296875,0.4228515625,0.11279296875,45.70647058823529,212.7118133234633
-0.2535185546875,-0.1283916015625,0.9705126953125,1.0112620593522512,0.01953125,0.37841796875,0.11376953125,45.61235294117647,212.7118133234633
-0.2598662109375,-0.1274150390625,0.9802783203125,1.022110867294252,0.0224609375,0.30517578125,0.11376953125,45.7535294117647,212.4368390954624
-0.2735380859375,-0.1249736328125,0.9817431640625,1.0267721916472776,0.041015625,0.28955078125,0.1220703125,45.84764705882353,212.4368390954624
-0.2720732421875,-0.1210673828125,0.9832080078125,1.0273164784632396,0.03564453125,0.2900390625,0.12646484375,46.224117647058826,212.4368390954624
-0.2715849609375,-0.1171611328125,0.9846728515625,1.0281370271775825,0.03759765625,0.35107421875,0.10498046875,45.89470588235295,212.4368390954624
-0.2706083984375,-0.1181376953125,0.9846728515625,1.027991266968199,0.0361328125,0.4404296875,0.10302734375,45.89470588235295,212.5750466249436
-0.2681669921875,-0.1196025390625,0.9944384765625,1.0368829185192674,0.072265625,0.53369140625,0.16650390625,46.03588235294118,212.5750466249436
-0.2457060546875,-0.1225322265625,0.9641650390625,1.0024968001978125,0.05078125,0.552734375,0.166015625,45.7535294117647,212.5750466249436
-0.2354521484375,-0.1166728515625,0.9778369140625,1.0125291595795316,-0.01171875,0.44677734375,0.0458984375,45.7535294117647,212.5750466249436
-0.2281279296875,-0.1186259765625,0.9700244140625,1.0035247074667413,-0.01806640625,0.32568359375,-0.12939453125,46.224117647058826,212.5750466249436
-0.2344755859375,-0.1225322265625,0.9666064453125,1.0021581547174905,-0.0166015625,0.236328125,-0.201171875,45.84764705882353,212.4916613917814
-0.2364287109375,-0.1327861328125,0.9656298828125,1.0029814370183276,0.00244140625,0.1904296875,-0.16796875,45.7535294117647,212.4916613917814
-0.2637724609375,-0.0697978515625,0.9768603515625,1.014250362428615,0.00390625,0.0625,0.0576171875,45.89470588235295,212.4916613917814
-0.2349638671875,-0.1459697265625,0.9744189453125,1.0129202638610608,0.0556640625,0.22607421875,0.0078125,45.7535294117647,212.4916613917814
-0.2295927734375,-0.1327861328125,0.9539111328125,0.990096686180521,0.03515625,0.2294921875,0.0703125,45.89470588235295,212.7008489724364
-0.2403349609375,-0.1230205078125,0.9807666015625,1.0172502472507592,0.08935546875,0.20703125,0.09033203125,45.7535294117647,212.7008489724364
-0.2315458984375,-0.1171611328125,0.9617236328125,0.9961187579978652,0.07470703125,0.1806640625,0.0498046875,45.94176470588236,212.7008489724364
-0.2383818359375,-0.1181376953125,0.9656298828125,1.0016104459015815,0.05712890625,0.15087890625,0.00830078125,46.03588235294118,212.7008489724364
-0.2305693359375,-0.1259501953125,0.9700244140625,1.004974146061088,0.05908203125,0.16552734375,0.044921875,45.84764705882353,212.7008489724364
-0.2286162109375,-0.1318095703125,0.9627001953125,0.9982138051460274,0.056640625,0.19287109375,0.0673828125,45.94176470588236,212.7556708666155
-0.2320341796875,-0.1269267578125,0.9578173828125,0.9936621162195082,0.06689453125,0.19482421875,0.09033203125,46.03588235294118,212.7556708666155
-0.2422880859375,-0.1283916015625,0.9607470703125,0.9991110313939552,0.0712890625,0.15869140625,0.13671875,45.565294117647056,212.7556708666155
-0.2466826171875,-0.1215556640625,0.9685595703125,1.006844443959485,0.07470703125,0.12939453125,0.17578125,45.7535294117647,212.7556708666155
-0.2437529296875,-0.1196025390625,0.9631884765625,1.0007258862766697,0.091796875,0.1640625,0.18701171875,46.03588235294118,212.8500243761478
-0.2349638671875,-0.1205791015625,0.9641650390625,0.99968072961707,0.08837890625,0.19921875,0.20263671875,45.89470588235295,212.8500243761478
-0.2251982421875,-0.1239970703125,0.9724658203125,1.005872404138063,0.06396484375,0.21533203125,0.2294921875,46.03588235294118,212.8500243761478
-0.2208037109375,-0.1220439453125,0.9714892578125,1.003713296413021,0.06201171875,0.22119140625,0.22412109375,46.08294117647059,212.8500243761478
-0.2203154296875,-0.1156962890625,0.9797900390625,1.0108971463543246,0.0654296875,0.20166015625,0.1904296875,45.89470588235295,212.8500243761478
-0.2247099609375,-0.1230205078125,0.9763720703125,1.009421136876624,0.07177734375,0.21826171875,0.20068359375,45.7535294117647,212.6050543237632
-0.2227568359375,-0.1235087890625,0.9710009765625,1.0038515455075518,0.0712890625,0.23193359375,0.2001953125,45.7535294117647,212.6050543237632
-0.2291044921875,-0.1254619140625,0.9661181640625,1.0008066082676583,0.06103515625,0.22265625,0.21044921875,45.89470588235295,212.6050543237632
-0.2334990234375,-0.1239970703125,0.9690478515625,1.004465432959366,0.0615234375,0.22314453125,0.23046875,45.7535294117647,212.6050543237632
-0.2276396484375,-0.1191142578125,0.9573291015625,0.9912048348618134,0.0703125,0.21875,0.265625,46.08294117647059,212.8295373936445
-0.2217802734375,-0.1132548828125,0.9543994140625,0.9863525737431464,0.07421875,0.28125,0.28857421875,45.84764705882353,212.8295373936445
-0.2125029296875,-0.1191142578125,0.9558642578125,0.986418866863076,0.072265625,0.27783203125,0.32275390625,45.84764705882353,212.8295373936445
-0.2115263671875,-0.1220439453125,0.9656298828125,0.9960317259924324,0.0849609375,0.2939453125,0.361328125,45.94176470588236,212.8295373936445
-0.2061552734375,-0.1210673828125,0.9578173828125,0.9872038526894767,0.08984375,0.2529296875,0.37939453125,45.89470588235295,212.8295373936445
-0.2110380859375,-0.1254619140625,0.9675830078125,0.998245782662704,0.109375,0.2060546875,0.44482421875,45.7535294117647,212.5736037757561
-0.2168974609375,-0.1279033203125,0.9675830078125,0.9998103044655926,0.1357421875,0.16943359375,0.5712890625,46.08294117647059,212.5736037757561
-0.2266630859375,-0.1215556640625,0.9778369140625,1.0110969115251314,0.11474609375,0.1298828125,0.65234375,45.70647058823529,212.5736037757561
-0.2300810546875,-0.1254619140625,0.9734423828125,1.0081012133025218,0.1064453125,0.11376953125,0.65576171875,45.7535294117647,212.5736037757561
-0.2325224609375,-0.1200908203125,0.9753955078125,1.0098935075663005,0.1318359375,0.1708984375,0.5703125,45.61235294117647,212.9472622000492
-0.2349638671875,-0.1181376953125,0.9832080078125,1.0177733149204098,0.10595703125,0.22802734375,0.45556640625,46.08294117647059,212.9472622000492
-0.2383818359375,-0.1181376953125,0.9773486328125,1.0129130095023686,0.0849609375,0.25830078125,0.376953125,45.7535294117647,212.9472622000492
-0.2486357421875,-0.1205791015625,0.9700244140625,1.0086160894532892,0.087890625,0.3271484375,0.3681640625,46.08294117647059,212.9472622000492
