AccX,AccY,AccZ,Magnitude,GyroX,GyroY,GyroZ,Temperature,Altitude
-0.1509794921875,0.0503193359375,0.9934619140625,1.00612793288086,0.04150390625,0.2783203125,0.24951171875,42.83588235294118,459.0597403729658
-0.1573271484375,0.0508076171875,0.9963916015625,1.010014588639209,0.05126953125,0.28076171875,0.12353515625,43.02411764705882,459.0597403729658
-0.1626982421875,0.0537373046875,0.9885791015625,1.0033180233465857,0.03515625,0.2646484375,0.12255859375,42.83588235294118,459.0597403729658
-0.1602568359375,0.0527607421875,0.9924853515625,1.00672395543516,0.0419921875,0.2626953125,0.1259765625,42.74176470588235,459.0597403729658
-0.1626982421875,0.0508076171875,0.9880908203125,1.002684198120726,0.0498046875,0.26220703125,0.1435546875,42.93,458.90435022641054
-0.1651396484375,0.0542255859375,0.9900439453125,1.0051858192922674,0.08251953125,0.28076171875,0.14013671875,42.60058823529412,458.90435022641054
-0.1626982421875,0.0532490234375,0.9890673828125,1.0037731139313897,0.10205078125,0.3095703125,0.1376953125,42.788823529411765,458.90435022641054
-0.1626982421875,0.0503193359375,0.9876025390625,1.0021783916762477,0.1171875,0.33154296875,0.15283203125,42.08294117647059,458.90435022641054
-0.1612333984375,0.0498310546875,0.9866259765625,1.0009546245514234,0.1640625,0.3837890625,0.1416015625,42.64764705882353,458.90435022641054
-0.1548857421875,0.0522724609375,0.9871142578125,1.000558124889383,0.15673828125,0.45263671875,0.14599609375,42.74176470588235,458.9213700828993
-0.1583037109375,0.0566669921875,0.9895556640625,1.0037388231897466,0.18017578125,0.47021484375,0.14599609375,42.788823529411765,458.9213700828993
-0.1568388671875,0.0498310546875,0.9890673828125,1.0026643765565304,0.1875,0.4921875,0.1416015625,43.02411764705882,458.9213700828993
-0.1558623046875,0.0512958984375,0.9949267578125,1.008366788738256,0.197265625,0.51708984375,0.11083984375,42.788823529411765,458.9213700828993
-0.1548857421875,0.0493427734375,0.9895556640625,1.0028183857018442,0.193359375,0.5244140625,0.11279296875,43.02411764705882,458.9183547438541
-0.1597685546875,0.0512958984375,0.9856494140625,0.999830999572024,0.20654296875,0.51708984375,0.08251953125,42.83588235294118,458.9183547438541
-0.1651396484375,0.0498310546875,0.9910205078125,1.0059204165351627,0.18115234375,0.50244140625,0.0986328125,42.93,458.9183547438541
-0.1695341796875,0.0522724609375,0.9890673828125,1.0048524946470223,0.189453125,0.50390625,0.12451171875,43.02411764705882,458.9183547438541
-0.1714873046875,0.0527607421875,0.9827197265625,0.998964289932445,0.185546875,0.501953125,0.18212890625,42.93,458.9183547438541
-0.1685576171875,0.0561787109375,0.9895556640625,1.005379595054874,0.21240234375,0.47607421875,0.1884765625,43.02411764705882,458.7649865547058
-0.1705107421875,0.0556904296875,0.9832080078125,0.999436503129006,0.1923828125,0.478515625,0.16748046875,42.03588235294118,458.7649865547058
-0.1714873046875,0.0508076171875,0.9890673828125,1.0051087490300856,0.20947265625,0.46728515625,0.142578125,43.25941176470588,458.7649865547058
-0.1788115234375,0.0483662109375,0.9880908203125,1.005304093526093,0.17236328125,0.49072265625,0.11865234375,43.25941176470588,458.7649865547058
-0.1880888671875,0.0566669921875,0.9885791015625,1.007907341976223,0.14892578125,0.529296875,0.12744140625,42.60058823529412,458.9353908001577
-0.1744169921875,0.0605732421875,0.9910205078125,1.0080734356869967,0.1142578125,0.56298828125,0.126953125,42.788823529411765,458.9353908001577
-0.1680693359375,0.0620380859375,0.9910205078125,1.0070837466140572,0.12060546875,0.55224609375,0.1103515625,42.64764705882353,458.9353908001577
-0.1783232421875,0.0532490234375,0.9900439453125,1.0073835668955742,0.115234375,0.568359375,0.10107421875,42.788823529411765,458.9353908001577
-0.1841826171875,0.0532490234375,0.9895556640625,1.00795788962102,0.10595703125,0.57373046875,0.06298828125,42.83588235294118,458.9353908001577
-0.1876005859375,0.0503193359375,0.9963916015625,1.01514641263099,0.08544921875,0.541015625,-0.00439453125,42.97705882352941,458.816105591705
-0.1924833984375,0.0439716796875,0.9910205078125,1.0104974092958057,0.0869140625,0.4912109375,-0.06591796875,42.788823529411765,458.816105591705
-0.1959013671875,0.0498310546875,0.9949267578125,1.0152535314336482,0.06201171875,0.43359375,-0.07763671875,42.788823529411765,458.816105591705
-0.1890654296875,0.0473896484375,0.9993212890625,1.0181525201341328,0.05908203125,0.38916015625,-0.1123046875,42.93,458.816105591705
-0.1817412109375,0.0508076171875,0.9915087890625,1.0093071685594457,0.0517578125,0.30712890625,-0.12255859375,42.83588235294118,458.8471801205392
-0.1773466796875,0.0498310546875,0.9900439453125,1.0070362418788066,0.0283203125,0.23486328125,-0.10205078125,42.93,458.8471801205392
-0.1807646484375,0.0517841796875,0.9890673828125,1.00678286990503,0.041015625,0.2041015625,-0.07080078125,43.02411764705882,458.8471801205392
-0.1812529296875,0.0527607421875,0.9900439453125,1.007880614996845,0.02734375,0.18310546875,-0.04736328125,42.17705882352941,458.8471801205392
-0.1773466796875,0.0449482421875,0.9905322265625,1.0072865933441142,0.03759765625,0.1708984375,-0.04931640625,42.93,458.8471801205392
-0.1709990234375,0.0488544921875,0.9924853515625,1.008292914033227,0.02734375,0.1708984375,-0.0078125,42.97705882352941,458.89128534910697
-0.1670927734375,0.0454365234375,0.9929736328125,1.0079588821266352,0.05908203125,0.14501953125,0.03759765625,42.60058823529412,458.89128534910697
-0.1622099609375,0.0512958984375,0.9895556640625,1.0040735794263442,0.05810546875,0.13427734375,0.07373046875,42.17705882352941,458.89128534910697
-0.1666044921875,0.0508076171875,0.9827197265625,0.9980363378937668,0.07666015625,0.12841796875,0.09716796875,43.02411764705882,458.89128534910697
-0.1666044921875,0.0498310546875,0.9836962890625,0.9989487373952964,0.044921875,0.12890625,0.09326171875,42.64764705882353,458.545461658546
-0.1690458984375,0.0498310546875,0.9807666015625,0.9964751760732756,0.06103515625,0.1103515625,0.07177734375,42.788823529411765,458.545461658546
-0.1734404296875,0.0493427734375,0.9797900390625,0.9962453576237053,0.03564453125,0.05126953125,0.00146484375,42.60058823529412,458.545461658546
-0.1690458984375,0.0498310546875,0.9817431640625,0.9974363588586788,0.03369140625,-0.025390625,-0.05810546875,42.93,458.545461658546
-0.1714873046875,0.0517841796875,0.9983447265625,1.014288760654501,0.01025390625,-0.1630859375,-0.07861328125,42.60058823529412,458.545461658546
-0.1646513671875,0.0512958984375,0.9944384765625,1.0092815393046528,-0.0234375,-0.267578125,-0.072265625,43.02411764705882,458.672764085892
-0.1592802734375,0.0547138671875,0.9812548828125,0.9956028112717992,-0.0068359375,-0.2724609375,-0.00341796875,42.93,458.672764085892
-0.1543974609375,0.0547138671875,0.9622119140625,0.9760553010820536,0.1220703125,-0.16162109375,0.0361328125,42.93,458.672764085892
-0.1587919921875,0.0493427734375,0.9661181640625,0.9803233716508422,0.0087890625,-0.0205078125,-0.06884765625,42.93,458.672764085892
-0.1836943359375,0.0469013671875,0.9876025390625,1.005635183584123,0.00732421875,0.02490234375,-0.21826171875,42.93,459.19001212202
-0.2154326171875,0.0473896484375,1.0164111328125005,1.040071431312521,-0.0390625,-0.06787109375,-0.28125,42.74176470588235,459.19001212202
-0.2408232421875,0.0644794921875,1.0339892578125005,1.0636198682622011,-0.1474609375,-0.212890625,-0.25830078125,42.93,459.19001212202
-0.2393583984375,0.0649677734375,1.0212939453125005,1.050977914715606,-0.1328125,-0.31201171875,-0.17431640625,42.64764705882353,459.19001212202
-0.1744169921875,0.0713154296875,0.9793017578125,0.9972658173876712,0.0283203125,-0.16162109375,0.076171875,42.93,459.19001212202
-0.1070341796875,0.0615498046875,0.9656298828125,0.9734915329158892,0.1591796875,0.109375,0.3271484375,42.74176470588235,458.8983065595547
-0.0538115234375,0.0464130859375,0.9680712890625,0.9706759888387252,0.16650390625,0.267578125,0.34912109375,42.60058823529412,458.8983065595547
-0.0767607421875,0.0405537109375,0.9768603515625,0.9807104371152524,0.1279296875,0.28955078125,0.24658203125,42.83588235294118,458.8983065595547
-0.1377958984375,0.0420185546875,0.9973681640625,1.0077184742028034,0.07373046875,0.3359375,0.07470703125,42.93,458.8983065595547
-0.1812529296875,0.0498310546875,0.9978564453125,1.0154079199923884,0.05224609375,0.32275390625,0.0146484375,42.60058823529412,459.00656716471633
-0.1905302734375,0.0532490234375,0.9895556640625,1.0091370847765884,0.07861328125,0.4140625,0.03369140625,42.74176470588235,459.00656716471633
-0.1680693359375,0.0410419921875,0.9919970703125,1.0069706720226632,0.0771484375,0.5205078125,0.02392578125,42.64764705882353,459.00656716471633
-0.1392607421875,0.0425068359375,0.9939501953125,1.0045582990438076,0.05419921875,0.60107421875,-0.07958984375,42.83588235294118,459.00656716471633
-0.1377958984375,0.0361591796875,0.9910205078125,1.0012076921432518,0.09375,0.64208984375,-0.17431640625,42.93,459.00656716471633
-0.1451201171875,0.0327412109375,0.9778369140625,0.9890889069287152,0.06982421875,0.5107421875,-0.1533203125,42.788823529411765,458.9734888655843
-0.1534208984375,0.0346943359375,0.9832080078125,0.9957106284710128,0.109375,0.44140625,-0.0498046875,42.788823529411765,458.9734888655843
-0.1539091796875,0.0342060546875,0.9983447265625,1.01071770679281,0.08984375,0.38037109375,0.01171875,42.93,458.9734888655843
-0.1597685546875,0.0386005859375,1.0017626953125005,1.0151573740171602,0.1142578125,0.357421875,0.0341796875,43.02411764705882,458.9734888655843
-0.1622099609375,0.0420185546875,1.0066455078125005,1.0204963541162009,0.13671875,0.30224609375,0.09228515625,42.64764705882353,459.081750136173
-0.1631865234375,0.0395771484375,1.0071337890625005,1.0210360724193102,0.13427734375,0.27197265625,0.1708984375,42.60058823529412,459.081750136173
-0.1646513671875,0.0444599609375,1.0125048828125005,1.0267681815105258,0.17041015625,0.2197265625,0.224609375,42.93,459.081750136173
-0.1587919921875,0.0444599609375,1.0090869140625005,1.0224715081808484,0.18603515625,0.12841796875,0.298828125,42.74176470588235,459.081750136173
-0.1612333984375,0.0410419921875,1.0007861328125005,1.0145213341888006,0.17626953125,-0.02197265625,0.32666015625,42.83588235294118,459.081750136173
-0.1573271484375,0.0381123046875,0.9929736328125,1.006082011997492,0.1865234375,-0.06689453125,0.34228515625,42.788823529411765,458.95243677273504
-0.1524443359375,0.0415302734375,0.9885791015625,1.0011257060016685,0.17578125,-0.015625,0.328125,42.74176470588235,458.95243677273504
-0.1543974609375,0.0478779296875,0.9905322265625,1.0036358721936816,0.1953125,0.052734375,0.3017578125,42.74176470588235,458.95243677273504
-0.1470732421875,0.0571552734375,0.9895556640625,1.0020567230089492,0.1884765625,0.0869140625,0.32421875,42.788823529411765,458.95243677273504
-0.1602568359375,0.0503193359375,0.9968798828125,1.0109321390628323,0.18603515625,0.13720703125,0.3251953125,42.03588235294118,458.7910475619597
-0.1617216796875,0.0532490234375,1.0007861328125005,1.0151661163611565,0.177734375,0.12744140625,0.328125,42.788823529411765,458.7910475619597
-0.1578154296875,0.0566669921875,1.0027392578125005,1.0166626171003792,0.1689453125,0.08837890625,0.29150390625,42.93,458.7910475619597
-0.1504912109375,0.0566669921875,0.9954150390625,1.0083203124825026,0.1640625,0.083984375,0.30078125,43.21235294117647,458.7910475619597
-0.1309599609375,0.0556904296875,0.9797900390625,0.9900709348191296,0.14306640625,0.06005859375,0.34033203125,42.93,458.7910475619597
-0.1255888671875,0.0527607421875,0.9758837890625,0.9853453350133636,0.14501953125,0.111328125,0.3408203125,42.74176470588235,458.7890462206904
-0.1324248046875,0.0522724609375,0.9651416015625,0.975585490941523,0.13037109375,0.12744140625,0.29150390625,42.788823529411765,458.7890462206904
-0.1456083984375,0.0630146484375,0.9622119140625,0.9752048088361006,0.15087890625,0.08447265625,0.30224609375,42.83588235294118,458.7890462206904
-0.1548857421875,0.0635029296875,0.9607470703125,0.9752215893456831,0.1279296875,0.03857421875,0.29638671875,42.93,458.7890462206904
-0.1602568359375,0.0635029296875,0.9612353515625,0.9765696476120264,0.140625,0.013671875,0.28955078125,42.788823529411765,458.4341967491671
-0.1597685546875,0.0591083984375,0.9666064453125,0.9815028344087684,0.14794921875,0.03271484375,0.27587890625,42.64764705882353,458.4341967491671
-0.1578154296875,0.0591083984375,0.9783251953125,0.9927334488152084,0.14990234375,0.1748046875,0.1396484375,42.788823529411765,458.4341967491671
-0.1670927734375,0.0654560546875,0.9851611328125,1.0013725318954465,0.15771484375,0.3125,-0.0166015625,42.74176470588235,458.4341967491671
-0.1905302734375,0.0600849609375,1.0042041015625005,1.023883716650469,0.13037109375,0.3203125,-0.056640625,42.788823529411765,458.4341967491671
-0.1895537109375,0.0595966796875,0.9993212890625,1.018884395961332,0.1201171875,0.328125,-0.013671875,42.64764705882353,459.1890129551402
-0.1656279296875,0.0630146484375,1.0037158203125005,1.019239375689472,0.248046875,0.32177734375,0.02294921875,42.788823529411765,459.1890129551402
-0.1470732421875,0.0586201171875,1.0090869140625005,1.0214319638814908,0.10302734375,0.36279296875,0.0048828125,43.21235294117647,459.1890129551402
-0.1519560546875,0.0552021484375,1.0090869140625005,1.021956124244327,0.10400390625,0.45263671875,-0.04541015625,42.74176470588235,459.1890129551402
-0.1451201171875,0.0469013671875,1.0076220703125005,1.0190985346066492,0.0654296875,0.4599609375,-0.06298828125,42.93,459.0055672649679
-0.1622099609375,0.0488544921875,1.0071337890625005,1.0212821852483438,0.04296875,0.43115234375,-0.0712890625,42.64764705882353,459.0055672649679
-0.1768583984375,0.0483662109375,1.0061572265625005,1.022727015396714,0.04736328125,0.4150390625,-0.013671875,42.788823529411765,459.0055672649679
-0.1607451171875,0.0532490234375,0.9978564453125,1.0121224909309985,0.0537109375,0.43798828125,0.04150390625,42.788823529411765,459.0055672649679
-0.1426787109375,0.0488544921875,0.9866259765625,0.9980855642627,0.07568359375,0.43994140625,0.0966796875,42.93,459.0055672649679
-0.1187529296875,0.0483662109375,0.9690478515625,0.9774943924584488,0.0732421875,0.39892578125,0.13134765625,42.788823529411765,459.2521735683481
-0.1231474609375,0.0473896484375,0.9753955078125,0.9842801799158548,0.0810546875,0.48095703125,0.1533203125,42.83588235294118,459.2521735683481
-0.1353544921875,0.0415302734375,0.9846728515625,0.9947995912601466,0.09912109375,0.458984375,0.1376953125,42.83588235294118,459.2521735683481
-0.1539091796875,0.0464130859375,0.9758837890625,0.9890355807013734,0.06591796875,0.3505859375,0.19775390625,42.97705882352941,459.2521735683481
-0.1597685546875,0.0473896484375,0.9734423828125,0.9876040919830378,0.0732421875,0.2900390625,0.22509765625,42.83588235294118,459.1238556999104
-0.1573271484375,0.0469013671875,0.9758837890625,0.9895962508187436,0.09423828125,0.22705078125,0.2275390625,42.64764705882353,459.1238556999104
-0.1539091796875,0.0561787109375,0.9753955078125,0.9890604025111324,0.06689453125,0.16796875,0.2236328125,42.74176470588235,459.1238556999104
-0.1475615234375,0.0571552734375,0.9768603515625,0.9895945002553936,0.05712890625,0.0830078125,0.25146484375,43.21235294117647,459.1238556999104
-0.1514677734375,0.0654560546875,0.9753955078125,0.989253950280802,0.06591796875,0.111328125,0.25341796875,42.788823529411765,459.1238556999104
-0.1573271484375,0.0674091796875,0.9880908203125,1.0028057131505814,0.07958984375,0.1240234375,0.22607421875,42.64764705882353,458.82012442668224
-0.1592802734375,0.0674091796875,0.9939501953125,1.0088861153639808,0.0791015625,0.12890625,0.1943359375,42.97705882352941,458.82012442668224
-0.1636748046875,0.0586201171875,0.9890673828125,1.004231072797559,0.06640625,0.00048828125,0.1650390625,42.64764705882353,458.82012442668224
-0.1656279296875,0.0610615234375,0.9959033203125,1.011426984090566,0.0859375,0.15673828125,0.24951171875,42.97705882352941,458.82012442668224
-0.1709990234375,0.0625263671875,0.9846728515625,1.0013644876939016,0.06201171875,0.19189453125,0.07080078125,42.788823529411765,459.188014231672
-0.1685576171875,0.0615498046875,0.9876025390625,1.0037722968540694,0.07666015625,0.2578125,0.0498046875,42.64764705882353,459.188014231672
-0.1607451171875,0.0639912109375,1.0012744140625005,1.0161123560084653,0.0732421875,0.2890625,-0.0009765625,42.83588235294118,459.188014231672
-0.1670927734375,0.0664326171875,1.0037158203125005,1.0196954131048213,0.064453125,0.302734375,-0.021484375,42.60058823529412,459.188014231672
-0.1680693359375,0.0625263671875,1.0012744140625005,1.0172056333565704,0.0625,0.31689453125,-0.0361328125,42.64764705882353,459.188014231672
-0.1670927734375,0.0625263671875,0.9954150390625,1.0112767383463837,0.0576171875,0.27978515625,-0.0712890625,42.83588235294118,459.0687257305419
-0.1705107421875,0.0591083984375,0.9988330078125,1.015004972137055,0.0537109375,0.2431640625,-0.09716796875,42.93,459.0687257305419
-0.1617216796875,0.0610615234375,0.9900439453125,1.0050221017347805,0.04736328125,0.224609375,-0.0966796875,42.83588235294118,459.0687257305419
-0.1519560546875,0.0610615234375,0.9783251953125,0.9919371653405976,0.03564453125,0.23779296875,-0.076171875,42.93,459.0687257305419
-0.1363310546875,0.0610615234375,0.9768603515625,0.988215974659146,0.03173828125,0.2578125,-0.06787109375,42.93,458.9494379918052
-0.1368193359375,0.0576435546875,0.9714892578125,0.9827683796950692,0.052734375,0.2744140625,-0.07470703125,42.74176470588235,458.9494379918052
-0.1460966796875,0.0566669921875,0.9773486328125,0.989831166350986,0.0302734375,0.28125,-0.10791015625,42.788823529411765,458.9494379918052
-0.1597685546875,0.0483662109375,0.9827197265625,0.9967965401236394,0.03125,0.2294921875,-0.09326171875,42.83588235294118,458.9494379918052
-0.1656279296875,0.0517841796875,0.9890673828125,1.0041755325151291,0.03125,0.291015625,-0.05322265625,42.74176470588235,458.9494379918052
-0.1583037109375,0.0508076171875,0.9846728515625,0.998610085801801,0.03125,0.29443359375,-0.046875,42.64764705882353,459.0456754691377
-0.1626982421875,0.0498310546875,0.9890673828125,1.0035975985252952,0.02978515625,0.26123046875,-0.01123046875,42.788823529411765,459.0456754691377
-0.1597685546875,0.0469013671875,0.9939501953125,1.007800932760407,0.044921875,0.2490234375,0.009765625,42.93,459.0456754691377
-0.1553740234375,0.0517841796875,0.9929736328125,1.0063892506808276,0.04443359375,0.24560546875,0.02587890625,42.506470588235295,459.0456754691377
-0.1636748046875,0.0552021484375,0.9944384765625,1.009328788130782,0.06396484375,0.26708984375,-0.0244140625,42.788823529411765,458.9053343886403
-0.1666044921875,0.0610615234375,0.9983447265625,1.0139910056389634,0.044921875,0.25439453125,-0.03759765625,42.83588235294118,458.9053343886403
-0.1646513671875,0.0600849609375,0.9968798828125,1.012170823529229,0.06201171875,0.28369140625,-0.041015625,42.08294117647059,458.9053343886403
-0.1548857421875,0.0537373046875,0.9919970703125,1.005452872369776,0.0576171875,0.306640625,-0.05859375,42.64764705882353,458.9053343886403
-0.1543974609375,0.0571552734375,0.9959033203125,1.0094199941724575,0.0751953125,0.3271484375,-0.04248046875,43.25941176470588,458.9053343886403
-0.1568388671875,0.0556904296875,0.9890673828125,1.002972652649615,0.07421875,0.359375,-0.03662109375,42.93,459.09980675965454
-0.1558623046875,0.0542255859375,0.9832080078125,0.9969611119895246,0.08935546875,0.419921875,-0.02294921875,42.788823529411765,459.09980675965454
-0.1563505859375,0.0591083984375,0.9866259765625,1.000684828563296,0.1025390625,0.47119140625,-0.0107421875,42.64764705882353,459.09980675965454
-0.1602568359375,0.0522724609375,0.9817431640625,0.9961095842429236,0.09228515625,0.4970703125,0.0078125,42.74176470588235,459.09980675965454
-0.1602568359375,0.0552021484375,0.9841845703125,0.9986735197741128,0.13671875,0.55224609375,0.01806640625,42.93,458.7339162638165
-0.1636748046875,0.0581318359375,0.9846728515625,0.999874680469098,0.1279296875,0.61279296875,-0.0146484375,42.788823529411765,458.7339162638165
-0.1578154296875,0.0591083984375,0.9836962890625,0.9980270045087108,0.11181640625,0.60107421875,-0.07470703125,42.93,458.7339162638165
-0.1675810546875,0.0556904296875,0.9890673828125,1.0047084759235,0.12109375,0.5693359375,-0.08935546875,42.97705882352941,458.7339162638165
-0.1709990234375,0.0605732421875,0.9924853515625,1.0089286182638608,0.12109375,0.5556640625,-0.06103515625,42.83588235294118,458.7339162638165
-0.1709990234375,0.0605732421875,0.9929736328125,1.0094089454460655,0.119140625,0.59765625,-0.06396484375,42.93,459.2952794765933
-0.1617216796875,0.0581318359375,0.9929736328125,1.0077350085668677,0.11376953125,0.58837890625,-0.1083984375,42.64764705882353,459.2952794765933
-0.1636748046875,0.0639912109375,1.0012744140625005,1.0165799373502027,0.123046875,0.58544921875,-0.11181640625,42.74176470588235,459.2952794765933
-0.1578154296875,0.0591083984375,0.9939501953125,1.0081351612631382,0.10400390625,0.49169921875,-0.12890625,42.788823529411765,459.2952794765933
-0.1617216796875,0.0542255859375,0.9998095703125,1.0142551418354642,0.072265625,0.3984375,-0.0986328125,42.93,459.0687257305419
-0.1626982421875,0.0547138671875,0.9963916015625,1.0110690129451092,0.06005859375,0.34423828125,-0.03662109375,41.89470588235295,459.0687257305419
-0.1695341796875,0.0605732421875,0.9954150390625,1.0115641629393648,0.07275390625,0.33984375,-0.01708984375,42.74176470588235,459.0687257305419
-0.1734404296875,0.0600849609375,0.9866259765625,1.0035549824543508,0.06640625,0.33740234375,-0.00732421875,42.64764705882353,459.0687257305419
-0.1768583984375,0.0605732421875,0.9856494140625,1.0032212010363082,0.044921875,0.3681640625,0.0087890625,42.788823529411765,459.0687257305419
-0.1700224609375,0.0571552734375,0.9832080078125,0.999436015526549,0.033203125,0.35986328125,-0.00927734375,43.118235294117646,458.9163602685719
-0.1719755859375,0.0571552734375,0.9856494140625,1.0021711904071138,0.02392578125,0.3623046875,-0.0419921875,43.25941176470588,458.9163602685719
-0.1773466796875,0.0605732421875,0.9807666015625,0.998510935946994,0.0302734375,0.369140625,-0.080078125,42.93,458.9163602685719
-0.1797880859375,0.0610615234375,0.9880908203125,1.0061688400439597,0.02490234375,0.376953125,-0.09619140625,42.788823529411765,458.9163602685719
-0.1778349609375,0.0610615234375,0.9807666015625,0.998627512998018,0.013671875,0.35986328125,-0.05126953125,42.83588235294118,458.88528067970566
-0.1719755859375,0.0630146484375,0.9905322265625,1.0073234534821038,0.01123046875,0.376953125,0.005859375,42.83588235294118,458.88528067970566
-0.1700224609375,0.0581318359375,0.9978564453125,1.0139055345664143,0.01171875,0.32177734375,0.06396484375,42.93,458.88528067970566
-0.1719755859375,0.0547138671875,0.9905322265625,1.0068382696739442,0.03466796875,0.3037109375,0.10791015625,42.64764705882353,458.88528067970566
-0.1700224609375,0.0537373046875,0.9973681640625,1.0131824069849036,0.0302734375,0.29736328125,0.15234375,42.64764705882353,458.88528067970566
-0.1758818359375,0.0527607421875,0.9919970703125,1.0088489994233552,0.03271484375,0.24560546875,0.16015625,42.788823529411765,459.0125979214686
-0.1700224609375,0.0600849609375,0.9866259765625,1.0029699184831076,0.01708984375,0.2705078125,0.1279296875,42.93,459.0125979214686
-0.1783232421875,0.0586201171875,0.9885791015625,1.006242583520225,0.01416015625,0.279296875,0.1142578125,42.17705882352941,459.0125979214686
-0.1719755859375,0.0591083984375,0.9929736328125,1.0094880090349,0.00537109375,0.3173828125,0.08837890625,42.788823529411765,459.0125979214686
-0.1641630859375,0.0552021484375,0.9866259765625,1.0017123407468562,-0.0283203125,0.29736328125,0.0576171875,42.788823529411765,458.74394246674336
-0.1675810546875,0.0498310546875,0.9807666015625,0.9962277202737831,-0.041015625,0.2978515625,0.046875,42.93,458.74394246674336
-0.1607451171875,0.0508076171875,0.9866259765625,1.000925184163033,-0.068359375,0.35009765625,0.04443359375,42.64764705882353,458.74394246674336
-0.1700224609375,0.0434833984375,0.9783251953125,0.9939409594871114,-0.08642578125,0.39697265625,0.07080078125,42.788823529411765,458.74394246674336
-0.1773466796875,0.0459248046875,0.9812548828125,0.9982094357023176,-0.1025390625,0.46923828125,0.0791015625,42.788823529411765,458.74394246674336
-0.1851591796875,0.0454365234375,0.9861376953125,1.004398304260259,-0.0869140625,0.54833984375,0.0546875,42.93,458.8502051975393
-0.1905302734375,0.0410419921875,0.9768603515625,0.9961136364259344,-0.09716796875,0.62939453125,0.0283203125,42.60058823529412,458.8502051975393
-0.1959013671875,0.0512958984375,0.9890673828125,1.0095855102991578,-0.06982421875,0.72216796875,0.0498046875,42.93,458.8502051975393
-0.1924833984375,0.0512958984375,0.9876025390625,1.0074918873287548,-0.0908203125,0.751953125,0.0693359375,42.788823529411765,458.8502051975393
-0.1988310546875,0.0586201171875,0.9915087890625,1.0129460919690667,-0.09326171875,0.83154296875,0.10595703125,42.97705882352941,458.7319173083757
-0.2007841796875,0.0522724609375,0.9924853515625,1.0139397763434397,-0.08544921875,0.859375,0.09912109375,42.83588235294118,458.7319173083757
-0.2120146484375,0.0464130859375,0.9968798828125,1.0202322708357066,-0.08349609375,0.7890625,0.107421875,42.788823529411765,458.7319173083757
-0.2066435546875,0.0459248046875,1.0017626953125005,1.0238843411729843,-0.07470703125,0.69482421875,0.1435546875,42.788823529411765,458.7319173083757
-0.2081083984375,0.0434833984375,1.0051806640625005,1.0274181616289566,-0.052734375,0.6611328125,0.11767578125,42.83588235294118,458.7319173083757
-0.2056669921875,0.0410419921875,0.9929736328125,1.014879299354867,-0.0908203125,0.66015625,0.1142578125,42.08294117647059,458.6036050453505
-0.2120146484375,0.0415302734375,0.9929736328125,1.0162045120076588,-0.08349609375,0.6689453125,0.15380859375,42.788823529411765,458.6036050453505
-0.2125029296875,0.0405537109375,0.9832080078125,1.006727413564962,-0.06982421875,0.65283203125,0.21337890625,42.93,458.6036050453505
-0.1968779296875,0.0464130859375,0.9954150390625,1.0157589250093138,-0.05078125,0.6201171875,0.25537109375,42.788823529411765,458.6036050453505
-0.1680693359375,0.0512958984375,0.9915087890625,1.0069599046968891,-0.0419921875,0.60400390625,0.201171875,42.97705882352941,458.8391794010364
-0.1529326171875,0.0449482421875,0.9929736328125,1.005686514444943,-0.04541015625,0.60009765625,0.08544921875,42.788823529411765,458.8391794010364
-0.1475615234375,0.0337177734375,0.9827197265625,0.9943084795071664,-0.07763671875,0.62353515625,0.0087890625,42.93,458.8391794010364
-0.1656279296875,0.0351826171875,0.9841845703125,0.9986439285781143,-0.0751953125,0.35791015625,-0.02880859375,42.64764705882353,458.8391794010364
-0.1890654296875,0.0444599609375,0.9895556640625,1.0084358368818804,-0.12255859375,0.3466796875,-0.05322265625,42.97705882352941,458.8391794010364
-0.2032255859375,0.0405537109375,0.9778369140625,0.9995550373809916,-0.111328125,0.36865234375,-0.01708984375,42.60058823529412,458.6346832174593
-0.2120146484375,0.0425068359375,0.9924853515625,1.0157677959650195,-0.08154296875,0.4150390625,-0.01123046875,42.83588235294118,458.6346832174593
-0.2159208984375,0.0351826171875,0.9929736328125,1.016787237525665,-0.14306640625,0.44140625,-0.0224609375,42.93,458.6346832174593
-0.2261748046875,0.0376240234375,0.9963916015625,1.0224318231937708,-0.14111328125,0.548828125,-0.07861328125,42.64764705882353,458.6346832174593
-0.2237333984375,0.0361591796875,1.0022509765625005,1.0275559059596473,-0.2080078125,0.63525390625,-0.1298828125,42.64764705882353,458.8722568322693
-0.2198271484375,0.0356708984375,0.9959033203125,1.0204997852008413,-0.22119140625,0.61572265625,-0.10009765625,42.64764705882353,458.8722568322693
-0.2149443359375,0.0317646484375,0.9822314453125,1.0059764771616948,-0.1875,0.43408203125,-0.01513671875,42.788823529411765,458.8722568322693
-0.1919951171875,0.0351826171875,0.9832080078125,1.0023960934693577,-0.15380859375,0.2978515625,0.0576171875,42.93,458.8722568322693
-0.1685576171875,0.0307880859375,0.9729541015625,0.987926748445913,-0.1650390625,0.095703125,0.08984375,42.60058823529412,458.8722568322693
-0.1719755859375,0.0219990234375,0.9846728515625,0.9998200757111128,-0.05517578125,-0.20947265625,0.14208984375,42.97705882352941,458.6447098462364
-0.1666044921875,0.0351826171875,0.9861376953125,1.0007309466012662,-0.02490234375,-0.22998046875,0.11376953125,42.93,458.6447098462364
-0.1705107421875,0.0346943359375,0.9739306640625,0.9893525906110008,-0.02685546875,-0.255859375,0.11865234375,42.64764705882353,458.6447098462364
-0.1690458984375,0.0366474609375,0.9641650390625,0.9795579486289208,0.0009765625,-0.21142578125,0.1513671875,42.788823529411765,458.6447098462364
-0.1617216796875,0.0376240234375,0.9695361328125,0.983651250011705,0.0537109375,-0.06884765625,0.19189453125,42.60058823529412,459.0116001775493
-0.1548857421875,0.0302998046875,0.9695361328125,0.982297299256234,0.078125,0.0263671875,0.20166015625,42.74176470588235,459.0116001775493
-0.1519560546875,0.0195576171875,0.9675830078125,0.9796376983118442,0.07275390625,0.08935546875,0.177734375,42.93,459.0116001775493
-0.1514677734375,0.0254169921875,0.9685595703125,0.98066107862294,0.095703125,0.08056640625,0.15625,42.93,459.0116001775493
-0.1500029296875,0.0259052734375,0.9607470703125,0.9727316666073724,0.10546875,0.11962890625,0.0830078125,42.97705882352941,459.0116001775493
-0.1534208984375,0.0283466796875,0.9524462890625,0.9651401141158744,0.091796875,0.1767578125,0.0478515625,42.83588235294118,459.1088373854117
-0.1612333984375,0.0259052734375,0.9548876953125,0.9687506400631668,0.09375,0.2197265625,0.02978515625,43.25941176470588,459.1088373854117
-0.1700224609375,0.0293232421875,0.9670947265625,0.9823643417289876,0.11669921875,0.271484375,0.02197265625,42.83588235294118,459.1088373854117
-0.1861357421875,0.0302998046875,0.9695361328125,0.9877068925105312,0.1123046875,0.32080078125,0.0302734375,42.74176470588235,459.1088373854117
-0.1988310546875,0.0298115234375,0.9812548828125,1.0016404845458182,0.1181640625,0.31005859375,0.0810546875,42.97705882352941,459.3674759137395
-0.2081083984375,0.0219990234375,0.9836962890625,1.0057094270452869,0.12353515625,0.24169921875,0.17041015625,42.788823529411765,459.3674759137395
-0.2168974609375,0.0229755859375,0.9871142578125,1.0109238072609767,0.1279296875,0.16455078125,0.24755859375,42.64764705882353,459.3674759137395
-0.2115263671875,0.0215107421875,0.9919970703125,1.0145266401399131,0.1220703125,0.1435546875,0.29345703125,42.788823529411765,459.3674759137395
-0.1954130859375,0.0146748046875,0.9880908203125,1.0073356408040284,0.123046875,0.1181640625,0.32958984375,42.83588235294118,459.3674759137395
-0.1905302734375,0.0117451171875,0.9885791015625,1.0068407882679546,0.10400390625,0.10791015625,0.3828125,42.60058823529412,459.1509466003533
-0.1983427734375,0.0093037109375,0.9929736328125,1.0126317446500193,0.10546875,0.10791015625,0.4072265625,42.93,459.1509466003533
-0.2017607421875,0.0073505859375,0.9978564453125,1.018076084412837,0.10009765625,0.1572265625,0.4697265625,41.89470588235295,459.1509466003533
-0.2105498046875,0.0083271484375,1.0085986328125005,1.0303745744952606,0.0966796875,0.154296875,0.49169921875,43.25941176470588,459.1509466003533
-0.2144560546875,-0.0024150390624999,1.0027392578125005,1.0254185735416368,0.0751953125,0.1162109375,0.52685546875,42.60058823529412,458.8692633276712
-0.2178740234375,-0.0102275390624999,0.9993212890625,1.0228473646725869,0.04931640625,0.09814453125,0.57421875,42.64764705882353,458.8692633276712
-0.2139677734375,-0.0092509765624999,0.9988330078125,1.0215356900925816,0.02587890625,0.0458984375,0.63671875,42.788823529411765,458.8692633276712
-0.2071318359375,-0.0141337890624999,0.9988330078125,1.0201817185912854,0.0087890625,0.01806640625,0.72265625,42.788823529411765,458.8692633276712
-0.1968779296875,-0.0155986328124999,1.0002978515625005,1.0196077816416511,-0.009765625,0.03564453125,0.77685546875,42.83588235294118,458.8692633276712
-0.1939482421875,-0.0268291015625,0.9998095703125,1.0188007156587289,-0.0341796875,0.0087890625,0.79541015625,42.788823529411765,458.9885514930058
-0.2027373046875,-0.0243876953125,0.9983447265625,1.0190139191638947,-0.048828125,-0.02880859375,0.7958984375,42.60058823529412,458.9885514930058
-0.2037138671875,-0.0263408203125,0.9949267578125,1.0159096573566544,-0.0673828125,-0.0654296875,0.82666015625,42.64764705882353,458.9885514930058
-0.1929716796875,-0.0326884765625,0.9885791015625,1.0077674561661096,-0.0888671875,-0.03564453125,0.8798828125,42.83588235294118,458.9885514930058
-0.1768583984375,-0.0307353515625,0.9802783203125,0.9965787175172088,-0.1201171875,-0.0107421875,0.92333984375,42.93,458.8181262653141
-0.1626982421875,-0.0287822265625,0.9861376953125,0.9998833375414587,-0.13916015625,0.03515625,0.96923828125,43.02411764705882,458.8181262653141
-0.1656279296875,-0.0234111328125,0.9827197265625,0.9968544292960768,-0.158203125,0.1337890625,1.01904296875,43.02411764705882,458.8181262653141
-0.1675810546875,-0.0273173828125,0.9890673828125,1.003535717868312,-0.2080078125,0.14013671875,1.0234375,42.93,458.8181262653141
-0.1729521484375,-0.0273173828125,0.9822314453125,0.9977160403709838,-0.234375,0.02294921875,1.04541015625,42.788823529411765,458.8181262653141
-0.1866240234375,-0.0287822265625,0.9656298828125,0.9839197189153076,-0.27978515625,-0.02978515625,1.15087890625,42.97705882352941,458.8913146506898
-0.1910185546875,-0.0219462890625,0.9666064453125,0.9855443916730404,-0.265625,-0.11865234375,1.28857421875,42.93,458.8913146506898
-0.1871123046875,-0.0214580078125,0.9700244140625,0.9881390714580848,-0.30029296875,-0.0537109375,1.34423828125,42.64764705882353,458.8913146506898
-0.1763701171875,-0.0214580078125,0.9822314453125,0.9981710657480994,-0.2763671875,-0.07373046875,1.3896484375,42.83588235294118,458.8913146506898
-0.1709990234375,-0.0263408203125,0.9695361328125,0.9848526883043636,-0.2900390625,-0.14306640625,1.4501953125,42.74176470588235,459.2040824750582
-0.1666044921875,-0.0336650390625,0.9631884765625,0.978070770984863,-0.3095703125,-0.1875,1.51171875,42.788823529411765,459.2040824750582
-0.1700224609375,-0.0365947265625,0.9724658203125,0.9878950262611365,-0.32177734375,-0.18994140625,1.52880859375,42.83588235294118,459.2040824750582
-0.1690458984375,-0.0326884765625,0.9768603515625,0.99191793951583,-0.34326171875,-0.20361328125,1.5234375,42.64764705882353,459.2040824750582
-0.1690458984375,-0.0331767578125,0.9788134765625,0.9938576532571748,-0.36572265625,-0.25048828125,1.5859375,42.64764705882353,459.2040824750582
-0.1636748046875,-0.0312236328125,0.9788134765625,0.992894847824214,-0.36962890625,-0.33349609375,1.6357421875,43.118235294117646,459.0737670198623
-0.1680693359375,-0.0263408203125,0.9846728515625,0.99926060920134,-0.37939453125,-0.310546875,1.69287109375,42.83588235294118,459.0737670198623
-0.1636748046875,-0.0238994140625,0.9900439453125,1.0037667245590296,-0.39111328125,-0.2451171875,1.755859375,42.93,459.0737670198623
-0.1583037109375,-0.0253642578125,0.9900439453125,1.0029408876503656,-0.38330078125,-0.1259765625,1.7861328125,42.93,459.0737670198623
-0.1539091796875,-0.0297587890625,0.9836962890625,0.996108432969965,-0.4111328125,-0.275390625,1.8310546875,42.93,459.020631671609
-0.1460966796875,-0.0302470703125,0.9768603515625,0.9881878725895256,-0.42138671875,-0.31640625,1.86669921875,42.74176470588235,459.020631671609
-0.1480498046875,-0.0380595703125,0.9773486328125,0.9892308252480014,-0.4130859375,-0.3173828125,1.85791015625,42.97705882352941,459.020631671609
-0.1583037109375,-0.0292705078125,0.9817431640625,0.994854998332739,-0.4384765625,-0.314453125,1.87548828125,42.93,459.020631671609
-0.1612333984375,-0.0224345703125,0.9812548828125,0.9946661066710704,-0.44482421875,-0.337890625,1.92138671875,42.74176470588235,459.020631671609
-0.1495146484375,-0.0292705078125,0.9802783203125,0.9920468628042162,-0.43359375,-0.337890625,1.96435546875,42.788823529411765,459.1278990218447
-0.1338896484375,-0.0243876953125,0.9807666015625,0.990163786644325,-0.42919921875,-0.35595703125,1.93701171875,42.788823529411765,459.1278990218447
-0.1368193359375,-0.0229228515625,0.9846728515625,0.994397110019111,-0.43115234375,-0.35302734375,1.9228515625,42.83588235294118,459.1278990218447
-0.1426787109375,-0.0175517578125,0.9880908203125,0.9984932388068156,-0.41845703125,-0.380859375,1.92578125,42.97705882352941,459.1278990218447
-0.1407255859375,-0.0112041015624999,0.9812548828125,0.9913578402739592,-0.41162109375,-0.4296875,1.9931640625,43.02411764705882,459.00960601995513
-0.1363310546875,-0.0029033203124999,0.9802783203125,0.9897172177019756,-0.37744140625,-0.39794921875,2.03662109375,42.788823529411765,459.00960601995513
-0.1338896484375,0.0014912109375,0.9851611328125,0.9942188487818896,-0.359375,-0.40966796875,2.09619140625,42.64764705882353,459.00960601995513
-0.1202177734375,0.0019794921875,0.9773486328125,0.984716498033852,-0.34130859375,-0.466796875,2.1494140625,42.788823529411765,459.00960601995513
-0.1138701171875,0.0107685546875,0.9827197265625,0.9893535396072668,-0.33740234375,-0.49658203125,2.15771484375,42.97705882352941,459.00960601995513
-0.0987333984375,0.0161396484375,0.9744189453125,0.9795412462998324,-0.318359375,-0.5107421875,2.12060546875,42.93,459.0406902653657
-0.0928740234375,0.0249287109375,0.9802783203125,0.9849835583060113,-0.29248046875,-0.5205078125,2.06005859375,42.60058823529412,459.0406902653657
-0.0894560546875,0.0298115234375,0.9851611328125,0.989663362085475,-0.28515625,-0.4970703125,1.9833984375,42.93,459.0406902653657
-0.0967802734375,0.0464130859375,0.9861376953125,0.9919617684110252,-0.24853515625,-0.5068359375,1.955078125,42.788823529411765,459.0406902653657
-0.0992216796875,0.0561787109375,0.9900439453125,0.9965881812125552,-0.19580078125,-0.48486328125,1.90869140625,42.788823529411765,458.9444488917917
-0.1167998046875,0.0757099609375,0.9963916015625,1.0060668050504795,-0.1494140625,-0.45166015625,1.9111328125,42.64764705882353,458.9444488917917
-0.1255888671875,0.0932880859375,0.9939501953125,1.0061869713433378,-0.09423828125,-0.38232421875,1.86865234375,42.64764705882353,458.9444488917917
-0.1280302734375,0.1108662109375,1.0066455078125005,1.0207929496441508,-0.0009765625,-0.33544921875,1.78662109375,42.64764705882353,458.9444488917917
-0.1138701171875,0.1274677734375,1.0125048828125005,1.0268303533556864,0.04736328125,-0.27001953125,1.68408203125,42.788823529411765,458.9444488917917
-0.0821318359375,0.1426044921875,1.0159228515625005,1.0291651568108011,0.09765625,-0.3037109375,1.52685546875,42.74176470588235,459.2241425176648
-0.0728544921875,0.1460224609375,1.0320361328125005,1.044858323200195,0.15380859375,-0.32861328125,1.34765625,42.788823529411765,459.2241425176648
-0.0704130859375,0.1484638671875,1.0354541015625005,1.0484105679427855,0.17529296875,-0.30859375,1.228515625,42.93,459.2241425176648
-0.0782255859375,0.1489521484375,1.0525439453125005,1.0659055969612956,0.2607421875,-0.255859375,1.08740234375,42.93,459.2241425176648
-0.0865263671875,0.1421162109375,1.0676806640625005,1.0805673648795986,0.291015625,-0.1875,0.9833984375,42.97705882352941,459.33340317783774
-0.0909208984375,0.1430927734375,1.0803759765625005,1.09359700178635,0.3095703125,-0.134765625,0.90869140625,42.93,459.33340317783774
-0.0948271484375,0.1264912109375,1.0798876953125005,1.0913980250177138,0.3134765625,-0.03759765625,0.80712890625,42.97705882352941,459.33340317783774
-0.0948271484375,0.1240498046875,1.0818408203125005,1.0930508234378755,0.322265625,0.05859375,0.72412109375,42.97705882352941,459.33340317783774
-0.0938505859375,0.1167255859375,1.0789111328125005,1.089257557880604,0.3359375,0.11376953125,0.60546875,42.74176470588235,459.33340317783774
-0.0982451171875,0.1011005859375,1.0808642578125005,1.0900187958676026,0.3564453125,0.072265625,0.59814453125,42.93,459.2883058544157
-0.1026396484375,0.1045185546875,1.2117236328125005,1.2205462662355986,0.498046875,0.18017578125,0.61767578125,42.788823529411765,459.2883058544157
-0.1148466796875,0.1113544921875,1.0813525390625005,1.0931207145153252,0.39892578125,0.27294921875,0.5595703125,42.93,459.2883058544157
-0.1265654296875,0.1162373046875,1.0671923828125005,1.0809391754053594,0.46044921875,0.3828125,0.49072265625,42.788823529411765,459.2883058544157
-0.1197294921875,0.1094013671875,1.0540087890625005,1.066413774227888,0.50634765625,0.4599609375,0.3818359375,42.788823529411765,459.2131169691408
-0.1138701171875,0.1108662109375,1.0203173828125005,1.0326205895609886,0.53759765625,0.54541015625,0.263671875,42.64764705882353,459.2131169691408
-0.1041044921875,0.1113544921875,1.0022509765625005,1.013777385940542,0.52978515625,0.6318359375,0.15185546875,43.118235294117646,459.2131169691408
-0.0845732421875,0.1220966796875,0.9841845703125,0.9953288405979293,0.55712890625,0.720703125,0.01953125,42.74176470588235,459.2131169691408
-0.0669951171875,0.1328388671875,0.9768603515625,0.9881248184401789,0.60107421875,0.8095703125,-0.0791015625,42.93,459.2131169691408
-0.0650419921875,0.1318623046875,0.9680712890625,0.9791731965553124,0.65576171875,0.85546875,-0.16455078125,42.83588235294118,459.4386858475523
-0.0713896484375,0.1347919921875,0.9656298828125,0.977602390362456,0.703125,0.90625,-0.2822265625,42.74176470588235,459.4386858475523
-0.0918974609375,0.1328388671875,0.9763720703125,0.9896432325079252,0.732421875,0.88720703125,-0.3681640625,42.788823529411765,459.4386858475523
-0.0953154296875,0.1289326171875,0.9631884765625,0.9764428771280586,0.740234375,0.833984375,-0.44091796875,42.83588235294118,459.4386858475523
-0.1021513671875,0.1401630859375,0.9578173828125,0.973393410341156,0.76611328125,0.880859375,-0.49462890625,42.93,459.0948222424424
-0.0933623046875,0.1401630859375,0.9558642578125,0.9705867761099602,0.7802734375,0.9033203125,-0.57568359375,42.93,459.0948222424424
-0.0801787109375,0.1391865234375,0.9568408203125,0.970229802371848,0.79150390625,0.94287109375,-0.62744140625,42.93,459.0948222424424
-0.0806669921875,0.1362568359375,0.9607470703125,0.9737083865728636,0.81494140625,0.9091796875,-0.6796875,42.93,459.0948222424424
-0.0889677734375,0.1299091796875,0.9597705078125,0.9726001682830256,0.806640625,0.89892578125,-0.697265625,42.97705882352941,459.0948222424424
-0.0972685546875,0.1260029296875,0.9587939453125,0.9719175580206058,0.8466796875,0.884765625,-0.7421875,42.788823529411765,458.8151323488164
-0.1021513671875,0.1269794921875,0.9617236328125,0.9754337697478712,0.83984375,0.86376953125,-0.79296875,42.788823529411765,458.8151323488164
-0.1001982421875,0.1216083984375,0.9622119140625,0.97502823439725,0.83642578125,0.8525390625,-0.84228515625,42.83588235294118,458.8151323488164
-0.1001982421875,0.1279560546875,0.9661181640625,0.9796921693063344,0.83154296875,0.9990234375,-0.95166015625,42.788823529411765,458.8151323488164
-0.0992216796875,0.1240498046875,0.9753955078125,0.9882457651939728,0.8203125,0.82080078125,-1.05322265625,42.64764705882353,459.1489543983496
-0.0967802734375,0.1220966796875,0.9719775390625,0.984385268560711,0.8330078125,0.77099609375,-1.16552734375,42.64764705882353,459.1489543983496
-0.0948271484375,0.1240498046875,0.9812548828125,0.9936003659254398,0.8017578125,0.7314453125,-1.306640625,42.93,459.1489543983496
-0.0958037109375,0.1191669921875,0.9773486328125,0.9892368134662574,0.77587890625,0.67333984375,-1.41845703125,42.788823529411765,459.1489543983496
-0.1011748046875,0.1230732421875,0.9812548828125,0.994104878314894,0.77392578125,0.65478515625,-1.5234375,42.64764705882353,459.1489543983496
-0.1065458984375,0.1255146484375,0.9954150390625,1.0089385786251024,0.712890625,0.62939453125,-1.61669921875,42.93,458.7269276793625
-0.1177763671875,0.1260029296875,0.9944384765625,1.0092848431566106,0.732421875,0.59619140625,-1.6513671875,42.93,458.7269276793625
-0.1187529296875,0.1220966796875,1.0002978515625005,1.0146948552844004,0.625,0.57080078125,-1.5927734375,42.83588235294118,458.7269276793625
-0.1109404296875,0.1255146484375,1.0100634765625005,1.023860309122861,0.77294921875,0.529296875,-1.58203125,43.25941176470588,458.7269276793625
-0.1041044921875,0.1264912109375,1.0100634765625005,1.0232624289123375,0.74169921875,0.470703125,-1.658203125,42.74176470588235,458.8462152346693
-0.1109404296875,0.1220966796875,0.9998095703125,1.013328453670588,0.744140625,0.41015625,-1.6728515625,42.64764705882353,458.8462152346693
-0.1089873046875,0.1260029296875,1.0110400390625005,1.024674061084978,0.74609375,0.3759765625,-1.7138671875,42.93,458.8462152346693
-0.1045927734375,0.1250263671875,1.0076220703125005,1.02072203725025,0.76318359375,0.35986328125,-1.765625,42.788823529411765,458.8462152346693
-0.0977568359375,0.1255146484375,1.0037158203125005,1.0162459219551614,0.75146484375,0.3173828125,-1.81494140625,42.64764705882353,458.8462152346693
-0.1084990234375,0.1220966796875,1.0007861328125005,1.0140278698869192,0.734375,0.26904296875,-1.8671875,42.788823529411765,458.7920841351136
-0.1016630859375,0.1220966796875,0.9900439453125,1.0027113223071675,0.720703125,0.24267578125,-1.9052734375,42.97705882352941,458.7920841351136
-0.1075224609375,0.1264912109375,0.9822314453125,0.9961624958866772,0.72900390625,0.2119140625,-1.97998046875,42.83588235294118,458.7920841351136
-0.1084990234375,0.1250263671875,0.9705126953125,0.984529594446875,0.72998046875,0.2197265625,-2.05029296875,42.93,458.7920841351136
-0.1128935546875,0.1294208984375,0.9763720703125,0.9913612577303326,0.70263671875,0.2060546875,-2.08837890625,42.788823529411765,458.80211311161554
-0.1143583984375,0.1294208984375,0.9719775390625,0.9872020809781316,0.69970703125,0.1640625,-2.1396484375,42.788823529411765,458.80211311161554
-0.1138701171875,0.1240498046875,0.9670947265625,0.981645031452968,0.6728515625,0.13037109375,-2.17138671875,42.60058823529412,458.80211311161554
-0.1177763671875,0.1269794921875,0.9661181640625,0.98151891017727,0.677734375,0.12353515625,-2.17041015625,42.97705882352941,458.80211311161554
-0.1158232421875,0.1264912109375,0.9685595703125,0.9836273131217912,0.66455078125,0.10498046875,-2.171875,42.64764705882353,458.80211311161554
-0.1192412109375,0.1294208984375,0.9661181640625,0.9820145326163492,0.67919921875,0.1025390625,-2.1494140625,42.93,459.0507200645697
-0.1192412109375,0.1284443359375,0.9646533203125,0.980445022533236,0.66552734375,0.07421875,-2.1259765625,42.97705882352941,459.0507200645697
-0.1153349609375,0.1303974609375,0.9568408203125,0.9725482026355812,0.6455078125,0.07861328125,-2.10107421875,42.93,459.0507200645697
-0.1158232421875,0.1357685546875,0.9690478515625,0.985343525117334,0.6337890625,0.0595703125,-2.09814453125,42.788823529411765,459.0507200645697
-0.1216826171875,0.1362568359375,0.9724658203125,0.9894757987648622,0.6298828125,0.07275390625,-2.08740234375,42.60058823529412,459.0066181091701
-0.1265654296875,0.1313740234375,0.9753955078125,0.9923075827015246,0.62548828125,0.05322265625,-2.0546875,43.02411764705882,459.0066181091701
-0.1407255859375,0.1303974609375,0.9807666015625,0.999354949503356,0.599609375,0.03076171875,-1.99462890625,42.74176470588235,459.0066181091701
-0.1353544921875,0.1313740234375,0.9924853515625,1.0102510310094377,0.61279296875,0.03759765625,-1.99853515625,42.97705882352941,459.0066181091701
-0.1334013671875,0.1294208984375,0.9954150390625,1.0126187800508453,0.59326171875,-0.0009765625,-2.0107421875,42.60058823529412,459.0066181091701
-0.1324248046875,0.1274677734375,1.0007861328125005,1.017525059048393,0.57568359375,-0.00390625,-2.00341796875,42.788823529411765,459.3073745039673
-0.1299833984375,0.1269794921875,1.0134814453125005,1.0296427124484842,0.5634765625,0.00390625,-2.01220703125,42.83588235294118,459.3073745039673
-0.1251005859375,0.1201435546875,1.0125048828125005,1.0272539939343186,0.55224609375,-0.0087890625,-2.01513671875,43.25941176470588,459.3073745039673
-0.1314482421875,0.1167255859375,1.0227587890625005,1.0377567361338729,0.54443359375,0.013671875,-1.96630859375,42.97705882352941,459.3073745039673
-0.1343779296875,0.1064716796875,1.0110400390625005,1.0254733576012975,0.5146484375,0.01416015625,-1.94775390625,42.74176470588235,458.8011169743031
-0.1392607421875,0.1084248046875,1.0115283203125005,1.0268101262552702,0.4873046875,0.01416015625,-1.900390625,42.74176470588235,458.8011169743031
-0.1421904296875,0.1098896484375,1.0125048828125005,1.0283287367605694,0.48388671875,0.0703125,-1.88330078125,42.93,458.8011169743031
-0.1426787109375,0.1045185546875,0.9983447265625,1.0138902977560755,0.4609375,0.11279296875,-1.857421875,42.64764705882353,458.8011169743031
-0.1436552734375,0.1001240234375,0.9944384765625,1.0097373625471435,0.43359375,0.24951171875,-1.79296875,42.64764705882353,458.8011169743031
-0.1436552734375,0.0918232421875,0.9832080078125,0.9978809207610156,0.421875,0.15234375,-1.69140625,42.60058823529412,459.1128932928008
-0.1495146484375,0.1020771484375,0.9993212890625,1.0155872257487573,0.4072265625,0.255859375,-1.646484375,42.788823529411765,459.1128932928008
-0.1451201171875,0.0981708984375,0.9836962890625,0.9991775431963396,0.41650390625,0.263671875,-1.6337890625,42.64764705882353,459.1128932928008
-0.1412138671875,0.0947529296875,0.9734423828125,0.9881849759159927,0.396484375,0.24267578125,-1.52685546875,42.74176470588235,459.1128932928008
-0.1426787109375,0.0923115234375,0.9670947265625,0.9819118300841148,0.38330078125,0.26513671875,-1.46923828125,42.788823529411765,458.8883247694585
-0.1421904296875,0.2158466796875,0.9612353515625,0.9953799819768916,0.3583984375,0.24267578125,-1.4423828125,42.788823529411765,458.8883247694585
-0.1548857421875,0.1006123046875,0.9705126953125,0.9879308279177428,0.34423828125,0.29833984375,-1.43896484375,42.788823529411765,458.8883247694585
-0.1612333984375,0.1011005859375,0.9695361328125,0.9880373728142215,0.318359375,0.31396484375,-1.41015625,42.74176470588235,458.8883247694585
-0.1578154296875,0.1074482421875,0.9714892578125,0.9900718219612736,0.314453125,0.33349609375,-1.32080078125,42.74176470588235,458.8883247694585
-0.1465849609375,0.1128193359375,0.9680712890625,0.9855847878501156,0.29248046875,0.36669921875,-1.28759765625,42.83588235294118,458.9865584671245
-0.1348662109375,0.1015888671875,0.9690478515625,0.983647767957095,0.302734375,0.36083984375,-1.2587890625,42.93,458.9865584671245
-0.1426787109375,0.1011005859375,0.9768603515625,0.9923883763358496,0.2939453125,0.3193359375,-1.25048828125,43.02411764705882,458.9865584671245
-0.1563505859375,0.1064716796875,0.9836962890625,1.001718579948386,0.2705078125,0.32373046875,-1.28564453125,42.74176470588235,458.9865584671245
-0.1666044921875,0.1113544921875,0.9876025390625,1.0077279667202292,0.25341796875,0.328125,-1.29248046875,42.64764705882353,458.8552483567784
-0.1724638671875,0.1133076171875,0.9817431640625,1.0031959139577002,0.2548828125,0.3388671875,-1.287109375,42.788823529411765,458.8552483567784
-0.1626982421875,0.1094013671875,0.9763720703125,0.9958623382976756,0.2568359375,0.306640625,-1.22607421875,42.83588235294118,458.8552483567784
-0.1539091796875,0.1123310546875,0.9734423828125,0.9919155075383,0.23291015625,0.31689453125,-1.17822265625,42.83588235294118,458.8552483567784
-0.1587919921875,0.1177021484375,0.9900439453125,1.0095819462429083,0.24072265625,0.35009765625,-1.12890625,42.93,458.8552483567784
-0.1597685546875,0.1133076171875,0.9895556640625,1.0087541917919436,0.234375,0.365234375,-1.11669921875,42.60058823529412,459.0276738531892
-0.1626982421875,0.1094013671875,0.9827197265625,1.0020865422349865,0.2373046875,0.36572265625,-1.10400390625,42.97705882352941,459.0276738531892
-0.1734404296875,0.1074482421875,0.9861376953125,1.007022473192936,0.216796875,0.39404296875,-1.10498046875,41.98882352941177,459.0276738531892
-0.1768583984375,0.0986591796875,0.9851611328125,1.0057608982451527,0.21142578125,0.3583984375,-1.08349609375,42.93,459.0276738531892
-0.1778349609375,0.0962177734375,0.9880908203125,1.008566607836459,0.2041015625,0.32421875,-1.07275390625,42.83588235294118,458.8672698749901
-0.1807646484375,0.1015888671875,0.9866259765625,1.0081800303959008,0.201171875,0.3251953125,-1.0712890625,42.74176470588235,458.8672698749901
-0.1763701171875,0.1006123046875,0.9895556640625,1.0101730873317891,0.1884765625,0.33935546875,-1.0966796875,42.64764705882353,458.8672698749901
-0.1753935546875,0.0923115234375,0.9822314453125,1.002029405030587,0.18359375,0.345703125,-1.1259765625,42.74176470588235,458.8672698749901
-0.1749052734375,0.0942646484375,0.9768603515625,0.9968619889814756,0.1884765625,0.32421875,-1.12353515625,42.97705882352941,458.8672698749901
-0.1817412109375,0.0962177734375,0.9714892578125,0.9930151588588066,0.18505859375,0.33203125,-1.13525390625,42.03588235294118,458.8983544666887
-0.1832060546875,0.0962177734375,0.9783251953125,0.999971252678131,0.169921875,0.34521484375,-1.11572265625,42.93,458.8983544666887
-0.1797880859375,0.0923115234375,0.9734423828125,0.9942008076138844,0.17138671875,0.31494140625,-1.0947265625,42.74176470588235,458.8983544666887
-0.1792998046875,0.0849873046875,0.9651416015625,0.985327140083764,0.16845703125,0.3115234375,-1.064453125,42.97705882352941,458.8983544666887
-0.1797880859375,0.0835224609375,0.9710009765625,0.991031106379338,0.1318359375,0.33740234375,-1.05322265625,42.64764705882353,458.7900915395195
-0.1827177734375,0.0761982421875,0.9827197265625,1.0024619782403208,0.12744140625,0.34033203125,-1.04931640625,42.93,458.7900915395195
-0.1856474609375,0.0683857421875,0.9866259765625,1.0062665686163796,0.111328125,0.3037109375,-1.02001953125,42.60058823529412,458.7900915395195
-0.1817412109375,0.0678974609375,0.9793017578125,0.9983345460362676,0.10595703125,0.287109375,-0.98193359375,42.93,458.7900915395195
-0.1763701171875,0.0635029296875,0.9836962890625,1.0013977378798904,0.068359375,0.2392578125,-0.9423828125,42.93,458.7900915395195
-0.1768583984375,0.0600849609375,0.9827197265625,1.000313529151642,0.0439453125,0.23583984375,-1.0,42.93,459.0386992877711
-0.1812529296875,0.0600849609375,0.9846728515625,1.003017174157745,0.0146484375,0.18701171875,-0.7958984375,42.60058823529412,459.0386992877711
-0.1822294921875,0.0600849609375,0.9836962890625,1.0022355908014386,-0.0078125,0.1787109375,-0.73193359375,42.93,459.0386992877711
-0.1768583984375,0.0552021484375,0.9802783203125,0.9976330766191996,-0.0185546875,0.1806640625,-0.65771484375,42.93,459.0386992877711
-0.1685576171875,0.0532490234375,0.9734423828125,0.9893620173953784,-0.03955078125,0.19140625,-0.62353515625,42.97705882352941,458.8231678855747
-0.1690458984375,0.0561787109375,0.9802783203125,0.9963323484740608,-0.076171875,0.22265625,-0.5546875,43.02411764705882,458.8231678855747
-0.1641630859375,0.0469013671875,0.9768603515625,0.991667990550966,-0.09375,0.19140625,-0.48291015625,42.93,458.8231678855747
-0.1797880859375,0.0464130859375,0.9622119140625,0.9799641309533385,-0.1142578125,0.16015625,-0.384765625,42.788823529411765,458.8231678855747
-0.1856474609375,0.0444599609375,0.9656298828125,0.9843184131466745,-0.12548828125,0.1376953125,-0.2890625,42.64764705882353,458.8231678855747
-0.1836943359375,0.0464130859375,0.9700244140625,0.9883547680256608,-0.14404296875,0.1279296875,-0.2158203125,43.25941176470588,458.9635116582058
-0.1827177734375,0.0459248046875,0.9773486328125,0.9953417616457202,-0.1806640625,0.11865234375,-0.1728515625,42.64764705882353,458.9635116582058
-0.1846708984375,0.0478779296875,0.9710009765625,0.9895648201943132,-0.1904296875,0.06494140625,-0.1416015625,42.74176470588235,458.9635116582058
-0.1900419921875,0.0469013671875,0.9734423828125,0.992927877388045,-0.2080078125,0.08984375,-0.08349609375,42.64764705882353,458.9635116582058
-0.1846708984375,0.0449482421875,0.9778369140625,0.9961368960683732,-0.21533203125,0.0888671875,-0.001953125,42.788823529411765,458.8011169743031
-0.1841826171875,0.0512958984375,0.9817431640625,1.0001870554321308,-0.23681640625,0.09130859375,0.06982421875,42.93,458.8011169743031
-0.1871123046875,0.0459248046875,0.9880908203125,1.0066993451060162,-0.25537109375,0.09814453125,0.14453125,42.64764705882353,458.8011169743031
-0.1851591796875,0.0454365234375,0.9919970703125,1.0101517643370317,-0.263671875,0.03955078125,0.21240234375,42.93,458.8011169743031
-0.1934599609375,0.0517841796875,0.9954150390625,1.0153617373840935,-0.26123046875,-0.0107421875,0.251953125,42.788823529411765,458.8011169743031
-0.1939482421875,0.0522724609375,0.9851611328125,1.0054306482420814,-0.2939453125,-0.0107421875,0.28515625,42.83588235294118,458.9945976328672
-0.1900419921875,0.0459248046875,0.9851611328125,1.0043741852938013,-0.2919921875,0.01318359375,0.3154296875,42.83588235294118,458.9945976328672
-0.1949248046875,0.0532490234375,0.9959033203125,1.01619612348649,-0.296875,0.0419921875,0.34326171875,42.788823529411765,458.9945976328672
-0.1885771484375,0.0439716796875,0.9856494140625,1.0044897296483966,-0.3134765625,0.04443359375,0.375,42.788823529411765,458.9945976328672
-0.1841826171875,0.0429951171875,0.9836962890625,1.0017136345739424,-0.30078125,0.037109375,0.4306640625,42.03588235294118,459.1028622486946
-0.1783232421875,0.0483662109375,0.9895556640625,1.0066572809764442,-0.31884765625,0.06103515625,0.44140625,42.60058823529412,459.1028622486946
-0.1744169921875,0.0527607421875,0.9827197265625,0.999471382309161,-0.31787109375,0.0771484375,0.42919921875,42.93,459.1028622486946
-0.1817412109375,0.0488544921875,0.9910205078125,1.0087310226541428,-0.31005859375,0.08203125,0.45947265625,42.93,459.1028622486946
-0.1700224609375,0.0488544921875,0.9856494140625,1.0013986049879895,-0.32470703125,0.06396484375,0.4853515625,42.93,459.1028622486946
-0.1690458984375,0.0454365234375,0.9949267578125,1.0102080215737357,-0.3330078125,0.08447265625,0.4892578125,42.83588235294118,459.0266790907378
-0.1788115234375,0.0503193359375,0.9880908203125,1.0053999530878543,-0.337890625,0.095703125,0.4990234375,42.788823529411765,459.0266790907378
-0.1651396484375,0.0483662109375,0.9871142578125,1.0020004749615814,-0.31591796875,0.1142578125,0.5087890625,42.74176470588235,459.0266790907378
-0.1563505859375,0.0488544921875,0.9934619140625,1.0068757827173245,-0.31982421875,0.1728515625,0.49658203125,42.74176470588235,459.0266790907378
-0.1490263671875,0.0469013671875,0.9968798828125,1.0090481143718688,-0.31494140625,0.1796875,0.50390625,42.83588235294118,459.52192430092407
-0.1558623046875,0.0454365234375,0.9954150390625,1.0085676158177914,-0.30078125,0.19091796875,0.5244140625,42.64764705882353,459.52192430092407
-0.1675810546875,0.0493427734375,0.9929736328125,1.0082235638198171,-0.29541015625,0.18701171875,0.59423828125,42.93,459.52192430092407
-0.1768583984375,0.0439716796875,1.0022509765625005,1.0186851435713111,-0.30078125,0.1650390625,0.63671875,42.93,459.52192430092407
-0.1768583984375,0.0434833984375,1.0027392578125005,1.0191446012200212,-0.30322265625,0.14892578125,0.6279296875,42.93,459.52192430092407
-0.1661162109375,0.0439716796875,0.9968798828125,1.011581734170322,-0.28857421875,0.1591796875,0.61474609375,42.64764705882353,458.9504962004414
-0.1626982421875,0.0400654296875,0.9861376953125,1.0002717184761327,-0.2939453125,0.15966796875,0.5791015625,42.97705882352941,458.9504962004414
-0.1646513671875,0.0439716796875,0.9929736328125,1.0074920430415848,-0.30322265625,0.16943359375,0.57470703125,42.74176470588235,458.9504962004414
-0.1729521484375,0.0493427734375,0.9919970703125,1.0081693024726723,-0.2802734375,0.138671875,0.6201171875,42.788823529411765,458.9504962004414
-0.1646513671875,0.0512958984375,0.9846728515625,0.9996609257730584,-0.27978515625,0.14697265625,0.673828125,42.93,459.0908426101955
-0.1563505859375,0.0552021484375,0.9841845703125,0.9980541324779512,-0.244140625,0.17822265625,0.7041015625,42.788823529411765,459.0908426101955
-0.1622099609375,0.0434833984375,0.9915087890625,1.0056304272222498,-0.24169921875,0.16650390625,0.6875,42.788823529411765,459.0908426101955
-0.1709990234375,0.0410419921875,0.9978564453125,1.0132337324581115,-0.23291015625,0.1591796875,0.673828125,42.64764705882353,459.0908426101955
-0.1778349609375,0.0444599609375,0.9939501953125,1.010712101550171,-0.23828125,0.109375,0.630859375,42.74176470588235,459.0908426101955
-0.1709990234375,0.0469013671875,0.9944384765625,1.0101229073378055,-0.23974609375,0.0927734375,0.611328125,42.83588235294118,459.0367100838473
-0.1612333984375,0.0483662109375,0.9939501953125,1.0081034123014927,-0.220703125,0.12255859375,0.638671875,42.97705882352941,459.0367100838473
-0.1451201171875,0.0503193359375,0.9963916015625,1.0081607548630271,-0.2060546875,0.169921875,0.65087890625,42.788823529411765,459.0367100838473
-0.1363310546875,0.0517841796875,0.9934619140625,1.0041087254032004,-0.21533203125,0.20166015625,0.67138671875,42.60058823529412,459.0367100838473
-0.1421904296875,0.0517841796875,0.9905322265625,1.002024855689462,-0.1552734375,0.21435546875,0.70263671875,42.93,459.12292467178753
-0.1446318359375,0.0512958984375,0.9929736328125,1.0047617989474005,-0.14501953125,0.220703125,0.72802734375,42.788823529411765,459.12292467178753
-0.1426787109375,0.0503193359375,0.9959033203125,1.0073294761563565,-0.15087890625,0.20947265625,0.724609375,42.788823529411765,459.12292467178753
-0.1451201171875,0.0454365234375,1.0022509765625005,1.0137215328161306,-0.1298828125,0.2392578125,0.69873046875,42.788823529411765,459.12292467178753
-0.1519560546875,0.0512958984375,0.9924853515625,1.0053601766624936,-0.123046875,0.25634765625,0.69921875,42.93,459.12292467178753
-0.1509794921875,0.0508076171875,0.9993212890625,1.011938367589155,-0.099609375,0.27197265625,0.68212890625,42.97705882352941,458.8953697227495
-0.1524443359375,0.0556904296875,0.9954150390625,1.008559269210294,-0.1123046875,0.29052734375,0.64794921875,42.93,458.8953697227495
-0.1514677734375,0.0532490234375,0.9929736328125,1.0058700613638,-0.0986328125,0.287109375,0.63623046875,42.60058823529412,458.8953697227495
-0.1377958984375,0.0576435546875,0.9836962890625,0.9949717976598844,-0.10009765625,0.30712890625,0.609375,42.83588235294118,458.8953697227495
-0.1407255859375,0.0512958984375,0.9846728515625,0.99599979133441,-0.08349609375,0.35693359375,0.57080078125,42.97705882352941,458.8843444689264
-0.1397490234375,0.0561787109375,0.9832080078125,0.9946777486909816,-0.0654296875,0.3994140625,0.544921875,42.83588235294118,458.8843444689264
-0.1377958984375,0.0517841796875,0.9866259765625,0.9975470557923632,-0.05859375,0.4306640625,0.53173828125,42.788823529411765,458.8843444689264
-0.1417021484375,0.0512958984375,0.9900439453125,1.0014478427348348,-0.04931640625,0.4248046875,0.51953125,42.93,458.8843444689264
-0.1519560546875,0.0503193359375,0.9807666015625,0.9937433294698572,-0.0341796875,0.41259765625,0.5048828125,42.83588235294118,458.8843444689264
-0.1543974609375,0.0537373046875,0.9885791015625,1.002005446045651,-0.0185546875,0.404296875,0.50927734375,42.83588235294118,458.9805900314359
-0.1578154296875,0.0556904296875,0.9915087890625,1.0055330987065587,-0.015625,0.443359375,0.49853515625,42.74176470588235,458.9805900314359
-0.1558623046875,0.0600849609375,1.0042041015625005,1.0180025236453534,0.00244140625,0.51513671875,0.4912109375,42.97705882352941,458.9805900314359
-0.1578154296875,0.0542255859375,0.9978564453125,1.0117132051472957,0.00146484375,0.4638671875,0.4970703125,42.83588235294118,458.9805900314359
-0.1685576171875,0.0517841796875,0.9963916015625,1.011874248729613,-0.00732421875,0.36962890625,0.52587890625,42.83588235294118,458.8733192290048
-0.1685576171875,0.0571552734375,0.9915087890625,1.0073569746528923,0.00341796875,0.36669921875,0.5166015625,42.74176470588235,458.8733192290048
-0.1646513671875,0.0552021484375,0.9900439453125,1.005158874784862,0.0166015625,0.349609375,0.5224609375,43.21235294117647,458.8733192290048
-0.1524443359375,0.0537373046875,0.9876025390625,1.000742598592265,0.03662109375,0.40185546875,0.5087890625,42.97705882352941,458.8733192290048
-0.1431669921875,0.0561787109375,0.9783251953125,0.9903398522718634,0.03515625,0.4013671875,0.517578125,42.74176470588235,458.8733192290048
-0.1431669921875,0.0571552734375,0.9778369140625,0.9899134019887822,0.07861328125,0.41650390625,0.5029296875,42.64764705882353,459.0577666905709
-0.1509794921875,0.0556904296875,0.9876025390625,1.0006273063347166,0.06298828125,0.4560546875,0.47998046875,42.93,459.0577666905709
-0.1475615234375,0.0581318359375,0.9876025390625,1.0002562115335036,0.09375,0.44970703125,0.45849609375,42.93,459.0577666905709
-0.1563505859375,0.0586201171875,0.9919970703125,1.0059522908024312,0.1025390625,0.44775390625,0.44921875,43.118235294117646,459.0577666905709
-0.1509794921875,0.0644794921875,0.9880908203125,1.0016366013479052,0.0986328125,0.40869140625,0.4501953125,42.93,458.7760807344816
-0.1421904296875,0.0605732421875,0.9758837890625,0.9880467629210692,0.12646484375,0.38623046875,0.4267578125,42.788823529411765,458.7760807344816
-0.1539091796875,0.0591083984375,0.9919970703125,1.005604308794721,0.111328125,0.41796875,0.4013671875,42.64764705882353,458.7760807344816
-0.1592802734375,0.0605732421875,0.9880908203125,1.0026778108451686,0.12548828125,0.4208984375,0.375,43.02411764705882,458.7760807344816
-0.1568388671875,0.0620380859375,0.9846728515625,0.9990134027988172,0.140625,0.42333984375,0.36328125,42.83588235294118,458.7760807344816
-0.1558623046875,0.0639912109375,0.9871142578125,1.0013902791002465,0.1552734375,0.40234375,0.3583984375,42.97705882352941,458.8843444689264
-0.1617216796875,0.0620380859375,0.9919970703125,1.007005865571953,0.15869140625,0.35400390625,0.33642578125,43.02411764705882,458.8843444689264
-0.1587919921875,0.0644794921875,0.9949267578125,1.009579989454489,0.18505859375,0.34423828125,0.3251953125,42.788823529411765,458.8843444689264
-0.1597685546875,0.0674091796875,0.9866259765625,1.0017488738206703,0.16357421875,0.3212890625,0.29345703125,42.93,458.8843444689264
-0.1617216796875,0.0678974609375,0.9915087890625,1.0069029971506147,0.18359375,0.32470703125,0.27099609375,42.93,458.9054009014434
-0.1641630859375,0.0654560546875,0.9919970703125,1.0076170906591249,0.193359375,0.32177734375,0.30126953125,42.08294117647059,458.9054009014434
-0.1612333984375,0.0683857421875,0.9885791015625,1.003972837557053,0.19287109375,0.34375,0.3115234375,42.83588235294118,458.9054009014434
-0.1553740234375,0.0664326171875,0.9866259765625,1.0009921065690002,0.20068359375,0.33056640625,0.29052734375,42.64764705882353,458.9054009014434
-0.1573271484375,0.0659443359375,0.9856494140625,1.0003025814819548,0.21044921875,0.3232421875,0.275390625,42.83588235294118,458.9054009014434
-0.1519560546875,0.0688740234375,0.9783251953125,0.992448719805664,0.203125,0.29833984375,0.2666015625,42.74176470588235,458.8191872806706
-0.1573271484375,0.0708271484375,0.9880908203125,1.0030412682323155,0.2080078125,0.28125,0.2333984375,42.93,458.8191872806706
-0.1514677734375,0.0698505859375,0.9866259765625,1.0006260082437557,0.20703125,0.29248046875,0.20166015625,42.788823529411765,458.8191872806706
-0.1441435546875,0.0669208984375,0.9856494140625,0.9983789553307804,0.21923828125,0.30322265625,0.1787109375,42.224117647058826,458.8191872806706
-0.1470732421875,0.0698505859375,0.9871142578125,1.0004519982988078,0.203125,0.30859375,0.162109375,42.93,458.81015135615047
-0.1543974609375,0.0683857421875,0.9866259765625,1.0009725287471123,0.2119140625,0.32080078125,0.15673828125,42.93,458.81015135615047
-0.1612333984375,0.0708271484375,0.9856494140625,1.0012579393788812,0.20751953125,0.32080078125,0.1376953125,42.83588235294118,458.81015135615047
-0.1622099609375,0.0674091796875,0.9900439453125,1.005506381174892,0.20556640625,0.32666015625,0.12158203125,42.788823529411765,458.81015135615047
-0.1666044921875,0.0713154296875,0.9876025390625,1.0040924870206251,0.21533203125,0.30322265625,0.24951171875,42.93,458.81015135615047
-0.1626982421875,0.0698505859375,0.9929736328125,1.0086359391909294,0.20751953125,0.27490234375,0.1142578125,42.83588235294118,458.95953319083657
-0.1641630859375,0.0718037109375,0.9880908203125,1.004205537165947,0.205078125,0.25439453125,0.10546875,42.83588235294118,458.95953319083657
-0.1617216796875,0.0693623046875,0.9866259765625,1.0021955141689745,0.20068359375,0.2724609375,0.0869140625,42.83588235294118,458.95953319083657
-0.1573271484375,0.0713154296875,0.9832080078125,0.9982663516184512,0.203125,0.23828125,0.0703125,42.93,458.95953319083657
-0.1568388671875,0.0713154296875,0.9851611328125,1.0001133827604645,0.2060546875,0.24658203125,0.05712890625,42.93,459.0347226535893
-0.1539091796875,0.0683857421875,0.9959033203125,1.0100435974432374,0.197265625,0.2470703125,0.0478515625,42.64764705882353,459.0347226535893
-0.1534208984375,0.0727802734375,0.9836962890625,0.9982451249038689,0.20263671875,0.2392578125,0.06103515625,43.02411764705882,459.0347226535893
-0.1543974609375,0.0718037109375,0.9919970703125,1.0065051099507274,0.18603515625,0.22216796875,0.080078125,42.788823529411765,459.0347226535893
-0.1656279296875,0.0727802734375,0.9841845703125,1.0006741965971768,0.19482421875,0.234375,0.0517578125,43.02411764705882,459.0347226535893
-0.1617216796875,0.0713154296875,0.9851611328125,1.0008907282000703,0.20068359375,0.224609375,0.01806640625,42.60058823529412,458.8622940029896
-0.1646513671875,0.0732685546875,0.9929736328125,1.009195218619055,0.1923828125,0.208984375,0.01025390625,43.02411764705882,458.8622940029896
-0.1646513671875,0.0796162109375,0.9880908203125,1.0048742622570184,0.17236328125,0.21044921875,0.044921875,42.64764705882353,458.8622940029896
-0.1563505859375,0.0791279296875,0.9934619140625,1.0087979528490112,0.18310546875,0.1796875,0.04345703125,42.64764705882353,458.8622940029896
-0.1539091796875,0.0771748046875,0.9900439453125,1.0049034778129555,0.15185546875,0.177734375,0.03759765625,42.83588235294118,459.0988876926047
-0.1587919921875,0.0722919921875,0.9880908203125,1.0033765485116453,0.18408203125,0.1865234375,0.04736328125,42.60058823529412,459.0988876926047
-0.1690458984375,0.0747333984375,0.9954150390625,1.0124291069563134,0.17333984375,0.189453125,-0.0126953125,42.93,459.0988876926047
-0.1709990234375,0.0698505859375,0.9871142578125,1.0042481408243251,0.15478515625,0.16455078125,-0.04931640625,42.93,459.0988876926047
-0.1719755859375,0.0776630859375,0.9900439453125,1.0078661472268144,0.1455078125,0.1650390625,-0.046875,43.118235294117646,459.0988876926047
-0.1700224609375,0.0752216796875,0.9822314453125,0.9996722215201018,0.17236328125,0.1845703125,-0.03857421875,42.83588235294118,458.9485079760223
-0.1583037109375,0.0791279296875,0.9900439453125,1.00573769333915,0.14111328125,0.21435546875,-0.00634765625,42.97705882352941,458.9485079760223
-0.1490263671875,0.0727802734375,0.9832080078125,0.9970976947849024,0.15234375,0.205078125,0.0068359375,42.97705882352941,458.9485079760223
-0.1456083984375,0.0766865234375,0.9846728515625,0.9983302325266372,0.1455078125,0.22705078125,0.01318359375,42.93,458.9485079760223
-0.1529326171875,0.0776630859375,0.9836962890625,0.9985380961347882,0.130859375,0.2490234375,0.025390625,42.64764705882353,459.1089202655166
-0.1514677734375,0.0727802734375,0.9832080078125,0.997465508786332,0.1552734375,0.220703125,0.03955078125,43.02411764705882,459.1089202655166
-0.1563505859375,0.0747333984375,0.9841845703125,0.999324699487718,0.13037109375,0.23583984375,0.03076171875,42.64764705882353,459.1089202655166
-0.1656279296875,0.0732685546875,0.9915087890625,1.007913970032536,0.14306640625,0.23681640625,0.01806640625,42.93,459.1089202655166
-0.1636748046875,0.0742451171875,0.9880908203125,1.0043033646769814,0.11767578125,0.248046875,0.1240234375,43.02411764705882,459.1089202655166
-0.1578154296875,0.0742451171875,0.9866259765625,1.001922584285604,0.1376953125,0.23583984375,-0.01904296875,42.93,459.1309705139879
-0.1587919921875,0.0727802734375,0.9861376953125,1.0014886015830442,0.1259765625,0.23681640625,-0.02197265625,42.97705882352941,459.1309705139879
-0.1592802734375,0.0776630859375,0.9876025390625,1.0033745739186126,0.1171875,0.2060546875,-0.041015625,42.788823529411765,459.1309705139879
-0.1607451171875,0.0732685546875,0.9900439453125,1.0056810068085995,0.0947265625,0.2080078125,-0.06005859375,42.60058823529412,459.1309705139879
-0.1636748046875,0.0761982421875,0.9885791015625,1.0049299745992633,0.09765625,0.20849609375,-0.0517578125,42.93,458.9906219781999
-0.1607451171875,0.0791279296875,0.9856494140625,1.0018008731269916,0.1220703125,0.1884765625,-0.04638671875,42.788823529411765,458.9906219781999
-0.1626982421875,0.0761982421875,0.9900439453125,1.0062126533557942,0.10546875,0.20654296875,-0.02978515625,42.788823529411765,458.9906219781999
-0.1607451171875,0.0727802734375,0.9919970703125,1.0075684336112578,0.09033203125,0.21435546875,-0.0234375,42.93,458.9906219781999
-0.1583037109375,0.0757099609375,0.9919970703125,1.007397761854931,0.10302734375,0.22509765625,-0.125,42.83588235294118,458.9906219781999
-0.1597685546875,0.0761982421875,0.9880908203125,1.0038205180037052,0.07373046875,0.21142578125,0.0126953125,42.97705882352941,458.6146815705979
-0.1578154296875,0.0776630859375,0.9919970703125,1.0074698269791351,0.0986328125,0.2255859375,0.01953125,42.93,458.6146815705979
-0.1578154296875,0.0757099609375,0.9939501953125,1.0092446179169672,0.08642578125,0.212890625,0.00048828125,42.93,458.6146815705979
-0.1597685546875,0.0722919921875,0.9900439453125,1.0054546915954548,0.0810546875,0.21826171875,-0.00439453125,42.93,458.6146815705979
-0.1666044921875,0.0781513671875,0.9890673828125,1.0060412420740508,0.0693359375,0.24267578125,-0.00830078125,42.97705882352941,458.83924987095054
-0.1626982421875,0.0742451171875,0.9924853515625,1.0084692501525403,0.0791015625,0.2392578125,-0.0185546875,42.83588235294118,458.83924987095054
-0.1553740234375,0.0742451171875,0.9822314453125,0.997212132269772,0.0791015625,0.23681640625,-0.03857421875,42.93,458.83924987095054
-0.1568388671875,0.0727802734375,0.9876025390625,1.0026236450558068,0.07958984375,0.2333984375,-0.021484375,43.02411764705882,458.83924987095054
-0.1602568359375,0.0727802734375,0.9861376953125,1.0017219054121684,0.08984375,0.22802734375,-0.00830078125,42.93,458.83924987095054
-0.1617216796875,0.0718037109375,0.9841845703125,0.9999644708821124,0.0859375,0.2626953125,0.0048828125,42.788823529411765,458.8943756949327
-0.1587919921875,0.0747333984375,0.9876025390625,1.0030746496585337,0.0693359375,0.24951171875,-0.00537109375,42.93,458.8943756949327
-0.1592802734375,0.0747333984375,0.9827197265625,0.9983453046533638,0.09033203125,0.23095703125,0.0048828125,41.89470588235295,458.8943756949327
-0.1583037109375,0.0776630859375,0.9797900390625,0.995530080138222,0.080078125,0.24560546875,-0.00634765625,42.60058823529412,458.8943756949327
-0.1583037109375,0.0801044921875,0.9954150390625,1.0111023165619786,0.08447265625,0.2509765625,-0.0126953125,42.93,459.1860963784841
-0.1641630859375,0.0796162109375,0.9934619140625,1.0100766478447534,0.0927734375,0.251953125,-0.0009765625,42.788823529411765,459.1860963784841
-0.1636748046875,0.0801044921875,0.9900439453125,1.0066743192353966,0.08349609375,0.25244140625,0.015625,42.64764705882353,459.1860963784841
-0.1602568359375,0.0771748046875,0.9895556640625,1.0054146488993625,0.10400390625,0.22314453125,0.03271484375,42.788823529411765,459.1860963784841
-0.1583037109375,0.0796162109375,0.9910205078125,1.0067375292724383,0.103515625,0.3740234375,0.0283203125,42.83588235294118,459.1860963784841
-0.1587919921875,0.0796162109375,0.9880908203125,1.003930827802767,0.1083984375,0.24658203125,0.0107421875,42.97705882352941,458.7750864932478
-0.1583037109375,0.0805927734375,0.9866259765625,1.002489938929483,0.0966796875,0.21875,-0.125,42.74176470588235,458.7750864932478
-0.1592802734375,0.0830341796875,0.9885791015625,1.0047654057285316,0.10595703125,0.23095703125,-0.03515625,42.93,458.7750864932478
-0.1592802734375,0.0820576171875,0.9832080078125,0.9994006427211464,0.1083984375,0.2451171875,-0.03173828125,42.788823529411765,458.7750864932478
-0.1622099609375,0.0810810546875,0.9905322265625,1.0069956805843046,0.09228515625,0.23828125,-0.02001953125,42.93,458.8061745434137
-0.1607451171875,0.0801044921875,0.9817431640625,0.9980357521410188,0.103515625,0.2431640625,-0.0234375,42.788823529411765,458.8061745434137
-0.1622099609375,0.0796162109375,0.9812548828125,0.9977534552757826,0.0986328125,0.2412109375,0.0,42.788823529411765,458.8061745434137
-0.1573271484375,0.0844990234375,0.9871142578125,1.0031383127834812,0.11474609375,0.23046875,-0.01953125,42.97705882352941,458.8061745434137
-0.1548857421875,0.0805927734375,0.9880908203125,1.003398354318538,0.1015625,0.24072265625,-0.015625,42.60058823529412,458.8061745434137
-0.1573271484375,0.0840107421875,0.9807666015625,0.9968514248266016,0.1201171875,0.220703125,-0.00537109375,42.93,458.83924987095054
-0.1592802734375,0.0849873046875,0.9871142578125,1.0034877206229749,0.10791015625,0.126953125,-0.0048828125,42.788823529411765,458.83924987095054
-0.1631865234375,0.0771748046875,0.9851611328125,1.001562903423734,0.10986328125,0.22216796875,0.00830078125,42.60058823529412,458.83924987095054
-0.1626982421875,0.0771748046875,0.9880908203125,1.0043655398684712,0.24755859375,0.2421875,0.0224609375,43.02411764705882,458.83924987095054
-0.1622099609375,0.0781513671875,0.9856494140625,1.001960316111557,0.11376953125,0.23779296875,0.01220703125,42.83588235294118,458.8813638993767
-0.1592802734375,0.0737568359375,0.9910205078125,1.0064451913834065,0.0,0.2470703125,0.0224609375,42.97705882352941,458.8813638993767
-0.1563505859375,0.0771748046875,0.9871142578125,1.0023951387443355,0.10546875,0.220703125,0.02294921875,42.60058823529412,458.8813638993767
-0.1573271484375,0.0747333984375,0.9910205078125,1.006209997655777,0.1015625,0.236328125,0.0380859375,42.97705882352941,458.8813638993767
-0.1607451171875,0.0718037109375,0.9885791015625,1.0041331613138464,0.10302734375,0.2294921875,0.044921875,42.60058823529412,458.8813638993767
-0.1583037109375,0.0688740234375,0.9885791015625,1.003539902568489,0.1044921875,0.21240234375,0.0498046875,42.97705882352941,459.05478717326525
-0.1607451171875,0.0664326171875,0.9841845703125,0.9994356176198668,0.07861328125,0.23779296875,0.072265625,42.08294117647059,459.05478717326525
-0.1587919921875,0.0635029296875,0.9836962890625,0.9984517554579712,0.05126953125,0.22802734375,0.08349609375,42.64764705882353,459.05478717326525
-0.1602568359375,0.0630146484375,0.9866259765625,1.0015407715167204,0.05224609375,0.2275390625,0.09765625,42.97705882352941,459.05478717326525
-0.1631865234375,0.0556904296875,0.9797900390625,0.9948466143262948,0.06103515625,0.2421875,0.1240234375,42.788823529411765,459.1730865900515
-0.1705107421875,0.0556904296875,0.9817431640625,0.9979954796208044,0.0283203125,0.22314453125,0.17138671875,42.788823529411765,459.1730865900515
-0.1680693359375,0.0493427734375,0.9802783203125,0.9958049991075928,0.01953125,0.23779296875,0.2275390625,42.788823529411765,459.1730865900515
-0.1636748046875,0.0464130859375,0.9802783203125,0.9949317572127394,0.0322265625,0.25830078125,0.228515625,43.02411764705882,459.1730865900515
-0.1641630859375,0.0386005859375,0.9846728515625,0.999009583849658,-0.01025390625,0.28759765625,0.23291015625,42.97705882352941,459.1730865900515
-0.1690458984375,0.0342060546875,0.9900439453125,1.0049545181776969,-0.044921875,0.31640625,0.2265625,42.64764705882353,459.0217119297473
-0.1709990234375,0.0312763671875,0.9880908203125,1.0032658403169397,-0.05322265625,0.33935546875,0.21240234375,42.788823529411765,459.0217119297473
-0.1734404296875,0.0312763671875,0.9890673828125,1.0046462469636763,-0.0673828125,0.35546875,0.25732421875,42.93,459.0217119297473
-0.1778349609375,0.0356708984375,0.9993212890625,1.0156479336367092,-0.10107421875,0.369140625,0.3427734375,42.74176470588235,459.0217119297473
-0.1709990234375,0.0405537109375,0.9905322265625,1.00600167064784,-0.10888671875,0.38525390625,0.38818359375,42.74176470588235,458.96857172392896
-0.1680693359375,0.0425068359375,0.9978564453125,1.012803839958947,-0.09033203125,0.4052734375,0.4560546875,42.83588235294118,458.96857172392896
-0.1685576171875,0.0395771484375,0.9939501953125,1.0089177428076723,-0.0908203125,0.4482421875,0.49560546875,42.83588235294118,458.96857172392896
-0.1724638671875,0.0361591796875,0.9954150390625,1.010891869466136,-0.1025390625,0.427734375,0.533203125,42.788823529411765,458.96857172392896
-0.1739287109375,0.0361591796875,0.9954150390625,1.011142810267596,-0.09033203125,0.4248046875,0.57568359375,43.02411764705882,458.96857172392896
-0.1792998046875,0.0425068359375,0.9915087890625,1.0084864549663413,-0.08251953125,0.40966796875,0.6513671875,42.93,459.1941450093317
-0.1788115234375,0.0459248046875,0.9836962890625,1.000870140285421,-0.06787109375,0.4072265625,0.71484375,42.93,459.1941450093317
-0.1685576171875,0.0483662109375,0.9812548828125,0.996800935852165,-0.06298828125,0.4111328125,0.76611328125,42.83588235294118,459.1941450093317
-0.1504912109375,0.0464130859375,0.9836962890625,0.9962229510661812,-0.07373046875,0.37109375,0.7802734375,42.83588235294118,459.1941450093317
-0.1475615234375,0.0459248046875,0.9866259765625,0.9986562514262292,-0.052734375,0.35888671875,0.76904296875,42.93,458.8823569791418
-0.1446318359375,0.0376240234375,0.9871142578125,0.9983629065039428,-0.07177734375,0.35302734375,0.7939453125,42.788823529411765,458.8823569791418
-0.1539091796875,0.0449482421875,0.9919970703125,1.004871418429447,-0.08544921875,0.33349609375,0.76953125,42.97705882352941,458.8823569791418
-0.1612333984375,0.0483662109375,0.9895556640625,1.0037708460651424,-0.0595703125,0.3486328125,0.76416015625,42.97705882352941,458.8823569791418
-0.1685576171875,0.0503193359375,0.9915087890625,1.0069922465785444,-0.0615234375,0.36181640625,0.802734375,42.788823529411765,458.8823569791418
-0.1729521484375,0.0576435546875,0.9934619140625,1.0100503946531003,-0.05419921875,0.36279296875,0.85400390625,42.74176470588235,459.07584499709793
-0.1729521484375,0.0561787109375,0.9895556640625,1.006125690701675,-0.06494140625,0.34716796875,0.91845703125,42.83588235294118,459.07584499709793
-0.1778349609375,0.0576435546875,0.9915087890625,1.008978558502032,-0.037109375,0.3681640625,0.953125,42.83588235294118,459.07584499709793
-0.1714873046875,0.0532490234375,0.9832080078125,0.999470530227208,-0.033203125,0.37548828125,0.97998046875,42.83588235294118,459.07584499709793
-0.1690458984375,0.0561787109375,0.9812548828125,0.9972931907841917,-0.0498046875,0.35107421875,0.9833984375,42.97705882352941,458.96857172392896
-0.1656279296875,0.0517841796875,0.9797900390625,0.9950390610446256,-0.0556640625,0.31787109375,0.98974609375,42.93,458.96857172392896
-0.1607451171875,0.0581318359375,0.9729541015625,0.987855245871772,-0.046875,0.31005859375,0.982421875,42.93,458.96857172392896
-0.1568388671875,0.0635029296875,0.9768603515625,0.9914066767953328,-0.06103515625,0.3056640625,0.94970703125,42.788823529411765,458.96857172392896
-0.1607451171875,0.0649677734375,0.9812548828125,0.9964541882738126,-0.06689453125,0.3232421875,0.953125,42.64764705882353,458.96857172392896
-0.1602568359375,0.0600849609375,0.9841845703125,0.9989553165366108,-0.080078125,0.291015625,0.9482421875,42.03588235294118,458.8703388431113
-0.1641630859375,0.0581318359375,0.9910205078125,1.0062059809198776,-0.0908203125,0.3203125,0.93115234375,42.97705882352941,458.8703388431113
-0.1685576171875,0.0625263671875,0.9885791015625,1.0047934399426153,-0.09912109375,0.314453125,0.94140625,42.93,458.8703388431113
-0.1656279296875,0.0571552734375,0.9915087890625,1.006870902927713,-0.0576171875,0.31640625,0.9658203125,42.74176470588235,458.8703388431113
-0.1685576171875,0.0561787109375,0.9905322265625,1.0063408019818092,-0.06689453125,0.3095703125,0.98828125,42.93,458.6868855858117
-0.1724638671875,0.0512958984375,0.9866259765625,1.0028987348230554,-0.05810546875,0.2978515625,1.00341796875,42.64764705882353,458.6868855858117
-0.1709990234375,0.0576435546875,0.9895556640625,1.00587467295472,-0.0712890625,0.2939453125,1.0380859375,42.64764705882353,458.6868855858117
-0.1666044921875,0.0547138671875,0.9871142578125,1.0025693103503563,-0.07421875,0.27099609375,1.03662109375,42.97705882352941,458.6868855858117
-0.1563505859375,0.0586201171875,0.9817431640625,0.9958420879062728,-0.068359375,0.2548828125,1.06005859375,42.74176470588235,458.6868855858117
-0.1563505859375,0.0542255859375,0.9851611328125,0.9989636517399786,-0.08154296875,0.25146484375,1.0361328125,42.93,458.6217288733846
-0.1548857421875,0.0571552734375,0.9851611328125,0.9988987816686417,-0.08984375,0.265625,1.02001953125,42.93,458.6217288733846
-0.1602568359375,0.0571552734375,0.9841845703125,0.9987833835159728,-0.08984375,0.2802734375,0.9921875,42.97705882352941,458.6217288733846
-0.1612333984375,0.0595966796875,0.9890673828125,1.003893550504758,-0.09814453125,0.24267578125,0.9814453125,42.93,458.6217288733846
-0.1573271484375,0.0615498046875,0.9812548828125,0.9956913955317268,-0.103515625,0.37451171875,0.97119140625,42.93,458.9886368113724
-0.1607451171875,0.0649677734375,0.9797900390625,0.995011721001891,-0.1142578125,0.2197265625,0.97412109375,42.83588235294118,458.9886368113724
-0.1592802734375,0.0566669921875,0.9832080078125,0.997636877895223,-0.13623046875,0.24609375,0.9873046875,42.60058823529412,458.9886368113724
-0.1641630859375,0.0561787109375,0.9768603515625,0.9921500455082052,-0.1171875,0.24267578125,0.97265625,42.93,458.9886368113724
-0.1578154296875,0.0552021484375,0.9851611328125,0.9992474391480692,-0.00439453125,0.2158203125,0.9443359375,42.74176470588235,458.9886368113724
-0.1568388671875,0.0556904296875,0.9885791015625,1.0024911442329836,-0.1318359375,0.197265625,0.923828125,42.93,458.728999265815
-0.1631865234375,0.0561787109375,0.9900439453125,1.0049740805832543,-0.1376953125,0.185546875,0.91796875,42.93,458.728999265815
-0.1656279296875,0.0561787109375,0.9851611328125,1.0005653982921732,-0.13916015625,0.1748046875,0.89599609375,42.93,458.728999265815
-0.1651396484375,0.0561787109375,0.9866259765625,1.001927127428221,-0.13671875,0.15869140625,0.89794921875,42.93,458.728999265815
-0.1558623046875,0.0576435546875,0.9817431640625,0.995708530446013,-0.13330078125,0.13134765625,0.88232421875,42.97705882352941,458.8372637577488
-0.1553740234375,0.0576435546875,0.9876025390625,1.0014103263492269,-0.1513671875,0.1376953125,0.85107421875,42.27117647058824,458.8372637577488
-0.1529326171875,0.0581318359375,0.9836962890625,0.9972091480048788,-0.14453125,0.1474609375,0.86572265625,42.93,458.8372637577488
-0.1641630859375,0.0630146484375,0.9866259765625,1.0021732297013983,-0.119140625,0.169921875,0.84814453125,42.83588235294118,458.8372637577488
-0.1617216796875,0.0620380859375,0.9929736328125,1.0079678870125717,-0.11328125,0.1552734375,0.845703125,42.64764705882353,458.8372637577488
-0.1578154296875,0.0581318359375,0.9998095703125,1.0138561027509676,-0.125,0.1572265625,0.826171875,42.83588235294118,458.8803712630232
-0.1548857421875,0.0576435546875,0.9959033203125,1.0095225584103833,-0.1201171875,0.1474609375,0.78369140625,42.93,458.8803712630232
-0.1509794921875,0.0581318359375,0.9993212890625,1.0123325324142245,-0.125,0.1611328125,0.78125,42.97705882352941,458.8803712630232
-0.1509794921875,0.0586201171875,0.9993212890625,1.0123606886746483,-0.123046875,0.15087890625,0.79248046875,42.93,458.8803712630232
-0.1543974609375,0.0610615234375,0.9988330078125,1.0125386230086342,-0.11962890625,0.1513671875,0.8046875,42.93,458.7299923753507
-0.1548857421875,0.0600849609375,0.9919970703125,1.0058121013253007,-0.1171875,0.1689453125,0.82421875,43.02411764705882,458.7299923753507
-0.1656279296875,0.0635029296875,0.9924853515625,1.008212480699184,-0.083984375,0.18505859375,0.8408203125,42.788823529411765,458.7299923753507
-0.1651396484375,0.0595966796875,0.9812548828125,0.9968370041080984,-0.09716796875,0.19677734375,0.84130859375,42.64764705882353,458.7299923753507
-0.1622099609375,0.0591083984375,0.9846728515625,0.9996932023363052,-0.091796875,0.205078125,0.83056640625,42.788823529411765,458.7299923753507
-0.1622099609375,0.0591083984375,0.9851611328125,1.0001741507345607,-0.10546875,0.193359375,0.80615234375,42.03588235294118,458.6538104749433
-0.1568388671875,0.0595966796875,0.9851611328125,0.9993461122628342,-0.11669921875,0.212890625,0.8037109375,42.97705882352941,458.6538104749433
-0.1509794921875,0.0639912109375,0.9900439453125,1.003532109993688,-0.078125,0.18603515625,0.77392578125,43.118235294117646,458.6538104749433
-0.1465849609375,0.0576435546875,0.9880908203125,1.0005665391946146,-0.1201171875,0.17822265625,0.76123046875,42.97705882352941,458.6538104749433
-0.1412138671875,0.0605732421875,0.9861376953125,0.9980370875230056,-0.11181640625,0.16796875,0.79443359375,42.93,458.8683541362532
-0.1353544921875,0.0591083984375,0.9807666015625,0.9918254725815616,-0.12158203125,0.18994140625,0.7880859375,42.64764705882353,458.8683541362532
-0.1294951171875,0.0625263671875,0.9851611328125,0.9956008183873089,-0.10498046875,0.17919921875,0.83837890625,43.118235294117646,458.8683541362532
-0.1329130859375,0.0630146484375,0.9856494140625,0.9965648507612944,-0.07861328125,0.2294921875,0.8681640625,42.60058823529412,458.8683541362532
-0.1348662109375,0.0586201171875,0.9910205078125,1.0018716783583914,-0.06982421875,0.208984375,0.87060546875,42.64764705882353,458.8683541362532
-0.1417021484375,0.0595966796875,0.9944384765625,1.0062500418730544,-0.0556640625,0.22607421875,0.89013671875,42.60058823529412,458.9014289794464
-0.1417021484375,0.0581318359375,0.9988330078125,1.0105078855293677,-0.07080078125,0.23876953125,0.89404296875,42.83588235294118,458.9014289794464
-0.1451201171875,0.0595966796875,1.0027392578125005,1.0149372551052858,-0.08154296875,0.2314453125,0.8896484375,42.83588235294118,458.9014289794464
-0.1480498046875,0.0635029296875,1.0012744140625005,1.0141507871135855,-0.052734375,0.2314453125,0.89697265625,42.788823529411765,458.9014289794464
-0.1475615234375,0.0600849609375,1.0022509765625005,1.0148357629442029,-0.02294921875,0.228515625,0.88720703125,43.07117647058824,458.9675790412469
-0.1519560546875,0.0581318359375,1.0037158203125005,1.016816306346063,-0.02685546875,0.212890625,0.88916015625,43.21235294117647,458.9675790412469
-0.1475615234375,0.0678974609375,0.9949267578125,1.008099063491405,-0.01953125,0.201171875,0.89111328125,42.788823529411765,458.9675790412469
-0.1421904296875,0.0659443359375,0.9963916015625,1.0086441381385398,-0.0283203125,0.1767578125,0.91748046875,42.93,458.9675790412469
-0.1285185546875,0.0678974609375,0.9822314453125,0.9929278404100704,0.0283203125,0.1796875,0.90966796875,42.97705882352941,458.9675790412469
-0.1236357421875,0.0625263671875,0.9954150390625,1.0050106682676152,0.025390625,0.1806640625,0.90087890625,42.64764705882353,459.0087032383673
-0.1246123046875,0.0620380859375,0.9905322265625,1.0002654859811884,0.0595703125,0.1513671875,0.85986328125,42.97705882352941,459.0087032383673
-0.1353544921875,0.0688740234375,0.9905322265625,1.0021070609065028,0.05322265625,0.0703125,0.84619140625,42.83588235294118,459.0087032383673
-0.1402373046875,0.0771748046875,0.9797900390625,0.9927794179729272,0.0908203125,0.0830078125,0.83642578125,42.788823529411765,459.0087032383673
-0.1304716796875,0.0849873046875,0.9880908203125,1.0002845446893365,0.0966796875,0.10205078125,0.87939453125,42.93,458.8683541362532
-0.1231474609375,0.0864521484375,0.9880908203125,0.9994812355870628,0.140625,0.05859375,0.91015625,43.25941176470588,458.8683541362532
-0.1265654296875,-0.0312236328125,0.9890673828125,0.9976211760891808,0.1904296875,0.0224609375,0.96630859375,42.60058823529412,458.8683541362532
-0.1285185546875,0.1030537109375,0.9856494140625,0.999320696112466,0.2275390625,0.03564453125,1.01806640625,42.64764705882353,458.8683541362532
-0.1407255859375,0.1011005859375,0.9856494140625,1.0007646009207702,0.27294921875,0.0498046875,1.07080078125,42.93,458.8683541362532
-0.1470732421875,0.1137958984375,1.0007861328125005,1.0179159732996337,0.34375,0.056640625,1.12646484375,42.74176470588235,459.0307531141249
-0.1519560546875,0.1191669921875,0.9993212890625,1.0178086526242265,0.4111328125,0.09716796875,1.18994140625,42.788823529411765,459.0307531141249
-0.1504912109375,0.1196552734375,0.9998095703125,1.018127774849161,0.49755859375,0.13623046875,1.27001953125,42.60058823529412,459.0307531141249
-0.1441435546875,0.1294208984375,0.9983447265625,1.0169657449321836,0.54833984375,0.189453125,1.28564453125,43.25941176470588,459.0307531141249
-0.1348662109375,0.1230732421875,1.0066455078125005,1.0230694483730165,0.57958984375,0.212890625,1.19189453125,42.788823529411765,459.0728704335364
-0.1441435546875,0.1216083984375,1.0100634765625005,1.02751846387985,0.56640625,0.18994140625,1.15576171875,43.02411764705882,459.0728704335364
-0.1446318359375,0.1225849609375,1.0164111328125005,1.033942470120988,0.61376953125,0.21044921875,1.109375,42.93,459.0728704335364
-0.1500029296875,0.1264912109375,1.0266650390625005,1.0452473428774998,0.6083984375,0.24365234375,1.087890625,42.83588235294118,459.0728704335364
-0.1558623046875,0.1260029296875,1.0295947265625005,1.0489209204118497,0.68115234375,0.3271484375,1.06640625,42.788823529411765,459.0728704335364
-0.1578154296875,0.1313740234375,1.0330126953125005,1.0532236574243876,0.6865234375,0.38037109375,1.0732421875,42.97705882352941,459.0407867353209
-0.1558623046875,0.1357685546875,1.0310595703125005,1.0515750073092407,0.71923828125,0.4775390625,1.06005859375,42.788823529411765,459.0407867353209
-0.1402373046875,0.1455341796875,1.0276416015625005,1.0473270551003964,0.81884765625,0.67529296875,1.03466796875,42.64764705882353,459.0407867353209
-0.1211943359375,0.1489521484375,1.0125048828125005,1.0305537090839243,0.8408203125,0.7744140625,1.0498046875,42.83588235294118,459.0407867353209
-0.1128935546875,0.1484638671875,0.9988330078125,1.0160973634677009,0.82373046875,0.77783203125,1.0693359375,42.788823529411765,459.16912273570455
-0.1182646484375,0.1377216796875,0.9773486328125,0.9940644537385164,0.6630859375,0.7919921875,1.033203125,42.788823529411765,459.16912273570455
-0.1197294921875,0.1465107421875,0.9856494140625,1.0036460114589996,0.634765625,0.9755859375,0.82666015625,42.83588235294118,459.16912273570455
-0.1348662109375,0.1426044921875,0.9773486328125,0.9968627217953112,0.61474609375,1.1513671875,0.65771484375,42.788823529411765,459.16912273570455
-0.1436552734375,0.1352802734375,0.9387744140625,0.9592887940897246,0.595703125,0.87548828125,0.77392578125,42.83588235294118,459.16912273570455
-0.1470732421875,0.1460224609375,0.9436572265625,0.966148052272226,0.60791015625,0.74658203125,0.85498046875,43.02411764705882,459.2012072389328
-0.1470732421875,0.1587177734375,0.9519580078125,0.9762407074133124,0.59033203125,0.7021484375,0.79150390625,42.83588235294118,459.2012072389328
-0.1417021484375,0.1606708984375,0.9465869140625,0.9705263635527288,0.55419921875,0.73583984375,0.7080078125,42.788823529411765,459.2012072389328
-0.1348662109375,0.1592060546875,0.9397509765625,0.9626356323406952,0.57958984375,0.685546875,0.693359375,42.83588235294118,459.2012072389328
-0.1363310546875,0.1533466796875,0.9338916015625,0.95616676584807,0.55908203125,0.64990234375,0.66015625,42.93,459.1600788340908
-0.1436552734375,0.1538349609375,0.9353564453125,0.9587459061611064,0.56689453125,0.6171875,0.61572265625,42.97705882352941,459.1600788340908
-0.1509794921875,0.1601826171875,0.9363330078125,0.96185902263764,0.55419921875,0.54296875,0.5693359375,42.788823529411765,459.1600788340908
-0.1519560546875,0.1606708984375,0.9412158203125,0.966846937507399,0.56396484375,0.44580078125,0.52880859375,42.74176470588235,459.1600788340908
-0.1460966796875,0.1621357421875,0.9426806640625,0.9676151472087028,0.541015625,0.38134765625,0.5,42.83588235294118,459.1600788340908
-0.1470732421875,0.1709248046875,0.9441455078125,0.9706990096561996,0.505859375,0.3017578125,0.46337890625,42.788823529411765,459.050820691422
-0.1495146484375,0.1636005859375,0.9436572265625,0.9693341751223424,0.5146484375,0.22802734375,0.45654296875,42.93,459.050820691422
-0.1509794921875,0.1733662109375,0.9441455078125,0.9717311305492607,0.49072265625,0.19384765625,0.40673828125,42.83588235294118,459.050820691422
-0.1436552734375,0.1679951171875,0.9485400390625,0.9739545177727418,0.49658203125,0.17431640625,0.3583984375,42.788823529411765,459.050820691422
-0.1470732421875,0.1743427734375,0.9543994140625,0.98127681251534,0.455078125,0.11572265625,0.294921875,42.788823529411765,459.41675649492703
-0.1548857421875,0.1684833984375,0.9597705078125,0.9866791151882592,0.458984375,0.0439453125,0.25048828125,42.55352941176471,459.41675649492703
-0.1529326171875,0.1675068359375,0.9578173828125,0.9843074033569992,0.416015625,-0.04931640625,0.22705078125,42.83588235294118,459.41675649492703
-0.1524443359375,0.1767841796875,0.9636767578125,0.9915466783239302,0.4111328125,-0.154296875,0.15576171875,42.93,459.41675649492703
-0.1597685546875,0.1675068359375,0.9607470703125,0.9882405902748466,0.3857421875,-0.2412109375,0.130859375,42.788823529411765,459.41675649492703
-0.1548857421875,0.1748310546875,0.9714892578125,0.9991730925426278,0.39013671875,-0.31396484375,0.1455078125,43.02411764705882,459.2112423963722
-0.1656279296875,0.1738544921875,0.9768603515625,1.0059394325709436,0.38671875,-0.34326171875,0.15673828125,43.02411764705882,459.2112423963722
-0.1500029296875,0.1728779296875,0.9710009765625,0.9976124267335476,0.49609375,-0.3837890625,0.07373046875,42.788823529411765,459.2112423963722
-0.1529326171875,0.1704365234375,0.9749072265625,1.0014395110664776,0.369140625,-0.4404296875,-0.01171875,42.788823529411765,459.2112423963722
-0.1587919921875,0.1665302734375,0.9783251953125,1.0050211025333171,0.35498046875,-0.427734375,-0.0302734375,42.93,459.1580979162024
-0.1675810546875,0.1660419921875,0.9841845703125,1.0120635461772989,0.37060546875,-0.31591796875,0.05810546875,43.02411764705882,459.1580979162024
-0.1622099609375,0.1670185546875,0.9827197265625,1.009923427796544,0.345703125,-0.251953125,0.08984375,42.93,459.1580979162024
-0.1529326171875,0.1743427734375,0.9666064453125,0.9940381321505554,0.291015625,-0.3076171875,0.05712890625,42.93,459.1580979162024
-0.1539091796875,0.1767841796875,0.9749072265625,1.00268877633274,0.24169921875,-0.39453125,-0.01220703125,42.788823529411765,459.1580979162024
-0.1626982421875,0.1728779296875,0.9749072265625,1.00339503536131,0.24853515625,-0.3701171875,-0.03515625,42.93,458.8242545400008
-0.1626982421875,0.1675068359375,0.9793017578125,1.006757761803378,0.1826171875,-0.40087890625,-0.04638671875,42.788823529411765,458.8242545400008
-0.1656279296875,0.1601826171875,0.9778369140625,1.0046173960493008,0.1484375,-0.35205078125,-0.00830078125,43.02411764705882,458.8242545400008
-0.1583037109375,0.1645771484375,0.9734423828125,0.9998678789420532,0.13427734375,-0.3330078125,0.0185546875,42.83588235294118,458.8242545400008
-0.1548857421875,0.1689716796875,0.9729541015625,0.9995902687684988,0.123046875,-0.34765625,0.00341796875,42.83588235294118,459.1911724164034
-0.1583037109375,0.1684833984375,0.9617236328125,0.9891203497834352,0.0556640625,-0.4052734375,-0.0517578125,43.02411764705882,459.1911724164034
-0.1626982421875,0.1552998046875,0.9768603515625,1.0024195198626618,0.0185546875,-0.29541015625,-0.0751953125,42.64764705882353,459.1911724164034
-0.1690458984375,0.1518818359375,0.9778369140625,1.0038972250034166,-0.01123046875,-0.20947265625,-0.0146484375,42.83588235294118,459.1911724164034
-0.1675810546875,0.1513935546875,0.9753955078125,1.0011991884494795,-0.03564453125,-0.0927734375,0.0859375,42.83588235294118,459.1911724164034
-0.1612333984375,0.1523701171875,0.9656298828125,0.9907845032921744,-0.09326171875,-0.03564453125,0.10595703125,42.788823529411765,458.974637558789
-0.1666044921875,0.1499287109375,0.9690478515625,0.9946302900064588,-0.14013671875,0.0234375,0.1455078125,42.788823529411765,458.974637558789
-0.1622099609375,0.1460224609375,0.9661181640625,0.9904640010909456,-0.18408203125,0.05615234375,0.1689453125,42.64764705882353,458.974637558789
-0.1558623046875,0.1460224609375,0.9539111328125,0.9775285501837632,-0.2392578125,0.0732421875,0.1767578125,42.788823529411765,458.974637558789
-0.1529326171875,0.1411396484375,0.9539111328125,0.9763479067752984,-0.28076171875,0.1220703125,0.19482421875,43.25941176470588,459.17915765286347
-0.1543974609375,0.1465107421875,0.9558642578125,0.9792754734413196,-0.32177734375,0.1845703125,0.2080078125,42.97705882352941,459.17915765286347
-0.1534208984375,0.1396748046875,0.9578173828125,0.9800312045846542,-0.37939453125,0.19677734375,0.19970703125,43.02411764705882,459.17915765286347
-0.1656279296875,0.1396748046875,0.9534228515625,0.9777304311714082,-0.46923828125,0.224609375,0.22998046875,42.788823529411765,459.17915765286347
-0.1734404296875,0.1386982421875,0.9573291015625,0.9827501176466734,-0.5087890625,0.3173828125,0.28173828125,42.08294117647059,459.17915765286347
-0.1719755859375,0.1416279296875,0.9690478515625,0.9943278188022354,-0.5654296875,0.3955078125,0.31640625,42.64764705882353,459.0167558542716
-0.1670927734375,0.1367451171875,0.9700244140625,0.9937638481485204,-0.57080078125,0.47802734375,0.32958984375,42.93,459.0167558542716
-0.1626982421875,0.1333271484375,0.9724658203125,0.994955586042634,-0.60107421875,0.54150390625,0.29296875,42.788823529411765,459.0167558542716
-0.1817412109375,0.1347919921875,0.9880908203125,1.0136677059553258,-0.60693359375,0.6025390625,0.2763671875,42.64764705882353,459.0167558542716
-0.1978544921875,0.1416279296875,0.9954150390625,1.0247223870581434,-0.65283203125,0.62646484375,0.2646484375,42.93,458.77012193826175
-0.2115263671875,0.1416279296875,1.0022509765625005,1.0340739308693525,-0.6669921875,0.70703125,0.29931640625,42.83588235294118,458.77012193826175
-0.2066435546875,0.1494404296875,1.0149462890625005,1.0464941329987525,-0.66748046875,0.83056640625,0.34423828125,42.788823529411765,458.77012193826175
-0.1866240234375,0.1557880859375,1.0330126953125005,1.0612321529810842,-0.6552734375,0.90283203125,0.3984375,42.788823529411765,458.77012193826175
-0.1607451171875,0.1626240234375,1.0461962890625005,1.0708931977311138,-0.61474609375,0.85986328125,0.38037109375,42.788823529411765,458.77012193826175
-0.1294951171875,0.1753193359375,1.0471728515625005,1.0696152747499956,-0.55419921875,0.728515625,0.3603515625,42.788823529411765,458.6608654159193
-0.1177763671875,0.1792255859375,1.0388720703125005,1.0607771970578486,-0.45263671875,0.65380859375,0.28466796875,42.788823529411765,458.6608654159193
-0.1177763671875,0.1928974609375,1.0398486328125005,1.0641268168155735,-0.390625,0.59716796875,0.1484375,42.97705882352941,458.6608654159193
-0.1226591796875,0.1982685546875,1.0486376953125005,1.074242388928026,-0.32177734375,0.53369140625,0.0048828125,42.60058823529412,458.6608654159193
-0.0103544921875,0.1997333984375,1.0281298828125005,1.0474023591208397,-0.26220703125,0.48876953125,-0.09814453125,42.97705882352941,458.8563375892485
-0.1485380859375,0.1963154296875,1.0486376953125005,1.077146381388192,-0.22216796875,0.439453125,-0.16552734375,43.02411764705882,458.8563375892485
-0.1524443359375,0.1816669921875,1.0374072265625005,1.0641691244036249,-0.20849609375,0.41064453125,-0.20947265625,42.93,458.8563375892485
-0.1475615234375,0.1670185546875,1.0447314453125005,1.068238453545763,-0.1962890625,0.31591796875,-0.3115234375,42.64764705882353,458.8563375892485
-0.1402373046875,0.1489521484375,1.0339892578125005,1.0540336946330544,-0.20849609375,0.1943359375,-0.3896484375,42.93,458.8563375892485
-0.1377958984375,0.1435810546875,1.0252001953125005,1.0443364732499585,-0.2275390625,0.08837890625,-0.4306640625,42.83588235294118,459.017746182524
-0.1285185546875,0.1357685546875,1.0115283203125005,1.028659157415674,-0.20947265625,0.0126953125,-0.466796875,42.83588235294118,459.017746182524
-0.1290068359375,0.1284443359375,0.9846728515625,1.0013597434275334,-0.19921875,-0.0205078125,-0.48583984375,42.93,459.017746182524
-0.1280302734375,0.1206318359375,0.9719775390625,0.9877672434334552,-0.1845703125,-0.01806640625,-0.48681640625,42.83588235294118,459.017746182524
-0.1324248046875,0.1147724609375,0.9514697265625,0.967472835407326,-0.197265625,0.064453125,-0.62451171875,42.93,458.8984546938311
-0.1412138671875,0.1059833984375,0.9329150390625,0.949475806505567,-0.20703125,0.1767578125,-0.47705078125,42.83588235294118,458.8984546938311
-0.1504912109375,0.1059833984375,0.9275439453125,0.9456309300142816,-0.255859375,0.279296875,-0.466796875,42.74176470588235,458.8984546938311
-0.1539091796875,0.1011005859375,0.9260791015625,0.9442096517298436,-0.2470703125,0.38671875,-0.46533203125,42.93,458.8984546938311
-0.1490263671875,0.1074482421875,0.9177783203125,0.9359866602157968,-0.25439453125,0.451171875,-0.49072265625,43.02411764705882,458.8984546938311
-0.1490263671875,0.1089130859375,0.9255908203125,0.9438163407423604,-0.234375,0.49755859375,-0.517578125,42.83588235294118,458.9405728150728
-0.1397490234375,0.1079365234375,0.9265673828125,0.9432429154441156,-0.19677734375,0.5439453125,-0.54150390625,42.83588235294118,458.9405728150728
-0.1343779296875,0.1103779296875,0.9285205078125,0.944664516522972,-0.20361328125,0.5234375,-0.5556640625,42.93,458.9405728150728
-0.1231474609375,0.1103779296875,0.9392626953125,0.953710121212496,-0.19873046875,0.533203125,-0.58251953125,42.83588235294118,458.9405728150728
-0.1158232421875,0.1167255859375,0.9607470703125,0.9747178150405014,-0.18310546875,0.50732421875,-0.59765625,42.83588235294118,458.9175336293548
-0.0982451171875,0.1157490234375,0.9768603515625,0.988587925241216,-0.16552734375,0.4599609375,-0.59326171875,42.97705882352941,458.9175336293548
-0.0811552734375,0.1137958984375,0.9944384765625,1.0042129099826689,-0.12890625,0.43701171875,-0.5888671875,42.93,458.9175336293548
-0.0796904296875,0.1137958984375,1.0081103515625005,1.017637731224842,-0.10986328125,0.3857421875,-0.591796875,42.83588235294118,458.9175336293548
-0.0767607421875,0.1015888671875,1.0188525390625005,1.0267779729969468,-0.1181640625,0.3388671875,-0.62255859375,42.97705882352941,458.9175336293548
-0.0762724609375,0.0976826171875,1.0232470703125005,1.0307249627816224,-0.14599609375,0.26416015625,-0.6669921875,42.64764705882353,459.048840111036
-0.0865263671875,0.0888935546875,1.0388720703125005,1.04625238578415,-0.15771484375,0.2548828125,-0.6904296875,42.27117647058824,459.048840111036
-0.0870146484375,0.0869404296875,1.0320361328125005,1.0393405441853645,-0.1787109375,0.2333984375,-0.71044921875,42.83588235294118,459.048840111036
-0.0831083984375,0.0810810546875,1.0139697265625005,1.0205957817399185,-0.1689453125,0.169921875,-0.72705078125,42.93,459.048840111036
-0.0806669921875,0.0703388671875,1.0090869140625005,1.01474682556684,-0.1875,0.171875,-0.7724609375,42.64764705882353,458.7791639676399
-0.0821318359375,0.0688740234375,0.9905322265625,0.9963148907036358,-0.1630859375,0.0048828125,-0.77734375,42.64764705882353,458.7791639676399
-0.0757841796875,0.0610615234375,0.9841845703125,0.9889848431480718,-0.17236328125,0.166015625,-0.76123046875,42.83588235294118,458.7791639676399
-0.0748076171875,0.0473896484375,1.0852587890625005,1.0888657390173069,-0.15576171875,0.1953125,-0.7333984375,42.93,458.7791639676399
-0.0709013671875,0.0464130859375,0.9265673828125,0.9304344648105553,-0.1689453125,0.2451171875,-0.71533203125,42.93,458.7791639676399
-0.0713896484375,0.0469013671875,0.9148486328125,0.9188276449405444,-0.1474609375,0.33935546875,-0.716796875,42.93,459.03781538327104
-0.0738310546875,0.0429951171875,0.9138720703125,0.917857159712496,-0.169921875,0.3623046875,-0.71923828125,42.97705882352941,459.03781538327104
-0.0792021484375,0.0366474609375,0.9153369140625,0.9194877285509264,-0.16796875,0.43310546875,-0.67822265625,42.97705882352941,459.03781538327104
-0.0855498046875,0.0366474609375,0.9417041015625,0.9462919318978,-0.13623046875,0.50732421875,-0.6201171875,42.788823529411765,459.03781538327104
-0.0831083984375,0.0317646484375,0.9495166015625,0.9536759278832636,-0.11865234375,0.556640625,-0.5537109375,42.97705882352941,458.7561238538912
-0.0713896484375,0.0332294921875,0.9890673828125,0.9921970413172162,-0.10302734375,0.5205078125,-0.537109375,42.64764705882353,458.7561238538912
-0.0655302734375,0.0366474609375,1.0110400390625005,1.0138240546157211,-0.1103515625,0.4970703125,-0.59716796875,42.97705882352941,458.7561238538912
-0.0796904296875,0.0317646484375,1.0320361328125005,1.035595546970301,-0.10791015625,0.41796875,-0.6982421875,42.97705882352941,458.7561238538912
-0.0835966796875,0.0302998046875,1.0535205078125005,1.0572662594637092,-0.1259765625,0.28369140625,-0.7734375,43.118235294117646,458.7561238538912
-0.0928740234375,0.0210224609375,1.0623095703125005,1.0665688685082024,-0.12060546875,0.1435546875,-0.81396484375,43.118235294117646,458.9515975401421
-0.0870146484375,0.0146748046875,1.0569384765625005,1.060615784425999,-0.12646484375,0.12939453125,-0.830078125,42.83588235294118,458.9515975401421
-0.0875029296875,0.0136982421875,1.0637744140625005,1.0674551084504391,-0.138671875,0.24560546875,-0.80615234375,42.97705882352941,458.9515975401421
-0.0992216796875,0.0136982421875,1.0427783203125005,1.0475777817769885,-0.09423828125,0.03125,-0.6435546875,42.93,458.9515975401421
-0.1128935546875,0.0093037109375,1.0481494140625005,1.05425267745771,-0.0439453125,-0.125,-0.3759765625,42.93,458.9626222791129
-0.1153349609375,0.0093037109375,1.0310595703125005,1.0375319512114607,-0.0185546875,-0.0009765625,-0.19287109375,42.83588235294118,458.9626222791129
-0.1158232421875,0.0171162109375,1.0252001953125005,1.031864055278829,-0.01513671875,-0.03515625,-0.13232421875,42.64764705882353,458.9626222791129
-0.1255888671875,0.0356708984375,1.0330126953125005,1.0412301403789532,-0.0078125,-0.12451171875,-0.20361328125,42.788823529411765,458.9626222791129
-0.1358427734375,0.0454365234375,1.0388720703125005,1.0487005841672157,-0.0283203125,0.02294921875,-0.34716796875,42.93,458.9626222791129
-0.1402373046875,0.0561787109375,1.0418017578125005,1.052698176957588,-0.033203125,0.01708984375,-0.53564453125,42.97705882352941,458.7791639676399
-0.1436552734375,0.0591083984375,1.0398486328125005,1.0513875686511969,-0.03955078125,0.013671875,-0.7275390625,42.788823529411765,458.7791639676399
-0.1426787109375,0.0503193359375,1.0266650390625005,1.037752548807847,-0.0556640625,0.0078125,-0.8662109375,42.97705882352941,458.7791639676399
-0.1343779296875,0.0498310546875,1.0154345703125005,1.0254988681534951,-0.08740234375,0.0458984375,-0.98388671875,42.83588235294118,458.7791639676399
-0.1285185546875,0.0415302734375,0.9924853515625,1.0016331442084456,-0.0947265625,0.03076171875,-1.021484375,42.64764705882353,458.5957084435008
-0.1294951171875,0.0293232421875,0.9793017578125,0.9882614890616976,-0.1220703125,0.09326171875,-0.97705078125,42.93,458.5957084435008
-0.1241240234375,0.0166279296875,0.9856494140625,0.993573363512607,-0.11083984375,0.1220703125,-0.94970703125,42.74176470588235,458.5957084435008
-0.1299833984375,0.0053974609375,0.9710009765625,0.979677351447538,-0.095703125,0.087890625,-0.859375,42.64764705882353,458.5957084435008
-0.1392607421875,2.6367187500001e-05,0.9514697265625,0.9616070900189748,-0.07861328125,-0.01806640625,-0.755859375,42.83588235294118,458.5957084435008
-0.1548857421875,-0.0029033203124999,0.9524462890625,0.9649621526001614,-0.03369140625,-0.08203125,-0.66552734375,42.788823529411765,458.5836922606553
-0.1568388671875,0.0102802734375,0.9558642578125,0.9687004664219222,-0.0234375,-0.03515625,-0.6982421875,42.93,458.5836922606553
-0.1724638671875,0.0127216796875,0.9597705078125,0.9752256427545388,0.02197265625,-0.01953125,-0.732421875,42.83588235294118,458.5836922606553
-0.1763701171875,0.0229755859375,0.9749072265625,0.9909986862704157,0.02734375,0.0771484375,-0.75634765625,42.93,458.5836922606553
-0.1641630859375,0.0342060546875,0.9783251953125,0.9925924444327836,0.04248046875,0.16259765625,-0.859375,42.97705882352941,458.6909663771867
-0.1553740234375,0.0371357421875,0.9793017578125,0.9922459792620104,0.05859375,0.27587890625,-1.04150390625,42.93,458.6909663771867
-0.1529326171875,0.0425068359375,0.9871142578125,0.9997948661990412,0.0703125,0.3369140625,-1.16748046875,42.97705882352941,458.6909663771867
-0.1583037109375,0.0405537109375,0.9885791015625,1.0019946648627955,0.09130859375,0.31494140625,-1.2900390625,42.74176470588235,458.6909663771867
-0.1709990234375,0.0434833984375,0.9895556640625,1.0051626158161815,0.14453125,0.30712890625,-1.34521484375,42.60058823529412,458.6909663771867
-0.1680693359375,0.0381123046875,0.9856494140625,1.0006021271678442,0.19873046875,0.3095703125,-1.35205078125,42.64764705882353,458.831316060109
-0.1656279296875,0.0302998046875,0.9783251953125,0.9927088581451812,0.236328125,0.31201171875,-1.3212890625,42.93,458.831316060109
-0.1558623046875,0.0229755859375,0.9744189453125,0.9870730553285282,0.25830078125,0.2919921875,-1.36474609375,42.64764705882353,458.831316060109
-0.1460966796875,0.0146748046875,0.9744189453125,0.985419641925334,0.28125,0.125,-1.3896484375,42.93,458.831316060109
-0.1480498046875,0.0122333984375,0.9758837890625,0.9871259141874048,0.31689453125,0.21826171875,-1.41748046875,42.60058823529412,458.5405848026884
-0.1465849609375,0.0034443359375,0.9817431640625,0.9926321848532556,0.3544921875,0.1650390625,-1.39990234375,42.97705882352941,458.5405848026884
-0.1534208984375,0.0024677734375,0.9846728515625,0.9965564141519204,0.4169921875,0.12109375,-1.3876953125,42.788823529411765,458.5405848026884
-0.1592802734375,0.0014912109375,0.9880908203125,1.0008475899967058,0.43994140625,0.103515625,-1.3505859375,42.97705882352941,458.5405848026884
