AccX,AccY,AccZ,Magnitude,GyroX,GyroY,GyroZ,Temperature,Altitude
0.0379853515625,-0.2797587890625,1.0896533203125005,1.1256341436981645,-0.24951171875,-0.35400390625,-1.7119140625,44.81235294117647,393.30014066359
0.0565400390625,-0.2480205078125,1.0759814453125005,1.1056432602650532,0.06689453125,0.34765625,-0.92333984375,45.00058823529412,393.30014066359
0.0365205078125,-0.1923564453125,1.0823291015625005,1.0998959194547604,-0.07958984375,1.07958984375,-0.478515625,44.906470588235294,393.30014066359
-0.0093779296875,-0.1352275390625,1.0984423828125005,1.1067746388695971,-0.1416015625,1.3359375,0.16748046875,45.00058823529412,393.30014066359
-0.0225615234375,-0.1161845703125,1.0281298828125005,1.0349197711178229,-0.00390625,1.58544921875,0.89501953125,45.09470588235294,394.6633490239069
0.0531220703125,0.0029560546875,0.9680712890625,0.9695322136580776,-0.4306640625,1.82421875,0.6533203125,45.04764705882353,394.6633490239069
0.0052705078125,0.0913349609375,0.9338916015625,0.9383620712768752,-0.38232421875,1.681640625,0.64599609375,44.906470588235294,394.6633490239069
0.0423798828125,0.1787373046875,0.9529345703125,0.9704779100272312,-0.0869140625,1.8994140625,0.6953125,45.00058823529412,394.6633490239069
0.1092744140625,0.1728779296875,0.8479541015625001,0.8722693589129482,0.107421875,1.68359375,0.63330078125,44.85941176470588,394.6633490239069
0.1468720703125,0.1733662109375,0.7708056640625001,0.8035972995745676,0.24951171875,1.20654296875,0.3857421875,44.906470588235294,394.186508202417
0.1297822265625,0.1548115234375,0.7356494140625001,0.7628827528074412,0.46142578125,0.8115234375,0.3466796875,44.906470588235294,394.186508202417
0.1307587890625,0.1489521484375,0.6794970703125001,0.7078141507518121,0.55029296875,0.30810546875,0.046875,44.67117647058824,394.186508202417
0.0843720703125,0.1020771484375,0.6150439453125001,0.629140242829462,0.53076171875,-0.009765625,-0.07373046875,45.47117647058823,394.186508202417
-0.0030302734374999,0.0283466796875,0.6013720703125001,0.6020474098925718,0.60888671875,-0.43359375,0.27783203125,45.00058823529412,394.4328235738306
-0.0318388671875,-0.0014384765624999,0.6047900390625001,0.6056292380886382,0.6904296875,-0.46484375,0.24169921875,44.85941176470588,394.4328235738306
-0.0796904296875,-0.0326884765625,0.6121142578125001,0.6181447772982501,0.72119140625,-0.13330078125,0.43310546875,45.09470588235294,394.4328235738306
-0.0723662109375,-0.0395244140625,0.5906298828125001,0.5963578676126795,0.720703125,-0.033203125,0.60986328125,45.00058823529412,394.4328235738306
-0.0352568359375,-0.0263408203125,0.5920947265625001,0.5937280930848573,0.7470703125,0.19482421875,0.52783203125,45.00058823529412,394.4328235738306
0.0023408203125,-0.0199931640625,0.5725634765625001,0.5729172197990754,0.75439453125,0.13720703125,0.28759765625,45.00058823529412,393.3983989651212
0.0057587890625,-0.0312236328125,0.5559619140625001,0.5568677839357515,0.65185546875,0.26220703125,0.130859375,45.04764705882353,393.3983989651212
0.0042939453125,-0.0278056640625,0.5784228515625001,0.5791067156664628,0.67822265625,0.34765625,-0.2041015625,45.47117647058823,393.3983989651212
-0.0084013671875,-0.0336650390625,0.5881884765625001,0.5892109993768052,0.7373046875,0.48779296875,-0.5546875,45.00058823529412,393.3983989651212
-0.0381865234375,-0.0248759765625,0.6223681640625001,0.6240345795071839,0.73974609375,0.68408203125,-0.68603515625,44.24764705882353,392.90228739373646
-0.0772490234375,-0.0160869140625,0.6365283203125001,0.6414004232817081,0.7021484375,1.07275390625,-0.68408203125,45.04764705882353,392.90228739373646
-0.1119169921875,0.0034443359375,0.6755908203125001,0.6848067122048849,0.7294921875,1.548828125,-0.75927734375,45.04764705882353,392.90228739373646
-0.1495146484375,0.0093037109375,0.7024462890625001,0.7182422837401563,0.77587890625,1.8115234375,-0.83203125,44.71823529411765,392.90228739373646
-0.1490263671875,0.0112568359375,0.7229541015625001,0.738239938934808,0.71630859375,1.67822265625,-0.99560546875,44.85941176470588,392.90228739373646
-0.1314482421875,0.0078388671875,0.7688525390625001,0.7800476363888427,0.7109375,1.29296875,-1.19140625,45.00058823529412,392.5242834524172
-0.1280302734375,0.0097919921875,0.8196337890625001,0.8296307505152108,0.52294921875,0.6806640625,-1.4033203125,44.906470588235294,392.5242834524172
-0.1280302734375,0.0195576171875,0.8757861328125001,0.8853110197739593,0.2177734375,0.15771484375,-1.509765625,45.00058823529412,392.5242834524172
-0.1153349609375,0.0195576171875,0.9480517578125,0.9552417437988556,0.30126953125,-0.22216796875,-1.6357421875,44.85941176470588,392.5242834524172
-0.0948271484375,0.0459248046875,1.0364306640625005,1.041772430608244,0.35009765625,-0.5283203125,-1.5966796875,45.00058823529412,391.9750912772019
-0.0542998046875,0.0517841796875,1.1023486328125005,1.104899352121539,0.45849609375,-0.74365234375,-1.63330078125,45.47117647058823,391.9750912772019
-0.0831083984375,0.0371357421875,1.1648486328125005,1.1683999343563032,0.70947265625,-0.5078125,-1.69921875,45.00058823529412,391.9750912772019
-0.1065458984375,0.0180927734375,1.1692431640625005,1.174226960017271,0.68212890625,-0.28076171875,-1.89111328125,44.906470588235294,391.9750912772019
-0.1412138671875,0.0117451171875,1.1809619140625005,1.1894327835274936,0.63671875,-0.224609375,-2.0810546875,45.00058823529412,391.9750912772019
-0.2286162109375,0.0014912109375,1.2673876953125005,1.2878428342942358,0.84619140625,0.28515625,-1.83837890625,44.85941176470588,392.5874897747089
-0.2393583984375,-0.0165751953125,1.2737353515625005,1.2961361525018344,0.88232421875,0.59912109375,-1.36767578125,45.04764705882353,392.5874897747089
-0.2715849609375,-0.0160869140625,1.3557666015625005,1.3827943656682322,0.9619140625,0.91064453125,-1.0595703125,44.906470588235294,392.5874897747089
-0.2559599609375,-0.0141337890624999,1.4231494140625005,1.4460530835148575,1.03564453125,1.35009765625,-0.83544921875,44.81235294117647,392.5874897747089
-0.2056669921875,-0.0234111328125,1.4978564453125005,1.5120915724846882,0.9912109375,1.80908203125,-0.40478515625,44.906470588235294,391.7160812706359
-0.0689482421875,0.0605732421875,1.6296923828125005,1.6322745603503526,0.98876953125,1.52880859375,-0.74951171875,45.42411764705882,391.7160812706359
0.0174775390625,0.0776630859375,1.7449267578125005,1.746741655030606,0.92041015625,0.79052734375,-1.1416015625,44.85941176470588,391.7160812706359
0.0799775390625,0.1064716796875,1.7170947265625005,1.72225054080953,0.556640625,0.0341796875,-1.30615234375,44.906470588235294,391.7160812706359
0.0824189453125,0.1391865234375,1.6418994140625005,1.6498483132554411,0.04150390625,0.00634765625,-1.13671875,44.81235294117647,391.7160812706359
0.2328095703125,0.1767841796875,1.5349658203125005,1.56255336284701,-0.42041015625,0.6220703125,-0.87841796875,44.81235294117647,391.87807306923577
0.4491181640625,0.2319599609375,1.4924853515625005,1.5757617438552178,-0.466796875,0.69580078125,-0.193359375,44.906470588235294,391.87807306923577
0.6419892578125,0.2378193359375,1.3909228515625005,1.550282110678942,-0.1455078125,0.4736328125,0.95068359375,44.24764705882353,391.87807306923577
0.7245087890625,0.2177998046875,1.2219775390625005,1.4372121786027168,-0.39501953125,0.57080078125,1.765625,45.00058823529412,391.87807306923577
0.6263642578125,0.2295185546875,1.1316455078125005,1.3136333224165162,-0.7431640625,0.525390625,2.20947265625,44.906470588235294,393.814165202228
0.5853486328125,0.2964130859375,1.0676806640625005,1.253170275686188,-0.8779296875,-0.095703125,1.7783203125,44.85941176470588,393.814165202228
0.2918916015625,0.3545185546875,1.0608447265625005,1.155973895274414,-0.568359375,-0.39208984375,1.2470703125,44.81235294117647,393.814165202228
0.0941376953125,0.3481708984375,1.0798876953125005,1.1385263785634785,0.08349609375,-0.3310546875,0.47021484375,44.81235294117647,393.814165202228
0.0374970703125,0.2983662109375,1.0730517578125005,1.1143915384889274,0.609375,-0.462890625,-0.1435546875,45.47117647058823,393.814165202228
-0.0782255859375,0.2265888671875,1.0720751953125005,1.0985476691673035,0.69677734375,0.1484375,-0.4443359375,44.906470588235294,394.3827703214053
-0.1197294921875,0.1543232421875,1.0945361328125005,1.1118273968610783,0.65625,0.88671875,-0.265625,44.906470588235294,394.3827703214053
-0.0616240234375,0.1098896484375,1.1140673828125005,1.121168760064709,0.6845703125,1.24609375,-0.12646484375,45.37705882352941,394.3827703214053
0.0208955078125,0.0429951171875,1.0735400390625005,1.0746038422688726,0.79541015625,1.07763671875,-0.2734375,44.906470588235294,394.3827703214053
0.1092744140625,-0.0302470703125,1.0383837890625005,1.044555731504541,0.556640625,0.8505859375,-0.33056640625,45.04764705882353,394.25280188847626
0.0995087890625,-0.0190166015625,0.9705126953125,0.975786104634825,0.44873046875,0.16650390625,-0.6806640625,45.00058823529412,394.25280188847626
-0.0186552734375,-0.0414775390625,0.8831103515625001,0.8842806672717388,0.064453125,-0.01708984375,-0.703125,44.906470588235294,394.25280188847626
-0.0694365234375,-0.0253642578125,0.8196337890625001,0.8229607065555538,-0.287109375,0.12841796875,-0.48095703125,45.09470588235294,394.25280188847626
-0.0650419921875,-0.0375712890625,0.7400439453125001,0.7438461558032193,-0.56494140625,0.31005859375,-0.291015625,44.906470588235294,394.25280188847626
-0.0875029296875,-0.0326884765625,0.6741259765625001,0.6805667722422372,-0.9072265625,0.19287109375,0.1787109375,45.00058823529412,394.7582044453972
-0.0337919921875,-0.0121806640624999,0.6672900390625001,0.6682561361821052,-1.0283203125,0.30419921875,0.5283203125,45.00058823529412,394.7582044453972
0.0296845703125,0.0425068359375,0.6267626953125001,0.6289033956431187,-1.0703125,0.5849609375,0.3603515625,44.906470588235294,394.7582044453972
0.0404267578125,0.0879169921875,0.5784228515625001,0.5864611798509953,-1.1318359375,0.8515625,0.0322265625,44.81235294117647,394.7582044453972
0.0340791015625,0.0962177734375,0.5540087890625001,0.5633338117378318,-1.07421875,0.8427734375,-0.12890625,45.42411764705882,393.9963777304191
0.0106416015625,0.0913349609375,0.5418017578125001,0.5495493276694865,-1.0029296875,0.67236328125,-0.06298828125,44.906470588235294,393.9963777304191
0.0155244140625,0.0776630859375,0.5300830078125001,0.5359669369661402,-0.93798828125,0.55859375,-0.0263671875,45.00058823529412,393.9963777304191
0.0199189453125,0.0786396484375,0.5544970703125001,0.5603998212650336,-0.7568359375,0.421875,-0.10693359375,44.906470588235294,393.9963777304191
-0.0201201171875,0.0630146484375,0.5613330078125001,0.5652171358806886,-0.56640625,0.27294921875,-0.02197265625,45.00058823529412,393.9963777304191
-0.0689482421875,0.0493427734375,0.5789111328125001,0.5850868902013637,-0.39794921875,0.2236328125,0.130859375,44.85941176470588,392.9079621357138
-0.1236357421875,0.0234638671875,0.5916064453125001,0.6048425712075323,-0.26806640625,0.19091796875,0.37841796875,45.09470588235294,392.9079621357138
-0.1353544921875,0.0136982421875,0.6262744140625001,0.6408807393764391,-0.2724609375,0.35595703125,0.54443359375,44.85941176470588,392.9079621357138
-0.1158232421875,-0.0072978515624999,0.6589892578125001,0.6691301248490626,-0.2265625,0.46875,0.8388671875,45.00058823529412,392.9079621357138
-0.0293974609375,-0.0185283203125,0.6814501953125001,0.6823356051494154,-0.30322265625,0.60693359375,0.7822265625,44.906470588235294,392.52162753313337
-0.0084013671875,-0.0053447265624999,0.7210009765625001,0.7210697312165626,-0.5693359375,0.9677734375,-0.0546875,44.906470588235294,392.52162753313337
-0.0982451171875,-0.0185283203125,0.7102587890625001,0.7172607260580472,-0.3837890625,0.40478515625,0.97900390625,45.04764705882353,392.52162753313337
-0.0752958984375,0.0107685546875,0.7664111328125001,0.7701762516401733,-0.4365234375,-0.154296875,1.22314453125,45.00058823529412,392.52162753313337
-0.0918974609375,0.0576435546875,0.8127978515625001,0.8200050428066805,-0.623046875,-0.02490234375,1.24267578125,44.906470588235294,392.52162753313337
-0.1050810546875,0.1030537109375,0.8538134765625001,0.8664061104077984,-0.779296875,0.1201171875,1.43603515625,45.04764705882353,392.6397213981188
-0.1075224609375,0.1391865234375,0.9026416015625,0.9196172186208722,-0.791015625,0.06689453125,1.7158203125,45.04764705882353,392.6397213981188
-0.1109404296875,0.1811787109375,0.9866259765625,1.0092394769647728,-0.72998046875,-0.107421875,1.96875,44.81235294117647,392.6397213981188
-0.1148466796875,0.2212177734375,1.0457080078125005,1.0750033956797886,-0.60107421875,-0.40234375,2.14501953125,44.906470588235294,392.6397213981188
-0.1426787109375,0.2646748046875,1.0740283203125005,1.1153236299946503,-0.4677734375,-0.54931640625,2.23583984375,44.85941176470588,392.4364664416841
-0.1792998046875,0.2925068359375,1.0881884765625005,1.1409920374632587,-0.33349609375,-0.5625,2.0546875,44.85941176470588,392.4364664416841
-0.1905302734375,0.3252216796875,1.1008837890625005,1.163621950229341,-0.29296875,-0.36376953125,1.64208984375,44.906470588235294,392.4364664416841
-0.1592802734375,0.3647724609375,1.1345751953125005,1.2023685073982613,-0.33837890625,0.0517578125,1.0322265625,45.04764705882353,392.4364664416841
-0.1334013671875,0.3833271484375,1.1926806640625005,1.2598503061575554,-0.2548828125,0.45556640625,0.43994140625,44.059411764705885,392.4364664416841
-0.2051787109375,0.3208271484375,1.2502978515625005,1.3070092119867849,-0.05029296875,0.7841796875,0.19775390625,45.00058823529412,392.43381198839336
-0.1973662109375,0.3178974609375,1.3289111328125005,1.3805857509779456,0.02001953125,1.03466796875,-0.49755859375,44.906470588235294,392.43381198839336
-0.2422880859375,0.2197529296875,1.4836962890625005,1.5193253584638582,0.29638671875,1.0966796875,-0.23876953125,44.81235294117647,392.43381198839336
-0.1573271484375,0.2363544921875,1.5940478515625005,1.6191367547812967,0.53076171875,0.9248046875,0.142578125,45.00058823529412,392.43381198839336
-0.1021513671875,0.2319599609375,1.6355517578125005,1.655073979548939,0.75439453125,0.75439453125,0.33251953125,45.00058823529412,391.5211596728349
-0.1045927734375,0.1728779296875,1.6140673828125005,1.6266652830522876,0.861328125,1.08203125,0.43310546875,44.906470588235294,391.5211596728349
-0.0264677734375,0.1167255859375,1.7102587890625005,1.7144417549187028,0.578125,1.59326171875,0.16650390625,44.906470588235294,391.5211596728349
0.2103486328125,0.0473896484375,1.4587939453125005,1.4746430418869263,0.4482421875,1.83984375,-0.57861328125,44.81235294117647,391.5211596728349
0.3519501953125,-0.0029033203124999,1.3293994140625005,1.3752018656761134,0.18798828125,2.00927734375,-1.2421875,45.09470588235294,391.5211596728349
0.3880830078125,-0.0912822265625,1.3240283203125005,1.3827479375607636,0.02734375,1.9462890625,-1.4169921875,45.00058823529412,391.6611955482906
0.4784150390625,-0.1122783203125,1.3025439453125005,1.3921595096409116,0.26708984375,1.15771484375,-1.583984375,45.47117647058823,391.6611955482906
0.4559541015625,-0.2123759765625,1.1946337890625005,1.2962050717854674,0.24560546875,0.28955078125,-1.64794921875,44.85941176470588,391.6611955482906
0.2962861328125,-0.3217509765625,1.1335986328125005,1.2150535065297654,0.21533203125,-1.0771484375,-1.14013671875,45.235882352941175,391.6611955482906
0.2157197265625,-0.3569072265625,1.2083056640625005,1.278248937651135,0.1708984375,-1.93212890625,-0.99755859375,45.04764705882353,393.8883661099269
0.1703095703125,-0.3427470703125,1.2117236328125005,1.2707301311703256,0.11279296875,-1.83251953125,-1.3330078125,44.906470588235294,393.8883661099269
0.1209931640625,-0.3158916015625,1.1785205078125005,1.22610661731442,-0.44970703125,-0.943359375,-1.20361328125,44.059411764705885,393.8883661099269
0.0902314453125,-0.2231181640625,1.1858447265625005,1.2100211338542377,-0.830078125,-0.142578125,-0.51416015625,45.00058823529412,393.8883661099269
0.0038056640625,-0.1181376953125,1.1877978515625005,1.19366441444369,-0.8212890625,0.0966796875,0.78369140625,45.09470588235294,393.8883661099269
-0.0123076171875,-0.0585673828125,1.1838916015625005,1.1854032815968418,-0.8466796875,0.39501953125,1.3115234375,45.04764705882353,394.6611628272104
-0.0049833984375,0.0493427734375,1.1560595703125005,1.1571228429434854,-0.83349609375,0.833984375,1.27880859375,45.00058823529412,394.6611628272104
0.0267548828125,0.1753193359375,1.0833056640625005,1.097726675952521,-0.80419921875,1.01171875,0.66748046875,45.09470588235294,394.6611628272104
-0.0127958984375,0.2441669921875,1.0735400390625005,1.1010310942752837,-0.3251953125,0.8759765625,0.6220703125,45.00058823529412,394.6611628272104
0.0565400390625,0.2505146484375,0.9348681640625,0.9695013405233346,-0.0673828125,0.43798828125,0.78759765625,45.00058823529412,394.7142979622189
0.0628876953125,0.2588154296875,0.8640673828125001,0.9041862257889614,0.13818359375,0.06689453125,0.91943359375,45.00058823529412,394.7142979622189
0.1048798828125,0.2256123046875,0.7610400390625001,0.8006763658941237,0.45361328125,-0.42236328125,0.99462890625,45.33,394.7142979622189
0.1322236328125,0.1972919921875,0.6516650390625001,0.6935953736810656,0.50927734375,-0.9765625,0.740234375,45.00058823529412,394.7142979622189
0.0326142578125,0.1733662109375,0.6262744140625001,0.6506451987195585,0.62158203125,-1.205078125,0.51953125,45.42411764705882,394.7142979622189
-0.0206083984375,0.0757099609375,0.5627978515625001,0.5682412568572281,0.583984375,-1.11865234375,0.462890625,45.04764705882353,394.2848558091621
-0.0474638671875,0.0444599609375,0.5579150390625001,0.5616927074718592,0.67529296875,-0.68310546875,0.32763671875,45.00058823529412,394.2848558091621
-0.0567412109375,0.0161396484375,0.5579150390625001,0.5610251724142606,0.83203125,-0.51171875,0.275390625,44.24764705882353,394.2848558091621
-0.0567412109375,-0.0136455078124999,0.5335009765625001,0.536683386080896,0.8759765625,-0.2587890625,0.2666015625,45.04764705882353,394.2848558091621
-0.0372099609375,-0.0258525390625,0.5325244140625001,0.5344484882021441,1.10595703125,-0.13916015625,0.21337890625,45.00058823529412,393.8334819435262
-0.0206083984375,-0.0468486328125,0.5149462890625001,0.51748350804813,1.1298828125,-0.1171875,0.060546875,44.81235294117647,393.8334819435262
0.0101533203125,-0.0390361328125,0.5232470703125001,0.5247993961209728,1.01025390625,-0.23779296875,-0.2548828125,45.04764705882353,393.8334819435262
0.0033173828125,-0.0370830078125,0.5422900390625001,0.543566592942902,0.89404296875,-0.4794921875,-0.46728515625,45.00058823529412,393.8334819435262
-0.0059599609375,-0.0492900390625,0.5627978515625001,0.5649835845478389,0.794921875,-0.6611328125,-0.55078125,45.00058823529412,393.8334819435262
-0.0108427734375,-0.0497783203125,0.5779345703125001,0.5801756755253058,0.72216796875,-0.6142578125,-0.76220703125,44.81235294117647,393.4883774523428
-0.0084013671875,-0.0409892578125,0.6033251953125001,0.6047743327270968,0.6455078125,-0.50439453125,-0.87548828125,45.00058823529412,393.4883774523428
-0.0254912109375,-0.0307353515625,0.6316455078125001,0.6329064000390908,0.58544921875,-0.38232421875,-1.212890625,44.906470588235294,393.4883774523428
-0.0352568359375,-0.0312236328125,0.6506884765625001,0.6523905680323412,0.45068359375,-0.22607421875,-1.36474609375,44.85941176470588,393.4883774523428
-0.0347685546875,-0.0155986328124999,0.7019580078125001,0.7029916176404742,0.33984375,-0.119140625,-1.4921875,45.04764705882353,393.3281259245597
-0.0582060546875,-0.0243876953125,0.7498095703125001,0.7524606941343551,0.2509765625,-0.20556640625,-1.498046875,45.04764705882353,393.3281259245597
-0.0811552734375,-0.0146220703124999,0.7937548828125001,0.7980268149226721,0.203125,-0.40869140625,-1.59765625,44.81235294117647,393.3281259245597
-0.1133818359375,0.0127216796875,0.8616259765625001,0.8691470562234629,0.125,-0.6455078125,-1.80078125,44.906470588235294,393.3281259245597
-0.1241240234375,0.0156513671875,0.9114306640625,0.9199769529083656,0.123046875,-0.93896484375,-1.76904296875,44.906470588235294,393.3281259245597
-0.1104521484375,0.0171162109375,0.9563525390625,0.9628617869365296,-0.06689453125,-1.166015625,-1.63818359375,45.00058823529412,392.9720590097828
-0.1207060546875,0.0053974609375,1.0129931640625005,1.0201736296631811,0.01708984375,-1.1904296875,-1.4560546875,44.906470588235294,392.9720590097828
-0.1661162109375,0.0298115234375,1.0813525390625005,1.0944435281012963,0.134765625,-1.01708984375,-1.52685546875,45.04764705882353,392.9720590097828
-0.1983427734375,0.0268818359375,1.1570361328125005,1.1742210616029487,0.23876953125,-0.68701171875,-1.79443359375,44.906470588235294,392.9720590097828
-0.1568388671875,0.0259052734375,1.1741259765625005,1.184838099611662,0.28369140625,-0.47265625,-1.74365234375,45.09470588235294,392.6919555114907
-0.1221708984375,0.0180927734375,1.1873095703125005,1.193715666576987,0.560546875,-0.20556640625,-1.3291015625,44.906470588235294,392.6919555114907
-0.1006865234375,-0.0121806640624999,1.2009814453125005,1.2052562285936694,0.72705078125,0.0703125,-0.90576171875,45.00058823529412,392.6919555114907
-0.1089873046875,-0.0551494140625,1.2752001953125005,1.2810367787770662,0.8427734375,0.32568359375,-0.71728515625,44.81235294117647,392.6919555114907
-0.1524443359375,-0.0639384765625,1.3347705078125005,1.3449682943737369,0.86083984375,0.49853515625,-0.79736328125,44.29470588235294,392.6919555114907
-0.1934599609375,-0.0458720703125,1.3850634765625005,1.3992611755594784,0.89208984375,0.6259765625,-1.0,45.04764705882353,392.5317200545966
-0.2344755859375,-0.0185283203125,1.4417041015625005,1.460764462710013,0.890625,1.03515625,-0.61376953125,45.04764705882353,392.5317200545966
-0.1905302734375,0.0771748046875,1.5515673828125005,1.565125898764171,0.861328125,1.08251953125,-0.57177734375,44.85941176470588,392.5317200545966
-0.1758818359375,0.1303974609375,1.6633837890625005,1.677731667385346,0.87109375,1.21435546875,-1.0654296875,44.81235294117647,392.5317200545966
-0.1163115234375,0.1552998046875,1.6931689453125005,1.7042498282795782,0.54931640625,0.98193359375,-1.31591796875,45.04764705882353,391.3372170035768
0.0272431640625,0.1865498046875,1.6453173828125005,1.656083424771245,0.33154296875,0.90087890625,-1.48095703125,45.235882352941175,391.3372170035768
0.1659150390625,0.2060810546875,1.6057666015625005,1.6274162282531794,0.2373046875,0.7880859375,-1.701171875,44.29470588235294,391.3372170035768
0.2713837890625,0.1748310546875,1.5178759765625005,1.5518255504001173,0.1044921875,0.78515625,-1.38525390625,45.09470588235294,391.3372170035768
0.3304658203125,0.1499287109375,1.3821337890625005,1.4289786869042025,0.14306640625,1.009765625,-0.708984375,44.81235294117647,391.3372170035768
0.4237275390625,0.1401630859375,1.2961962890625005,1.3708812996750968,0.2705078125,1.14111328125,0.07861328125,45.00058823529412,391.938611369096
0.5829072265625,0.1303974609375,1.2068408203125005,1.3465693811201416,0.13671875,0.8955078125,0.599609375,44.906470588235294,391.938611369096
0.6224580078125,0.1343037109375,1.0378955078125005,1.2176693078988472,-0.42626953125,0.21044921875,0.84375,45.00058823529412,391.938611369096
0.5370087890625,0.1636005859375,0.9612353515625,1.1131563198144945,-0.88623046875,-0.54248046875,0.65771484375,45.00058823529412,391.938611369096
0.4271455078125,0.2588154296875,0.9812548828125,1.1010448930593597,-0.72314453125,-1.49072265625,0.5791015625,45.09470588235294,394.2967089160216
0.2757783203125,0.3598896484375,1.0066455078125005,1.1040423087028584,-0.09033203125,-2.5166015625,0.22021484375,45.00058823529412,394.2967089160216
0.1312470703125,0.3691669921875,1.0349658203125005,1.1066455217464657,0.609375,-2.7998046875,-0.0029296875,45.04764705882353,394.2967089160216
-0.0049833984375,0.3169208984375,1.1311572265625005,1.1747256536447082,0.8154296875,-1.88623046875,-0.46826171875,45.00058823529412,394.2967089160216
-0.0430693359375,0.2446552734375,1.1116259765625005,1.1390449869462609,0.7236328125,-0.7109375,-0.44140625,45.33,394.2967089160216
-0.0362333984375,0.1816669921875,1.0823291015625005,1.0980674110918112,0.7568359375,0.2841796875,-0.267578125,45.00058823529412,394.7362511760469
0.0584931640625,0.1289326171875,1.0569384765625005,1.0663789257365883,0.716796875,0.6953125,-0.39697265625,45.00058823529412,394.7362511760469
0.1307587890625,0.0615498046875,1.0427783203125005,1.0527453940473548,0.66455078125,0.6298828125,-0.50732421875,45.00058823529412,394.7362511760469
0.1224580078125,-0.0141337890624999,0.9954150390625,1.0030188570821927,0.54296875,0.22265625,-0.7841796875,45.00058823529412,394.7362511760469
0.1092744140625,-0.0849345703125,1.0125048828125005,1.0219202104479717,0.2783203125,0.171875,-0.8603515625,44.906470588235294,394.6190052902347
0.0677705078125,-0.1230205078125,0.9207080078125,0.9313592876659748,0.00146484375,0.046875,-0.98583984375,44.85941176470588,394.6190052902347
0.0038056640625,-0.1205791015625,0.8621142578125001,0.8705140988727145,-0.333984375,0.05126953125,-0.8388671875,44.81235294117647,394.6190052902347
0.0052705078125,-0.1147197265625,0.7791064453125001,0.7875247596378516,-0.7373046875,0.2060546875,-0.6796875,45.09470588235294,394.6190052902347
-0.0040068359375,-0.1044658203125,0.8328173828125001,0.839353295974023,-0.84326171875,-0.0107421875,-0.40576171875,45.00058823529412,394.6190052902347
-0.0269560546875,-0.1156962890625,0.6711962890625001,0.6816279913841715,-0.8408203125,-0.3935546875,0.12548828125,45.235882352941175,394.683116146554
0.0179658203125,-0.0898173828125,0.6418994140625001,0.648401720177059,-1.02978515625,-0.544921875,0.6337890625,45.47117647058823,394.683116146554
0.0492158203125,-0.0146220703124999,0.6018603515625001,0.6040462603908678,-1.1748046875,-0.48583984375,0.4912109375,44.81235294117647,394.683116146554
0.0301728515625,0.0390888671875,0.5901416015625001,0.5922038925945753,-1.21435546875,-0.322265625,0.22265625,45.00058823529412,394.683116146554
0.0155244140625,0.0498310546875,0.5559619140625001,0.558406475008386,-1.08642578125,0.00830078125,0.12744140625,45.00058823529412,393.8005516102489
0.0057587890625,0.0869404296875,0.5652392578125001,0.5719153963114995,-0.92431640625,0.35107421875,0.04833984375,45.04764705882353,393.8005516102489
0.0096650390625,0.0840107421875,0.5569384765625001,0.5633220077883809,-0.82080078125,0.54736328125,0.01416015625,45.04764705882353,393.8005516102489
-0.0020537109374999,0.0942646484375,0.5603564453125001,0.5682335677139473,-0.6513671875,0.47607421875,0.0498046875,45.09470588235294,393.8005516102489
-0.0289091796875,0.1074482421875,0.5823291015625001,0.5928642744726454,-0.484375,0.28515625,0.26171875,45.47117647058823,393.8005516102489
-0.0323271484375,0.1064716796875,0.5911181640625001,0.6014997481181505,-0.23974609375,-0.04345703125,0.466796875,44.85941176470588,393.2951953495804
-0.0318388671875,0.0879169921875,0.6018603515625001,0.6090804493349105,-0.15673828125,-0.3984375,0.54833984375,45.00058823529412,393.2951953495804
-0.0337919921875,0.0737568359375,0.6414111328125001,0.6465216244483443,-0.1669921875,-0.54345703125,0.61767578125,44.62411764705882,393.2951953495804
-0.0079130859375,0.0674091796875,0.6843798828125001,0.6877371870370594,-0.09912109375,-0.49755859375,0.60498046875,45.18882352941176,393.2951953495804
-0.0303740234375,0.0508076171875,0.7175830078125001,0.7200203944092749,-0.0517578125,-0.1943359375,0.7587890625,45.00058823529412,392.9509873476879
-0.0757841796875,0.0517841796875,0.7312548828125001,0.736992908238565,0.02685546875,-0.24169921875,1.2373046875,45.04764705882353,392.9509873476879
0.0462861328125,0.0781513671875,0.8157275390625001,0.8207688226711432,0.037109375,0.21142578125,0.8359375,45.00058823529412,392.9509873476879
-0.0240263671875,0.0927998046875,0.8425830078125001,0.8480183931523102,-0.0537109375,0.40283203125,0.404296875,45.47117647058823,392.9509873476879
-0.0816435546875,0.0952412109375,0.8977587890625001,0.9064807784072526,-0.1025390625,0.1455078125,0.94384765625,44.906470588235294,392.9509873476879
-0.0821318359375,0.1299091796875,0.9734423828125,0.9855009417028588,-0.12109375,-0.0751953125,1.13037109375,44.906470588235294,392.81093534556015
-0.0523466796875,0.1616474609375,1.0501025390625005,1.063760038282768,-0.0673828125,-0.28857421875,1.0908203125,45.33,392.81093534556015
-0.0518583984375,0.1933857421875,1.1140673828125005,1.1319158414902617,0.05322265625,-0.61767578125,0.87060546875,44.85941176470588,392.81093534556015
-0.0943388671875,0.2329365234375,1.1550830078125005,1.1821065944958358,0.16650390625,-0.8046875,0.82275390625,45.00058823529412,392.81093534556015
-0.1133818359375,0.2680927734375,1.1765673828125005,1.2120395959655053,0.17822265625,-0.68994140625,1.025390625,45.18882352941176,392.83200648213807
-0.0860380859375,0.3198505859375,1.1765673828125005,1.222300190564743,0.19384765625,-0.169921875,0.9375,44.85941176470588,392.83200648213807
-0.0709013671875,0.3408466796875,1.2195361328125005,1.2682554325364896,0.26806640625,0.47265625,0.6064453125,44.85941176470588,392.83200648213807
-0.0479521484375,0.3457294921875,1.2166064453125005,1.2656854005178049,0.08544921875,0.75830078125,0.0732421875,44.24764705882353,392.83200648213807
-0.0523466796875,0.2602802734375,1.2654345703125005,1.2929851690398415,0.287109375,0.818359375,0.103515625,45.00058823529412,392.83200648213807
-0.0689482421875,0.1816669921875,1.3752978515625005,1.3889567799840383,0.572265625,0.99560546875,0.51708984375,45.00058823529412,392.7459569006571
-0.0020537109374999,0.1396748046875,1.4622119140625005,1.4688692761506812,0.80322265625,0.94921875,0.830078125,45.235882352941175,392.7459569006571
-0.0010771484374999,0.0854755859375,1.5759814453125005,1.5782980555045338,1.037109375,0.6220703125,0.69482421875,45.00058823529412,392.7459569006571
-0.1036162109375,0.0317646484375,1.6262744140625005,1.6298815238825586,1.189453125,1.4287109375,0.6845703125,45.09470588235294,392.7459569006571
-0.0953154296875,0.0166279296875,1.5437548828125005,1.5467839724375352,0.87353515625,2.1650390625,0.65771484375,44.15352941176471,391.7454600850982
0.1292939453125,-0.0058330078124999,1.5081103515625005,1.5136537849734928,0.4111328125,2.50341796875,0.42822265625,44.81235294117647,391.7454600850982
0.3753876953125,-0.0390361328125,1.4099658203125005,1.4596038352602694,0.060546875,2.92578125,-0.07666015625,45.47117647058823,391.7454600850982
0.4388642578125,-0.0800517578125,1.2869189453125005,1.362046435522088,0.2158203125,2.65576171875,-0.294921875,45.04764705882353,391.7454600850982
0.4417939453125,-0.1015361328125,1.2429736328125005,1.323055149360149,0.083984375,2.38818359375,-0.41259765625,45.04764705882353,391.7454600850982
0.4261689453125,-0.1816142578125,1.1096728515625005,1.2024880648407303,0.142578125,1.35205078125,-0.48193359375,45.00058823529412,392.88512630577816
0.3602509765625,-0.2489970703125,1.0227587890625005,1.112571727010459,-0.4296875,0.33984375,-0.1904296875,44.906470588235294,392.88512630577816
0.3207001953125,-0.2460673828125,1.0481494140625005,1.1233943948396894,-0.44482421875,-0.9970703125,0.04541015625,44.906470588235294,392.88512630577816
0.2767548828125,-0.2758525390625,1.1516650390625005,1.2161497649001207,-0.47216796875,-1.62890625,0.01611328125,44.81235294117647,392.88512630577816
0.2401337890625,-0.2719462890625,1.1624072265625005,1.217706689293075,-0.36279296875,-2.01025390625,0.1337890625,44.81235294117647,394.7691811008975
0.1332001953125,-0.2084697265625,1.2551806640625005,1.2793281120809905,-0.49853515625,-1.0419921875,0.80078125,45.00058823529412,394.7691811008975
0.0990205078125,-0.1073955078125,1.1902392578125005,1.199169857402946,-0.64501953125,0.140625,1.32177734375,44.85941176470588,394.7691811008975
0.1161103515625,0.0200458984375,1.1326220703125005,1.1387344756101434,-1.216796875,0.03564453125,1.64794921875,45.00058823529412,394.7691811008975
0.1507783203125,0.1719013671875,1.1399462890625005,1.1626528819319015,-1.17919921875,-0.1201171875,1.515625,44.85941176470588,394.7691811008975
0.2083955078125,0.2265888671875,1.0906298828125005,1.1332452266360324,-0.994140625,-0.52783203125,1.0205078125,45.33,395.03748415292034
0.1825166015625,0.2759052734375,1.0881884765625005,1.1373610641656242,-0.5810546875,-0.6201171875,0.84130859375,44.81235294117647,395.03748415292034
0.1712861328125,0.2602802734375,0.9597705078125,1.0090808628158725,-0.3349609375,-0.53759765625,1.24951171875,44.85941176470588,395.03748415292034
0.1712861328125,0.2856708984375,0.8689501953125001,0.930602623809745,-0.265625,-0.720703125,0.865234375,44.906470588235294,395.03748415292034
0.1117158203125,0.2500263671875,0.7952197265625001,0.841051735811306,-0.1337890625,-0.9208984375,0.78271484375,45.235882352941175,394.7033213761277
0.0716767578125,0.1655537109375,0.7234423828125001,0.745596720798259,0.1689453125,-1.24853515625,0.97998046875,44.906470588235294,394.7033213761277
-0.0074248046875,0.1123310546875,0.7083056640625001,0.7171961428471801,0.47119140625,-1.07177734375,1.462890625,45.00058823529412,394.7033213761277
-0.0362333984375,0.0727802734375,0.6638720703125001,0.6688317823675642,0.765625,-0.87353515625,1.95361328125,45.00058823529412,394.7033213761277
-0.0298857421875,0.0400654296875,0.6082080078125001,0.6102584509938325,0.93505859375,-0.34716796875,2.021484375,45.00058823529412,394.7033213761277
-0.0044951171875,0.0327412109375,0.5623095703125001,0.5632799000827312,1.04052734375,-0.09228515625,1.7919921875,44.906470588235294,393.8427027059219
0.0199189453125,0.0132099609375,0.5486376953125001,0.549158072114163,1.06201171875,0.0537109375,1.40283203125,45.235882352941175,393.8427027059219
0.0345673828125,-0.0029033203124999,0.5418017578125001,0.542911114264626,1.15869140625,-0.07763671875,1.10986328125,45.00058823529412,393.8427027059219
0.0287080078125,-0.0214580078125,0.5105517578125001,0.5118082582542779,1.1162109375,-0.16650390625,0.865234375,45.235882352941175,393.8427027059219
0.0218720703125,-0.0351298828125,0.5007861328125001,0.5024930317362359,0.951171875,-0.267578125,0.68310546875,44.906470588235294,393.3922259351381
0.0238251953125,-0.0365947265625,0.5056689453125001,0.5075508804024668,0.83349609375,-0.32177734375,0.51123046875,45.09470588235294,393.3922259351381
0.0267548828125,-0.0380595703125,0.5090869140625001,0.5112082165970752,0.6845703125,-0.4228515625,0.25146484375,45.00058823529412,393.3922259351381
0.0243134765625,-0.0385478515625,0.5095751953125001,0.511609188424536,0.5,-0.5166015625,-0.05126953125,45.00058823529412,393.3922259351381
0.0160126953125,-0.0409892578125,0.5378955078125001,0.5396926004607232,0.375,-0.61181640625,-0.2626953125,45.00058823529412,393.3922259351381
0.0116181640625,-0.0385478515625,0.5759814453125001,0.5773868234905818,0.296875,-0.615234375,-0.45849609375,44.85941176470588,393.3052917047284
-0.0284208984375,-0.0199931640625,0.6287158203125001,0.629675358250936,0.2080078125,-0.5068359375,-0.63818359375,45.00058823529412,393.3052917047284
-0.0420927734375,-0.0170634765625,0.6956103515625001,0.697091618805566,0.22265625,-0.20947265625,-0.59716796875,45.04764705882353,393.3052917047284
-0.0206083984375,0.0141865234375,0.7293017578125001,0.7297307842497834,0.2724609375,-0.08935546875,-0.5009765625,45.00058823529412,393.3052917047284
0.0062470703125,0.0464130859375,0.8044970703125001,0.8058590053943225,0.24462890625,-0.22509765625,-0.84765625,45.00058823529412,392.9088447822612
0.0145478515625,0.0547138671875,0.8406298828125001,0.8425341815766607,0.328125,-0.38330078125,-1.0166015625,44.15352941176471,392.9088447822612
0.0008759765625,0.0625263671875,0.8660205078125001,0.8682752063029466,0.14794921875,-0.87060546875,-1.134765625,45.47117647058823,392.9088447822612
-0.0225615234375,0.0718037109375,0.9363330078125,0.9393531267651268,0.14794921875,-1.15966796875,-1.16845703125,44.906470588235294,392.9088447822612
-0.0313505859375,0.0727802734375,1.0090869140625005,1.0121937697755512,0.19482421875,-1.17431640625,-1.1689453125,45.00058823529412,392.9088447822612
0.0150361328125,0.0615498046875,1.0920947265625005,1.093931147528329,0.12646484375,-1.3564453125,-1.5087890625,45.00058823529412,392.6260946360152
-0.0040068359375,0.0620380859375,1.1956103515625005,1.1972254973915415,0.36181640625,-1.36279296875,-1.6748046875,45.47117647058823,392.6260946360152
-0.0420927734375,0.0498310546875,1.2610400390625005,1.2627259859944602,0.43310546875,-1.287109375,-1.62255859375,44.81235294117647,392.6260946360152
-0.0601591796875,0.0439716796875,1.3074267578125005,1.309548533869333,0.376953125,-1.1328125,-1.46826171875,45.235882352941175,392.6260946360152
-0.0796904296875,0.0166279296875,1.3381884765625005,1.3406623181972916,0.65576171875,-0.74658203125,-1.236328125,45.00058823529412,392.2946506011456
-0.1368193359375,0.0019794921875,1.4163134765625005,1.4229080479666474,0.837890625,-0.1826171875,-0.8876953125,45.09470588235294,392.2946506011456
-0.1509794921875,-0.0273173828125,1.4700244140625005,1.4780097511196324,1.06103515625,0.36962890625,-0.5166015625,44.81235294117647,392.2946506011456
-0.0865263671875,-0.0170634765625,1.4890673828125005,1.4916767897259562,0.943359375,0.67236328125,-0.55615234375,44.059411764705885,392.2946506011456
-0.0562529296875,-0.0038798828124999,1.5574267578125005,1.5584471603296088,0.8486328125,0.78076171875,-0.41650390625,44.81235294117647,392.2946506011456
-0.0020537109374999,0.0361591796875,1.6453173828125005,1.6457159518547737,0.7451171875,0.90673828125,-0.41845703125,45.09470588235294,392.30474259135127
0.0389619140625,0.0815693359375,1.7385791015625005,1.740927591746012,0.60791015625,0.89990234375,-0.5283203125,44.85941176470588,392.30474259135127
0.1092744140625,0.0976826171875,1.7205126953125005,1.7267445456699109,0.3779296875,0.66455078125,-0.650390625,44.48294117647059,392.30474259135127
0.1629853515625,0.1347919921875,1.6843798828125005,1.6976067552897165,0.181640625,0.5576171875,-0.8154296875,45.28294117647059,392.30474259135127
0.2533173828125,0.1518818359375,1.6145556640625005,1.6413493780664197,-0.1357421875,1.041015625,-0.55517578125,45.00058823529412,391.57337911437617
0.4500947265625,0.1699482421875,1.4041064453125005,1.4842447836088557,-0.5634765625,1.4609375,-0.3984375,44.906470588235294,391.57337911437617
0.5101533203125,0.1670185546875,1.3513720703125005,1.454083243922597,-0.798828125,1.4599609375,-0.189453125,45.47117647058823,391.57337911437617
0.5526337890625,0.2085224609375,1.2717822265625005,1.4022538120216603,-0.447265625,1.0478515625,0.390625,44.81235294117647,391.57337911437617
0.6092744140625,0.2231708984375,1.1428759765625005,1.3142245087291184,-0.291015625,0.9453125,1.181640625,45.04764705882353,391.57337911437617
0.6078095703125,0.2431904296875,1.0168994140625005,1.209404182717967,-0.35302734375,0.72021484375,1.47607421875,45.00058823529412,392.98391805604
0.4784150390625,0.2798115234375,0.9504931640625,1.1002784616537444,-0.35595703125,0.51416015625,1.20947265625,44.85941176470588,392.98391805604
0.3270478515625,0.3027607421875,0.9407275390625,1.0409575721287398,-0.2373046875,0.75634765625,0.875,44.1064705882353,392.98391805604
0.2152314453125,0.3281513671875,0.9597705078125,1.0369027546038236,-0.17919921875,1.07470703125,0.80322265625,44.81235294117647,392.98391805604
0.1781220703125,0.3769794921875,1.0032275390625005,1.086419120135391,0.03466796875,1.5849609375,0.3974609375,45.04764705882353,394.1237110278119
0.1434541015625,0.3193623046875,1.0032275390625005,1.0625614598901167,0.1875,1.64208984375,-0.04443359375,44.85941176470588,394.1237110278119
0.0824189453125,0.3008076171875,0.9963916015625,1.0440662473084408,0.31591796875,2.30224609375,-0.32421875,45.00058823529412,394.1237110278119
0.1161103515625,0.2119404296875,0.9578173828125,0.9878332340500986,0.29931640625,2.19580078125,-0.43408203125,44.81235294117647,394.1237110278119
0.1346650390625,0.1172138671875,0.9021533203125,0.9196490508653952,0.2666015625,2.21875,-0.67431640625,44.24764705882353,394.1237110278119
0.1971650390625,0.0322529296875,0.8850634765625001,0.9073321672060586,0.2265625,1.87451171875,-0.31201171875,44.85941176470588,394.4662069516758
0.1664033203125,0.0332294921875,0.9138720703125,0.9294925632081832,0.263671875,1.06689453125,-0.4873046875,45.09470588235294,394.4662069516758
0.1219697265625,-0.0234111328125,0.8430712890625001,0.852170108475298,0.09130859375,1.03466796875,-0.59033203125,45.09470588235294,394.4662069516758
-0.0357451171875,-0.0839580078125,0.8435595703125001,0.8484806474778324,0.05712890625,1.09521484375,-0.39404296875,44.85941176470588,394.4662069516758
-0.0376982421875,-0.1557353515625,0.7502978515625001,0.7672167381187837,-0.18359375,0.89599609375,0.6533203125,45.00058823529412,394.59617732683984
0.0765595703125,-0.1293681640625,0.7034228515625001,0.7193060529285539,-0.47900390625,0.5009765625,0.85498046875,44.906470588235294,394.59617732683984
0.1004853515625,-0.0824931640625,0.6941455078125001,0.7062155577526987,-0.654296875,0.4853515625,0.3056640625,45.235882352941175,394.59617732683984
0.0589814453125,-0.0409892578125,0.6502001953125001,0.6541553516799998,-0.94677734375,0.3701171875,-0.19482421875,45.00058823529412,394.59617732683984
-0.0025419921874999,0.0073505859375,0.6218798828125001,0.621928517986428,-0.982421875,0.32080078125,-0.48193359375,45.00058823529412,394.59617732683984
-0.0381865234375,0.0205341796875,0.6018603515625001,0.6034200410084317,-1.01708984375,0.79443359375,-0.50341796875,44.81235294117647,393.2943149213648
-0.0152373046875,0.0107685546875,0.5627978515625001,0.563107058158183,-1.07373046875,1.26904296875,-0.2197265625,45.00058823529412,393.2943149213648
0.0331025390625,0.0254169921875,0.5310595703125001,0.5326969765305045,-1.029296875,1.60546875,-0.16162109375,44.906470588235294,393.2943149213648
0.0555634765625,0.0537373046875,0.5330126953125001,0.5385884618213471,-0.8349609375,1.8486328125,-0.27099609375,45.04764705882353,393.2943149213648
0.0404267578125,0.0586201171875,0.5115283203125001,0.516460902071042,-0.734375,1.9052734375,-0.32470703125,45.47117647058823,392.7459569006571
0.0301728515625,0.0693623046875,0.5173876953125001,0.522887710262686,-0.65576171875,1.5576171875,-0.228515625,45.00058823529412,392.7459569006571
0.0003876953125,0.0708271484375,0.5393603515625001,0.5439910147245693,-0.54443359375,1.3720703125,-0.16357421875,44.906470588235294,392.7459569006571
-0.0416044921875,0.0786396484375,0.5896533203125001,0.5963272308322916,-0.6240234375,1.029296875,0.01025390625,44.906470588235294,392.7459569006571
-0.0811552734375,0.0698505859375,0.6614306640625001,0.6700416450674445,-0.4814453125,1.3076171875,0.1005859375,44.85941176470588,392.7459569006571
-0.0914091796875,0.0825458984375,0.7117236328125001,0.7223018710925634,-0.3955078125,1.359375,0.1630859375,44.15352941176471,392.81181832580745
-0.1309599609375,0.0903583984375,0.7693408203125001,0.7856210596312015,-0.2763671875,1.515625,0.25439453125,44.906470588235294,392.81181832580745
-0.0352568359375,0.1050068359375,0.7771533203125001,0.7850074925417414,-0.27587890625,0.8955078125,0.78271484375,44.906470588235294,392.81181832580745
-0.0318388671875,0.1352802734375,0.8396533203125001,0.8510770612329496,-0.060546875,0.1484375,0.72900390625,44.81235294117647,392.81181832580745
-0.0367216796875,0.1333271484375,0.9202197265625,0.9305530374053426,0.16015625,-0.10595703125,0.7734375,44.24764705882353,391.9394977940223
-0.0635771484375,0.1152607421875,0.9260791015625,0.9353874036162046,0.0263671875,-0.42529296875,1.078125,45.42411764705882,391.9394977940223
-0.0806669921875,0.1240498046875,0.9460986328125,0.9576001987683936,-0.06298828125,-0.64453125,1.3779296875,45.09470588235294,391.9394977940223
-0.0835966796875,0.1494404296875,1.0222705078125005,1.036512343401267,-0.16943359375,-0.6865234375,1.40478515625,45.00058823529412,391.9394977940223
-0.1026396484375,0.1767841796875,1.0989306640625005,1.1177817980428937,-0.1552734375,-0.63037109375,1.224609375,45.00058823529412,391.9394977940223
-0.0806669921875,0.1914326171875,1.1526416015625005,1.1712114549492758,-0.0517578125,-0.58203125,1.11865234375,45.42411764705882,392.349535531868
-0.0787138671875,0.2192646484375,1.1428759765625005,1.166378307731124,-0.09619140625,-0.69970703125,1.13427734375,44.81235294117647,392.349535531868
-0.0870146484375,0.2588154296875,1.1404345703125005,1.1726670392105698,-0.0595703125,-0.6083984375,1.0751953125,44.81235294117647,392.349535531868
-0.0928740234375,0.3008076171875,1.1555712890625005,1.1976876933879963,-0.0263671875,-0.3330078125,0.77490234375,45.00058823529412,392.349535531868
-0.1138701171875,0.3540302734375,1.2058642578125005,1.26190825592363,0.033203125,0.134765625,0.4306640625,44.85941176470588,392.6607914700565
-0.1280302734375,0.3603779296875,1.2498095703125005,1.3070149062528118,0.16748046875,0.78955078125,0.10009765625,44.81235294117647,392.6607914700565
-0.1573271484375,0.3296162109375,1.3245166015625005,1.373951566090648,0.19384765625,1.4833984375,-0.3349609375,45.47117647058823,392.6607914700565
-0.1856474609375,0.2837177734375,1.4387744140625005,1.4781855665909351,0.3681640625,1.734375,-0.54296875,45.04764705882353,392.6607914700565
-0.1753935546875,0.2387958984375,1.6008837890625005,1.6280710323016,0.49072265625,2.02734375,-0.6904296875,45.00058823529412,392.6607914700565
-0.1275419921875,0.2075458984375,1.6599658203125005,1.677745148803935,0.7578125,1.97509765625,-0.74072265625,45.42411764705882,391.6914626046385
-0.1055693359375,0.0830341796875,1.5159228515625005,1.5218612458355207,0.64404296875,1.5234375,-0.38037109375,44.906470588235294,391.6914626046385
-0.1094755859375,0.0791279296875,1.6096728515625005,1.6153305612877942,0.38525390625,2.05908203125,-0.43408203125,45.00058823529412,391.6914626046385
-0.0069365234375,0.0649677734375,1.6199267578125005,1.621243851991348,0.15673828125,2.76904296875,-0.76513671875,44.81235294117647,391.6914626046385
0.1429658203125,-0.0287822265625,1.4207080078125005,1.4281732688319315,-0.17041015625,3.37353515625,-1.076171875,44.906470588235294,390.3588074044824
0.3177705078125,-0.0790751953125,1.2463916015625005,1.2886904231019405,-0.2060546875,3.5419921875,-1.396484375,45.00058823529412,390.3588074044824
0.3910126953125,-0.1166728515625,1.1716845703125005,1.240704724942909,-0.5732421875,3.0625,-1.41845703125,45.04764705882353,390.3588074044824
0.4207978515625,-0.1449931640625,1.1843798828125005,1.265246836121483,-0.55712890625,3.1005859375,-1.40283203125,44.24764705882353,390.3588074044824
0.4012666015625,-0.1718486328125,1.0950244140625005,1.1788236956907363,-0.1767578125,3.16650390625,-1.4873046875,44.906470588235294,390.3588074044824
0.3597626953125,-0.2392314453125,1.0691455078125005,1.1531404937129175,-0.09619140625,2.64501953125,-1.6318359375,45.09470588235294,393.112113094464
0.3573212890625,-0.2812236328125,1.0877001953125005,1.1789219440456598,-0.0830078125,1.6884765625,-1.8173828125,44.906470588235294,393.112113094464
0.2787080078125,-0.2822001953125,1.1409228515625005,1.207899026024416,-0.056640625,1.0185546875,-1.69580078125,44.15352941176471,393.112113094464
0.2059541015625,-0.2758525390625,1.0701220703125005,1.1241320921615736,-0.3515625,0.3115234375,-1.09423828125,45.00058823529412,393.112113094464
0.0169892578125,-0.1659892578125,1.1575244140625005,1.1694887078295793,-0.43603515625,0.19091796875,0.02685546875,44.906470588235294,394.73712521104926
-0.0650419921875,-0.0727275390625,1.1213916015625005,1.1256282155937258,-0.52880859375,0.390625,0.84619140625,45.09470588235294,394.73712521104926
-0.1387724609375,0.0263935546875,1.1663134765625005,1.1748368147342838,-0.51904296875,0.40966796875,1.35400390625,45.00058823529412,394.73712521104926
-0.1290068359375,0.1147724609375,1.1282275390625005,1.1413644735172377,-0.28564453125,0.8818359375,1.44970703125,44.906470588235294,394.73712521104926
-0.0328154296875,0.1499287109375,1.0559619140625005,1.0670571843811816,-0.10986328125,0.98583984375,0.83544921875,44.24764705882353,394.73712521104926
0.0243134765625,0.1323505859375,0.9944384765625,1.0035017221751543,0.14892578125,1.12744140625,0.7783203125,45.00058823529412,394.28397992177776
0.0414033203125,0.1987568359375,0.9202197265625,0.9423496484424176,-0.08154296875,0.705078125,0.5947265625,44.906470588235294,394.28397992177776
0.0111298828125,0.1650654296875,0.7952197265625001,0.8122468121719385,-0.09423828125,0.1640625,1.02392578125,44.906470588235294,394.28397992177776
0.0023408203125,0.1762958984375,0.7639697265625001,0.7840506784319505,0.23095703125,-0.18017578125,1.0888671875,45.00058823529412,394.28397992177776
-0.0240263671875,0.1596943359375,0.6868212890625001,0.7055515788092476,0.42822265625,-0.3076171875,0.99365234375,44.34176470588236,394.30593324675374
-0.0733427734375,0.0830341796875,0.6160205078125001,0.6259034298176125,0.4580078125,-0.31591796875,1.28662109375,44.81235294117647,394.30593324675374
-0.0699248046875,0.0200458984375,0.4627001953125,0.4683831626958609,0.572265625,-0.2119140625,1.62060546875,45.47117647058823,394.30593324675374
-0.0445341796875,-0.0102275390624999,0.5818408203125001,0.583632277977869,0.85009765625,0.03173828125,1.8388671875,45.00058823529412,394.30593324675374
-0.0293974609375,-0.0175517578125,0.5588916015625001,0.5599393692257911,0.9697265625,0.20166015625,1.841796875,44.906470588235294,394.30593324675374
-0.0040068359375,-0.0243876953125,0.5305712890625001,0.531146596707847,1.00390625,0.205078125,1.52099609375,44.906470588235294,393.788696923223
-0.0186552734375,-0.0278056640625,0.5188525390625001,0.519931852719746,0.93310546875,0.1640625,1.16015625,45.09470588235294,393.788696923223
-0.0381865234375,-0.0292705078125,0.5134814453125001,0.5157307125623394,0.884765625,0.06201171875,0.89794921875,44.906470588235294,393.788696923223
-0.0728544921875,-0.0326884765625,0.5037158203125001,0.5100058246382785,0.73388671875,0.00927734375,0.75634765625,45.09470588235294,393.788696923223
-0.0796904296875,-0.0155986328124999,0.5168994140625001,0.5232388423918407,0.63623046875,-0.01611328125,0.67431640625,44.85941176470588,393.2640267146752
-0.0723662109375,-0.0087626953124999,0.5286181640625001,0.5336204800149622,0.54296875,-0.009765625,0.48779296875,44.85941176470588,393.2640267146752
-0.0689482421875,0.0044208984375,0.5447314453125001,0.5490953942221571,0.5078125,-0.017578125,0.21630859375,44.81235294117647,393.2640267146752
-0.0923857421875,0.0107685546875,0.4675830078125,0.476744120388052,0.5009765625,0.068359375,0.00390625,45.00058823529412,393.2640267146752
-0.1006865234375,0.0180927734375,0.6233447265625001,0.631683285029665,0.4521484375,0.16796875,-0.23681640625,45.00058823529412,393.2640267146752
-0.1075224609375,0.0229755859375,0.6585009765625001,0.6676170259130558,0.435546875,0.25830078125,-0.42138671875,45.04764705882353,393.0159665154048
-0.1026396484375,0.0283466796875,0.7219775390625001,0.7297876393797192,0.3857421875,0.19189453125,-0.55859375,45.00058823529412,393.0159665154048
-0.0821318359375,0.0356708984375,0.7581103515625001,0.7633802175954131,0.283203125,-0.1357421875,-0.72900390625,45.09470588235294,393.0159665154048
-0.0674833984375,0.0386005859375,0.7981494140625001,0.8019267432052037,0.19189453125,-0.5791015625,-0.79931640625,45.33,393.0159665154048
-0.0684599609375,0.0488544921875,0.8518603515625001,0.856002094753657,0.12744140625,-1.1025390625,-0.88134765625,44.85941176470588,392.5729764363023
-0.0831083984375,0.0508076171875,0.9314501953125,0.9365297038550418,0.17578125,-1.39794921875,-0.97607421875,44.906470588235294,392.5729764363023
-0.0914091796875,0.0537373046875,1.0183642578125005,1.0238696682860682,0.3125,-1.64892578125,-1.15234375,45.00058823529412,392.5729764363023
-0.1382841796875,0.0571552734375,1.1306689453125005,1.1405268534881772,0.4833984375,-1.76513671875,-1.46533203125,44.85941176470588,392.5729764363023
-0.1919951171875,0.0595966796875,1.2175830078125005,1.234067368569217,0.52099609375,-1.60302734375,-1.65234375,45.235882352941175,392.5729764363023
-0.2549833984375,0.0273701171875,1.2688525390625005,1.294508564158209,0.90869140625,-1.126953125,-1.751953125,45.09470588235294,392.5958136369079
-0.2315458984375,0.0127216796875,1.2200244140625005,1.241867511100056,0.6552734375,-0.95849609375,-1.8369140625,44.906470588235294,392.5958136369079
-0.2540068359375,0.0166279296875,1.2913134765625005,1.316163536761524,0.689453125,-0.42919921875,-1.77880859375,44.906470588235294,392.5958136369079
-0.2759794921875,-0.0273173828125,1.3650439453125005,1.3929306846164713,0.8818359375,0.20458984375,-1.4453125,44.81235294117647,392.5958136369079
-0.2999052734375,-0.0522197265625,1.3982470703125005,1.4310013775379022,0.9375,0.62890625,-1.0126953125,44.906470588235294,392.3266964275935
-0.2842802734375,0.0044208984375,1.4836962890625005,1.510691727781194,0.884765625,0.90185546875,-0.9697265625,44.34176470588236,392.3266964275935
-0.3751005859375,0.0469013671875,1.5960009765625005,1.6401583170545355,0.833984375,0.85205078125,-0.34423828125,45.42411764705882,392.3266964275935
-0.1451201171875,0.1885029296875,1.7585986328125005,1.7746161146127577,0.7646484375,0.69970703125,-1.162109375,45.00058823529412,392.3266964275935
-0.0801787109375,0.1665302734375,1.7737353515625005,1.7833390185383469,0.4501953125,0.0068359375,-1.42578125,45.09470588235294,392.3266964275935
-0.0069365234375,0.1787373046875,1.7136767578125005,1.7229867003871835,0.1396484375,-0.392578125,-1.47119140625,44.85941176470588,391.7994577434392
0.0887666015625,0.1870380859375,1.6394580078125005,1.6524785367818402,-0.11865234375,-0.30126953125,-1.41357421875,45.00058823529412,391.7994577434392
0.2425751953125,0.2085224609375,1.5501025390625005,1.582764108673285,-0.18115234375,0.1474609375,-0.98828125,44.906470588235294,391.7994577434392
0.4398408203125,0.2143818359375,1.4246142578125005,1.5063018629596685,-0.2294921875,0.5615234375,-0.16552734375,45.42411764705882,391.7994577434392
0.6102509765625,0.1943623046875,1.3079150390625005,1.4563051566497949,-0.26171875,0.33056640625,0.466796875,44.29470588235294,393.3263651433766
0.6380830078125,0.2031513671875,1.1682666015625005,1.3465761230526818,-0.45849609375,-0.16796875,1.11181640625,45.235882352941175,393.3263651433766
0.5999970703125,0.2143818359375,1.0100634765625005,1.1942295770282365,-1.07421875,-1.17919921875,1.5107421875,44.81235294117647,393.3263651433766
0.4530244140625,0.2500263671875,0.9539111328125,1.085214611645677,-1.33251953125,-2.24462890625,1.7158203125,44.1064705882353,393.3263651433766
0.3080048828125,0.3198505859375,0.9329150390625,1.0331998234948987,-1.076171875,-2.8857421875,1.54638671875,44.81235294117647,393.3263651433766
0.1356416015625,0.3633076171875,0.9592822265625,1.0347045273794866,-0.47412109375,-3.181640625,0.88134765625,44.85941176470588,394.6501861883614
-0.0416044921875,0.3315693359375,0.9998095703125,1.054176614800708,0.22216796875,-3.0478515625,0.1650390625,45.04764705882353,394.6501861883614
-0.1299833984375,0.2846943359375,1.0457080078125005,1.0915364338341822,0.21142578125,-2.244140625,-0.16650390625,45.00058823529412,394.6501861883614
-0.1558623046875,0.2407490234375,1.1853564453125005,1.2195585483085654,0.38671875,-0.20556640625,-0.015625,45.47117647058823,394.6501861883614
-0.0093779296875,0.1709248046875,1.0110400390625005,1.025429273528987,0.24169921875,0.70703125,-0.0791015625,45.04764705882353,394.757330730026
0.0492158203125,0.1631123046875,1.0110400390625005,1.0252949729209648,0.3544921875,0.72900390625,-0.42138671875,45.42411764705882,394.757330730026
0.0838837890625,0.0469013671875,0.9480517578125,0.9529104699828362,0.3564453125,0.60205078125,-0.5732421875,45.04764705882353,394.757330730026
0.0658173828125,-0.0087626953124999,0.9080126953125,0.9104371299316047,0.35498046875,0.595703125,-0.615234375,44.059411764705885,394.757330730026
0.0667939453125,-0.0727275390625,0.8303759765625001,0.836226637055184,0.2294921875,0.4501953125,-0.29248046875,45.00058823529412,394.757330730026
0.0619111328125,-0.1249736328125,0.7615283203125001,0.774194277880209,0.14306640625,0.0234375,-0.1201171875,44.059411764705885,394.59617732683984
0.0575166015625,-0.1435283203125,0.6975634765625001,0.7144951658485791,-0.27685546875,-0.4013671875,0.3603515625,44.906470588235294,394.59617732683984
0.1078095703125,-0.1059306640625,0.6580126953125001,0.675148069857353,-0.71826171875,-0.654296875,0.19580078125,44.85941176470588,394.59617732683984
0.1009736328125,-0.0405009765625,0.6262744140625001,0.6356537149542961,-1.07373046875,-0.8310546875,-0.2041015625,45.04764705882353,394.59617732683984
0.0360322265625,0.0273701171875,0.6028369140625001,0.604532703517607,-1.2451171875,-1.06396484375,-0.494140625,44.906470588235294,394.2418251662871
-0.0098662109375,0.0542255859375,0.5730517578125001,0.5756961641530406,-1.43115234375,-1.06884765625,-0.546875,45.00058823529412,394.2418251662871
-0.0123076171875,0.0747333984375,0.5418017578125001,0.5470701079857747,-1.40625,-1.10107421875,-0.33935546875,44.906470588235294,394.2418251662871
0.0223603515625,0.0815693359375,0.5139697265625001,0.5208823492018273,-1.38720703125,-1.3291015625,-0.17578125,44.906470588235294,394.2418251662871
0.0418916015625,0.1147724609375,0.5408251953125001,0.5544542505526718,-1.25390625,-1.30615234375,-0.43408203125,44.1064705882353,394.2418251662871
0.0462861328125,0.1045185546875,0.5584033203125001,0.569983159839591,-1.03857421875,-1.0791015625,-0.6220703125,44.906470588235294,393.1331855350133
0.0047822265625,0.1128193359375,0.6096728515625001,0.6200419809856618,-0.9375,-0.92236328125,-0.6630859375,44.71823529411765,393.1331855350133
-0.0303740234375,0.1167255859375,0.6394580078125001,0.6507334227375798,-0.7197265625,-0.77685546875,-0.35791015625,44.85941176470588,393.1331855350133
-0.0323271484375,0.1084248046875,0.6614306640625001,0.6710376339370114,-0.509765625,-0.76513671875,-0.07470703125,44.906470588235294,393.1331855350133
-0.0162138671875,0.0942646484375,0.6746142578125001,0.6813612186484711,-0.3779296875,-0.763671875,-0.05908203125,44.15352941176471,393.0480151749247
-0.0157255859375,0.0854755859375,0.6970751953125001,0.702472204264622,-0.26318359375,-0.6611328125,-0.15234375,45.00058823529412,393.0480151749247
-0.0210966796875,0.0776630859375,0.7117236328125001,0.7162591390795617,-0.25146484375,-0.66552734375,-0.0595703125,45.00058823529412,393.0480151749247
-0.0586943359375,0.0722919921875,0.7629931640625001,0.7686544903997418,-0.20263671875,-0.6171875,0.2041015625,45.235882352941175,393.0480151749247
-0.0577177734375,0.0605732421875,0.8025439453125001,0.8068935761285011,-0.19287109375,-0.44873046875,0.552734375,44.906470588235294,393.0480151749247
0.0096650390625,0.0293232421875,0.8372119140625001,0.8377810301986203,-0.13232421875,-0.18359375,0.923828125,45.09470588235294,392.6480482056497
0.0306611328125,0.0718037109375,0.8997119140625001,0.9030932434005636,-0.19482421875,-0.0625,0.7197265625,44.906470588235294,392.6480482056497
0.0018525390625,0.0683857421875,0.9529345703125,0.9553870089823192,-0.2734375,-0.16552734375,1.00439453125,44.15352941176471,392.6480482056497
0.0082001953125,0.0898701171875,1.0178759765625005,1.0218685751257457,-0.3466796875,-0.26806640625,1.08203125,45.47117647058823,392.6480482056497
0.0277314453125,0.1347919921875,1.0759814453125005,1.0847460462586496,-0.3623046875,-0.46923828125,1.0986328125,45.04764705882353,392.6177674897473
0.0272431640625,0.1821552734375,1.1077197265625005,1.122927302297405,-0.3349609375,-0.56787109375,1.0322265625,45.42411764705882,392.6177674897473
0.0165009765625,0.2334248046875,1.1238330078125005,1.1479373027826063,-0.29150390625,-0.60498046875,0.8828125,45.04764705882353,392.6177674897473
-0.0230498046875,0.2680927734375,1.1233447265625005,1.1551226789225988,-0.28662109375,-0.416015625,0.712890625,45.00058823529412,392.6177674897473
-0.0416044921875,0.3130146484375,1.1599658203125005,1.202177111826657,-0.26220703125,-0.32470703125,0.47119140625,45.09470588235294,392.6177674897473
-0.0406279296875,0.3364521484375,1.1619189453125005,1.2103331410545672,-0.51220703125,-0.45166015625,0.19287109375,44.906470588235294,392.3789277240722
-0.0503935546875,0.3511005859375,1.2322314453125005,1.2822657550666443,-0.60888671875,-0.62744140625,0.083984375,44.81235294117647,392.3789277240722
-0.0699248046875,0.3266865234375,1.3362353515625005,1.37736650085285,-0.3779296875,-0.45263671875,-0.056640625,45.00058823529412,392.3789277240722
-0.1182646484375,0.2441669921875,1.4172900390625005,1.4430229041736378,-0.208984375,0.1533203125,-0.26611328125,45.00058823529412,392.3789277240722
-0.1480498046875,0.2221943359375,1.6160205078125005,1.6379289817514326,0.2578125,0.86279296875,-0.2705078125,44.85941176470588,391.606310172981
-0.1299833984375,0.1469990234375,1.6594775390625005,1.671038628941256,0.615234375,1.44580078125,0.18408203125,44.81235294117647,391.606310172981
-0.0440458984375,0.1040302734375,1.6228564453125005,1.6267837536233791,0.6396484375,1.6875,0.72412109375,44.24764705882353,391.606310172981
0.0799775390625,0.0781513671875,1.5940478515625005,1.5979651423040466,0.7548828125,2.02734375,0.58203125,44.906470588235294,391.606310172981
0.1620087890625,0.0439716796875,1.5891650390625005,1.59800684533157,0.6005859375,2.78662109375,-0.01220703125,44.059411764705885,391.606310172981
0.3040986328125,-0.0610087890625,1.4124072265625005,1.446060933870796,0.30908203125,3.6181640625,-0.41552734375,45.09470588235294,390.7459476781985
0.5853486328125,-0.1396220703125,1.1619189453125005,1.3085041000814346,-0.0478515625,3.67333984375,-0.501953125,45.47117647058823,390.7459476781985
0.7435517578125,-0.2045634765625,1.0691455078125005,1.3182517018252031,-0.31396484375,2.05615234375,-0.654296875,45.04764705882353,390.7459476781985
0.6400361328125,-0.2265361328125,1.0842822265625005,1.279309508138885,-0.2060546875,0.8681640625,-0.28125,44.906470588235294,390.7459476781985
0.5291962890625,-0.2489970703125,1.0056689453125005,1.1633650677872729,-0.17138671875,-0.310546875,0.04248046875,44.906470588235294,392.54269701295874
0.4134736328125,-0.2646220703125,1.0603564453125005,1.1684781025947388,-0.07666015625,-1.392578125,0.0439453125,44.85941176470588,392.54269701295874
0.3021455078125,-0.3168681640625,1.1091845703125005,1.1924712794474082,0.27587890625,-2.30517578125,-0.216796875,44.67117647058824,392.54269701295874
0.2440400390625,-0.3012431640625,1.1653369140625005,1.2281339942517364,-0.33935546875,-1.86083984375,-0.45361328125,45.04764705882353,392.54269701295874
0.1703095703125,-0.2289775390625,1.1658251953125005,1.2002434957793258,-0.65234375,-1.369140625,-0.505859375,45.235882352941175,392.54269701295874
0.0492158203125,-0.1567119140625,1.1946337890625005,1.2058734224403451,-0.70068359375,-0.72607421875,0.46728515625,44.906470588235294,394.66203731821247
-0.0250029296875,-0.0556376953125,1.2234423828125005,1.224962025409185,-0.56689453125,-0.18505859375,1.52734375,45.04764705882353,394.66203731821247
-0.0142607421875,0.0420185546875,1.1545947265625005,1.1554470608001477,-0.828125,0.318359375,2.06787109375,44.85941176470588,394.66203731821247
0.0848603515625,0.1728779296875,1.1331103515625005,1.1493594418885853,-0.75830078125,0.94287109375,1.6650390625,44.81235294117647,394.66203731821247
0.1239228515625,0.2544208984375,1.0388720703125005,1.076727470243286,-0.26953125,1.20947265625,1.55859375,44.059411764705885,394.45698013282646
0.0956025390625,0.2666279296875,1.0471728515625005,1.0848047194837316,0.365234375,1.72705078125,1.44091796875,44.85941176470588,394.45698013282646
0.0912080078125,0.1987568359375,0.8772509765625001,0.9040975922990124,0.6953125,2.3251953125,1.5087890625,45.04764705882353,394.45698013282646
0.1082978515625,0.2002216796875,0.7576220703125001,0.7910804934357413,0.453125,2.23095703125,1.37451171875,45.47117647058823,394.45698013282646
0.1029267578125,0.1933857421875,0.7029345703125001,0.736280498788079,0.64990234375,2.0078125,1.3310546875,44.85941176470588,394.45698013282646
0.0848603515625,0.1596943359375,0.6433642578125001,0.6682971857104137,0.8896484375,1.8994140625,1.12548828125,44.906470588235294,394.1548879264737
0.0824189453125,0.0815693359375,0.5515673828125001,0.5636248902367076,0.92724609375,1.83056640625,1.2841796875,45.00058823529412,394.1548879264737
0.0711884765625,0.0610615234375,0.5090869140625001,0.5176541267192577,1.00048828125,1.68603515625,1.0390625,45.33,394.1548879264737
0.0365205078125,0.0322529296875,0.4890673828125,0.4914884575403355,0.9697265625,0.98779296875,1.00439453125,45.04764705882353,394.1548879264737
0.0121064453125,0.0185810546875,0.4885791015625,0.4890821608840627,1.1240234375,0.33544921875,1.23974609375,45.04764705882353,393.9498377189952
-0.0074248046875,-0.0102275390624999,0.5037158203125001,0.5038743473456625,1.12939453125,0.03076171875,1.26611328125,44.906470588235294,393.9498377189952
-0.0215849609375,-0.0141337890624999,0.5300830078125001,0.5307105328740741,1.12939453125,0.0625,1.26171875,45.47117647058823,393.9498377189952
0.0057587890625,-0.0195048828125,0.5398486328125001,0.5402315711382678,1.11083984375,0.0234375,1.1357421875,45.04764705882353,393.9498377189952
0.0213837890625,-0.0175517578125,0.5750048828125001,0.5756699973901671,1.09033203125,0.18310546875,0.78125,45.00058823529412,393.9498377189952
0.0208955078125,-0.0409892578125,0.5901416015625001,0.5919323030529036,1.04248046875,0.41357421875,0.3896484375,45.00058823529412,393.23021507787496
-0.0059599609375,-0.0473369140625,0.6096728515625001,0.6115368267730793,0.9365234375,0.70947265625,0.1005859375,45.00058823529412,393.23021507787496
-0.0342802734375,-0.0400126953125,0.6350634765625001,0.6372454567878612,0.806640625,1.1005859375,-0.12939453125,44.85941176470588,393.23021507787496
-0.1016630859375,-0.0488017578125,0.6902392578125001,0.6993906116280633,0.72509765625,1.7978515625,-0.25,44.81235294117647,393.23021507787496
-0.1329130859375,-0.0424541015625,0.7498095703125001,0.7626812118343577,0.66455078125,2.52685546875,0.12939453125,44.85941176470588,392.8759139989217
-0.0899443359375,0.0093037109375,0.7283251953125001,0.733916979454378,0.56982421875,2.5244140625,-0.39453125,44.85941176470588,392.8759139989217
-0.1202177734375,0.0259052734375,0.8230517578125001,0.8321884355603532,0.513671875,2.3779296875,-0.7490234375,44.906470588235294,392.8759139989217
-0.0762724609375,0.0356708984375,0.8489306640625001,0.853096227677979,0.52587890625,1.5185546875,-0.86669921875,45.04764705882353,392.8759139989217
-0.0616240234375,0.0415302734375,0.9002001953125001,0.9032622407236351,0.46630859375,0.3154296875,-0.94873046875,44.906470588235294,392.8759139989217
-0.0796904296875,0.0381123046875,0.9509814453125,0.955075296341091,0.31396484375,-0.44384765625,-0.8388671875,44.81235294117647,392.55367398519286
-0.0689482421875,0.0361591796875,1.0232470703125005,1.0262046156978315,0.2607421875,-0.794921875,-0.78271484375,45.09470588235294,392.55367398519286
-0.0523466796875,0.0434833984375,1.0808642578125005,1.0830043973274288,0.3134765625,-1.01416015625,-0.86083984375,45.00058823529412,392.55367398519286
-0.0728544921875,0.0527607421875,1.1511767578125005,1.1546858450140345,0.47412109375,-1.0703125,-0.9267578125,44.81235294117647,392.55367398519286
-0.1060576171875,0.0376240234375,1.1682666015625005,1.1736739912043332,0.52978515625,-0.83056640625,-1.021484375,44.81235294117647,392.8759139989217
-0.1338896484375,0.0288349609375,1.1741259765625005,1.1820870110824453,0.5390625,-0.46826171875,-1.15625,45.00058823529412,392.8759139989217
-0.1324248046875,0.0107685546875,1.1902392578125005,1.1976317386845723,0.58251953125,-0.052734375,-1.103515625,45.09470588235294,392.8759139989217
-0.1304716796875,0.0053974609375,1.2258837890625005,1.2328191497828391,0.63427734375,0.2587890625,-0.82470703125,45.00058823529412,392.8759139989217
-0.1631865234375,-0.0121806640624999,1.3254931640625005,1.335556190500811,0.8525390625,0.70947265625,-0.41943359375,44.85941176470588,392.8759139989217
-0.1900419921875,-0.0175517578125,1.3826220703125005,1.3957319987419243,1.07861328125,1.12939453125,-0.1279296875,45.18882352941176,391.982519163885
-0.2266630859375,-0.0014384765624999,1.3948291015625005,1.4131264792321965,0.951171875,1.74267578125,0.130859375,44.85941176470588,391.982519163885
-0.1524443359375,0.0688740234375,1.5066455078125005,1.5159035565877803,0.90087890625,1.8388671875,-0.365234375,44.85941176470588,391.982519163885
-0.1436552734375,0.1206318359375,1.6384814453125005,1.6491847452791315,0.9365234375,1.720703125,-0.77197265625,44.906470588235294,391.982519163885
-0.2584013671875,0.2046162109375,1.7668994140625005,1.7973793700154663,0.978515625,1.37060546875,-1.03564453125,45.00058823529412,391.37192831255504
-0.0596708984375,0.2710224609375,1.8372119140625005,1.8580531229289847,0.59130859375,1.14990234375,-0.9609375,45.04764705882353,391.37192831255504
0.0267548828125,0.3017841796875,1.6145556640625005,1.6427353734610664,0.1162109375,1.82080078125,-0.88037109375,44.059411764705885,391.37192831255504
0.1263642578125,0.2661396484375,1.5608447265625005,1.5884062762910836,-0.24658203125,3.4462890625,-0.77490234375,45.235882352941175,391.37192831255504
0.3744111328125,0.2553974609375,1.3406298828125005,1.415167849450064,-0.11767578125,2.94140625,-0.771484375,44.24764705882353,391.37192831255504
0.4862275390625,0.1938740234375,1.1550830078125005,1.2681565800971866,-0.05908203125,1.55126953125,-0.0673828125,45.00058823529412,391.71430436100985
0.5340791015625,0.1958271484375,1.1692431640625005,1.3002762535314782,-0.0478515625,1.02783203125,0.732421875,45.235882352941175,391.71430436100985
0.5975556640625,0.2016865234375,1.0828173828125005,1.2530936556819658,-0.2802734375,0.94677734375,1.08740234375,45.47117647058823,391.71430436100985
0.5638642578125,0.2334248046875,1.0364306640625005,1.202754572675105,-0.43017578125,0.8271484375,1.23583984375,44.81235294117647,391.71430436100985
0.5052705078125,0.3037373046875,1.0374072265625005,1.193217662477399,-0.234375,0.31640625,0.90185546875,45.00058823529412,394.0486280939482
0.4872041015625,0.3354755859375,1.0208056640625005,1.1798118108925313,0.13330078125,0.11572265625,0.3330078125,44.81235294117647,394.0486280939482
0.1844697265625,0.3301044921875,1.0081103515625005,1.0767007647010745,0.3955078125,0.1396484375,-0.52587890625,44.85941176470588,394.0486280939482
-0.0005888671874999,0.2646748046875,1.0398486328125005,1.0730043234595827,0.5419921875,0.25537109375,-0.9365234375,45.00058823529412,394.0486280939482
-0.1148466796875,0.2387958984375,1.0579150390625005,1.0905950077001212,0.640625,0.3857421875,-1.0458984375,44.906470588235294,394.0486280939482
-0.1343779296875,0.2158466796875,1.0710986328125005,1.100863069746653,0.58837890625,0.64453125,-1.0859375,44.34176470588236,394.2848558091621
-0.1001982421875,0.1636005859375,1.0476611328125005,1.0650815408514644,0.38671875,0.814453125,-1.1455078125,44.906470588235294,394.2848558091621
-0.0044951171875,0.1064716796875,0.9895556640625,0.995277266359572,0.26953125,0.783203125,-1.3349609375,45.00058823529412,394.2848558091621
0.0243134765625,0.0469013671875,0.9495166015625,0.9509850997935833,0.240234375,0.73388671875,-1.5146484375,44.906470588235294,394.2848558091621
0.0775361328125,-0.0390361328125,0.9011767578125,0.9053481210992388,-0.05224609375,0.54296875,-1.6328125,45.33,394.1237110278119
0.0526337890625,-0.0424541015625,0.8460009765625001,0.8486991921966572,-0.28076171875,0.029296875,-2.0087890625,45.04764705882353,394.1237110278119
-0.0757841796875,-0.0439189453125,0.8030322265625001,0.8077950684091827,-0.45556640625,-0.24951171875,-1.66259765625,44.906470588235294,394.1237110278119
-0.0709013671875,-0.0683330078125,0.8298876953125001,0.8357092740043351,-0.82861328125,-0.1787109375,-1.39599609375,45.42411764705882,394.1237110278119
-0.1192412109375,-0.0668681640625,0.6877978515625001,0.7012529517691327,-0.94921875,0.08154296875,-1.06591796875,44.85941176470588,394.1237110278119
-0.0928740234375,-0.0702861328125,0.6233447265625001,0.6341327722397603,-1.111328125,0.4228515625,-0.8857421875,44.43588235294118,394.5649967264442
-0.0318388671875,-0.0107158203124999,0.5750048828125001,0.5759853796121651,-1.1220703125,0.72802734375,-1.1484375,45.33,394.5649967264442
0.0067353515625,0.0268818359375,0.5632861328125001,0.5639674329984867,-1.24658203125,1.1552734375,-1.64111328125,44.15352941176471,394.5649967264442
0.0291962890625,0.0395771484375,0.5154345703125001,0.5177755983499962,-1.0947265625,1.4765625,-1.841796875,44.24764705882353,394.5649967264442
0.0462861328125,0.0532490234375,0.5056689453125001,0.5105672794463428,-1.0458984375,1.64599609375,-2.0263671875,45.33,393.3711526964087
0.0433564453125,0.0776630859375,0.5071337890625001,0.5148747578551115,-0.9150390625,1.49072265625,-2.0078125,44.906470588235294,393.3711526964087
0.0218720703125,0.0718037109375,0.4988330078125,0.5044487387707662,-0.75048828125,1.0712890625,-1.7314453125,45.00058823529412,393.3711526964087
-0.0674833984375,0.0630146484375,0.4944384765625,0.5029853497745457,-0.5908203125,0.54833984375,-1.31396484375,45.42411764705882,393.3711526964087
-0.1084990234375,0.0459248046875,0.5168994140625001,0.5301567032780328,-0.49267578125,0.1220703125,-0.76171875,44.85941176470588,393.3711526964087
-0.1309599609375,0.0473896484375,0.5642626953125001,0.5811959045529388,-0.43896484375,-0.29296875,-0.498046875,45.09470588235294,392.96108216807806
-0.1529326171875,0.0464130859375,0.6204150390625001,0.6406694784684094,-0.31201171875,-0.3271484375,-0.12939453125,45.00058823529412,392.96108216807806
-0.1568388671875,0.0469013671875,0.6882861328125001,0.7074856670821688,-0.18994140625,-0.17431640625,-0.01416015625,44.85941176470588,392.96108216807806
-0.1460966796875,0.0298115234375,0.7327197265625001,0.7477373632761716,-0.10791015625,0.08544921875,0.005859375,45.47117647058823,392.96108216807806
-0.1539091796875,0.0254169921875,0.7595751953125001,0.7754279698450148,-0.09228515625,0.1513671875,0.3076171875,44.85941176470588,392.4017655809653
-0.0069365234375,0.0180927734375,0.7825244140625001,0.7827642827901121,-0.12353515625,-0.1396484375,0.35205078125,44.24764705882353,392.4017655809653
-0.0982451171875,0.1006123046875,0.9026416015625,0.913529857080233,-0.03125,-0.68212890625,0.41748046875,45.00058823529412,392.4017655809653
-0.1519560546875,0.0781513671875,0.9392626953125,0.9546793647896492,-0.04052734375,-0.9921875,1.08544921875,45.00058823529412,392.4017655809653
-0.1109404296875,0.1133076171875,0.9802783203125,0.9930216414190844,-0.13671875,-1.20263671875,1.30078125,45.04764705882353,392.4017655809653
-0.0816435546875,0.1450458984375,1.0466845703125005,1.0598361063890094,-0.21044921875,-1.28759765625,1.22021484375,44.059411764705885,392.2094913393223
-0.0918974609375,0.1548115234375,1.0940478515625005,1.1087616753046263,-0.16943359375,-1.20556640625,1.12646484375,45.00058823529412,392.2094913393223
-0.0977568359375,0.1948505859375,1.1292041015625005,1.1500543694966217,-0.1328125,-1.00927734375,1.1240234375,44.85941176470588,392.2094913393223
-0.1202177734375,0.2285419921875,1.1174853515625005,1.1469338543264236,-0.15869140625,-0.73876953125,1.08935546875,45.00058823529412,392.2094913393223
-0.1324248046875,0.2573505859375,1.1218798828125005,1.1586112913476574,-0.10595703125,-0.357421875,1.01220703125,45.09470588235294,392.5857206374024
-0.1475615234375,0.2910419921875,1.1663134765625005,1.2111015523179591,0.00244140625,0.1064453125,0.712890625,44.81235294117647,392.5857206374024
-0.1822294921875,0.3164326171875,1.2288134765625005,1.281920336536036,0.00146484375,0.50390625,0.50634765625,45.18882352941176,392.5857206374024
-0.2398466796875,0.2983662109375,1.2966845703125005,1.352013202773121,0.22607421875,1.181640625,0.2685546875,44.906470588235294,392.5857206374024
-0.2505888671875,0.2734638671875,1.4089892578125005,1.4569927918992864,0.33056640625,1.4814453125,0.22119140625,44.81235294117647,392.5857206374024
-0.2105498046875,0.2417255859375,1.5330126953125005,1.5661706175063013,0.509765625,1.44140625,0.24462890625,45.00058823529412,392.6177674897473
-0.1636748046875,0.2055927734375,1.6243212890625005,1.6454414241415212,0.71484375,1.087890625,0.5693359375,44.85941176470588,392.6177674897473
-0.1197294921875,0.1552998046875,1.6145556640625005,1.626420355563639,0.75830078125,0.73486328125,0.85595703125,44.85941176470588,392.6177674897473
-0.1226591796875,0.1177021484375,1.6194384765625005,1.6283365897379711,0.75,1.06103515625,0.80615234375,45.00058823529412,392.6177674897473
-0.0220732421875,0.0879169921875,1.6038134765625005,1.6063730242815517,0.54638671875,1.3837890625,0.49462890625,44.906470588235294,391.2283361180668
0.1043916015625,0.0205341796875,1.4719775390625005,1.475817446202855,0.2890625,2.1416015625,-0.29931640625,45.09470588235294,391.2283361180668
0.2708955078125,-0.0829814453125,1.2864306640625005,1.3172600919558102,-0.22607421875,2.38525390625,-0.57958984375,45.47117647058823,391.2283361180668
0.3954072265625,-0.1054423828125,1.2156298828125005,1.2826616790478147,-0.33251953125,2.0361328125,-0.529296875,44.906470588235294,391.2283361180668
0.4666962890625,-0.1708720703125,1.1628955078125005,1.264645662914352,-0.08740234375,1.65966796875,-0.73779296875,44.81235294117647,391.2283361180668
0.4139619140625,-0.2275126953125,1.0837939453125005,1.182258774007908,-0.130859375,1.19091796875,-0.880859375,45.00058823529412,392.7257695116488
0.2997041015625,-0.2455791015625,1.1052783203125005,1.171226625794706,-0.140625,0.5224609375,-0.76171875,44.906470588235294,392.7257695116488
0.2181611328125,-0.2734111328125,1.1497119140625005,1.2017426566254132,0.06298828125,-0.53759765625,-0.71337890625,45.00058823529412,392.7257695116488
0.1551728515625,-0.2616923828125,1.1868212890625005,1.2251964288456347,-0.04736328125,-0.8583984375,-0.9990234375,45.33,392.7257695116488
0.0536103515625,-0.2328837890625,1.1907275390625005,1.214471490519477,-0.22216796875,-0.666015625,-0.4892578125,45.00058823529412,394.1987946986319
-0.0704130859375,-0.1405986328125,1.1931689453125005,1.2034858164008957,-0.61181640625,-0.2685546875,0.630859375,44.85941176470588,394.1987946986319
-0.1670927734375,-0.0341533203125,1.2419970703125005,1.2536519321120347,-0.5322265625,0.22998046875,1.6689453125,45.42411764705882,394.1987946986319
-0.1802763671875,0.0268818359375,1.1907275390625005,1.2045971417662966,-0.46044921875,0.576171875,2.00537109375,44.81235294117647,394.1987946986319
-0.1363310546875,0.1040302734375,1.1604541015625005,1.173056765931179,-0.21728515625,1.18408203125,1.7685546875,45.00058823529412,394.1987946986319
-0.0709013671875,0.1738544921875,1.0676806640625005,1.0840638305633907,-0.18701171875,1.72314453125,1.24267578125,44.906470588235294,394.5118637436248
-0.0533232421875,0.1860615234375,0.9841845703125,1.003036154434361,-0.12841796875,1.953125,1.35693359375,44.81235294117647,394.5118637436248
0.0243134765625,0.1933857421875,0.8606494140625001,0.8824435417351583,-0.09765625,1.689453125,1.236328125,44.81235294117647,394.5118637436248
0.0184541015625,0.1767841796875,0.7263720703125001,0.7478031723537477,-0.0380859375,0.77734375,1.47705078125,45.00058823529412,394.5118637436248
0.0233369140625,0.1489521484375,0.6355517578125001,0.6531901644549359,0.0791015625,-0.15771484375,1.59814453125,45.00058823529412,394.27300328011495
0.0003876953125,0.1274677734375,0.5984423828125001,0.6118671989239757,0.193359375,-0.63427734375,1.46484375,44.81235294117647,394.27300328011495
-0.0435576171875,0.0957294921875,0.5950244140625001,0.6042478423792268,0.5087890625,-0.51318359375,1.36669921875,45.09470588235294,394.27300328011495
-0.0704130859375,0.0093037109375,0.5505908203125001,0.5551529637143641,0.55224609375,-0.27294921875,1.498046875,45.00058823529412,394.27300328011495
-0.0728544921875,-0.0126689453124999,0.5418017578125001,0.5468248567648919,0.62255859375,0.06640625,1.45751953125,45.04764705882353,394.27300328011495
-0.0684599609375,-0.0258525390625,0.5349658203125001,0.5399477279609279,0.76025390625,0.31689453125,1.29296875,45.00058823529412,393.8655340371243
-0.0616240234375,-0.0278056640625,0.5168994140625001,0.5213019081844398,0.7333984375,0.4658203125,1.24169921875,45.18882352941176,393.8655340371243
-0.0372099609375,-0.0234111328125,0.5266650390625001,0.5284966657446757,0.7099609375,0.47412109375,1.2138671875,44.81235294117647,393.8655340371243
-0.0167021484375,-0.0248759765625,0.5193408203125001,0.5202044440556298,0.71728515625,0.43603515625,0.96044921875,44.906470588235294,393.8655340371243
-0.0396513671875,-0.0268291015625,0.5188525390625001,0.5210566081550948,0.66943359375,0.3994140625,0.615234375,45.00058823529412,393.2082614750412
-0.0645537109375,-0.0253642578125,0.5281298828125001,0.5326647165804455,0.642578125,0.33984375,0.3154296875,45.00058823529412,393.2082614750412
-0.0645537109375,-0.0116923828124999,0.5447314453125001,0.5486676962642156,0.56787109375,0.275390625,0.0712890625,45.00058823529412,393.2082614750412
-0.0904326171875,-0.0038798828124999,0.5642626953125001,0.5714765971265551,0.51025390625,0.34716796875,-0.0966796875,44.906470588235294,393.2082614750412
-0.1241240234375,0.0112568359375,0.6072314453125001,0.6198899238783807,0.47607421875,0.46923828125,-0.1484375,45.00058823529412,393.2082614750412
-0.1617216796875,0.0234638671875,0.6502001953125001,0.6704213218035001,0.50537109375,0.61376953125,-0.15625,45.00058823529412,393.1762118146774
-0.1885771484375,0.0249287109375,0.7073291015625001,0.7324597186596938,0.37548828125,0.7431640625,-0.23046875,45.00058823529412,393.1762118146774
-0.2056669921875,0.0249287109375,0.7815478515625001,0.8085402875468966,0.57861328125,0.67822265625,-0.17578125,44.906470588235294,393.1762118146774
-0.1817412109375,0.0332294921875,0.8088916015625001,0.8297226584723442,0.509765625,0.2880859375,-0.30908203125,44.81235294117647,393.1762118146774
-0.1749052734375,0.0327412109375,0.8787158203125001,0.8965519139667097,0.3984375,-0.21337890625,-0.576171875,44.85941176470588,392.7898644619
-0.1211943359375,0.0508076171875,0.9407275390625,0.9498619814363508,0.3359375,-0.771484375,-0.88427734375,45.00058823529412,392.7898644619
-0.1060576171875,0.0644794921875,1.0593798828125005,1.0666262509351976,0.36376953125,-1.2392578125,-1.0859375,44.85941176470588,392.7898644619
-0.0992216796875,0.0625263671875,1.1570361328125005,1.1629647892122017,0.775390625,-1.27587890625,-1.18115234375,44.059411764705885,392.7898644619
-0.1138701171875,0.0434833984375,1.1658251953125005,1.172179847785057,0.80859375,-1.2177734375,-1.38623046875,44.85941176470588,392.7898644619
-0.0206083984375,0.0327412109375,1.1628955078125005,1.1635388498328303,0.8681640625,-1.05859375,-1.57177734375,44.906470588235294,392.5637667456821
-0.1905302734375,0.0307880859375,1.2327197265625005,1.2477369977636268,0.7451171875,-0.560546875,-1.7041015625,44.81235294117647,392.5637667456821
-0.2447294921875,0.0107685546875,1.3103564453125005,1.3330575756089535,0.97119140625,0.06298828125,-1.29052734375,44.85941176470588,392.5637667456821
-0.2750029296875,0.0219990234375,1.3777392578125005,1.4050893319951765,1.01220703125,0.25048828125,-0.91162109375,45.00058823529412,392.5637667456821
-0.3462919921875,-0.0097392578124999,1.4207080078125005,1.462335201128144,1.09033203125,0.98828125,-0.49462890625,45.42411764705882,392.2718119411041
-0.3702177734375,0.0053974609375,1.4919970703125005,1.5372526110482545,1.04443359375,1.48046875,-0.267578125,45.00058823529412,392.2718119411041
-0.3160185546875,-0.0282939453125,1.5969775390625005,1.6281908777898992,1.0908203125,1.5908203125,-0.47412109375,45.09470588235294,392.2718119411041
-0.3008818359375,0.1362568359375,1.7273486328125005,1.7586441094820842,1.10302734375,1.30419921875,-0.68701171875,45.33,392.2718119411041
-0.2378935546875,0.1836201171875,1.7991259765625005,1.8240515262293924,1.0302734375,0.58056640625,-0.955078125,45.04764705882353,392.2718119411041
-0.1797880859375,0.1953388671875,1.7766650390625005,1.796390739762962,0.9189453125,0.19873046875,-0.8642578125,44.906470588235294,390.9912908702668
-0.0655302734375,0.2309833984375,1.6868212890625005,1.7038232327107778,0.55078125,0.44677734375,-1.07373046875,45.47117647058823,390.9912908702668
0.0160126953125,0.2319599609375,1.6184619140625005,1.6350782235600074,0.74462890625,1.1669921875,-0.7412109375,44.85941176470588,390.9912908702668
0.3358369140625,0.2632099609375,1.4075244140625005,1.470779008745273,0.2734375,1.01611328125,-0.19970703125,44.906470588235294,390.9912908702668
0.5311494140625,0.2256123046875,1.3435595703125005,1.4622492711790465,0.3203125,1.5517578125,0.2939453125,44.85941176470588,392.1756747705944
0.5916962890625,0.1977802734375,1.2268603515625005,1.3763748970710734,0.20166015625,1.7216796875,0.70068359375,44.906470588235294,392.1756747705944
0.5423798828125,0.2046162109375,1.0935595703125005,1.2377060494641614,-0.07666015625,1.57861328125,0.86962890625,45.235882352941175,392.1756747705944
0.4618134765625,0.2324482421875,1.0017626953125005,1.1273120110025294,-0.50634765625,0.841796875,0.56787109375,45.47117647058823,392.1756747705944
0.2757783203125,0.3169208984375,1.0164111328125005,1.0998109513575531,-0.8173828125,0.05712890625,0.4501953125,45.00058823529412,392.1756747705944
0.1029267578125,0.3486591796875,1.0310595703125005,1.0932707709379004,-0.314453125,-0.37548828125,0.482421875,45.04764705882353,394.6400839322342
-0.0001005859374999,0.3525654296875,0.9910205078125,1.05186693038293,0.017578125,-0.923828125,0.07275390625,44.906470588235294,394.6400839322342
-0.0748076171875,0.3393818359375,0.9910205078125,1.0501894386531057,0.2900390625,-0.8896484375,-0.587890625,44.906470588235294,394.6400839322342
-0.1329130859375,0.2632099609375,0.9670947265625,1.0110477644973783,0.28125,-0.287109375,-0.97802734375,45.235882352941175,394.6400839322342
-0.0972685546875,0.2104755859375,1.0012744140625005,1.0277702059618834,0.25634765625,0.666015625,-1.15771484375,45.47117647058823,394.4991367516688
-0.0523466796875,0.1533466796875,0.9485400390625,0.9622804085869024,0.3671875,1.1787109375,-1.3720703125,45.00058823529412,394.4991367516688
-0.0362333984375,0.0888935546875,0.9065478515625,0.9116161091160548,0.4072265625,1.20703125,-1.6953125,45.00058823529412,394.4991367516688
-0.0523466796875,0.0390888671875,0.8713916015625001,0.873837191750252,0.3623046875,1.33447265625,-1.76123046875,45.00058823529412,394.4991367516688
-0.0215849609375,-0.0795634765625,0.8269580078125001,0.8310570401763069,0.015625,1.16064453125,-1.33203125,44.85941176470588,394.4991367516688
-0.0259794921875,-0.1410869140625,0.7937548828125001,0.806614694462409,-0.12353515625,0.5888671875,-0.5869140625,44.906470588235294,394.5412943824231
0.0277314453125,-0.1777080078125,0.7468798828125001,0.7682309082885311,-0.30126953125,0.08642578125,-0.291015625,44.85941176470588,394.5412943824231
0.0555634765625,-0.1161845703125,0.7224658203125001,0.7338549010712031,-0.52587890625,0.00048828125,-0.65625,44.81235294117647,394.5412943824231
0.0028291015625,-0.0971416015625,0.6585009765625001,0.6656335558725571,-0.8466796875,-0.14208984375,-0.8984375,45.04764705882353,394.5412943824231
-0.0626005859375,-0.0649150390625,0.6443408203125001,0.6506211558020456,-0.9296875,-0.1279296875,-1.0126953125,45.18882352941176,393.9717910384863
-0.1065458984375,-0.0463603515625,0.5881884765625001,0.5995556643313174,-1.11474609375,0.0244140625,-0.89990234375,45.00058823529412,393.9717910384863
-0.1192412109375,-0.0043681640624999,0.5754931640625001,0.5877328722521702,-1.29931640625,0.28564453125,-0.6806640625,45.00058823529412,393.9717910384863
-0.0909208984375,0.0127216796875,0.5530322265625001,0.5606006551221911,-1.283203125,0.466796875,-0.39990234375,45.09470588235294,393.9717910384863
-0.0621123046875,0.0141865234375,0.5212939453125001,0.5251728984442242,-1.20703125,0.28759765625,-0.0048828125,44.1064705882353,393.9717910384863
-0.0333037109375,0.0400654296875,0.5159228515625001,0.5185467814793898,-1.09619140625,0.1474609375,0.28955078125,44.81235294117647,393.37027228236025
-0.0152373046875,0.0669208984375,0.5442431640625001,0.5485537382340797,-1.009765625,-0.02392578125,0.419921875,44.81235294117647,393.37027228236025
-0.0162138671875,0.0830341796875,0.5686572265625001,0.5749161728524468,-0.9443359375,-0.18408203125,0.4248046875,44.81235294117647,393.37027228236025
-0.0401396484375,0.0898701171875,0.5935595703125001,0.6016650171395548,-0.81982421875,-0.296875,0.41552734375,44.906470588235294,393.37027228236025
-0.0660185546875,0.0918232421875,0.6057666015625001,0.6162330183765159,-0.6572265625,-0.40625,0.3818359375,45.18882352941176,393.0361566845012
-0.0987333984375,0.0859638671875,0.6267626953125001,0.6402886432416539,-0.6220703125,-0.5966796875,0.25,44.85941176470588,393.0361566845012
-0.0992216796875,0.0937763671875,0.6926806640625001,0.7060066934023783,-0.59619140625,-0.56396484375,0.39111328125,44.85941176470588,393.0361566845012
-0.1133818359375,0.1069599609375,0.7195361328125001,0.7362255906901616,-0.54931640625,-0.4970703125,0.5068359375,44.81235294117647,393.0361566845012
-0.1167998046875,0.0976826171875,0.7581103515625001,0.7732498905411207,-0.43603515625,-0.482421875,0.623046875,44.81235294117647,393.0361566845012
-0.1548857421875,0.0942646484375,0.8049853515625001,0.8251526121319741,-0.27587890625,-0.64697265625,0.65625,45.00058823529412,393.09015943052464
-0.1739287109375,0.0820576171875,0.8650439453125001,0.8861634591590235,-0.1484375,-0.8671875,0.8203125,45.00058823529412,393.09015943052464
-0.1563505859375,0.0532490234375,0.8992236328125001,0.914266977435233,-0.2451171875,-0.91845703125,1.20947265625,45.00058823529412,393.09015943052464
-0.1402373046875,0.0830341796875,0.9334033203125,0.9475246355598308,-0.3134765625,-0.9755859375,1.3642578125,44.059411764705885,393.09015943052464
-0.1709990234375,0.0967060546875,1.0139697265625005,1.0328249287343096,-0.2919921875,-0.970703125,1.470703125,45.18882352941176,392.3266964275935
-0.1763701171875,0.1235615234375,1.0793994140625005,1.1006711422533968,-0.28466796875,-0.9404296875,1.541015625,45.00058823529412,392.3266964275935
-0.1666044921875,0.1679951171875,1.1199267578125005,1.144646390410731,-0.228515625,-0.7763671875,1.60986328125,45.00058823529412,392.3266964275935
-0.1768583984375,0.2041279296875,1.1326220703125005,1.1643796025933109,-0.12451171875,-0.58642578125,1.69140625,44.81235294117647,392.3266964275935
-0.1729521484375,0.2539326171875,1.1394580078125005,1.1801520119412043,-0.14208984375,-0.2880859375,1.63720703125,45.04764705882353,392.3266964275935
-0.1861357421875,0.2998310546875,1.1677783203125005,1.2199390891624855,-0.1630859375,0.03125,1.42138671875,45.00058823529412,392.6910727614347
-0.1978544921875,0.3476826171875,1.2073291015625005,1.271877809324794,-0.29248046875,0.2333984375,1.19873046875,45.09470588235294,392.6910727614347
-0.2554716796875,0.3320576171875,1.3044970703125005,1.370124317975741,-0.189453125,0.78466796875,1.080078125,44.059411764705885,392.6910727614347
-0.2554716796875,0.3130146484375,1.4334033203125005,1.489257878254033,-0.2001953125,0.77099609375,0.98974609375,44.81235294117647,392.6910727614347
-0.2676787109375,0.2563740234375,1.5657275390625005,1.6090003911626023,0.107421875,0.6142578125,1.13232421875,44.1064705882353,392.38158126111847
-0.2686552734375,0.1675068359375,1.6638720703125005,1.6937250256158989,0.48291015625,0.59033203125,1.51806640625,45.09470588235294,392.38158126111847
-0.1334013671875,0.1494404296875,1.6150439453125005,1.6274198327669616,0.3623046875,0.49365234375,1.45947265625,44.81235294117647,392.38158126111847
-0.0792021484375,0.1372333984375,1.5657275390625005,1.5737244716094791,0.29345703125,0.68310546875,1.1865234375,44.1064705882353,392.38158126111847
-0.0806669921875,0.1123310546875,1.5725634765625005,1.5786327366725046,0.13427734375,1.3173828125,0.72265625,45.04764705882353,392.38158126111847
0.0160126953125,0.0737568359375,1.5305712890625005,1.5324310582082072,0.06689453125,1.80078125,0.33203125,45.04764705882353,391.1102578449835
0.1703095703125,0.0083271484375,1.3474658203125005,1.358211628595326,-0.1650390625,2.41162109375,0.009765625,45.04764705882353,391.1102578449835
0.2948212890625,-0.0522197265625,1.1751025390625005,1.2126468857989416,-0.3525390625,2.6259765625,-0.06005859375,45.00058823529412,391.1102578449835
0.3563447265625,-0.1064189453125,1.1467822265625005,1.2055770532114376,-0.35302734375,2.35546875,0.02783203125,44.81235294117647,391.1102578449835
0.3626923828125,-0.1298564453125,1.0984423828125005,1.1640378556121835,-0.2177734375,1.7353515625,-0.07763671875,45.47117647058823,392.6827453673058
0.2933564453125,-0.1669658203125,1.0442431640625005,1.0974421965872616,-0.09521484375,1.03759765625,-0.06396484375,44.85941176470588,392.6827453673058
0.2113251953125,-0.1987041015625,1.0642626953125005,1.1030851022407355,0.02490234375,0.2041015625,-0.08056640625,45.04764705882353,392.6827453673058
0.1556611328125,-0.2543681640625,1.1067431640625005,1.1462172491967098,0.08349609375,-0.5908203125,-0.1162109375,45.04764705882353,392.6827453673058
0.1087861328125,-0.2563212890625,1.1067431640625005,1.14123418154121,-0.1591796875,-0.77392578125,0.123046875,45.33,392.6827453673058
0.0770478515625,-0.1562236328125,1.0974658203125005,1.1112035914420548,-0.35546875,-0.654296875,0.720703125,45.04764705882353,394.66028877799664
0.1092744140625,-0.0468486328125,1.1082080078125005,1.1145674858638457,-0.41748046875,-0.330078125,1.462890625,45.00058823529412,394.66028877799664
-0.0738310546875,0.0400654296875,1.1228564453125005,1.1259941652034156,-0.41552734375,-0.20361328125,2.04931640625,45.04764705882353,394.66028877799664
-0.0918974609375,0.1303974609375,1.1189501953125005,1.1302646507502518,-0.376953125,0.18798828125,2.01220703125,45.09470588235294,394.66028877799664
-0.0450224609375,0.2094990234375,1.0730517578125005,1.094238062651191,-0.26025390625,0.85546875,1.32470703125,44.85941176470588,395.1354011914975
-0.0411162109375,0.2143818359375,1.0183642578125005,1.0414969399723624,-0.04931640625,1.1123046875,0.4951171875,45.04764705882353,395.1354011914975
-0.0127958984375,0.2236591796875,0.8992236328125001,0.9267093964581444,-0.14599609375,0.92431640625,0.3486328125,44.906470588235294,395.1354011914975
-0.0064482421875,0.2304951171875,0.8377001953125001,0.8688562574449175,-0.06689453125,0.50634765625,0.416015625,45.09470588235294,395.1354011914975
0.0052705078125,0.1880146484375,0.7400439453125001,0.763572083875104,-0.00048828125,-0.0771484375,0.65234375,44.81235294117647,395.1354011914975
0.0374970703125,0.1621357421875,0.6775439453125001,0.6976817519516618,0.056640625,-0.376953125,0.7216796875,45.00058823529412,394.6501861883614
-0.0147490234375,0.1303974609375,0.6316455078125001,0.6451333808221504,0.26513671875,-0.7333984375,0.97314453125,45.00058823529412,394.6501861883614
-0.0196318359375,0.0620380859375,0.5740283203125001,0.5777046352677601,0.3525390625,-0.64208984375,1.12060546875,44.906470588235294,394.6501861883614
-0.0459990234375,0.0346943359375,0.5632861328125001,0.566225109406329,0.5146484375,-0.349609375,1.15478515625,45.00058823529412,394.6501861883614
-0.0508818359375,0.0195576171875,0.5418017578125001,0.5445370569457495,0.66650390625,-0.1240234375,1.095703125,45.04764705882353,394.2097714263748
-0.0582060546875,-0.0009501953124999,0.5256884765625001,0.5289019021179809,0.79052734375,0.11669921875,1.0341796875,45.04764705882353,394.2097714263748
-0.0640654296875,-0.0136455078124999,0.5164111328125001,0.520548784704368,0.78173828125,0.1953125,0.9052734375,45.04764705882353,394.2097714263748
-0.0557646484375,-0.0155986328124999,0.5164111328125001,0.5196474491938421,0.775390625,0.0791015625,0.73095703125,44.81235294117647,394.2097714263748
-0.0611357421875,-0.0317119140625,0.5144580078125001,0.5190474605165988,0.673828125,-0.068359375,0.548828125,45.00058823529412,394.2097714263748
-0.0635771484375,-0.0219462890625,0.5422900390625001,0.5464450382915619,0.63427734375,-0.20263671875,0.37744140625,44.906470588235294,393.38036906841535
-0.0630888671875,-0.0322001953125,0.5486376953125001,0.5531910867493952,0.53466796875,-0.27734375,0.1640625,45.04764705882353,393.38036906841535
-0.0762724609375,-0.0126689453124999,0.5686572265625001,0.5738893898605794,0.453125,-0.228515625,-0.08056640625,45.04764705882353,393.38036906841535
-0.1011748046875,-0.0058330078124999,0.5999072265625001,0.6084069736332789,0.41357421875,-0.08203125,-0.2236328125,44.85941176470588,393.38036906841535
-0.1182646484375,0.0029560546875,0.6292041015625001,0.6402289174603361,0.3671875,0.18310546875,-0.28759765625,45.04764705882353,393.3913458406617
-0.1167998046875,0.0229755859375,0.6716845703125001,0.6821511811322307,0.3876953125,0.38623046875,-0.3935546875,44.906470588235294,393.3913458406617
-0.1251005859375,0.0459248046875,0.7136767578125001,0.7260122305645083,0.36376953125,0.42236328125,-0.48828125,45.00058823529412,393.3913458406617
-0.1094755859375,0.0591083984375,0.7786181640625001,0.7884953722694024,0.27197265625,0.2119140625,-0.6025390625,44.906470588235294,393.3913458406617
-0.1021513671875,0.0688740234375,0.8689501953125001,0.8776405727040978,0.283203125,-0.15087890625,-0.7548828125,45.00058823529412,393.3913458406617
-0.0806669921875,0.0654560546875,0.9099658203125,0.9158763305495085,0.23046875,-0.6982421875,-0.84326171875,45.47117647058823,392.6910727614347
-0.0782255859375,0.0644794921875,1.0012744140625005,1.006393213144955,0.16796875,-1.25830078125,-1.1103515625,44.85941176470588,392.6910727614347
-0.0826201171875,0.0591083984375,1.1047900390625005,1.1094507275862429,0.1826171875,-1.630859375,-1.21630859375,45.42411764705882,392.6910727614347
-0.1084990234375,0.0591083984375,1.1877978515625005,1.1942066726614908,0.38427734375,-1.80517578125,-1.28125,45.00058823529412,392.6910727614347
-0.1622099609375,0.0503193359375,1.2097705078125005,1.2216336556306275,0.42431640625,-1.68896484375,-1.46728515625,44.906470588235294,392.5299524115388
-0.1348662109375,0.0356708984375,1.2683642578125005,1.2760130086892654,0.4501953125,-1.46923828125,-1.41650390625,45.04764705882353,392.5299524115388
-0.3194365234375,0.0361591796875,1.3196337890625005,1.3582269751469969,0.6142578125,-0.8291015625,-1.087890625,44.906470588235294,392.5299524115388
-0.2886748046875,0.0146748046875,1.3352587890625005,1.3661861244071531,0.759765625,-0.2294921875,-0.7646484375,44.059411764705885,392.5299524115388
-0.2706083984375,-0.0009501953124999,1.4099658203125005,1.4356996282738053,0.91845703125,0.48681640625,-0.63427734375,44.81235294117647,392.5299524115388
-0.2925810546875,-0.0195048828125,1.4099658203125005,1.4401346216465605,0.921875,1.09814453125,-0.46337890625,44.85941176470588,392.5848367313085
-0.3003935546875,0.0093037109375,1.4871142578125005,1.5171788498803378,0.890625,1.46484375,-0.208984375,45.00058823529412,392.5848367313085
-0.2979521484375,0.0386005859375,1.5647509765625005,1.5933333319323169,0.849609375,1.50390625,0.138671875,44.85941176470588,392.5848367313085
-0.2076201171875,0.1992451171875,1.7234423828125005,1.7473003109535694,0.7294921875,1.2626953125,-0.40478515625,44.81235294117647,392.5848367313085
-0.0938505859375,0.2783466796875,1.7864306640625005,1.8104196541345472,0.7529296875,0.515625,-1.06591796875,45.42411764705882,391.56329038476537
0.0013642578125,0.2754169921875,1.6599658203125005,1.682659473984781,0.52880859375,0.28173828125,-1.39501953125,44.906470588235294,391.56329038476537
0.1170869140625,0.2759052734375,1.5027392578125005,1.532337541903273,0.27294921875,0.9580078125,-1.37353515625,45.00058823529412,391.56329038476537
0.3792939453125,0.2710224609375,1.3557666015625005,1.4336736550539215,0.125,1.02783203125,-0.75634765625,45.04764705882353,391.56329038476537
0.5091767578125,0.2290302734375,1.3005908203125005,1.4153629635992486,0.36083984375,1.12744140625,-0.39013671875,44.906470588235294,391.56329038476537
0.5199189453125,0.1933857421875,1.2205126953125005,1.3406584182390595,0.18310546875,1.38623046875,-0.00537109375,45.00058823529412,392.4979054036752
0.4657197265625,0.1831318359375,1.1155322265625005,1.2226382463929295,-0.29052734375,0.966796875,0.224609375,45.33,392.4979054036752
0.4173798828125,0.2148701171875,1.0510791015625005,1.151148301296657,-0.6279296875,0.330078125,0.07958984375,44.906470588235294,392.4979054036752
0.3602509765625,0.2719990234375,1.0442431640625005,1.1376326386652462,-0.7294921875,-0.5966796875,-0.49560546875,44.81235294117647,392.4979054036752
0.2059541015625,0.3325458984375,1.1052783203125005,1.172452144810543,-0.2314453125,-1.28955078125,-0.62744140625,44.15352941176471,394.2207481679995
0.0946259765625,0.3642841796875,1.1135791015625005,1.175463931580951,0.29736328125,-1.81884765625,-1.0390625,45.09470588235294,394.2207481679995
-0.0567412109375,0.3237568359375,1.1682666015625005,1.2136246974090914,0.556640625,-1.283203125,-1.2236328125,45.235882352941175,394.2207481679995
-0.1143583984375,0.2578388671875,1.1428759765625005,1.1771678820497151,0.46142578125,-0.216796875,-1.0693359375,45.09470588235294,394.2207481679995
-0.1031279296875,0.1977802734375,1.1086962890625005,1.1309110786545515,0.51220703125,0.49755859375,-0.94140625,45.00058823529412,394.2207481679995
-0.0401396484375,0.1396748046875,1.0481494140625005,1.0581764676275598,0.5927734375,0.67138671875,-0.87939453125,44.81235294117647,394.6822419751782
-0.0181669921875,0.0591083984375,1.0188525390625005,1.0207273576842597,0.5341796875,0.80322265625,-0.8447265625,44.85941176470588,394.6822419751782
0.0833955078125,-0.0605205078125,1.0872119140625005,1.0920839201584434,0.4580078125,0.5771484375,-0.66162109375,44.906470588235294,394.6822419751782
0.1131806640625,-0.0649150390625,0.9265673828125,0.9357087901190844,0.5029296875,0.2060546875,-1.2265625,44.15352941176471,394.6822419751782
-0.0025419921874999,-0.1117900390625,0.8435595703125001,0.8509384368000344,0.27392578125,0.20556640625,-1.23095703125,44.906470588235294,394.3919954308131
-0.0118193359375,-0.1381572265625,0.7844775390625001,0.7966380139354396,-0.009765625,0.4052734375,-0.951171875,44.24764705882353,394.3919954308131
-0.0411162109375,-0.1698955078125,0.6692431640625001,0.6916946139887968,-0.4765625,0.35986328125,-0.12548828125,44.906470588235294,394.3919954308131
0.0262666015625,-0.1210673828125,0.6311572265625001,0.6432003499538682,-0.76318359375,0.119140625,0.01806640625,44.906470588235294,394.3919954308131
0.0106416015625,-0.0810283203125,0.5803759765625001,0.5861016179361355,-0.943359375,-0.41650390625,-0.0185546875,45.00058823529412,394.3919954308131
-0.0274443359375,-0.0234111328125,0.5501025390625001,0.5512840249795239,-1.14306640625,-0.6494140625,-0.140625,44.906470588235294,394.4468789305863
-0.0508818359375,0.0205341796875,0.5330126953125001,0.5358294011419168,-1.25830078125,-0.57177734375,-0.20947265625,44.906470588235294,394.4468789305863
-0.0347685546875,0.0317646484375,0.5032275390625001,0.5054263560166957,-1.1669921875,-0.50732421875,-0.15673828125,45.00058823529412,394.4468789305863
-0.0152373046875,0.0635029296875,0.4880908203125,0.4924402973014744,-1.0263671875,-0.4404296875,-0.15869140625,44.85941176470588,394.4468789305863
-0.0279326171875,0.0742451171875,0.4880908203125,0.4944949114019862,-0.884765625,-0.392578125,-0.08642578125,44.85941176470588,393.2403113355748
-0.0538115234375,0.0830341796875,0.4851611328125,0.4951481392906056,-0.78564453125,-0.36279296875,0.05126953125,44.85941176470588,393.2403113355748
-0.0611357421875,0.1001240234375,0.5002978515625001,0.5138680174132098,-0.66455078125,-0.47509765625,0.2021484375,45.00058823529412,393.2403113355748
-0.0655302734375,0.0971943359375,0.5188525390625001,0.5319294247987493,-0.5009765625,-0.56103515625,0.24169921875,44.85941176470588,393.2403113355748
-0.0684599609375,0.0996357421875,0.5422900390625001,0.5556010563697894,-0.3857421875,-0.51416015625,0.20458984375,45.04764705882353,393.2403113355748
-0.0684599609375,0.0991474609375,0.5769580078125001,0.5894043841378227,-0.2724609375,-0.20703125,0.119140625,44.906470588235294,393.249528184571
-0.0977568359375,0.0786396484375,0.6248095703125001,0.6372814075688823,-0.23046875,0.00048828125,0.18212890625,45.47117647058823,393.249528184571
-0.1099638671875,0.0610615234375,0.6541064453125001,0.666089936518105,-0.20751953125,0.3212890625,0.30078125,45.00058823529412,393.249528184571
-0.1065458984375,0.0630146484375,0.6638720703125001,0.6753140011376639,-0.203125,0.029296875,0.49267578125,44.906470588235294,393.249528184571
0.1659150390625,0.0273701171875,0.7483447265625001,0.767005054270095,-0.50830078125,0.0361328125,-0.72607421875,45.04764705882353,392.8759139989217
-0.1041044921875,0.0820576171875,0.8757861328125001,0.8857609995132895,-0.31201171875,-0.47265625,-0.09375,45.00058823529412,392.8759139989217
-0.0713896484375,0.0195576171875,0.8728564453125001,0.8759893586212426,-0.328125,-1.341796875,1.30859375,44.906470588235294,392.8759139989217
-0.0660185546875,0.0859638671875,0.9773486328125,0.9833405239718944,-0.45361328125,-1.7041015625,1.32373046875,45.00058823529412,392.8759139989217
-0.0630888671875,0.1172138671875,1.0593798828125005,1.0677101816185317,-0.4697265625,-1.748046875,1.41845703125,45.04764705882353,392.8759139989217
-0.0586943359375,0.1367451171875,1.1003955078125005,1.1104118721265983,-0.25048828125,-1.712890625,1.5810546875,45.00058823529412,392.4987892628109
-0.0518583984375,0.1640888671875,1.1067431640625005,1.120042356798373,-0.39892578125,-1.67041015625,1.7392578125,45.00058823529412,392.4987892628109
-0.0655302734375,0.2021748046875,1.1248095703125005,1.14471194536172,-0.28955078125,-1.39501953125,1.69140625,44.81235294117647,392.4987892628109
-0.1124052734375,0.2412373046875,1.1492236328125005,1.1796378007185973,-0.2919921875,-0.92626953125,1.5302734375,45.09470588235294,392.4987892628109
-0.1436552734375,0.3095966796875,1.2097705078125005,1.256993087981331,-0.36669921875,-0.4775390625,1.23046875,44.85941176470588,392.7990759903021
-0.1480498046875,0.3574482421875,1.2356494140625005,1.294804025705798,-0.52197265625,-0.3525390625,1.03173828125,44.85941176470588,392.7990759903021
-0.1915068359375,0.3408466796875,1.2620166015625005,1.3211878102238714,-0.4814453125,-0.14013671875,0.9912109375,44.906470588235294,392.7990759903021
-0.2461943359375,0.3110615234375,1.3059619140625005,1.3648836739417591,-0.4267578125,0.1767578125,0.75048828125,44.906470588235294,392.7990759903021
-0.3189482421875,0.2773701171875,1.5134814453125005,1.5713969098888791,-0.06787109375,0.541015625,0.79833984375,45.00058823529412,392.7990759903021
-0.2867216796875,0.2436787109375,1.6536181640625005,1.6958896391818712,0.37890625,0.7646484375,0.98876953125,44.71823529411765,392.176560330878
-0.1358427734375,0.1870380859375,1.6848681640625005,1.7006520028970349,0.4970703125,0.50927734375,1.28515625,45.09470588235294,392.176560330878
-0.0059599609375,0.1343037109375,1.6570361328125005,1.6624806023987666,0.79541015625,1.32470703125,1.13916015625,44.81235294117647,392.176560330878
0.0863251953125,0.0552021484375,1.5364306640625005,1.5398436615479485,0.61767578125,2.42626953125,0.56689453125,44.906470588235294,392.176560330878
0.2332978515625,-0.0043681640624999,1.4373095703125005,1.4561269756833912,0.03271484375,3.0263671875,0.1201171875,45.04764705882353,391.4113892413649
0.4876923828125,-0.0844462890625,1.1941455078125005,1.292655611452074,-0.19775390625,2.65234375,0.19482421875,44.81235294117647,391.4113892413649
0.5580048828125,-0.1488994140625,1.0501025390625005,1.1984389126260284,-0.220703125,1.76123046875,0.57470703125,44.15352941176471,391.4113892413649
0.5204072265625,-0.1894267578125,1.1267626953125005,1.255508004586876,0.203125,0.56494140625,1.01220703125,44.1064705882353,391.4113892413649
0.4789033203125,-0.2988017578125,1.0823291015625005,1.2206830730239795,0.2431640625,-1.59375,1.56201171875,44.906470588235294,391.4113892413649
0.3822236328125,-0.2885478515625,1.0266650390625005,1.1328706327533276,-0.619140625,-3.08154296875,1.60546875,44.85941176470588,393.3913458406617
0.3065400390625,-0.2612041015625,1.2376025390625005,1.301481626038362,-0.47802734375,-4.0390625,1.0087890625,44.81235294117647,393.3913458406617
0.2577119140625,-0.2724345703125,1.3162158203125005,1.3685978632863716,-0.43212890625,-3.470703125,0.1474609375,44.85941176470588,393.3913458406617
0.2777314453125,-0.1259501953125,1.3669970703125005,1.400599585055481,-0.99169921875,-2.12158203125,-0.91357421875,44.85941176470588,393.3913458406617
0.1043916015625,-0.0492900390625,1.3850634765625005,1.3898661620943815,-1.091796875,-1.365234375,-0.1728515625,45.00058823529412,394.4587316533198
0.0511689453125,0.0205341796875,1.3372119140625005,1.3383480924671758,-0.8828125,-0.56396484375,0.708984375,44.29470588235294,394.4587316533198
0.0453095703125,0.1001240234375,1.2454150390625005,1.2502545327869303,-0.755859375,-0.16064453125,1.103515625,45.00058823529412,394.4587316533198
0.0853486328125,0.1582294921875,1.1565478515625005,1.170437479865846,-0.61328125,0.134765625,1.1357421875,45.00058823529412,394.4587316533198
0.1390595703125,0.1904560546875,1.0877001953125005,1.1129702546543985,-0.5810546875,0.33544921875,0.6826171875,45.235882352941175,394.4587316533198
0.1522431640625,0.2036396484375,1.0017626953125005,1.0335258028415524,-0.3681640625,0.33837890625,0.49853515625,44.85941176470588,394.2940810706305
0.1659150390625,0.1928974609375,0.8879931640625001,0.923725657349072,-0.380859375,0.22607421875,-0.06982421875,45.04764705882353,394.2940810706305
0.1410126953125,0.1596943359375,0.8176806640625001,0.8449784195773914,-0.25048828125,-0.02197265625,-0.1650390625,44.81235294117647,394.2940810706305
0.0907197265625,0.1191669921875,0.7444384765625001,0.7593546511356116,-0.158203125,0.04248046875,0.0654296875,45.04764705882353,394.2940810706305
0.0858369140625,0.0874287109375,0.6668017578125001,0.6779648512524864,0.15283203125,-0.14208984375,0.26220703125,44.906470588235294,393.9507148052189
0.0536103515625,0.0508076171875,0.5505908203125001,0.5555229384744775,0.4033203125,-0.5498046875,0.33056640625,44.85941176470588,393.9507148052189
0.0311494140625,0.0302998046875,0.4861376953125,0.4880760421945405,0.34423828125,-1.111328125,0.3193359375,45.04764705882353,393.9507148052189
0.0062470703125,0.0024677734375,0.4670947265625,0.4671430181172837,0.37890625,-1.58544921875,0.23583984375,44.81235294117647,393.9507148052189
-0.0352568359375,-0.0463603515625,0.4602587890625,0.4639293907337638,0.32666015625,-1.69580078125,0.31689453125,44.81235294117647,393.9507148052189
-0.0220732421875,-0.0468486328125,0.5188525390625001,0.5214307046086485,0.32763671875,-1.40380859375,0.29833984375,44.85941176470588,394.01569784403074
0.0052705078125,-0.0707744140625,0.5042041015625001,0.5091744023131364,0.46435546875,-1.48193359375,0.2421875,45.00058823529412,394.01569784403074
0.0169892578125,-0.0903056640625,0.5154345703125001,0.5235614043414777,0.3486328125,-1.5390625,0.22216796875,44.15352941176471,394.01569784403074
0.0106416015625,-0.0834697265625,0.5559619140625001,0.562293596641712,0.28466796875,-1.0673828125,0.2138671875,45.00058823529412,394.01569784403074
-0.0044951171875,-0.0859111328125,0.5774462890625001,0.5838194460376502,0.29931640625,-0.55615234375,0.25537109375,44.906470588235294,393.41241965190056
-0.0162138671875,-0.0878642578125,0.5901416015625001,0.5968669258594146,0.27490234375,0.03759765625,0.2353515625,45.235882352941175,393.41241965190056
-0.0342802734375,-0.0776103515625,0.6135791015625001,0.6194173211098067,0.22314453125,0.61474609375,0.2275390625,44.81235294117647,393.41241965190056
-0.0420927734375,-0.0546611328125,0.6555712890625001,0.6591914411300214,0.2685546875,0.96875,0.26513671875,45.00058823529412,393.41241965190056
-0.0420927734375,-0.0395244140625,0.6892626953125001,0.6916769795447127,0.310546875,1.2255859375,0.20166015625,44.906470588235294,393.41241965190056
-0.0503935546875,-0.0190166015625,0.7253955078125001,0.7273924554486277,0.349609375,1.19775390625,0.0712890625,45.04764705882353,393.25040792672354
-0.0445341796875,-0.0136455078124999,0.7937548828125001,0.7951203097849943,0.37451171875,1.0654296875,-0.111328125,44.85941176470588,393.25040792672354
-0.0333037109375,2.6367187500001e-05,0.8743212890625001,0.8749553442121197,0.49951171875,0.79443359375,-0.26416015625,45.04764705882353,393.25040792672354
-0.0206083984375,0.0058857421875,0.9314501953125,0.9316967395000108,0.353515625,0.54833984375,-0.453125,45.04764705882353,393.25040792672354
-0.0035185546874999,0.0063740234375,1.0178759765625005,1.0179020149626066,0.38916015625,0.2158203125,-0.498046875,45.00058823529412,392.9931309247953
0.0374970703125,-0.0009501953124999,1.1111376953125005,1.1117706198211603,0.53759765625,-0.16259765625,-0.6806640625,44.906470588235294,392.9931309247953
0.0555634765625,-0.0180400390625,1.1892626953125005,1.190696645413533,0.6884765625,-0.43994140625,-1.0263671875,44.85941176470588,392.9931309247953
-0.0059599609375,-0.0390361328125,1.2302783203125005,1.2309118921475568,0.931640625,-0.4609375,-1.07470703125,45.235882352941175,392.9931309247953
-0.0489287109375,-0.0605205078125,1.2214892578125005,1.223965995267524,1.0146484375,-0.2666015625,-0.923828125,45.33,392.9931309247953
-0.0567412109375,-0.0458720703125,1.2263720703125005,1.2285407061615732,0.8779296875,0.2080078125,-0.8974609375,45.235882352941175,392.67000183080654
-0.0865263671875,-0.0453837890625,1.2874072265625005,1.2911095490056932,0.91064453125,0.66650390625,-0.55078125,45.04764705882353,392.67000183080654
-0.1573271484375,-0.0893291015625,1.3655322265625005,1.377464983875154,1.1455078125,1.10205078125,0.4091796875,44.906470588235294,392.67000183080654
-0.1275419921875,-0.0673564453125,1.4143603515625005,1.4216958375715572,1.1513671875,1.1611328125,0.73876953125,44.24764705882353,392.67000183080654
-0.1417021484375,-0.0815166015625,1.4133837890625005,1.4228064486734564,1.28955078125,1.3095703125,0.87939453125,44.81235294117647,392.2726967260275
-0.1001982421875,-0.0243876953125,1.4002001953125005,1.4039925335888663,1.208984375,1.55126953125,0.845703125,44.85941176470588,392.2726967260275
-0.1182646484375,0.0493427734375,1.5046923828125005,1.5101391999595632,1.16259765625,1.80859375,0.41064453125,44.29470588235294,392.2726967260275
-0.1485380859375,0.1220966796875,1.6360400390625005,1.647300267583392,1.251953125,2.0751953125,0.251953125,45.00058823529412,392.2726967260275
-0.1172880859375,0.1953388671875,1.7585986328125005,1.7732971887044129,1.509765625,2.27587890625,0.03759765625,44.85941176470588,392.2726967260275
0.0052705078125,0.2373310546875,1.7092822265625005,1.7256881345753472,1.36767578125,2.24951171875,-0.2255859375,44.85941176470588,391.3161524189725
0.0335908203125,0.3403583984375,1.6892626953125005,1.7235372454260047,0.7275390625,3.12451171875,0.0732421875,45.00058823529412,391.3161524189725
0.2367158203125,0.2397724609375,1.5769580078125005,1.612551323528716,0.5283203125,4.3505859375,-0.27587890625,45.09470588235294,391.3161524189725
0.5003876953125,0.1792255859375,1.3176806640625005,1.4208419999137791,0.4482421875,4.23046875,-0.99169921875,45.00058823529412,391.3161524189725
0.5609345703125,0.0986591796875,1.1443408203125005,1.2782398597062157,-0.14990234375,3.90478515625,-1.0283203125,45.04764705882353,392.1436294473601
0.6600556640625,0.1103779296875,1.0017626953125005,1.204734520441268,-0.60546875,2.88916015625,-0.5625,45.04764705882353,392.1436294473601
0.6825166015625,0.1562763671875,0.9719775390625,1.197911328434513,-0.7431640625,2.00927734375,-0.3974609375,45.04764705882353,392.1436294473601
0.6288056640625,0.2153583984375,0.9417041015625,1.1526414957974929,-0.72705078125,1.13916015625,-0.75341796875,45.00058823529412,392.1436294473601
0.5052705078125,0.2719990234375,0.9304736328125,1.0931893414113345,-0.73681640625,0.30712890625,-1.001953125,45.47117647058823,392.1436294473601
0.3138642578125,0.2890888671875,0.9939501953125,1.0816746905727712,-0.4111328125,-0.34228515625,-0.91357421875,45.28294117647059,394.5008869937064
0.1766572265625,0.3032490234375,1.0349658203125005,1.092850399243958,0.13671875,-0.7529296875,-0.6767578125,45.00058823529412,394.5008869937064
-0.0025419921874999,0.2270771484375,1.0623095703125005,1.0863112428048955,0.498046875,-0.86474609375,-0.12060546875,45.00058823529412,394.5008869937064
-0.0801787109375,0.1694599609375,1.1057666015625005,1.1215458444395483,0.85986328125,-0.28857421875,1.01904296875,44.48294117647059,394.5008869937064
-0.0665068359375,0.1826435546875,1.1052783203125005,1.1222397215604718,0.9453125,0.412109375,1.306640625,45.47117647058823,394.4139487890818
0.0062470703125,0.1816669921875,1.0813525390625005,1.0965241610082554,0.93603515625,0.7275390625,0.84375,45.00058823529412,394.4139487890818
0.0379853515625,0.1264912109375,1.0584033203125005,1.0666116921477502,0.89892578125,0.6826171875,0.404296875,44.906470588235294,394.4139487890818
0.0277314453125,0.0869404296875,1.0281298828125005,1.0321718496962669,0.94873046875,0.68505859375,0.16455078125,44.81235294117647,394.4139487890818
0.0365205078125,0.0088154296875,0.9465869140625,0.947332172559248,0.73876953125,0.6318359375,0.099609375,44.906470588235294,394.4139487890818
0.1087861328125,0.0024677734375,0.8518603515625001,0.8587820277359232,0.18310546875,0.515625,-0.66943359375,44.906470588235294,393.9928675247108
0.0145478515625,-0.0488017578125,0.8274462890625001,0.8290118291278942,-0.1455078125,0.57861328125,-0.9873046875,44.85941176470588,393.9928675247108
-0.0044951171875,-0.0561259765625,0.7986376953125001,0.800620072005246,-0.4658203125,0.66796875,-1.130859375,44.906470588235294,393.9928675247108
-0.0406279296875,-0.0585673828125,0.7395556640625001,0.7429827368432753,-0.65869140625,0.6240234375,-1.0703125,45.00058823529412,393.9928675247108
-0.0630888671875,-0.0541728515625,0.6912158203125001,0.6961998371586258,-0.8095703125,0.65380859375,-0.91552734375,44.906470588235294,393.6275589889949
-0.0728544921875,-0.0439189453125,0.6360400390625001,0.6417036559658107,-0.91015625,0.70263671875,-0.68701171875,44.81235294117647,393.6275589889949
-0.0679716796875,-0.0146220703124999,0.5989306640625001,0.6029526470081303,-1.0625,0.93798828125,-0.53173828125,44.85941176470588,393.6275589889949
-0.0459990234375,0.0102802734375,0.5754931640625001,0.577420103617653,-1.10693359375,1.33154296875,-0.50927734375,44.85941176470588,393.6275589889949
