AccX,AccY,AccZ,Magnitude,GyroX,GyroY,GyroZ,Temperature,Altitude
-0.0503935546875,0.0405537109375,0.6956103515625001,0.6986113905639882,0.109375,-0.73388671875,0.0439453125,44.20058823529412,445.2696205748666
-0.0699248046875,0.0342060546875,0.7043994140625001,0.7086875665760354,0.15625,-0.6591796875,0.1376953125,44.29470588235294,445.2696205748666
-0.0899443359375,0.0224873046875,0.7322314453125001,0.7380776056376315,0.16259765625,-0.61865234375,0.30224609375,44.62411764705882,445.2696205748666
-0.0972685546875,0.0263935546875,0.7673876953125001,0.7739778203392315,0.22119140625,-0.58984375,0.5625,44.059411764705885,445.3310926444946
-0.0982451171875,0.0390888671875,0.8035205078125001,0.810447560959033,0.3173828125,-0.609375,0.80517578125,44.29470588235294,445.3310926444946
-0.1021513671875,0.0429951171875,0.8308642578125001,0.838223655613798,0.3505859375,-0.7001953125,1.00341796875,44.34176470588236,445.3310926444946
-0.1163115234375,0.0415302734375,0.8860400390625001,0.8946061060142738,0.3466796875,-0.72314453125,1.09228515625,44.34176470588236,445.3310926444946
-0.1236357421875,0.0478779296875,0.8943408203125001,0.9041148133808288,0.35205078125,-0.7001953125,1.1611328125,44.15352941176471,445.3310926444946
-0.1387724609375,0.0473896484375,0.9221728515625,0.933759253155005,0.2578125,-0.61572265625,1.21484375,44.71823529411765,444.734393946986
-0.1353544921875,0.0522724609375,0.9583056640625,0.9692280405054672,0.1455078125,-0.51416015625,1.1826171875,44.48294117647059,444.734393946986
-0.1348662109375,0.0366474609375,0.9675830078125,0.9776240628448588,0.07861328125,-0.416015625,1.08935546875,44.48294117647059,444.734393946986
-0.1622099609375,0.0327412109375,1.0007861328125005,1.0143751485278012,0.0263671875,-0.2451171875,1.10986328125,43.54176470588236,444.734393946986
-0.1739287109375,0.0415302734375,1.0627978515625005,1.077736161305744,-0.029296875,-0.119140625,1.216796875,44.29470588235294,444.77611375392513
-0.1495146484375,0.0581318359375,1.0964892578125005,1.108161826154042,0.03173828125,-0.08056640625,1.3623046875,44.29470588235294,444.77611375392513
-0.0953154296875,0.0776630859375,1.0686572265625005,1.0757066765332004,0.068359375,-0.16064453125,1.4482421875,44.29470588235294,444.77611375392513
-0.0513701171875,0.1113544921875,1.0149462890625005,1.02232806943365,0.0712890625,-0.14306640625,1.322265625,44.20058823529412,444.77611375392513
-0.0372099609375,0.1147724609375,1.0276416015625005,1.0347002272371262,0.03857421875,-0.02685546875,1.10791015625,44.76529411764706,444.77611375392513
-0.0274443359375,0.1103779296875,1.0598681640625005,1.0659535656539474,-0.02685546875,0.150390625,0.916015625,44.29470588235294,445.2293025329993
-0.0245146484375,0.1191669921875,1.1013720703125005,1.108071377339688,-0.07958984375,0.34716796875,0.80029296875,44.059411764705885,445.2293025329993
-0.0191435546875,0.1260029296875,1.1482470703125005,1.1552984672616624,-0.08447265625,0.3974609375,0.73291015625,44.29470588235294,445.2293025329993
-0.0523466796875,0.1279560546875,1.2029345703125005,1.2108528016478368,-0.0615234375,0.294921875,0.7275390625,44.388823529411766,445.2293025329993
-0.1070341796875,0.1274677734375,1.2512744140625005,1.262296323441506,0.0888671875,0.19970703125,0.759765625,44.34176470588236,445.2161182399854
-0.1338896484375,0.1074482421875,1.3015673828125005,1.312840132959563,0.263671875,0.20263671875,0.6748046875,44.48294117647059,445.2161182399854
-0.1314482421875,0.0805927734375,1.3821337890625005,1.3907076063546917,0.3134765625,0.357421875,0.47705078125,43.447647058823534,445.2161182399854
-0.0938505859375,0.0674091796875,1.4714892578125005,1.4760191617470746,0.35986328125,0.419921875,0.28564453125,43.82411764705883,445.2161182399854
-0.0679716796875,0.0674091796875,1.5007861328125005,1.5038361490494838,0.4306640625,0.3212890625,0.17138671875,44.20058823529412,445.2161182399854
-0.0709013671875,0.0810810546875,1.6043017578125005,1.607913328329165,0.5654296875,0.2529296875,0.3583984375,43.40058823529412,444.67506096253777
0.0770478515625,0.0815693359375,1.7000048828125005,1.7037037681422271,0.7919921875,-0.27099609375,0.72021484375,44.20058823529412,444.67506096253777
0.2049775390625,0.0591083984375,1.5315478515625005,1.5463338630165464,1.201171875,-0.66748046875,0.484375,43.30647058823529,444.67506096253777
0.2625947265625,0.0102802734375,1.2244189453125005,1.2523032492493815,1.25048828125,-0.26611328125,-0.30029296875,44.34176470588236,444.67506096253777
0.3358369140625,-0.0575908203125,1.0730517578125005,1.1258522151578272,0.41845703125,0.22314453125,-1.29150390625,44.20058823529412,445.1392400252631
0.4149384765625,-0.1108134765625,1.0852587890625005,1.167150463803738,-0.255859375,0.572265625,-2.4931640625,44.15352941176471,445.1392400252631
0.4842744140625,-0.1410869140625,1.0076220703125005,1.1268227287449015,-0.99462890625,0.52294921875,-3.92041015625,43.40058823529412,445.1392400252631
0.4203095703125,-0.1244853515625,0.9109423828125,1.0109266850044236,-1.53955078125,0.29345703125,-4.91796875,44.29470588235294,445.1392400252631
0.2347626953125,-0.0917705078125,0.8513720703125001,0.887901881585317,-1.85693359375,0.04296875,-4.591796875,44.34176470588236,445.1392400252631
0.0287080078125,-0.0683330078125,0.8674853515625001,0.8706459583807761,-1.83251953125,0.04736328125,-3.1533203125,44.29470588235294,446.38105919420354
-0.1148466796875,-0.0805400390625,0.9211962890625,0.9318149283575324,-1.2548828125,0.14404296875,-1.0869140625,44.15352941176471,446.38105919420354
-0.1236357421875,-0.1049541015625,0.9778369140625,0.9911943253894864,-0.76416015625,0.55126953125,0.2236328125,44.059411764705885,446.38105919420354
-0.0831083984375,-0.1474345703125,1.0354541015625005,1.0491945266997358,-0.22998046875,1.0126953125,0.857421875,44.48294117647059,446.38105919420354
-0.0171904296875,-0.1615947265625,1.0369189453125005,1.049575755090426,0.228515625,1.35498046875,1.22265625,44.20058823529412,446.6190392521946
0.0472626953125,-0.1396220703125,1.0154345703125005,1.0260777024535144,0.44189453125,1.46875,1.58837890625,44.76529411764706,446.6190392521946
0.0731416015625,-0.0761455078125,0.9963916015625,1.0019700873296742,0.50439453125,1.22998046875,1.81103515625,44.34176470588236,446.6190392521946
0.0858369140625,-0.0253642578125,1.0261767578125005,1.0300728419217386,0.60595703125,1.0546875,2.08544921875,44.059411764705885,446.6190392521946
0.1043916015625,0.0093037109375,1.0496142578125005,1.0548337573842042,0.73291015625,0.6953125,2.18212890625,43.447647058823534,446.6190392521946
0.1087861328125,0.0298115234375,1.0691455078125005,1.0750791908029904,0.8583984375,0.5888671875,2.099609375,44.20058823529412,445.624675231444
0.1043916015625,0.0337177734375,1.0168994140625005,1.0227995468531568,0.83984375,0.66357421875,1.8671875,44.29470588235294,445.624675231444
0.1122041015625,0.0219990234375,0.9734423828125,0.9801345775429664,0.62939453125,0.76806640625,1.470703125,44.15352941176471,445.624675231444
0.1034150390625,-0.0102275390624999,0.9539111328125,0.9595549604703216,0.38330078125,0.7763671875,1.01708984375,44.20058823529412,445.624675231444
0.0804658203125,-0.0209697265625,0.9641650390625,0.9677441295203304,0.228515625,0.71826171875,0.5849609375,44.15352941176471,445.34351571684977
0.0457978515625,-0.0209697265625,0.9299853515625,0.9313484454062688,0.154296875,0.61669921875,0.30810546875,44.15352941176471,445.34351571684977
0.0160126953125,-0.0273173828125,0.8962939453125001,0.8968530995758126,0.08447265625,0.67333984375,0.11083984375,44.76529411764706,445.34351571684977
-0.0001005859374999,-0.0253642578125,0.8713916015625001,0.8717606775747393,-0.07177734375,1.09912109375,-0.09765625,44.34176470588236,445.34351571684977
-0.0132841796875,-0.0155986328124999,0.8582080078125001,0.8584525446692375,-0.205078125,1.8349609375,-0.4267578125,44.15352941176471,445.34351571684977
-0.0518583984375,-0.0258525390625,0.8342822265625001,0.8362921025709638,-0.34228515625,2.59912109375,-0.814453125,44.34176470588236,445.5697631793079
-0.0474638671875,-0.0331767578125,0.8093798828125001,0.8114488958948174,-0.4404296875,3.296875,-1.20947265625,44.29470588235294,445.5697631793079
-0.1407255859375,-0.0717509765625,0.7327197265625001,0.7495532608620618,-0.5859375,3.572265625,-1.09423828125,44.76529411764706,445.5697631793079
-0.1163115234375,-0.0634501953125,0.8069384765625001,0.8177432376525989,-0.84375,4.47705078125,-0.9599609375,44.34176470588236,445.5697631793079
-0.0669951171875,-0.0629619140625,0.7195361328125001,0.7253859626241386,-0.431640625,3.4404296875,-0.86376953125,44.29470588235294,445.9146380537614
-0.0547880859375,-0.0776103515625,0.6223681640625001,0.6295770267956707,0.18505859375,1.56201171875,-0.5576171875,44.48294117647059,445.9146380537614
-0.0826201171875,-0.0771220703125,0.6829150390625001,0.6922043398239414,0.349609375,-0.21044921875,-0.4189453125,44.388823529411766,445.9146380537614
-0.1334013671875,-0.0810283203125,0.7942431640625001,0.8094341956701426,0.44091796875,0.03271484375,-0.3740234375,44.29470588235294,445.9146380537614
-0.0918974609375,-0.0658916015625,0.7869189453125001,0.7950020584721577,0.18505859375,0.546875,-0.1005859375,44.29470588235294,445.9146380537614
-0.0792021484375,-0.0326884765625,0.7927783203125001,0.7973951228685826,0.1201171875,0.6484375,-0.123046875,44.29470588235294,445.3208199620161
-0.0933623046875,-0.0234111328125,0.8074267578125001,0.8131436344876173,0.14501953125,0.693359375,-0.2060546875,44.20058823529412,445.3208199620161
-0.1138701171875,-0.0414775390625,0.8064501953125001,0.8155051853633708,0.125,0.5810546875,-0.3701171875,44.29470588235294,445.3208199620161
-0.1290068359375,-0.0468486328125,0.8064501953125001,0.818046132950077,0.08984375,0.42626953125,-0.49951171875,44.76529411764706,445.3208199620161
-0.1500029296875,-0.0663798828125,0.8157275390625001,0.8320568404514183,0.12939453125,0.42138671875,-0.42919921875,43.96529411764706,445.3105684270067
-0.1602568359375,-0.0693095703125,0.8264697265625001,0.844711950268194,0.13427734375,0.369140625,-0.271484375,44.29470588235294,445.3105684270067
-0.1744169921875,-0.0551494140625,0.8347705078125001,0.854578577866723,0.12158203125,0.4482421875,-0.208984375,44.20058823529412,445.3105684270067
-0.2012724609375,-0.0610087890625,0.8372119140625001,0.8632244580194106,0.20703125,0.47705078125,-0.10205078125,43.54176470588236,445.3105684270067
-0.2222685546875,-0.0517314453125,0.8142626953125001,0.8456377414795107,0.27490234375,0.47021484375,-0.06787109375,44.059411764705885,445.3105684270067
-0.2491240234375,-0.0605205078125,0.8196337890625001,0.8587927917096893,0.3701171875,0.56591796875,-0.12109375,44.20058823529412,445.4079483753299
-0.2559599609375,-0.0483134765625,0.8621142578125001,0.9006057334618072,0.37744140625,0.833984375,-0.2412109375,44.059411764705885,445.4079483753299
-0.2388701171875,-0.0307353515625,0.9187548828125,0.949796888504406,0.39013671875,1.185546875,-0.32568359375,44.15352941176471,445.4079483753299
-0.1944365234375,-0.0126689453124999,0.9568408203125,0.9764785810441982,0.49951171875,1.46435546875,-0.34619140625,44.29470588235294,445.4079483753299
-0.1460966796875,-0.0141337890624999,0.9705126953125,0.9815492323728386,0.57666015625,1.64892578125,-0.458984375,44.62411764705882,445.7850350398919
-0.1133818359375,-0.0458720703125,0.9519580078125,0.9597831714474144,0.5947265625,1.625,-0.57470703125,43.40058823529412,445.7850350398919
-0.1109404296875,-0.0566142578125,0.9539111328125,0.9620080053879668,0.4638671875,1.4541015625,-0.7783203125,44.15352941176471,445.7850350398919
-0.1587919921875,-0.0571025390625,0.9998095703125,1.0139500843920894,0.42041015625,1.525390625,-1.01708984375,44.29470588235294,445.7850350398919
-0.2139677734375,-0.0658916015625,1.0281298828125005,1.05222381989685,0.42236328125,1.623046875,-1.1708984375,43.96529411764706,445.7850350398919
-0.2486357421875,-0.0810283203125,1.0706103515625005,1.1020852262228065,0.46923828125,1.830078125,-1.0869140625,44.48294117647059,445.18024202092806
-0.2554716796875,-0.0761455078125,1.1433642578125005,1.1740297029996754,0.40283203125,1.89697265625,-1.033203125,44.20058823529412,445.18024202092806
-0.2520537109375,-0.0575908203125,1.2678759765625005,1.2939695775890347,0.328125,1.7255859375,-0.96337890625,44.76529411764706,445.18024202092806
-0.2178740234375,-0.0507548828125,1.3992236328125005,1.4169939741717907,0.31298828125,1.31298828125,-0.95166015625,43.40058823529412,445.18024202092806
-0.1705107421875,-0.0673564453125,1.4470751953125005,1.4586423224406933,0.2255859375,0.94482421875,-1.103515625,43.54176470588236,444.8449113605869
-0.1583037109375,-0.0683330078125,1.4539111328125005,1.46409939791307,0.02880859375,0.77587890625,-1.3857421875,44.20058823529412,444.8449113605869
-0.1148466796875,-0.0512431640625,1.4304736328125005,1.4359910988130016,-0.16259765625,0.78466796875,-1.6513671875,44.29470588235294,444.8449113605869
-0.0152373046875,-0.0214580078125,1.3450244140625005,1.34528186488096,-0.35986328125,0.6396484375,-1.6787109375,44.20058823529412,444.8449113605869
0.0589814453125,0.0273701171875,1.2459033203125005,1.247598900998122,-0.5009765625,0.56298828125,-1.568359375,44.059411764705885,444.8449113605869
0.0907197265625,0.0786396484375,1.2068408203125005,1.212798016434104,-0.48291015625,0.6005859375,-1.2080078125,44.29470588235294,444.9203234548325
0.1092744140625,0.1260029296875,1.1668017578125005,1.1786619438553518,-0.3544921875,0.2861328125,-0.59765625,44.29470588235294,444.9203234548325
0.1019501953125,0.1548115234375,1.0935595703125005,1.109158682937368,-0.24951171875,-0.373046875,0.19140625,44.76529411764706,444.9203234548325
0.0575166015625,0.1733662109375,1.0564501953125005,1.0721245346161727,-0.0400390625,-0.73828125,0.6484375,43.447647058823534,444.9203234548325
-0.0279326171875,0.1538349609375,1.0964892578125005,1.1075802990337962,0.1318359375,-0.75927734375,0.515625,43.447647058823534,445.4277227420396
-0.1553740234375,0.0913349609375,1.2336962890625005,1.246791761239701,0.47216796875,-0.173828125,0.384765625,44.34176470588236,445.4277227420396
-0.1973662109375,0.0278583984375,1.3059619140625005,1.3210851723356514,0.640625,1.02734375,0.40283203125,44.059411764705885,445.4277227420396
-0.0738310546875,0.0498310546875,1.2703173828125005,1.273436457670008,0.546875,1.12841796875,-0.14306640625,44.388823529411766,445.4277227420396
-0.0733427734375,0.0918232421875,1.2688525390625005,1.2742831067336184,0.87255859375,1.22216796875,-0.791015625,44.71823529411765,445.4277227420396
-0.1001982421875,0.0830341796875,1.1829150390625005,1.1900514074501478,0.8271484375,1.34033203125,-0.98779296875,43.30647058823529,445.4709223596318
-0.1001982421875,0.0659443359375,1.1585009765625005,1.164694318641578,0.8916015625,1.58984375,-0.8251953125,44.15352941176471,445.4709223596318
-0.0796904296875,0.0254169921875,1.0857470703125005,1.088964319327229,0.72021484375,1.7060546875,-0.56494140625,44.15352941176471,445.4709223596318
-0.0250029296875,-0.0146220703124999,1.0349658203125005,1.035371044914966,0.68212890625,1.400390625,-0.2333984375,44.29470588235294,445.4709223596318
0.0160126953125,-0.0219462890625,0.9924853515625,0.9928570990232808,0.4775390625,1.0419921875,-0.24267578125,43.40058823529412,445.3735410462415
0.0106416015625,-0.0077861328124999,0.9880908203125,0.9881787979580507,0.201171875,0.76904296875,-0.74755859375,44.15352941176471,445.3735410462415
-0.0030302734374999,0.0083271484375,0.9558642578125,0.9559053317780206,0.0185546875,0.53759765625,-1.3388671875,44.388823529411766,445.3735410462415
-0.0528349609375,0.0024677734375,0.9255908203125,0.9271008519302378,-0.181640625,0.30615234375,-1.71435546875,44.29470588235294,445.3735410462415
-0.0826201171875,-0.0112041015624999,0.8860400390625001,0.8899542496543155,-0.26708984375,0.115234375,-1.60205078125,43.58882352941177,445.3735410462415
-0.0928740234375,-0.0116923828124999,0.8386767578125001,0.8438844708490554,-0.3349609375,-0.041015625,-1.47607421875,44.20058823529412,445.4064878530198
-0.1080107421875,-0.0126689453124999,0.7800830078125001,0.7876270193949817,-0.357421875,-0.1044921875,-1.35986328125,44.15352941176471,445.4064878530198
-0.1358427734375,-0.0312236328125,0.7317431640625001,0.7449001493444612,-0.3271484375,0.00439453125,-1.22998046875,44.388823529411766,445.4064878530198
-0.1529326171875,-0.0478251953125,0.7029345703125001,0.7209664658268901,-0.3466796875,0.1103515625,-1.08447265625,44.01235294117648,445.4064878530198
-0.1578154296875,-0.0561259765625,0.6746142578125001,0.6950972823543873,-0.44873046875,0.15869140625,-0.80126953125,44.29470588235294,445.838490107595
-0.1309599609375,-0.0385478515625,0.6365283203125001,0.6510028807837096,-0.4677734375,0.125,-0.62353515625,44.15352941176471,445.838490107595
-0.1265654296875,-0.0507548828125,0.6433642578125001,0.6576567754930539,-0.421875,0.423828125,-0.45849609375,44.29470588235294,445.838490107595
-0.1182646484375,-0.0507548828125,0.6248095703125001,0.6379260022553142,-0.390625,0.5146484375,-0.03759765625,44.29470588235294,445.838490107595
-0.1011748046875,-0.0263408203125,0.6169970703125001,0.6257919500061481,-0.38037109375,0.5283203125,0.26220703125,44.20058823529412,445.838490107595
-0.1006865234375,-0.0116923828124999,0.6194384765625001,0.6276770778543974,-0.33740234375,0.52685546875,0.50244140625,44.20058823529412,445.6327403768922
-0.1143583984375,-0.0068095703124999,0.6404345703125001,0.6506002247097579,-0.3447265625,0.51513671875,0.6181640625,44.29470588235294,445.6327403768922
-0.1387724609375,0.0039326171875,0.6668017578125001,0.6811004666085858,-0.3935546875,0.455078125,0.65185546875,43.40058823529412,445.6327403768922
-0.1778349609375,-0.0004619140624999,0.6995166015625001,0.7217679423178843,-0.31494140625,0.43505859375,0.80126953125,44.34176470588236,445.6327403768922
-0.1949248046875,-0.0082744140624999,0.7332080078125001,0.7587213771411169,-0.2880859375,0.40576171875,1.11083984375,44.34176470588236,445.31935953003625
-0.1890654296875,0.0005146484375,0.7737353515625001,0.7965000915401572,-0.28857421875,0.43505859375,1.2880859375,44.76529411764706,445.31935953003625
-0.1934599609375,-0.0033916015624999,0.8020556640625001,0.8250645718377657,-0.22509765625,0.287109375,1.43017578125,44.20058823529412,445.31935953003625
-0.2120146484375,-0.0072978515624999,0.8181689453125001,0.8452241672262298,-0.26171875,0.220703125,1.43017578125,44.34176470588236,445.31935953003625
-0.2271513671875,-0.0004619140624999,0.8333056640625001,0.8637107656723956,-0.28759765625,0.1865234375,1.49560546875,44.15352941176471,445.31935953003625
-0.2374052734375,0.0083271484375,0.8430712890625001,0.875899425561257,-0.29443359375,0.16259765625,1.44677734375,44.059411764705885,445.0162386117774
-0.2608427734375,0.0058857421875,0.8591845703125001,0.897926344573284,-0.32177734375,0.18798828125,1.5009765625,43.30647058823529,445.0162386117774
-0.2730498046875,0.0024677734375,0.8782275390625001,0.9196988072806204,-0.31396484375,0.3291015625,1.58154296875,44.059411764705885,445.0162386117774
-0.2989287109375,0.0049091796875,0.8870166015625001,0.9360453652016266,-0.30908203125,0.49072265625,1.57568359375,44.29470588235294,445.0162386117774
-0.3287138671875,0.0039326171875,0.9124072265625,0.969822261573108,-0.2919921875,0.65576171875,1.6513671875,44.48294117647059,445.0814013000333
-0.3335966796875,0.0093037109375,0.9607470703125,1.0170586201639435,-0.29345703125,0.78076171875,1.8486328125,44.48294117647059,445.0814013000333
-0.3194365234375,0.0166279296875,0.9929736328125,1.0432223233867184,-0.2177734375,0.89111328125,1.94287109375,44.34176470588236,445.0814013000333
-0.3042998046875,0.0278583984375,1.0022509765625005,1.0477983973631753,-0.08984375,1.02392578125,2.05078125,44.48294117647059,445.0814013000333
-0.2740263671875,0.0547138671875,1.0090869140625005,1.0470627762024445,-0.02978515625,1.0400390625,2.107421875,44.29470588235294,445.0814013000333
-0.2652373046875,0.0859638671875,1.0349658203125005,1.071865133062386,0.0390625,1.05029296875,1.9921875,44.29470588235294,444.8968960457647
-0.2793974609375,0.1079365234375,1.0408251953125005,1.083065243402908,0.09326171875,1.0615234375,1.92724609375,44.29470588235294,444.8968960457647
-0.2916044921875,0.1245380859375,1.0745166015625005,1.1203253285302135,0.1748046875,1.09423828125,1.88427734375,44.76529411764706,444.8968960457647
-0.2740263671875,0.1323505859375,1.1047900390625005,1.1459354946608902,0.24169921875,1.0703125,1.73583984375,44.059411764705885,444.8968960457647
-0.2847685546875,0.1177021484375,1.1130908203125005,1.1549537219081836,0.3525390625,1.10595703125,1.56396484375,44.388823529411766,445.09311447560685
-0.3126005859375,0.0962177734375,1.1311572265625005,1.1774946528363963,0.400390625,1.2001953125,1.30322265625,44.059411764705885,445.09311447560685
-0.3619169921875,0.0776630859375,1.1858447265625005,1.2422733916765156,0.43798828125,1.4140625,0.900390625,44.059411764705885,445.09311447560685
-0.4092802734375,0.0644794921875,1.2688525390625005,1.3347863922827452,0.46533203125,1.64208984375,0.6142578125,44.388823529411766,445.09311447560685
-0.4092802734375,0.0566669921875,1.3650439453125005,1.426207019637391,0.50439453125,1.71728515625,0.51025390625,43.54176470588236,445.09311447560685
-0.3697294921875,0.0259052734375,1.3875048828125005,1.436154859481953,0.56103515625,1.615234375,0.453125,44.20058823529412,444.83319688209474
-0.3140654296875,-0.0448955078125,1.3928759765625005,1.4285503795216588,0.50634765625,1.47509765625,0.3662109375,44.29470588235294,444.83319688209474
-0.1758818359375,-0.1181376953125,1.3445361328125005,1.3611276015513345,0.3408203125,1.29052734375,0.20263671875,44.29470588235294,444.83319688209474
-0.0743193359375,-0.1576884765625,1.3147509765625005,1.3262575729121555,0.013671875,1.236328125,-0.04638671875,44.76529411764706,444.83319688209474
-0.1202177734375,-0.1723369140625,1.3650439453125005,1.3811217533704885,-0.162109375,1.24951171875,-0.1630859375,44.20058823529412,445.0374724515145
0.1068330078125,-0.1899150390625,1.4002001953125005,1.417053845333176,-0.44287109375,0.5673828125,-0.3642578125,44.29470588235294,445.0374724515145
0.0887666015625,-0.2030986328125,1.2966845703125005,1.3154920900901592,-0.61572265625,0.353515625,-0.7373046875,44.15352941176471,445.0374724515145
-0.0108427734375,-0.1933330078125,1.1838916015625005,1.1996226664646958,-0.8828125,0.4208984375,-1.03466796875,44.48294117647059,445.0374724515145
-0.0513701171875,-0.2016337890625,1.1877978515625005,1.2058850733001258,-1.36181640625,0.33837890625,-1.29443359375,44.20058823529412,445.0374724515145
-0.0406279296875,-0.2153056640625,1.2268603515625005,1.2462718322597797,-1.72021484375,0.0400390625,-1.51025390625,44.76529411764706,445.112887310466
-0.0513701171875,-0.2006572265625,1.2742236328125005,1.290948518698363,-1.626953125,-0.2294921875,-1.43310546875,44.76529411764706,445.112887310466
-0.0972685546875,-0.1459697265625,1.2908251953125005,1.302688764692964,-1.328125,-0.50341796875,-0.97412109375,44.29470588235294,445.112887310466
-0.1485380859375,-0.1088603515625,1.2786181640625005,1.2918121181452225,-0.892578125,-0.92529296875,-0.134765625,44.059411764705885,445.112887310466
-0.1543974609375,-0.0878642578125,1.2268603515625005,1.239655204474595,-0.53369140625,-1.09130859375,0.5693359375,44.76529411764706,446.1929099536106
-0.1446318359375,-0.0761455078125,1.1804736328125005,1.1917359204505908,-0.28173828125,-1.140625,1.0986328125,44.76529411764706,446.1929099536106
-0.1377958984375,-0.0644267578125,1.1692431640625005,1.1790963037238795,-0.1123046875,-1.1591796875,1.54443359375,44.15352941176471,446.1929099536106
-0.1119169921875,-0.0351298828125,1.1506884765625005,1.156651845587273,0.00537109375,-1.2119140625,1.73779296875,44.29470588235294,446.1929099536106
-0.1031279296875,-0.0097392578124999,1.0925830078125005,1.0974825064596605,0.1513671875,-1.30419921875,1.72314453125,44.15352941176471,446.1929099536106
-0.1041044921875,-0.0024150390624999,1.0256884765625005,1.0309609248950191,0.1982421875,-1.32568359375,1.6181640625,44.76529411764706,445.5558652138192
-0.1055693359375,0.0093037109375,0.9602587890625,0.966089222432003,0.14599609375,-1.26904296875,1.50830078125,44.29470588235294,445.5558652138192
-0.1153349609375,0.0058857421875,0.9002001953125001,0.9075776478165468,0.0986328125,-1.1796875,1.4599609375,44.059411764705885,445.5558652138192
-0.1021513671875,0.0019794921875,0.9612353515625,0.9666499993798576,0.10205078125,-1.193359375,1.357421875,44.62411764705882,445.5558652138192
-0.1065458984375,-0.0092509765624999,0.7854541015625001,0.7927015546235343,0.12109375,-1.13232421875,1.0673828125,44.059411764705885,445.6312843839567
-0.1265654296875,-0.0351298828125,0.7346728515625001,0.74632239379599,0.0234375,-0.7841796875,0.7353515625,44.34176470588236,445.6312843839567
-0.1656279296875,-0.0556376953125,0.7166064453125001,0.737599458849904,-0.10205078125,0.0390625,0.52734375,44.34176470588236,445.6312843839567
-0.1612333984375,-0.0624736328125,0.6658251953125001,0.6879115890006692,-0.01220703125,0.5908203125,0.50390625,44.29470588235294,445.6312843839567
-0.1529326171875,-0.0732158203125,0.6013720703125001,0.6248178204051108,0.169921875,0.3203125,0.62109375,44.76529411764706,445.6312843839567
-0.1451201171875,-0.0707744140625,0.5657275390625001,0.5883166787981762,0.26318359375,-0.2568359375,0.65673828125,44.71823529411765,445.9336944379124
-0.1539091796875,-0.0444072265625,0.5579150390625001,0.580456051889515,0.3193359375,-1.20849609375,0.5107421875,44.20058823529412,445.9336944379124
-0.1583037109375,-0.0024150390624999,0.5691455078125001,0.5907558771382689,0.37451171875,-1.79833984375,0.1162109375,44.20058823529412,445.9336944379124
-0.1700224609375,0.0259052734375,0.6150439453125001,0.6386374363288461,0.38427734375,-2.3046875,-0.30419921875,44.15352941176471,445.9336944379124
-0.1880888671875,0.0376240234375,0.6848681640625001,0.7112224625571397,0.32177734375,-2.498046875,-0.55517578125,44.76529411764706,445.41528250842816
-0.1753935546875,0.0410419921875,0.7615283203125001,0.782542476027093,0.4306640625,-2.228515625,-0.470703125,44.34176470588236,445.41528250842816
-0.1592802734375,0.0249287109375,0.8298876953125001,0.8454024088955645,0.58642578125,-1.65673828125,-0.1953125,43.73,445.41528250842816
-0.1441435546875,0.0005146484375,0.8645556640625001,0.8764896607966993,0.68798828125,-0.9521484375,0.0634765625,44.20058823529412,445.41528250842816
-0.1431669921875,-0.0512431640625,0.8948291015625001,0.9076572979480212,0.79541015625,-0.18115234375,0.1708984375,44.48294117647059,445.41528250842816
-0.1192412109375,-0.0639384765625,0.8728564453125001,0.8832807986674159,0.74072265625,0.0673828125,-0.06640625,44.20058823529412,444.8749316991146
-0.1641630859375,-0.0932353515625,0.8689501953125001,0.889222577029586,0.80126953125,-0.009765625,-0.25048828125,44.76529411764706,444.8749316991146
-0.1910185546875,-0.1532939453125,0.8831103515625001,0.916444769171179,1.06201171875,0.2509765625,0.46533203125,44.48294117647059,444.8749316991146
-0.1832060546875,-0.1474345703125,0.8474658203125001,0.879488332836388,1.046875,-0.14501953125,0.68212890625,44.29470588235294,444.8749316991146
-0.2046904296875,-0.1239970703125,0.8684619140625001,0.9008326934724548,0.9990234375,-0.21240234375,0.5634765625,44.15352941176471,445.0696887038512
-0.2227568359375,-0.1215556640625,0.8616259765625001,0.8982180753635742,0.94970703125,-0.19091796875,0.50244140625,44.388823529411766,445.0696887038512
-0.2208037109375,-0.1318095703125,0.8401416015625001,0.8786159298952755,0.90673828125,-0.15234375,0.58154296875,44.20058823529412,445.0696887038512
-0.2144560546875,-0.1293681640625,0.8269580078125001,0.8640526997528847,0.87890625,-0.12060546875,0.69091796875,44.059411764705885,445.0696887038512
-0.2081083984375,-0.1025126953125,0.8337939453125001,0.8654653669790832,0.88427734375,-0.04345703125,0.78955078125,44.01235294117648,445.0696887038512
-0.2120146484375,-0.0693095703125,0.8811572265625001,0.9089510908801952,0.92431640625,0.228515625,0.7939453125,44.20058823529412,445.30764780732665
-0.2061552734375,-0.0448955078125,0.9617236328125,0.9845953226061482,0.92626953125,0.55126953125,0.677734375,44.20058823529412,445.30764780732665
-0.1963896484375,-0.0497783203125,0.9846728515625,1.005299656714735,0.9658203125,0.75634765625,0.7470703125,44.76529411764706,445.30764780732665
-0.1954130859375,-0.0571025390625,1.0315478515625005,1.0514456449033451,0.89892578125,0.99853515625,0.2392578125,44.29470588235294,445.30764780732665
-0.2212919921875,-0.0575908203125,1.0608447265625005,1.085208911807328,0.88427734375,1.01318359375,-0.3203125,44.20058823529412,445.1883029129213
-0.2686552734375,-0.0903056640625,1.0667041015625005,1.1037157284363617,0.88427734375,1.22265625,-0.45654296875,44.20058823529412,445.1883029129213
-0.2618193359375,-0.1474345703125,1.0930712890625005,1.1336186131882011,0.890625,1.46484375,-0.21630859375,44.20058823529412,445.1883029129213
-0.2291044921875,-0.1415751953125,1.0818408203125005,1.1148596166166789,0.6865234375,1.49267578125,-0.20458984375,44.34176470588236,445.1883029129213
-0.2159208984375,-0.1523173828125,1.0715869140625005,1.103685160668068,0.46728515625,1.37939453125,-0.244140625,44.20058823529412,445.1883029129213
-0.2994169921875,-0.1562236328125,1.1375048828125005,1.1865806829213192,0.33935546875,1.4912109375,-0.28125,43.54176470588236,445.0799408947939
-0.3648466796875,-0.1303447265625,1.2932666015625005,1.3500523508881666,0.06640625,1.7392578125,0.16015625,44.059411764705885,445.0799408947939
-0.3282255859375,-0.0478251953125,1.4021533203125005,1.440851560097036,0.0380859375,1.80859375,0.30615234375,43.54176470588236,445.0799408947939
-0.3165068359375,-0.0590556640625,1.4519580078125005,1.48722769107621,-0.02685546875,2.044921875,0.2314453125,44.34176470588236,445.0799408947939
-0.2715849609375,-0.0942119140625,1.5076220703125005,1.534782910594229,-0.22412109375,2.1572265625,0.0009765625,44.059411764705885,445.1231396949475
-0.1675810546875,-0.0981181640625,1.5540087890625005,1.566095112211474,-0.35107421875,2.15869140625,-0.19921875,44.059411764705885,445.1231396949475
0.0340791015625,-0.0790751953125,1.5447314453125005,1.5471294418419757,-0.52001953125,1.693359375,-0.2119140625,44.388823529411766,445.1231396949475
0.2113251953125,-0.0639384765625,1.4192431640625005,1.4363139022153677,-0.724609375,0.9599609375,-0.07470703125,44.29470588235294,445.1231396949475
0.2650361328125,-0.0014384765624999,1.3064501953125005,1.3330635145195056,-0.85791015625,0.337890625,-0.19091796875,44.34176470588236,445.1231396949475
0.2992158203125,0.1059833984375,1.1863330078125005,1.2280670149853783,-1.19189453125,-0.59375,-0.763671875,44.48294117647059,445.81434454919474
0.3011689453125,0.2011982421875,1.1086962890625005,1.1663579757779954,-1.5849609375,-1.84814453125,-1.28466796875,44.34176470588236,445.81434454919474
0.2274384765625,0.2607685546875,1.0520556640625005,1.1074970067773848,-1.4736328125,-3.10791015625,-1.3828125,44.29470588235294,445.81434454919474
0.0335908203125,0.3022724609375,1.1340869140625005,1.174159321599196,-1.11376953125,-4.0517578125,-0.86279296875,44.059411764705885,445.81434454919474
-0.1226591796875,0.2690693359375,1.2727587890625005,1.306659296465341,-0.3291015625,-3.88720703125,0.4541015625,44.48294117647059,445.9110045430913
-0.2623076171875,0.2031513671875,1.4412158203125005,1.478911357973752,0.6357421875,-2.35205078125,1.82861328125,44.059411764705885,445.9110045430913
-0.2964873046875,0.1025654296875,1.5022509765625005,1.534660348673551,1.283203125,0.1806640625,2.63330078125,43.54176470588236,445.9110045430913
-0.1402373046875,0.0615498046875,1.3826220703125005,1.3910782398550805,1.41259765625,0.76513671875,2.42333984375,44.388823529411766,445.9110045430913
-0.1124052734375,-0.0004619140624999,1.3889697265625005,1.39351069610831,1.75927734375,0.984375,1.669921875,43.96529411764706,445.9110045430913
-0.1001982421875,-0.0780986328125,1.3289111328125005,1.3349696187919968,1.74609375,1.322265625,1.00244140625,44.20058823529412,446.12774290163225
-0.0792021484375,-0.1376689453125,1.2659228515625005,1.2758473203830871,1.3056640625,1.66357421875,0.48828125,44.059411764705885,446.12774290163225
-0.0210966796875,-0.1757548828125,1.1682666015625005,1.1816013291515317,0.72314453125,1.84716796875,0.1337890625,44.15352941176471,446.12774290163225
0.0257783203125,-0.1904033203125,1.0564501953125005,1.073780685875835,0.146484375,1.74658203125,-0.05810546875,43.30647058823529,446.12774290163225
0.0316376953125,-0.1816142578125,0.9480517578125,0.9658088930512304,-0.22998046875,1.755859375,0.14794921875,44.15352941176471,445.8897663344273
0.0521455078125,-0.1308330078125,0.8396533203125001,0.8513836551344494,-0.4755859375,1.44970703125,0.34326171875,44.48294117647059,445.8897663344273
0.0067353515625,-0.1054423828125,0.7717822265625001,0.7789809152293902,-0.794921875,1.02783203125,0.46923828125,44.48294117647059,445.8897663344273
-0.0562529296875,-0.0624736328125,0.7312548828125001,0.7360713623911347,-1.1328125,0.84033203125,0.72412109375,44.34176470588236,445.8897663344273
-0.1167998046875,-0.0004619140624999,0.6868212890625001,0.6966820586530943,-1.3955078125,0.53857421875,1.115234375,44.29470588235294,445.8897663344273
-0.1475615234375,0.0390888671875,0.6462939453125001,0.664076958254685,-1.546875,0.13916015625,1.46630859375,44.15352941176471,445.8897663344273
-0.1548857421875,0.0693623046875,0.6287158203125001,0.6512175559333103,-1.65234375,-0.41845703125,1.55615234375,44.059411764705885,445.8897663344273
-0.1529326171875,0.1137958984375,0.6111376953125001,0.6401774555019025,-1.5302734375,-1.18408203125,1.32763671875,44.20058823529412,445.8897663344273
-0.1924833984375,0.1303974609375,0.5979541015625001,0.6415625176616951,-1.23486328125,-1.84375,0.9931640625,44.48294117647059,445.8897663344273
-0.2071318359375,0.1206318359375,0.5989306640625001,0.6451151661950281,-0.9306640625,-2.361328125,0.7978515625,44.15352941176471,445.8568204025086
-0.1861357421875,0.1089130859375,0.6165087890625001,0.6531398485771872,-0.65185546875,-2.62353515625,0.6806640625,44.76529411764706,445.8568204025086
-0.1680693359375,0.0893818359375,0.6389697265625001,0.6667223753117834,-0.34521484375,-2.259765625,0.65283203125,44.059411764705885,445.8568204025086
-0.1431669921875,0.0630146484375,0.6399462890625001,0.6587859185308853,-0.1728515625,-1.70458984375,0.619140625,44.48294117647059,445.8568204025086
-0.1299833984375,0.0449482421875,0.6340869140625001,0.6488314441597389,-0.08544921875,-1.1640625,0.59716796875,44.20058823529412,445.8568204025086
-0.1065458984375,0.0078388671875,0.6248095703125001,0.633877334716054,-0.19482421875,-0.9091796875,0.81591796875,44.20058823529412,445.4899727580468
-0.0962919921875,0.0283466796875,0.6785205078125001,0.6859050674334431,-0.11865234375,-1.01220703125,1.17138671875,44.29470588235294,445.4899727580468
-0.0840849609375,0.0127216796875,0.6443408203125001,0.6499286226278373,-0.3095703125,-1.78662109375,1.482421875,43.777058823529416,445.4899727580468
-0.0840849609375,0.0302998046875,0.6804736328125001,0.6863182379720087,-0.53662109375,-2.8017578125,1.716796875,43.54176470588236,445.4899727580468
-0.1192412109375,0.0459248046875,0.7268603515625001,0.7380064530510473,-0.6650390625,-3.7138671875,1.7685546875,44.34176470588236,445.2629904567063
-0.1421904296875,0.0469013671875,0.7703173828125001,0.7847335387262815,-0.8701171875,-4.27099609375,1.81689453125,43.447647058823534,445.2629904567063
-0.1543974609375,0.0576435546875,0.8582080078125001,0.8738892035117826,-0.9501953125,-4.41162109375,1.91748046875,44.71823529411765,445.2629904567063
-0.1617216796875,0.0483662109375,0.8948291015625001,0.9106109559216538,-0.93896484375,-4.18896484375,2.0498046875,44.48294117647059,445.2629904567063
-0.1709990234375,0.0600849609375,0.9832080078125,0.9997744021398351,-0.77783203125,-3.736328125,2.2490234375,44.29470588235294,445.2629904567063
-0.1719755859375,0.0469013671875,1.0252001953125005,1.040581943371781,-0.521484375,-3.1044921875,2.45751953125,44.71823529411765,445.26371925889526
-0.1509794921875,0.0327412109375,1.0501025390625005,1.061405736040822,-0.35498046875,-2.30224609375,2.5517578125,44.20058823529412,445.26371925889526
-0.1065458984375,0.0268818359375,1.0823291015625005,1.0878928925525315,-0.224609375,-1.66943359375,2.52197265625,44.34176470588236,445.26371925889526
-0.0430693359375,0.0342060546875,1.0847705078125005,1.0861639270824506,-0.0703125,-1.17919921875,2.26904296875,44.34176470588236,445.26371925889526
0.0062470703125,0.0610615234375,1.0476611328125005,1.0494576621941305,-0.25927734375,-1.15771484375,1.86181640625,44.15352941176471,445.0901934208483
-0.0074248046875,0.1108662109375,1.0354541015625005,1.0413988865439077,-0.3701171875,-1.16650390625,1.21826171875,44.20058823529412,445.0901934208483
-0.0992216796875,0.1723896484375,1.0515673828125005,1.0702135736401146,-0.45068359375,-1.0439453125,0.6865234375,44.48294117647059,445.0901934208483
-0.1993193359375,0.1992451171875,1.1292041015625005,1.1638422218613655,-0.42724609375,-0.9560546875,0.43701171875,44.29470588235294,445.0901934208483
-0.2588896484375,0.1968037109375,1.2273486328125005,1.26970083766751,-0.1875,-0.69677734375,0.4296875,44.059411764705885,445.0901934208483
-0.2945341796875,0.1504169921875,1.2766650390625005,1.3188060041216745,0.14794921875,0.13720703125,0.3935546875,44.20058823529412,444.7768233139177
-0.3082060546875,0.0976826171875,1.3147509765625005,1.3539213404842552,0.466796875,1.77587890625,0.1943359375,44.15352941176471,444.7768233139177
-0.3057646484375,0.0483662109375,1.3206103515625005,1.3564081285691962,0.48828125,2.986328125,-0.234375,44.29470588235294,444.7768233139177
-0.3282255859375,-0.0068095703124999,1.3362353515625005,1.3759735899635628,0.33203125,3.529296875,-0.70263671875,44.20058823529412,444.7768233139177
-0.3545927734375,-0.0649150390625,1.4578173828125005,1.5017261797347985,0.40576171875,3.029296875,-0.8583984375,43.40058823529412,444.9276513015121
-0.2662138671875,-0.1850322265625,1.5515673828125005,1.5850766831157517,0.4892578125,1.76806640625,-0.7451171875,44.34176470588236,444.9276513015121
-0.0616240234375,-0.2553447265625,1.5095751953125005,1.532258372452465,0.08935546875,0.96533203125,-0.70556640625,43.73,444.9276513015121
0.0960908203125,-0.1952861328125,1.4543994140625005,1.4705943611487615,-0.48779296875,0.9833984375,-0.66845703125,43.63588235294118,444.9276513015121
0.1957001953125,-0.1147197265625,1.4739306640625005,1.4912849441242435,-0.70068359375,1.0771484375,-0.54345703125,44.34176470588236,444.9276513015121
0.3109345703125,-0.0522197265625,1.4802783203125005,1.513483106098274,-0.69873046875,0.69775390625,-0.3701171875,44.76529411764706,444.8412548722856
0.4417939453125,-0.0058330078124999,1.3679736328125005,1.4375561812204607,-0.84326171875,0.49853515625,0.02294921875,44.20058823529412,444.8412548722856
0.6039033203125,0.0024677734375,1.1838916015625005,1.3290239405068751,-0.763671875,1.07421875,-0.0546875,43.73,444.8412548722856
0.6493134765625,-0.0571025390625,1.0740283203125005,1.2563461002631222,-0.4296875,1.37744140625,0.3017578125,44.059411764705885,444.8412548722856
0.5873017578125,-0.1445048828125,0.9675830078125,1.141061739299759,-0.06201171875,1.31640625,1.197265625,44.059411764705885,445.3054619981013
0.5003876953125,-0.2338603515625,0.9182666015625,1.0715839030137746,0.107421875,1.53173828125,1.923828125,43.58882352941177,445.3054619981013
0.4881806640625,-0.3266337890625,0.9231494140625,1.0941731278028015,-0.0234375,1.80517578125,1.599609375,44.29470588235294,445.3054619981013
0.4823212890625,-0.3598369140625,0.9539111328125,1.1278576505519489,-0.25244140625,1.0341796875,0.48046875,44.76529411764706,445.3054619981013
0.3216767578125,-0.3500712890625,0.9763720703125,1.0859688133776952,-0.6328125,-0.5966796875,-0.32373046875,44.48294117647059,445.3054619981013
0.1288056640625,-0.2636455078125,1.0378955078125005,1.0785763477944714,-0.826171875,-2.6484375,-0.06689453125,44.15352941176471,445.6832871338308
-0.0152373046875,-0.1738017578125,1.1169970703125005,1.1305404378258936,-0.83544921875,-4.572265625,0.64208984375,43.54176470588236,445.6832871338308
-0.0699248046875,-0.1210673828125,1.2141650390625005,1.2221880099122624,-0.84765625,-5.14306640625,0.8564453125,44.15352941176471,445.6832871338308
-0.0938505859375,-0.0951884765625,1.3171923828125005,1.3239579116763394,-0.845703125,-4.07373046875,0.47021484375,44.01235294117648,445.6832871338308
-0.1109404296875,-0.0522197265625,1.3709033203125005,1.3763758906728014,-0.94287109375,-1.6123046875,0.0556640625,44.29470588235294,445.04553633867545
-0.0850615234375,-0.0004619140624999,1.2722705078125005,1.2751109446568116,-1.08984375,1.537109375,0.19775390625,43.54176470588236,445.04553633867545
-0.0430693359375,0.0708271484375,1.2205126953125005,1.223324442685941,-1.04736328125,3.83056640625,0.7080078125,44.62411764705882,445.04553633867545
0.0101533203125,0.0888935546875,1.0964892578125005,1.100133558472132,-0.62109375,5.18408203125,1.21630859375,44.059411764705885,445.04553633867545
0.0614228515625,0.0864521484375,0.9519580078125,0.9578469550517308,-0.29150390625,5.462890625,1.53955078125,44.20058823529412,445.04553633867545
0.0897431640625,0.0649677734375,0.7908251953125001,0.798548142958475,0.03759765625,4.7119140625,1.69189453125,44.059411764705885,445.0565182995944
0.0648408203125,0.0605732421875,0.7205126953125001,0.7259559172252728,0.56396484375,3.8583984375,1.34814453125,43.73,445.0565182995944
0.0623994140625,0.0249287109375,0.6360400390625001,0.6395795953553985,0.81005859375,2.5947265625,0.77392578125,44.29470588235294,445.0565182995944
0.0077119140625,0.0117451171875,0.5994189453125001,0.5995836000057084,0.87109375,1.1728515625,0.2470703125,44.48294117647059,445.0565182995944
-0.0328154296875,-0.0292705078125,0.6169970703125001,0.6185620420195416,0.9375,0.1591796875,-0.25244140625,44.48294117647059,445.8992972743802
-0.0694365234375,-0.0815166015625,0.6257861328125001,0.6348816197826251,0.77685546875,0.01123046875,-0.7578125,43.447647058823534,445.8992972743802
-0.0611357421875,-0.1186259765625,0.6707080078125001,0.683855930026227,0.43212890625,0.2392578125,-1.42138671875,44.20058823529412,445.8992972743802
-0.0562529296875,-0.1445048828125,0.6555712890625001,0.6736614641629348,0.10888671875,0.279296875,-1.86572265625,44.059411764705885,445.8992972743802
-0.0523466796875,-0.1581767578125,0.6619189453125001,0.6825662984282131,-0.14208984375,0.35888671875,-2.1669921875,43.40058823529412,445.8992972743802
-0.0293974609375,-0.1689189453125,0.6296923828125001,0.6526180489131015,-0.49072265625,0.00634765625,-2.35009765625,44.29470588235294,445.4680087171312
-0.0445341796875,-0.1601298828125,0.6423876953125001,0.6635411242861206,-0.72021484375,-0.38330078125,-2.255859375,43.73,445.4680087171312
-0.0542998046875,-0.1523173828125,0.6414111328125001,0.6614811374421533,-0.95947265625,-0.8623046875,-1.94384765625,44.01235294117648,445.4680087171312
-0.0484404296875,-0.1298564453125,0.6873095703125001,0.7011445051204933,-1.00439453125,-1.271484375,-1.744140625,44.29470588235294,445.4680087171312
-0.0655302734375,-0.1288798828125,0.7371142578125001,0.7511602159333454,-0.99609375,-1.29541015625,-1.615234375,44.20058823529412,445.1429168954426
-0.0723662109375,-0.1235087890625,0.7742236328125001,0.787345872578577,-0.890625,-1.16845703125,-1.5458984375,43.54176470588236,445.1429168954426
-0.0860380859375,-0.1196025390625,0.8040087890625001,0.8173967534017572,-0.7177734375,-1.17626953125,-1.5546875,43.58882352941177,445.1429168954426
-0.1172880859375,-0.1044658203125,0.8611376953125001,0.8753443511010797,-0.5224609375,-1.19140625,-1.5283203125,44.388823529411766,445.1429168954426
-0.1446318359375,-0.0810283203125,0.9011767578125,0.916298807966466,-0.345703125,-1.240234375,-1.47119140625,44.20058823529412,445.1429168954426
-0.1509794921875,-0.0654033203125,0.9182666015625,0.9328911795671766,-0.13037109375,-1.443359375,-1.3642578125,43.40058823529412,445.1546274939952
-0.1329130859375,-0.0619853515625,0.9334033203125,0.944854396503586,0.05078125,-1.66455078125,-1.2431640625,44.76529411764706,445.1546274939952
-0.1167998046875,-0.0531962890625,0.9495166015625,0.9581512491187696,0.17138671875,-1.8203125,-1.1982421875,44.29470588235294,445.1546274939952
-0.1060576171875,-0.0580791015625,0.9734423828125,0.9809237854479192,0.36376953125,-1.6787109375,-1.2275390625,44.29470588235294,445.1546274939952
-0.0909208984375,-0.0654033203125,1.0164111328125005,1.0225633452191467,0.564453125,-1.51611328125,-1.37841796875,44.76529411764706,445.5756470684532
-0.0665068359375,-0.0658916015625,1.0735400390625005,1.0776145311999108,0.86083984375,-1.31494140625,-1.54296875,44.29470588235294,445.5756470684532
-0.0606474609375,-0.0756572265625,1.1267626953125005,1.1309271868680075,1.14794921875,-1.29296875,-1.69091796875,44.34176470588236,445.5756470684532
-0.0254912109375,-0.0917705078125,1.1873095703125005,1.1911236895028483,1.4208984375,-1.4736328125,-1.82763671875,44.15352941176471,445.5756470684532
-0.0577177734375,-0.1171611328125,1.2825244140625005,1.289157455502954,1.603515625,-1.92138671875,-1.8818359375,43.54176470588236,445.5756470684532
-0.0352568359375,-0.1513408203125,1.3289111328125005,1.337965577765806,1.74951171875,-2.294921875,-2.0947265625,43.30647058823529,445.4665545562223
-0.0914091796875,-0.1864970703125,1.3284228515625005,1.3445609201221536,1.4462890625,-2.2431640625,-2.11083984375,44.20058823529412,445.4665545562223
-0.1617216796875,-0.1977275390625,1.3518603515625005,1.3757821380986692,1.27978515625,-1.68408203125,-1.94091796875,44.15352941176471,445.4665545562223
-0.1534208984375,-0.2157939453125,1.4070361328125005,1.4317317059948278,1.36767578125,-1.6171875,-1.32666015625,44.29470588235294,445.4665545562223
-0.0616240234375,-0.2485087890625,1.4666064453125005,1.4887876288907371,1.32177734375,-2.07421875,-0.92529296875,44.48294117647059,445.3596440581768
0.0985322265625,-0.3183330078125,1.5032275390625005,1.539719954319687,0.939453125,-2.7919921875,-0.94140625,43.96529411764706,445.3596440581768
0.1908173828125,-0.3310283203125,1.5632861328125005,1.6093025058938388,0.44091796875,-3.1875,-1.20166015625,44.15352941176471,445.3596440581768
0.2269501953125,-0.2865947265625,1.6311572265625005,1.6716210175194868,0.076171875,-2.650390625,-1.095703125,43.73,445.3596440581768
0.2201142578125,-0.1884501953125,1.7283251953125005,1.7524473582272475,0.0498046875,-1.4658203125,-0.26953125,44.29470588235294,445.3596440581768
0.2538056640625,-0.0405009765625,1.7410205078125005,1.7598892160691306,0.09033203125,0.29443359375,0.5,44.29470588235294,445.1853885273006
0.2508759765625,0.0981708984375,1.7200244140625005,1.74099404533366,0.14990234375,2.18359375,1.4248046875,44.29470588235294,445.1853885273006
0.2616181640625,0.1865498046875,1.6331103515625005,1.664420113365905,0.36474609375,3.78271484375,1.85009765625,44.76529411764706,445.1853885273006
0.2889619140625,0.2871357421875,1.5271533203125005,1.5805515448607566,0.79443359375,5.4462890625,1.67626953125,44.29470588235294,445.1853885273006
0.3065400390625,0.2632099609375,1.2913134765625005,1.353047217888973,0.94921875,7.5556640625,0.96923828125,44.20058823529412,444.8405249047321
0.2801728515625,0.1924091796875,1.0969775390625005,1.1484240681857458,0.669921875,9.0146484375,-0.01123046875,44.059411764705885,444.8405249047321
0.2616181640625,0.1186787109375,0.9251025390625,0.9686812726470478,0.3349609375,9.375,-1.20751953125,44.34176470588236,444.8405249047321
0.2650361328125,0.0757099609375,0.8049853515625001,0.8508687126176192,0.185546875,8.021484375,-1.87060546875,44.20058823529412,444.8405249047321
0.2757783203125,0.0547138671875,0.6897509765625001,0.7448514609544091,0.13671875,5.84375,-2.0400390625,44.48294117647059,444.8405249047321
0.2860322265625,0.0693623046875,0.6418994140625001,0.7061589210069104,0.0517578125,3.1376953125,-1.91064453125,44.059411764705885,445.5954322363315
0.2723603515625,0.0498310546875,0.6628955078125001,0.7183966518522407,-0.07568359375,0.43603515625,-1.69677734375,44.29470588235294,445.5954322363315
0.2455048828125,0.0346943359375,0.7336962890625001,0.7744589007913893,-0.22802734375,-1.86474609375,-1.54052734375,44.29470588235294,445.5954322363315
0.1976533203125,0.0058857421875,0.8337939453125001,0.8569211283609699,-0.2509765625,-2.86376953125,-1.52197265625,44.388823529411766,445.5954322363315
0.1473603515625,-0.0229228515625,0.9177783203125,0.9298158826197872,-0.49072265625,-2.619140625,-1.54736328125,44.34176470588236,446.0926243909312
0.0838837890625,-0.0575908203125,0.9851611328125,0.9904017620421306,-0.35986328125,-1.25390625,-1.23876953125,44.15352941176471,446.0926243909312
0.0785126953125,-0.0854228515625,1.0520556640625005,1.0584339503154134,-0.169921875,0.14599609375,-0.92138671875,44.01235294117648,446.0926243909312
0.0526337890625,-0.1073955078125,0.9919970703125,0.9991808136458404,-0.162109375,0.67578125,-0.8173828125,44.76529411764706,446.0926243909312
0.0301728515625,-0.1249736328125,0.9133837890625,0.922387530266935,-0.1591796875,0.65234375,-0.6943359375,44.29470588235294,446.0926243909312
0.0077119140625,-0.1313212890625,0.8279345703125001,0.8383199909927522,-0.1455078125,0.2919921875,-0.5498046875,44.34176470588236,445.88759058508026
-0.0069365234375,-0.1186259765625,0.8030322265625001,0.8117764437150984,-0.13916015625,0.08251953125,-0.49462890625,44.48294117647059,445.88759058508026
0.0072236328125,-0.0990947265625,0.7898486328125001,0.7960733687665239,-0.0576171875,0.03515625,-0.44482421875,44.20058823529412,445.88759058508026
0.0033173828125,-0.0981181640625,0.7756884765625001,0.7818764555986915,-0.00439453125,0.09423828125,-0.212890625,44.29470588235294,445.88759058508026
-0.0127958984375,-0.0966533203125,0.7673876953125001,0.773556380790233,0.02587890625,0.5380859375,0.1796875,44.20058823529412,445.71550690301024
-0.0376982421875,-0.0873759765625,0.7717822265625001,0.7776268539486326,0.13818359375,1.31396484375,0.69775390625,44.059411764705885,445.71550690301024
-0.0752958984375,-0.0727275390625,0.7698291015625001,0.7769141605558003,0.2236328125,2.29833984375,1.24365234375,44.20058823529412,445.71550690301024
-0.0586943359375,-0.0331767578125,0.7268603515625001,0.7299806113888606,0.28662109375,2.9501953125,1.64404296875,44.20058823529412,445.71550690301024
-0.0250029296875,-0.0155986328124999,0.6555712890625001,0.6562333265551554,0.197265625,3.10400390625,1.75146484375,44.34176470588236,445.71550690301024
-0.0001005859374999,0.0146748046875,0.6589892578125001,0.6591526393199202,0.166015625,2.9345703125,1.501953125,44.34176470588236,445.5419748450417
-0.0025419921874999,0.0210224609375,0.6384814453125001,0.6388324988574775,0.03125,2.3681640625,1.23046875,44.20058823529412,445.5419748450417
-0.0147490234375,0.0351826171875,0.6311572265625001,0.6323090975832857,-0.14697265625,1.13818359375,0.98291015625,44.01235294117648,445.5419748450417
-0.0459990234375,0.0449482421875,0.6746142578125001,0.6776729679401858,-0.26953125,-0.0234375,0.7548828125,44.76529411764706,445.5419748450417
-0.0845732421875,0.0288349609375,0.7034228515625001,0.7090753107863026,-0.34228515625,-0.7861328125,0.572265625,44.62411764705882,445.5961580543175
-0.1285185546875,0.0200458984375,0.7732470703125001,0.7841108905569383,-0.43896484375,-1.02490234375,0.41455078125,43.54176470588236,445.5961580543175
-0.1817412109375,0.0332294921875,0.8552783203125001,0.8750057554671509,-0.29296875,-0.76025390625,0.2021484375,43.30647058823529,445.5961580543175
-0.2198271484375,0.0249287109375,0.8953173828125001,0.922246513566407,-0.22509765625,-0.33203125,0.1064453125,43.447647058823534,445.5961580543175
-0.2447294921875,0.0405537109375,0.9509814453125,0.9828035597950414,-0.08056640625,-0.2275390625,0.228515625,44.20058823529412,445.5961580543175
-0.2315458984375,0.0576435546875,0.9749072265625,1.0036834076958858,0.06787109375,-0.271484375,0.45654296875,44.29470588235294,445.3472074841616
-0.1968779296875,0.0732685546875,1.0051806640625005,1.026896960609564,0.1982421875,-0.47314453125,0.84033203125,44.20058823529412,445.3472074841616
-0.1524443359375,0.0923115234375,1.0256884765625005,1.0410559753787882,0.36328125,-0.6953125,1.22705078125,44.059411764705885,445.3472074841616
-0.0972685546875,0.0986591796875,1.0447314453125005,1.053877885854121,0.47509765625,-0.61083984375,1.5849609375,44.29470588235294,445.3472074841616
-0.0953154296875,0.0776630859375,1.0320361328125005,1.0393340009277234,0.52587890625,-0.15380859375,1.56005859375,44.48294117647059,445.39113501098535
-0.0582060546875,0.0786396484375,1.0129931640625005,1.017706878008601,0.60693359375,-0.375,1.869140625,44.29470588235294,445.39113501098535
-0.0933623046875,0.0654560546875,1.0076220703125005,1.0140528840315302,0.43701171875,-0.4111328125,1.9921875,43.54176470588236,445.39113501098535
-0.1299833984375,0.0874287109375,1.0442431640625005,1.0559276722658693,0.27197265625,-0.34521484375,1.92919921875,44.388823529411766,445.39113501098535
-0.1514677734375,0.0884052734375,1.0710986328125005,1.0853618106302063,0.33984375,-0.20703125,1.79736328125,44.20058823529412,445.39113501098535
-0.1348662109375,0.0742451171875,1.0789111328125005,1.0898396509512656,0.3857421875,-0.154296875,1.53564453125,44.34176470588236,445.5097555453895
-0.1368193359375,0.0464130859375,1.1003955078125005,1.1098396185244743,0.28076171875,-0.12939453125,1.28076171875,44.76529411764706,445.5097555453895
-0.1485380859375,0.0293232421875,1.1589892578125005,1.1688368214730118,0.1728515625,-0.0009765625,1.08837890625,44.48294117647059,445.5097555453895
-0.1597685546875,0.0190693359375,1.1843798828125005,1.195259527237069,0.0341796875,-0.16064453125,0.9306640625,44.388823529411766,445.5097555453895
-0.1739287109375,0.0224873046875,1.2219775390625005,1.2344982710938617,-0.1181640625,-0.16748046875,0.8642578125,44.53,445.0352832415381
-0.1763701171875,0.0444599609375,1.2512744140625005,1.2644250731659623,-0.2412109375,-0.130859375,0.95458984375,43.73,445.0352832415381
-0.1739287109375,0.0610615234375,1.2634814453125005,1.2768574974451352,-0.1884765625,0.171875,1.0302734375,44.48294117647059,445.0352832415381
-0.1641630859375,0.0718037109375,1.2913134765625005,1.3036854630012755,-0.1142578125,0.4775390625,1.06591796875,44.15352941176471,445.0352832415381
-0.1558623046875,0.0547138671875,1.3665087890625005,1.3764566596410406,-0.0927734375,0.63818359375,1.27294921875,44.57705882352941,445.0352832415381
-0.1353544921875,0.0386005859375,1.4636767578125005,1.47042867734228,-0.05078125,0.8056640625,1.7109375,44.15352941176471,444.7416875055181
-0.0748076171875,0.0537373046875,1.5505908203125005,1.553324103187014,0.013671875,0.8681640625,2.06884765625,43.40058823529412,444.7416875055181
0.0047822265625,0.0405537109375,1.4646533203125005,1.4652224479116231,0.166015625,0.72265625,2.0107421875,44.29470588235294,444.7416875055181
0.1361298828125,-0.0190166015625,1.5647509765625005,1.5707764305536387,0.3251953125,0.63037109375,1.68359375,44.29470588235294,444.7416875055181
0.3040986328125,-0.1113017578125,1.4895556640625005,1.5243490860400908,0.314453125,0.49853515625,0.93310546875,44.48294117647059,444.6875074375381
0.4081025390625,-0.2558330078125,1.3884814453125005,1.4696526576891356,0.0205078125,0.40283203125,0.2763671875,44.34176470588236,444.6875074375381
0.4549775390625,-0.3368876953125,1.2791064453125005,1.3987891830952643,-0.28173828125,0.087890625,-0.16064453125,43.447647058823534,444.6875074375381
0.4422822265625,-0.2895244140625,1.2000048828125005,1.3112778778905558,-0.3564453125,-0.16552734375,-0.5986328125,44.76529411764706,444.6875074375381
0.3626923828125,-0.2738994140625,1.0520556640625005,1.146031314519799,-0.72998046875,-0.42138671875,-1.18359375,44.34176470588236,444.6875074375381
0.2411103515625,-0.2323955078125,1.0335009765625005,1.0864005441077724,-1.09619140625,-0.4755859375,-0.9853515625,44.20058823529412,445.336952649878
0.2269501953125,-0.1889384765625,1.0002978515625005,1.04297647668521,-1.20703125,-0.7177734375,-0.71142578125,44.059411764705885,445.336952649878
0.1581025390625,-0.1972392578125,1.0198291015625005,1.050690788992752,-0.96337890625,-0.908203125,-0.01416015625,44.62411764705882,445.336952649878
0.1693330078125,-0.2153056640625,0.9924853515625,1.0295908748519296,-0.505859375,-1.052734375,0.8857421875,44.34176470588236,445.336952649878
0.1815400390625,-0.2289775390625,0.9807666015625,1.0233721834789085,-0.39111328125,-1.00927734375,1.2109375,44.48294117647059,446.15706837824166
0.1913056640625,-0.2065166015625,0.9509814453125,0.9917724906206916,-0.44482421875,-0.95068359375,1.14892578125,44.57705882352941,446.15706837824166
0.1551728515625,-0.1484111328125,0.9636767578125,0.9873081442755038,-0.38525390625,-0.638671875,1.18310546875,44.48294117647059,446.15706837824166
0.1205048828125,-0.0863994140625,0.9480517578125,0.9595772095164458,-0.4013671875,-0.25146484375,1.33154296875,44.20058823529412,446.15706837824166
0.0819306640625,-0.0155986328124999,0.9714892578125,0.9750627308560323,-0.43408203125,0.0478515625,0.89453125,44.20058823529412,446.15706837824166
0.0457978515625,0.0102802734375,0.9500048828125,0.9511637107234918,-0.3544921875,0.37255859375,0.7822265625,44.34176470588236,445.898572406935
0.0580048828125,0.0127216796875,0.9114306640625,0.913363160499466,-0.384765625,0.6650390625,0.95263671875,44.71823529411765,445.898572406935
0.1082978515625,-0.0048564453124999,0.8391650390625001,0.8461382703192746,-0.20263671875,0.4296875,1.3134765625,44.76529411764706,445.898572406935
0.0853486328125,-0.0180400390625,0.7678759765625001,0.7728152091633242,-0.02294921875,-0.4580078125,1.416015625,44.20058823529412,445.898572406935
0.0492158203125,-0.0009501953124999,0.7752001953125001,0.7767615095077139,0.16455078125,-0.388671875,1.13525390625,43.58882352941177,445.228588466462
0.0633759765625,-0.0043681640624999,0.7537158203125001,0.7563882158335575,0.2880859375,0.25830078125,0.54296875,43.73,445.228588466462
0.0623994140625,-0.0155986328124999,0.6941455078125001,0.6971190646060658,0.2158203125,0.66796875,0.0078125,44.15352941176471,445.228588466462
0.0941376953125,-0.0375712890625,0.6804736328125001,0.6879810116519265,0.06982421875,1.015625,-0.22412109375,44.48294117647059,445.228588466462
0.1126923828125,-0.0697978515625,0.6643603515625001,0.6774555261823085,0.19775390625,1.01806640625,-0.3076171875,44.34176470588236,445.228588466462
0.0916962890625,-0.1005595703125,0.6453173828125001,0.6595111531803256,0.28369140625,0.9853515625,-0.42333984375,44.29470588235294,445.3149888753341
0.0638642578125,-0.1376689453125,0.6755908203125001,0.6924264137220029,0.24462890625,0.8876953125,-0.37158203125,44.15352941176471,445.3149888753341
0.0448212890625,-0.1879619140625,0.6511767578125001,0.6792420768816241,0.09716796875,0.48193359375,-0.29736328125,44.34176470588236,445.3149888753341
0.0174775390625,-0.1669658203125,0.6985400390625001,0.7184297012914669,0.1630859375,0.1826171875,-0.486328125,44.29470588235294,445.3149888753341
-0.0196318359375,-0.1957744140625,0.7253955078125001,0.7516060623347492,0.0927734375,0.150390625,-0.544921875,44.388823529411766,445.3677181581276
-0.0455107421875,-0.2143291015625,0.7542041015625001,0.7853865406567287,-0.029296875,0.24169921875,-0.42529296875,44.15352941176471,445.3677181581276
-0.0381865234375,-0.2167705078125,0.7800830078125001,0.8105412776085675,-0.07373046875,0.26513671875,-0.23779296875,44.20058823529412,445.3677181581276
-0.0289091796875,-0.2118876953125,0.8137744140625001,0.8414041437251258,-0.068359375,0.134765625,0.01708984375,44.29470588235294,445.3677181581276
-0.0049833984375,-0.2177470703125,0.8367236328125001,0.8646068809560858,-0.07177734375,-0.10009765625,0.32080078125,44.20058823529412,445.3677181581276
0.0101533203125,-0.2192119140625,0.8679736328125001,0.8952849716364292,-0.0869140625,-0.2919921875,0.6025390625,44.29470588235294,444.9569531717796
0.0160126953125,-0.1982158203125,0.9060595703125,0.927625928264298,-0.16015625,-0.39599609375,0.7685546875,44.29470588235294,444.9569531717796
0.0321259765625,-0.1586650390625,0.9436572265625,0.9574422354557106,-0.1865234375,-0.52099609375,0.8466796875,44.20058823529412,444.9569531717796
0.0321259765625,-0.1274150390625,0.9465869140625,0.9556638825569164,-0.22265625,-0.5693359375,0.93603515625,44.29470588235294,444.9569531717796
0.0370087890625,-0.1000712890625,0.9529345703125,0.9588890491913922,-0.16845703125,-0.52587890625,0.91552734375,44.71823529411765,444.8383376622997
0.0233369140625,-0.0893291015625,0.9627001953125,0.9671173486183824,-0.0546875,-0.55859375,0.763671875,44.059411764705885,444.8383376622997
0.0042939453125,-0.1034892578125,0.9627001953125,0.9682562318434386,0.05126953125,-0.50048828125,0.60546875,44.29470588235294,444.8383376622997
-0.0088896484375,-0.1235087890625,0.9670947265625,0.974990080446988,0.2490234375,-0.5283203125,0.43701171875,43.447647058823534,444.8383376622997
-0.0176787109375,-0.1264384765625,0.9832080078125,0.9914621585327816,0.125,-0.6728515625,0.22900390625,44.20058823529412,444.8383376622997
-0.0401396484375,-0.1342509765625,0.9905322265625,1.0003942262645935,0.16015625,-0.89208984375,0.1123046875,44.48294117647059,445.193462888576
-0.0572294921875,-0.1401103515625,1.0105517578125005,1.0218223821236945,0.14990234375,-1.1162109375,0.06005859375,43.58882352941177,445.193462888576
-0.0884794921875,-0.1288798828125,1.0378955078125005,1.0496026533259573,0.1875,-1.1943359375,0.06591796875,44.20058823529412,445.193462888576
-0.1050810546875,-0.1196025390625,1.0598681640625005,1.0717589843792537,0.2529296875,-1.0537109375,-0.001953125,44.34176470588236,445.193462888576
-0.1143583984375,-0.1137431640625,1.0798876953125005,1.0918666517260622,0.25146484375,-0.69384765625,-0.00390625,44.15352941176471,445.1400070339625
-0.1251005859375,-0.1054423828125,1.1003955078125005,1.112492034267668,0.2919921875,-0.2001953125,0.0859375,44.29470588235294,445.1400070339625
-0.1241240234375,-0.0971416015625,1.0813525390625005,1.0927792904723976,0.37841796875,0.22119140625,0.19091796875,44.29470588235294,445.1400070339625
-0.1187529296875,-0.0956767578125,1.0520556640625005,1.0630509962277748,0.45654296875,0.4892578125,0.11572265625,44.34176470588236,445.1400070339625
-0.1334013671875,-0.1005595703125,1.0378955078125005,1.0512541258355643,0.50146484375,0.41943359375,-0.02197265625,44.29470588235294,445.1400070339625
-0.1417021484375,-0.1142314453125,1.0369189453125005,1.052772160117266,0.578125,0.20703125,-0.07958984375,43.58882352941177,444.92546392357207
-0.1363310546875,-0.1322978515625,1.0369189453125005,1.0541772987255262,0.56103515625,-0.0107421875,-0.00146484375,43.54176470588236,444.92546392357207
-0.1260771484375,-0.1332744140625,1.0603564453125005,1.0761102675458474,0.49951171875,-0.01220703125,0.0673828125,44.20058823529412,444.92546392357207
-0.1182646484375,-0.1405986328125,1.0877001953125005,1.103107527624411,0.54052734375,0.15625,0.20947265625,44.29470588235294,444.92546392357207
-0.1241240234375,-0.1420634765625,1.1003955078125005,1.1164493173365584,0.65625,0.42626953125,0.4091796875,44.20058823529412,444.7958677530812
-0.1348662109375,-0.1332744140625,1.1091845703125005,1.1252739112392445,0.7998046875,0.69287109375,0.53955078125,43.73,444.7958677530812
-0.1587919921875,-0.1264384765625,1.1189501953125005,1.1372119963877465,0.96533203125,0.873046875,0.5927734375,44.71823529411765,444.7958677530812
-0.1675810546875,-0.1137431640625,1.1218798828125005,1.140015521262984,1.03125,0.875,0.5712890625,44.15352941176471,444.7958677530812
-0.1700224609375,-0.0937236328125,1.1228564453125005,1.1395167192062785,1.0771484375,1.03271484375,0.482421875,44.059411764705885,444.7958677530812
-0.1548857421875,-0.0790751953125,1.1126025390625005,1.126111401938105,1.07421875,0.9580078125,0.376953125,44.76529411764706,444.5249683110624
-0.1597685546875,-0.0497783203125,1.1277392578125005,1.1400875869210907,1.1357421875,0.85107421875,0.27392578125,44.15352941176471,444.5249683110624
-0.1773466796875,-0.0287822265625,1.1541064453125005,1.1680076833967878,1.24658203125,0.75390625,0.259765625,44.20058823529412,444.5249683110624
-0.1714873046875,-0.0087626953124999,1.1995166015625005,1.2117445101679534,1.333984375,0.45849609375,0.376953125,44.29470588235294,444.5249683110624
-0.1265654296875,-0.0258525390625,1.2258837890625005,1.232671175153452,1.3544921875,0.00244140625,0.09423828125,44.76529411764706,444.5791478403127
-0.0606474609375,-0.0903056640625,1.2356494140625005,1.2404284348373085,1.19677734375,-0.50537109375,-0.49755859375,44.15352941176471,444.5791478403127
0.0086884765625,-0.1742900390625,1.2668994140625005,1.2788614595386365,0.8662109375,-0.7783203125,-1.1826171875,44.01235294117648,444.5791478403127
0.0384736328125,-0.2250712890625,1.3582080078125005,1.377267692958797,0.59130859375,0.24560546875,-1.3447265625,43.73,444.5791478403127
0.1551728515625,-0.1830791015625,1.4304736328125005,1.4504659201314458,0.37060546875,0.8115234375,-1.32568359375,44.20058823529412,444.5791478403127
0.2040009765625,-0.1205791015625,1.4231494140625005,1.442743904134934,0.39404296875,0.40771484375,-0.9462890625,43.58882352941177,444.5571841763068
0.2093720703125,-0.0712626953125,1.3796923828125005,1.397306733241123,0.37353515625,0.14501953125,-0.2373046875,44.29470588235294,444.5571841763068
0.2372041015625,-0.0395244140625,1.3464892578125005,1.3677943144016629,0.412109375,-0.10791015625,0.4267578125,44.29470588235294,444.5571841763068
0.2884736328125,-0.0038798828124999,1.3025439453125005,1.3341112471562984,0.46435546875,-0.29931640625,0.7548828125,44.29470588235294,444.5571841763068
0.3377900390625,0.0229755859375,1.2390673828125005,1.284491326241184,0.58837890625,-0.38525390625,0.86474609375,43.30647058823529,445.6598722876242
0.3622041015625,0.0415302734375,1.1252978515625005,1.1828828469175086,0.67529296875,-0.212890625,0.84814453125,44.01235294117648,445.6598722876242
0.3485322265625,0.0493427734375,1.0242236328125005,1.083025148486753,0.5537109375,0.02001953125,0.77490234375,44.34176470588236,445.6598722876242
0.3197236328125,0.0381123046875,0.9602587890625,1.012804369618928,0.310546875,0.11572265625,0.64697265625,44.34176470588236,445.6598722876242
0.2840791015625,0.0322529296875,0.9421923828125,0.9846154953320004,0.13916015625,0.10205078125,0.5751953125,44.20058823529412,445.6598722876242
0.2621064453125,0.0176044921875,0.9529345703125,0.988480653384882,0.06494140625,0.0712890625,0.55029296875,44.059411764705885,446.393610298807
0.2240205078125,0.0097919921875,0.9700244140625,0.995604557497035,0.06689453125,0.00244140625,0.6259765625,44.059411764705885,446.393610298807
0.1917939453125,0.0141865234375,1.0017626953125005,1.0200562105225095,0.03662109375,0.06982421875,0.58251953125,44.29470588235294,446.393610298807
0.1512666015625,-0.0087626953124999,1.0491259765625005,1.0600111717692544,0.08544921875,0.16064453125,0.61865234375,44.059411764705885,446.393610298807
0.1258759765625,-0.0434306640625,1.0691455078125005,1.0774057271669395,0.099609375,0.3779296875,0.59814453125,44.48294117647059,446.69605104379673
0.1068330078125,-0.0688212890625,1.0706103515625005,1.0781262385543124,0.00244140625,0.65380859375,0.62109375,44.29470588235294,446.69605104379673
0.0824189453125,-0.0907939453125,1.0549853515625005,1.0620878094881263,-0.0400390625,0.92529296875,0.37548828125,44.34176470588236,446.69605104379673
0.0775361328125,-0.1078837890625,1.0520556640625005,1.060411186342349,-0.00732421875,1.29052734375,1.03662109375,44.53,446.69605104379673
0.1107392578125,-0.0849345703125,1.0261767578125005,1.0356233884620447,0.15478515625,1.1005859375,1.57958984375,44.29470588235294,446.69605104379673
0.1405244140625,-0.0654033203125,0.9856494140625,0.9977622325470424,0.1611328125,0.5908203125,1.779296875,44.48294117647059,445.95058546731775
0.1297822265625,-0.0483134765625,0.9602587890625,0.9701930531192512,0.208984375,0.158203125,1.55908203125,44.20058823529412,445.95058546731775
0.0995087890625,-0.0385478515625,0.9436572265625,0.9496719945351654,0.224609375,0.05126953125,1.28955078125,44.29470588235294,445.95058546731775
0.0467744140625,-0.0400126953125,0.9036181640625,0.9057122324561728,0.15185546875,0.115234375,1.15234375,44.34176470588236,445.95058546731775
0.0370087890625,-0.0253642578125,0.8733447265625001,0.8744964307856148,0.17578125,0.24267578125,1.18310546875,43.447647058823534,445.7023497163378
0.0130830078125,-0.0380595703125,0.8381884765625001,0.839154108747588,0.18994140625,0.46142578125,1.091796875,44.29470588235294,445.7023497163378
-0.0015654296874999,-0.0287822265625,0.8059619140625001,0.8064771999599805,0.0859375,0.66162109375,1.13427734375,44.76529411764706,445.7023497163378
0.0101533203125,-0.0209697265625,0.7708056640625001,0.7711576953492106,-0.03125,0.62841796875,1.0751953125,44.71823529411765,445.7023497163378
0.0096650390625,-0.0151103515624999,0.7673876953125001,0.7675972971691943,-0.06005859375,0.744140625,1.00732421875,44.388823529411766,445.7023497163378
-0.0123076171875,-0.0214580078125,0.7625048828125001,0.7629060360575343,-0.0078125,0.58642578125,1.10498046875,44.29470588235294,445.4101935307429
-0.0157255859375,-0.0131572265624999,0.7712939453125001,0.7715664305421903,-0.13671875,0.6572265625,1.1787109375,43.30647058823529,445.4101935307429
-0.0245146484375,-0.0077861328124999,0.7346728515625001,0.7351229765659371,-0.09033203125,0.712890625,1.2412109375,44.76529411764706,445.4101935307429
-0.0030302734374999,-0.0102275390624999,0.7390673828125001,0.7391443576526169,-0.03173828125,0.62646484375,1.3212890625,44.62411764705882,445.4101935307429
0.0121064453125,-0.0058330078124999,0.7405322265625001,0.7406541490978492,0.12451171875,0.84619140625,1.3642578125,43.54176470588236,445.1517156147221
0.0277314453125,-0.0024150390624999,0.7527392578125001,0.7532537790976604,-0.00537109375,0.84912109375,1.40966796875,44.48294117647059,445.1517156147221
0.0404267578125,0.0176044921875,0.7488330078125001,0.7501300650433405,-0.02197265625,0.7255859375,1.42919921875,44.76529411764706,445.1517156147221
0.0213837890625,0.0049091796875,0.7727587890625001,0.7730701860460116,0.05126953125,0.6025390625,1.5185546875,44.34176470588236,445.1517156147221
0.0243134765625,0.0171162109375,0.7918017578125001,0.7923598510111282,0.10595703125,0.4140625,1.5029296875,44.15352941176471,445.1517156147221
0.0194306640625,0.0195576171875,0.7986376953125001,0.7991133958769708,0.166015625,0.25048828125,1.5087890625,44.29470588235294,445.2593530965364
0.0135712890625,0.0229755859375,0.8191455078125001,0.8195800268463037,0.14453125,0.30908203125,1.52001953125,44.29470588235294,445.2593530965364
-0.0030302734374999,0.0263935546875,0.8396533203125001,0.8400735090442704,0.17626953125,0.23486328125,1.5009765625,44.34176470588236,445.2593530965364
-0.0210966796875,0.0263935546875,0.8552783203125001,0.8559454975753132,0.18994140625,0.14990234375,1.50927734375,44.15352941176471,445.2593530965364
-0.0591826171875,0.0171162109375,0.8879931640625001,0.8901277471665229,0.17431640625,0.05810546875,1.43505859375,43.30647058823529,445.0118622547753
-0.0845732421875,0.0151630859375,0.9251025390625,0.9290840975117044,0.08447265625,-0.01318359375,1.38818359375,44.29470588235294,445.0118622547753
-0.0933623046875,0.0107685546875,0.9431689453125,0.947839723322732,0.08349609375,-0.060546875,1.49169921875,44.34176470588236,445.0118622547753
-0.0782255859375,0.0195576171875,0.9524462890625,0.9558533759077515,0.1640625,-0.0498046875,1.6376953125,44.29470588235294,445.0118622547753
-0.0777373046875,0.0254169921875,0.9460986328125,0.9496271558046444,0.1767578125,-0.01611328125,1.71142578125,44.388823529411766,445.0118622547753
-0.0713896484375,0.0263935546875,0.9548876953125,0.9579162866828655,0.1513671875,-0.046875,1.73486328125,44.15352941176471,445.1949157696913
-0.0879912109375,0.0224873046875,0.9553759765625,0.959682962580407,0.1611328125,-0.02685546875,1.70556640625,44.20058823529412,445.1949157696913
-0.0899443359375,0.0239521484375,0.9553759765625,0.9598994455539396,0.130859375,-0.00244140625,1.6240234375,44.34176470588236,445.1949157696913
-0.0865263671875,0.0205341796875,0.9524462890625,0.956588939044892,0.07861328125,-0.02587890625,1.49658203125,44.34176470588236,445.1949157696913
-0.0909208984375,0.0141865234375,0.9675830078125,0.9719489411627596,-0.00537109375,-0.00732421875,1.3798828125,44.20058823529412,445.3011023510832
-0.0894560546875,0.0176044921875,0.9670947265625,0.9713827844935432,-0.07666015625,0.01416015625,1.23779296875,44.71823529411765,445.3011023510832
-0.0953154296875,0.0122333984375,0.9871142578125,0.9917808453234848,-0.16162109375,0.07470703125,1.1123046875,44.29470588235294,445.3011023510832
-0.0962919921875,0.0239521484375,1.0012744140625005,1.006179062309693,-0.1982421875,0.06689453125,1.076171875,44.20058823529412,445.3011023510832
-0.1109404296875,0.0356708984375,0.9978564453125,1.0046380827871717,-0.232421875,0.08935546875,1.06787109375,44.059411764705885,445.3011023510832
-0.1124052734375,0.0503193359375,1.0081103515625005,1.015604973399214,-0.29638671875,0.12841796875,1.07958984375,43.447647058823534,445.2798645255613
-0.1211943359375,0.0561787109375,1.0188525390625005,1.0275721925879633,-0.3076171875,0.22216796875,1.07763671875,44.29470588235294,445.2798645255613
-0.1246123046875,0.0659443359375,1.0295947265625005,1.039202666897597,-0.3505859375,0.3056640625,1.0126953125,44.29470588235294,445.2798645255613
-0.1407255859375,0.0595966796875,1.0461962890625005,1.0572994514400231,-0.34130859375,0.431640625,0.96923828125,44.29470588235294,445.2798645255613
-0.1539091796875,0.0493427734375,1.0364306640625005,1.0489572280563295,-0.34033203125,0.51953125,0.94970703125,44.388823529411766,445.4314315989998
-0.1685576171875,0.0386005859375,1.0549853515625005,1.069063032546771,-0.37744140625,0.66796875,0.8642578125,44.29470588235294,445.4314315989998
-0.1700224609375,0.0215107421875,1.0471728515625005,1.0611038263535946,-0.41015625,0.73828125,0.796875,44.01235294117648,445.4314315989998
-0.1758818359375,0.0117451171875,1.0535205078125005,1.068165637142481,-0.4775390625,0.7919921875,0.79638671875,44.29470588235294,445.4314315989998
-0.1871123046875,0.0078388671875,1.0627978515625005,1.0791717822896028,-0.52392578125,0.857421875,0.87158203125,44.29470588235294,445.4314315989998
-0.2134794921875,0.0068623046875,1.0647509765625005,1.0859628110119863,-0.53955078125,0.76513671875,1.05712890625,44.20058823529412,445.2147003381179
-0.2188505859375,0.0171162109375,1.0950244140625005,1.1168110901289288,-0.6005859375,0.8466796875,1.0966796875,44.059411764705885,445.2147003381179
-0.2544951171875,0.0151630859375,1.1438525390625005,1.1719199268581262,-0.57861328125,1.0654296875,1.224609375,44.059411764705885,445.2147003381179
-0.2818388671875,0.0117451171875,1.2009814453125005,1.233664268275686,-0.59375,1.2265625,1.375,44.059411764705885,445.2147003381179
-0.2881865234375,0.0039326171875,1.3015673828125005,1.3330958666841322,-0.54296875,1.32666015625,2.10595703125,44.48294117647059,445.05433404374577
-0.1636748046875,0.0439716796875,1.4128955078125005,1.423023775732779,-0.455078125,1.015625,2.47119140625,43.54176470588236,445.05433404374577
-0.0220732421875,0.1181904296875,1.4353564453125005,1.4403833971517863,-0.02099609375,0.67333984375,2.546875,44.15352941176471,445.05433404374577
0.0687470703125,0.1924091796875,1.4109423828125005,1.425659798030787,0.4736328125,0.56982421875,2.35009765625,44.059411764705885,445.05433404374577
0.1458955078125,0.3408466796875,1.4641650390625005,1.5103778401005337,0.857421875,0.3701171875,1.9638671875,44.29470588235294,445.05433404374577
0.2415986328125,0.1396748046875,1.4573291015625005,1.483808296479813,1.060546875,0.2412109375,1.416015625,44.15352941176471,445.042625128568
0.2943330078125,0.0078388671875,1.3474658203125005,1.3792597667724438,0.98828125,0.3076171875,0.7451171875,44.20058823529412,445.042625128568
0.4164033203125,-0.1484111328125,1.1716845703125005,1.2523028075582807,0.3974609375,0.1279296875,-0.27099609375,44.29470588235294,445.042625128568
0.5306611328125,-0.2221416015625,1.1648486328125005,1.2991614473912585,-0.376953125,-0.091796875,-1.015625,43.73,445.042625128568
0.5228486328125,-0.2245830078125,1.1936572265625005,1.322356152765544,-1.07763671875,-0.2490234375,-2.26904296875,43.54176470588236,444.9452439221986
0.3558564453125,-0.2499736328125,1.1184619140625005,1.200032366221961,-1.61474609375,-0.6904296875,-2.84326171875,44.48294117647059,444.9452439221986
0.1507783203125,-0.2284892578125,1.0828173828125005,1.1168862642780055,-1.93359375,-0.8466796875,-2.6416015625,44.34176470588236,444.9452439221986
-0.0069365234375,-0.2030986328125,1.0867236328125005,1.1055611354063164,-1.71435546875,-0.6748046875,-1.76904296875,44.20058823529412,444.9452439221986
-0.0899443359375,-0.2138408203125,1.0520556640625005,1.0773295690201534,-1.06884765625,-0.41015625,-0.322265625,43.40058823529412,444.9452439221986
-0.0464873046875,-0.2323955078125,1.0076220703125005,1.0351188231934474,-0.47119140625,-0.0791015625,1.03515625,44.059411764705885,445.8744372016087
0.0672822265625,-0.2621806640625,0.9465869140625,0.9845264772944544,-0.2216796875,0.2568359375,1.96826171875,44.57705882352941,445.8744372016087
0.1952119140625,-0.2553447265625,0.9119189453125,0.9669047438062786,-0.23974609375,0.22509765625,2.23828125,44.059411764705885,445.8744372016087
0.2411103515625,-0.1943095703125,0.8879931640625001,0.9404372760409654,-0.4775390625,0.302734375,2.09423828125,43.58882352941177,445.8744372016087
0.2059541015625,-0.1166728515625,0.9304736328125,0.9601097997632524,-0.52587890625,0.20703125,1.798828125,44.15352941176471,446.3606655248743
0.1581025390625,-0.0268291015625,0.9324267578125,0.9461162044027104,-0.6455078125,0.24755859375,1.4453125,44.29470588235294,446.3606655248743
0.1029267578125,0.0322529296875,0.9587939453125,0.9648419552005028,-0.45166015625,0.40673828125,1.20556640625,44.059411764705885,446.3606655248743
0.1014619140625,0.0747333984375,0.9622119140625,0.9704284457965277,-0.2001953125,0.59716796875,1.15234375,43.777058823529416,446.3606655248743
0.0873017578125,0.0927998046875,0.9861376953125,0.9943344280388968,0.0673828125,0.64892578125,1.134765625,44.29470588235294,446.3606655248743
0.0755830078125,0.0678974609375,1.0012744140625005,1.0064160712786472,0.25244140625,0.759765625,1.2763671875,44.15352941176471,445.9491399992672
0.0907197265625,0.0273701171875,0.9514697265625,0.9561766744003698,0.55908203125,0.7451171875,1.263671875,44.29470588235294,445.9491399992672
0.1097626953125,-0.0063212890624999,0.9045947265625,0.9112515719066612,0.5859375,0.68603515625,0.97216796875,44.29470588235294,445.9491399992672
0.1122041015625,-0.0497783203125,0.8630908203125001,0.8717760066027775,0.40283203125,0.5166015625,0.5234375,43.54176470588236,445.9491399992672
0.1058564453125,-0.0683330078125,0.8591845703125001,0.8683738324212544,0.21240234375,0.41357421875,-0.041015625,44.29470588235294,445.5603126347417
0.0936494140625,-0.0971416015625,0.8406298828125001,0.8513902180467747,0.0595703125,0.3740234375,-0.4873046875,44.76529411764706,445.5603126347417
0.0697236328125,-0.1030009765625,0.8152392578125001,0.8246730465002945,-0.14208984375,0.408203125,-0.771484375,44.53,445.5603126347417
0.0467744140625,-0.1039775390625,0.8123095703125001,0.820271913734502,-0.2880859375,0.4521484375,-0.873046875,44.15352941176471,445.5603126347417
0.0233369140625,-0.0971416015625,0.8035205078125001,0.8097075452207088,-0.3125,0.482421875,-1.00390625,44.29470588235294,445.5603126347417
-0.0132841796875,-0.1015361328125,0.8001025390625001,0.8066288667725368,-0.29931640625,0.52587890625,-1.19677734375,44.76529411764706,445.7550861749015
-0.0572294921875,-0.1156962890625,0.7966845703125001,0.807073200306444,-0.248046875,0.52001953125,-1.32666015625,44.29470588235294,445.7550861749015
-0.0870146484375,-0.1230205078125,0.8064501953125001,0.8204069184890609,-0.1748046875,0.56396484375,-1.23583984375,44.29470588235294,445.7550861749015
-0.0875029296875,-0.1264384765625,0.8088916015625001,0.8233766295794943,-0.05078125,0.69482421875,-0.99072265625,44.15352941176471,445.7550861749015
-0.0709013671875,-0.1249736328125,0.8108447265625001,0.8234771298352043,0.01513671875,0.89013671875,-0.576171875,44.059411764705885,445.9711030905618
-0.0293974609375,-0.1196025390625,0.8020556640625001,0.8114568789002325,0.00341796875,0.97900390625,-0.2109375,44.15352941176471,445.9711030905618
-0.0015654296874999,-0.1196025390625,0.8103564453125001,0.8191366103281028,0.20263671875,1.0419921875,-0.0380859375,44.15352941176471,445.9711030905618
0.0365205078125,-0.1137431640625,0.8191455078125001,0.8278107379294075,0.16455078125,0.9384765625,-0.0869140625,44.059411764705885,445.9711030905618
0.0399384765625,-0.1171611328125,0.8347705078125001,0.8438978692149784,0.06689453125,0.7138671875,-0.22265625,44.15352941176471,445.9711030905618
0.0462861328125,-0.1005595703125,0.8499072265625001,0.8570863008095112,-0.0146484375,0.33251953125,-0.365234375,44.34176470588236,445.4746332022433
0.0482392578125,-0.1137431640625,0.8626025390625001,0.8714055736351022,-0.173828125,-0.1416015625,-0.55810546875,44.20058823529412,445.4746332022433
0.0306611328125,-0.0805400390625,0.8943408203125001,0.8984833364257627,-0.23046875,-0.50830078125,-0.66455078125,44.059411764705885,445.4746332022433
0.0062470703125,-0.0922587890625,0.9104541015625,0.9151379027768152,-0.22412109375,-0.73876953125,-0.74658203125,44.29470588235294,445.4746332022433
-0.0284208984375,-0.1044658203125,0.9358447265625,0.9420860933674792,-0.2392578125,-0.77685546875,-0.798828125,44.34176470588236,445.1392806770401
-0.0528349609375,-0.1156962890625,0.9548876953125,0.9633211692158118,-0.1962890625,-0.63037109375,-0.81982421875,44.20058823529412,445.1392806770401
-0.0782255859375,-0.1293681640625,0.9734423828125,0.9851118905098268,-0.2333984375,-0.525390625,-0.79443359375,44.059411764705885,445.1392806770401
-0.0904326171875,-0.1288798828125,0.9822314453125,0.994769669122369,-0.2353515625,-0.529296875,-0.76953125,44.29470588235294,445.1392806770401
-0.0928740234375,-0.1293681640625,0.9841845703125,0.9969859450080384,-0.18798828125,-0.556640625,-0.7412109375,44.20058823529412,445.1392806770401
-0.1182646484375,-0.1274150390625,0.9993212890625,1.0143294129733598,-0.07080078125,-0.41162109375,-0.62890625,44.34176470588236,445.0960802951312
-0.1275419921875,-0.1357158203125,0.9763720703125,0.9939759370027872,-0.0078125,-0.27001953125,-0.4365234375,44.48294117647059,445.0960802951312
-0.1324248046875,-0.1200908203125,0.9753955078125,0.9916423401008332,0.03564453125,-0.21923828125,-0.2939453125,44.34176470588236,445.0960802951312
-0.1368193359375,-0.1054423828125,0.9734423828125,0.988649432020893,0.18310546875,-0.26220703125,-0.2099609375,44.62411764705882,445.0960802951312
-0.1255888671875,-0.0981181640625,0.9714892578125,0.9844750457606924,0.2578125,-0.3623046875,-0.1884765625,43.40058823529412,444.7504836064509
-0.1119169921875,-0.0893291015625,0.9661181640625,0.976672620921543,0.35888671875,-0.466796875,-0.259765625,44.29470588235294,444.7504836064509
-0.1055693359375,-0.0981181640625,0.9592822265625,0.9700486838339548,0.421875,-0.55126953125,-0.25048828125,44.29470588235294,444.7504836064509
-0.0933623046875,-0.1034892578125,0.9685595703125,0.9785367584628992,0.47216796875,-0.61328125,-0.1494140625,44.15352941176471,444.7504836064509
-0.0933623046875,-0.0986064453125,0.9890673828125,0.9983456509332312,0.5078125,-0.58544921875,-0.07958984375,44.53,444.7504836064509
-0.0909208984375,-0.0883525390625,1.0227587890625005,1.0305863969294689,0.55615234375,-0.53466796875,-0.06201171875,44.20058823529412,445.1502623353727
-0.0953154296875,-0.0732158203125,1.0422900390625005,1.049196889534778,0.60693359375,-0.443359375,-0.1240234375,44.20058823529412,445.1502623353727
-0.1065458984375,-0.0722392578125,1.0720751953125005,1.0797757930457093,0.64404296875,-0.40283203125,-0.19287109375,44.29470588235294,445.1502623353727
-0.1285185546875,-0.0810283203125,1.1028369140625005,1.1132528313956933,0.73388671875,-0.3662109375,-0.21435546875,43.63588235294118,445.1502623353727
-0.1192412109375,-0.0727275390625,1.1140673828125005,1.1227884461333857,0.75048828125,-0.271484375,-0.4013671875,44.71823529411765,444.9986984007164
-0.1490263671875,-0.0844462890625,1.1267626953125005,1.1397079474152232,0.7373046875,-0.1767578125,-0.458984375,44.76529411764706,444.9986984007164
-0.1685576171875,-0.0854228515625,1.1423876953125005,1.1579112143348482,0.77392578125,-0.10888671875,-0.4892578125,43.447647058823534,444.9986984007164
-0.1832060546875,-0.0961650390625,1.1536181640625005,1.17202689460054,0.828125,-0.025390625,-0.5341796875,44.15352941176471,444.9986984007164
-0.1993193359375,-0.1020244140625,1.1624072265625005,1.1837768958330308,0.79296875,0.20458984375,-0.50048828125,44.20058823529412,444.9986984007164
-0.2144560546875,-0.1010478515625,1.1751025390625005,1.1987777296098971,0.7822265625,0.5185546875,-0.6220703125,44.29470588235294,444.4576196582149
-0.2212919921875,-0.0990947265625,1.1873095703125005,1.2118143118458633,0.76953125,0.93994140625,-0.5166015625,43.58882352941177,444.4576196582149
-0.2222685546875,-0.0834697265625,1.2200244140625005,1.2429119343557031,0.86181640625,1.1826171875,-0.27294921875,44.29470588235294,444.4576196582149
-0.1880888671875,-0.0903056640625,1.2571337890625005,1.2743303725974224,1.001953125,1.24755859375,-0.12060546875,44.34176470588236,444.4576196582149
-0.1163115234375,-0.1186259765625,1.3059619140625005,1.316486617395539,0.8701171875,1.4189453125,-0.240234375,44.29470588235294,444.4466380329783
-0.0284208984375,-0.1557353515625,1.3494189453125005,1.3586731531765066,0.56689453125,1.27587890625,-0.59912109375,44.20058823529412,444.4466380329783
0.0877900390625,-0.2162822265625,1.3547900390625005,1.3747513020282611,0.03955078125,0.955078125,-1.1298828125,44.71823529411765,444.4466380329783
0.1888642578125,-0.2348369140625,1.4109423828125005,1.442766956823617,-0.244140625,0.74609375,-1.59814453125,44.20058823529412,444.4466380329783
0.2918916015625,-0.2206767578125,1.4710009765625005,1.5158307331457517,-0.38818359375,0.00634765625,-1.431640625,44.15352941176471,444.4466380329783
0.3446259765625,-0.1860087890625,1.4290087890625005,1.4816991774810526,-0.416015625,-0.681640625,-0.521484375,44.34176470588236,445.2037187186711
0.3402314453125,-0.1034892578125,1.4236376953125005,1.4673826189432333,-0.18505859375,-1.361328125,0.8466796875,44.29470588235294,445.2037187186711
0.3802705078125,0.0420185546875,1.4050830078125005,1.4562381250652057,0.447265625,-2.10107421875,2.03271484375,43.58882352941177,445.2037187186711
0.4505830078125,0.1704365234375,1.3401416015625005,1.4240973167902973,0.7275390625,-2.5693359375,2.0654296875,44.15352941176471,445.2037187186711
0.4144501953125,0.2436787109375,1.2942431640625005,1.3806569618414428,0.80517578125,-2.4736328125,1.19482421875,44.15352941176471,445.5925333983751
0.2953095703125,0.2290302734375,1.2117236328125005,1.268044467195584,0.55322265625,-1.498046875,-0.10302734375,44.29470588235294,445.5925333983751
0.1620087890625,0.1421162109375,1.1292041015625005,1.14958504171301,0.05859375,0.00830078125,-1.32373046875,44.29470588235294,445.5925333983751
0.1039033203125,0.0791279296875,1.0393603515625005,1.0475338035732862,-0.2138671875,1.2705078125,-1.82958984375,44.20058823529412,445.5925333983751
0.0799775390625,0.0459248046875,0.9753955078125,0.9797458298461308,-0.17236328125,1.591796875,-1.54443359375,44.388823529411766,445.5925333983751
0.0941376953125,0.0664326171875,0.9309619140625,0.9380646479534572,0.0908203125,1.3466796875,-0.78369140625,44.20058823529412,446.2398690888215
0.1371064453125,0.0962177734375,0.9207080078125,0.9358201071368164,0.37060546875,1.04931640625,-0.09228515625,44.29470588235294,446.2398690888215
0.1610322265625,0.0967060546875,0.9622119140625,0.9803750336318842,0.60302734375,1.27490234375,-0.10693359375,44.01235294117648,446.2398690888215
0.1434541015625,0.0464130859375,0.9670947265625,0.9787775354728686,0.80419921875,1.75927734375,-0.51171875,44.34176470588236,446.2398690888215
0.1307587890625,-0.0292705078125,0.9329150390625,0.9424887764072732,0.84912109375,2.11767578125,-1.0361328125,44.059411764705885,446.7261192293711
0.1410126953125,-0.0849345703125,0.8865283203125001,0.901682274523331,0.69384765625,2.21923828125,-1.49072265625,44.29470588235294,446.7261192293711
0.1473603515625,-0.1259501953125,0.8445361328125001,0.8664985888838904,0.40087890625,2.1044921875,-1.619140625,44.71823529411765,446.7261192293711
0.1805634765625,-0.1405986328125,0.8538134765625001,0.8839505627447858,0.08203125,1.85107421875,-1.5517578125,44.34176470588236,446.7261192293711
0.1624970703125,-0.1777080078125,0.8655322265625001,0.8984049583117137,0.375,1.43798828125,-0.41162109375,44.059411764705885,446.7261192293711
0.1458955078125,-0.1547587890625,0.8088916015625001,0.8363859187422424,0.0830078125,0.7890625,-0.10107421875,44.059411764705885,446.5964983657718
0.1317353515625,-0.1127666015625,0.8377001953125001,0.8554601840564247,-0.20703125,0.53955078125,-0.556640625,44.48294117647059,446.5964983657718
0.0838837890625,-0.0863994140625,0.8635791015625001,0.8719347529909105,-0.30419921875,0.54248046875,-1.1533203125,44.15352941176471,446.5964983657718
0.0438447265625,-0.0951884765625,0.8435595703125001,0.8500446781101801,-0.2333984375,0.4755859375,-1.29296875,44.34176470588236,446.5964983657718
0.0257783203125,-0.0986064453125,0.8098681640625001,0.8162562073376627,-0.138671875,0.345703125,-1.048828125,44.15352941176471,445.7199737947807
0.0155244140625,-0.0986064453125,0.8171923828125001,0.8232664386551432,-0.10009765625,0.36669921875,-0.7373046875,44.48294117647059,445.7199737947807
0.0228486328125,-0.0893291015625,0.7942431640625001,0.7995773584009087,-0.03173828125,0.41748046875,-0.4736328125,44.29470588235294,445.7199737947807
0.0384736328125,-0.0693095703125,0.7683642578125001,0.7724426643074866,-0.02392578125,0.447265625,-0.2978515625,44.34176470588236,445.7199737947807
0.0223603515625,-0.0444072265625,0.7463916015625001,0.7480457271958751,-0.05224609375,0.3828125,-0.26806640625,43.54176470588236,445.7199737947807
-0.0059599609375,-0.0219462890625,0.7634814453125001,0.763820056082881,-0.04833984375,0.5224609375,-0.2998046875,44.15352941176471,445.8627326800865
-0.0792021484375,-0.0512431640625,0.7878955078125001,0.793522635727154,0.13037109375,0.70458984375,-0.01025390625,44.76529411764706,445.8627326800865
-0.0709013671875,-0.0346416015625,0.7659228515625001,0.7699771808134986,0.2099609375,0.81787109375,0.2353515625,43.30647058823529,445.8627326800865
-0.0752958984375,-0.0297587890625,0.7859423828125001,0.7901015674892482,0.32177734375,0.8818359375,0.3564453125,44.20058823529412,445.8627326800865
-0.0508818359375,-0.0082744140624999,0.7742236328125001,0.7759379232656651,0.3828125,0.8466796875,0.27783203125,44.34176470588236,445.2359380422844
-0.0464873046875,-0.0131572265624999,0.7937548828125001,0.7952238653967895,0.474609375,0.91455078125,0.3740234375,44.48294117647059,445.2359380422844
-0.0420927734375,-0.0004619140624999,0.8069384765625001,0.8080357169687923,0.47802734375,0.98291015625,0.328125,44.48294117647059,445.2359380422844
-0.0357451171875,0.0034443359375,0.8337939453125001,0.8345669057017435,0.5712890625,1.04443359375,0.380859375,44.48294117647059,445.2359380422844
-0.0250029296875,0.0044208984375,0.8406298828125001,0.8410132524005257,0.60791015625,0.9423828125,0.716796875,44.29470588235294,445.2359380422844
0.0042939453125,0.0049091796875,0.8406298828125001,0.8406551837042988,0.5244140625,0.5234375,0.9423828125,44.34176470588236,445.2139748838927
0.0233369140625,0.0102802734375,0.8762744140625001,0.8766453925735811,0.3779296875,0.0751953125,1.00732421875,44.29470588235294,445.2139748838927
0.0111298828125,0.0161396484375,0.9128955078125,0.913106001911798,0.32080078125,-0.30908203125,1.052734375,44.059411764705885,445.2139748838927
-0.0162138671875,2.6367187500001e-05,0.9412158203125,0.9413554645249236,0.41162109375,-0.54296875,1.24755859375,44.01235294117648,445.2139748838927
-0.0284208984375,0.0058857421875,0.9343798828125,0.9348305487273048,0.41015625,-0.63525390625,0.99755859375,44.34176470588236,445.4197251053882
-0.0533232421875,-0.0048564453124999,0.9241259765625,0.9256758470307274,0.37158203125,-0.64111328125,0.951171875,44.76529411764706,445.4197251053882
-0.0796904296875,-0.0082744140624999,0.9412158203125,0.9446196329308366,0.3271484375,-0.685546875,0.91064453125,44.059411764705885,445.4197251053882
-0.1104521484375,-0.0019267578124999,0.9636767578125,0.9699877746848872,0.28955078125,-0.69384765625,0.8896484375,44.059411764705885,445.4197251053882
-0.1407255859375,0.0010029296875,0.9900439453125,0.9999958550190852,0.2734375,-0.73193359375,0.869140625,43.447647058823534,445.4197251053882
-0.1583037109375,0.0117451171875,1.0271533203125005,1.0393468892065465,0.365234375,-0.68408203125,0.84716796875,43.54176470588236,444.9108456110353
-0.1421904296875,0.0019794921875,0.9885791015625,0.9987545628081786,0.34130859375,-0.7001953125,0.8271484375,44.15352941176471,444.9108456110353
-0.1382841796875,0.0044208984375,0.9866259765625,0.9962795171651108,0.2763671875,-0.70751953125,0.822265625,44.388823529411766,444.9108456110353
-0.1231474609375,0.0063740234375,0.9895556640625,0.997209274720362,0.22998046875,-0.6669921875,0.82080078125,44.48294117647059,444.9108456110353
-0.1119169921875,0.0112568359375,0.9866259765625,0.9930170930671476,0.224609375,-0.6728515625,0.80322265625,44.20058823529412,445.4629269133271
-0.1050810546875,0.0044208984375,0.9919970703125,0.9975568955732876,0.1552734375,-0.57421875,0.734375,44.388823529411766,445.4629269133271
-0.1060576171875,0.0049091796875,1.0032275390625005,1.0088299229018214,0.150390625,-0.515625,0.67626953125,44.20058823529412,445.4629269133271
-0.0997099609375,0.0039326171875,1.0222705078125005,1.0271292678778696,0.2451171875,-0.49951171875,0.697265625,44.059411764705885,445.4629269133271
-0.0923857421875,0.0049091796875,1.0359423828125005,1.04006530848403,0.0771484375,-0.48583984375,0.72412109375,44.29470588235294,445.4629269133271
-0.1006865234375,-0.0024150390624999,1.0647509765625005,1.0695037402956578,0.02685546875,-0.54736328125,0.7587890625,43.58882352941177,445.2681575677598
-0.1075224609375,-0.0082744140624999,1.0828173828125005,1.0881741726649492,-0.037109375,-0.55322265625,0.74658203125,44.53,445.2681575677598
-0.1202177734375,-0.0199931640625,1.1023486328125005,1.1090647176441455,-0.1044921875,-0.50244140625,0.7353515625,44.29470588235294,445.2681575677598
-0.1329130859375,-0.0292705078125,1.1282275390625005,1.1364066309820866,-0.1787109375,-0.4609375,0.77392578125,44.29470588235294,445.2681575677598
-0.1578154296875,-0.0385478515625,1.1492236328125005,1.16064921699982,-0.2685546875,-0.42529296875,0.89697265625,44.29470588235294,445.2125253056129
-0.1836943359375,-0.0497783203125,1.1877978515625005,1.2029485551781274,-0.2890625,-0.2900390625,1.13720703125,44.20058823529412,445.2125253056129
-0.1959013671875,-0.0614970703125,1.1941455078125005,1.211669397629455,-0.34423828125,-0.17578125,1.40966796875,44.29470588235294,445.2125253056129
-0.1876005859375,-0.0654033203125,1.2087939453125005,1.225011990298933,-0.416015625,-0.072265625,1.70556640625,44.34176470588236,445.2125253056129
-0.1436552734375,-0.0590556640625,1.2488330078125005,1.2584547232404837,-0.48974609375,-0.0341796875,2.04931640625,44.34176470588236,445.2125253056129
-0.0918974609375,-0.0160869140625,1.2747119140625005,1.278121432409181,-0.4560546875,-0.2060546875,2.3623046875,43.54176470588236,445.0082274834912
-0.0445341796875,0.0454365234375,1.2571337890625005,1.2587426799887116,-0.25048828125,-0.3603515625,2.32470703125,44.388823529411766,445.0082274834912
-0.0333037109375,0.0854755859375,1.2551806640625005,1.2585283915708645,-0.22509765625,-0.3916015625,1.96142578125,44.059411764705885,445.0082274834912
-0.0298857421875,0.0967060546875,1.3157275390625005,1.3196151619494156,-0.12548828125,-0.47509765625,1.517578125,44.76529411764706,445.0082274834912
0.0516572265625,0.0630146484375,1.3420947265625005,1.344565941127732,-0.16162109375,-0.6650390625,1.08203125,44.059411764705885,445.0726654713215
0.1786103515625,-0.0019267578124999,1.3411181640625005,1.3529609381128929,-0.34228515625,-0.81298828125,0.5908203125,44.15352941176471,445.0726654713215
0.2865205078125,-0.0790751953125,1.3069384765625005,1.3403115568517463,-0.70703125,-0.85400390625,0.248046875,44.29470588235294,445.0726654713215
0.3089814453125,-0.1445048828125,1.2649462890625005,1.310129882460913,-0.9248046875,-0.6943359375,-0.0517578125,44.15352941176471,445.0726654713215
0.2816376953125,-0.1738017578125,1.2395556640625005,1.282975092022085,-0.96826171875,-0.30078125,-0.2724609375,44.15352941176471,445.0726654713215
0.2372041015625,-0.1498759765625,1.1643603515625005,1.1976909544784018,-1.00732421875,0.1728515625,-0.60302734375,43.54176470588236,445.3003772951069
0.2201142578125,-0.1196025390625,1.1130908203125005,1.1409321750684829,-1.07666015625,0.46875,-0.63330078125,44.059411764705885,445.3003772951069
0.2289033203125,-0.1005595703125,1.0745166015625005,1.1032202337996464,-1.0537109375,0.611328125,-0.35986328125,43.73,445.3003772951069
0.2704072265625,-0.0673564453125,1.0310595703125005,1.0680546785794052,-0.87890625,0.8125,0.0322265625,44.76529411764706,445.3003772951069
0.3109345703125,-0.0551494140625,1.0125048828125005,1.0606073272451078,-0.6650390625,0.8408203125,0.427734375,44.15352941176471,446.294055875972
0.3363251953125,-0.0585673828125,1.0291064453125005,1.0842531305535748,-0.431640625,0.79443359375,0.861328125,44.71823529411765,446.294055875972
0.3397431640625,-0.0727275390625,1.0349658203125005,1.0917275125599857,-0.1181640625,0.68212890625,1.34326171875,44.29470588235294,446.294055875972
0.3197236328125,-0.0507548828125,1.0183642578125005,1.0685808444372085,-0.01220703125,0.5166015625,1.646484375,44.29470588235294,446.294055875972
0.2787080078125,-0.0053447265624999,1.0496142578125005,1.0860003728931802,0.02490234375,0.2060546875,1.7275390625,44.15352941176471,446.294055875972
0.2201142578125,0.0356708984375,1.0940478515625005,1.1165408192252575,0.20556640625,0.1806640625,1.576171875,44.76529411764706,446.76932653773815
0.1751923828125,0.0469013671875,1.1013720703125005,1.116204527183088,0.34423828125,0.265625,1.0732421875,44.29470588235294,446.76932653773815
0.1673798828125,0.0444599609375,1.0823291015625005,1.0960971660331849,0.38427734375,0.2490234375,0.53125,44.57705882352941,446.76932653773815
0.1366181640625,0.0049091796875,1.1116259765625005,1.1200004172166833,0.41845703125,0.20068359375,0.3349609375,44.059411764705885,446.76932653773815
0.1312470703125,-0.0209697265625,1.1287158203125005,1.1365143755894338,0.50927734375,0.16162109375,0.40380859375,44.29470588235294,446.6506865319892
0.1278291015625,-0.0395244140625,1.0867236328125005,1.0949295468779978,0.65087890625,0.08544921875,0.40966796875,44.059411764705885,446.6506865319892
0.0970673828125,-0.0575908203125,1.0286181640625005,1.0347918181110844,0.63232421875,0.03662109375,0.35693359375,44.34176470588236,446.6506865319892
0.0853486328125,-0.0800517578125,0.9861376953125,0.993056004044124,0.5361328125,0.00439453125,0.3134765625,43.447647058823534,446.6506865319892
0.0731416015625,-0.0863994140625,0.9412158203125,0.9479988254402024,0.431640625,0.00146484375,0.23046875,44.34176470588236,446.6506865319892
0.0628876953125,-0.0863994140625,0.8972705078125001,0.9036116893678184,0.30859375,0.00927734375,0.15185546875,44.20058823529412,445.94769630485786
0.0526337890625,-0.0824931640625,0.8684619140625001,0.8739573983010954,0.2333984375,0.1357421875,0.06884765625,44.388823529411766,445.94769630485786
0.0365205078125,-0.0912822265625,0.8381884765625001,0.8439348995149182,0.21728515625,0.26318359375,0.05322265625,44.20058823529412,445.94769630485786
0.0218720703125,-0.0981181640625,0.8201220703125001,0.8262601114615251,0.2353515625,0.46044921875,0.201171875,44.48294117647059,445.94769630485786
0.0086884765625,-0.1010478515625,0.8132861328125001,0.8195855609730357,0.25927734375,0.951171875,0.39208984375,44.29470588235294,446.0985519121064
0.0047822265625,-0.0990947265625,0.7888720703125001,0.7950860191466844,0.29052734375,1.34130859375,0.482421875,43.30647058823529,446.0985519121064
-0.0044951171875,-0.0893291015625,0.7693408203125001,0.774522557620889,0.24365234375,1.7685546875,0.46875,43.73,446.0985519121064
-0.0010771484374999,-0.0790751953125,0.7268603515625001,0.7311497913806908,0.345703125,1.80615234375,0.4677734375,44.29470588235294,446.0985519121064
0.0140595703125,-0.0771220703125,0.6814501953125001,0.68594449770962,0.37451171875,1.6103515625,0.4609375,44.15352941176471,446.0985519121064
0.0370087890625,-0.0717509765625,0.6438525390625001,0.6488944021663102,0.4384765625,1.3193359375,0.390625,44.20058823529412,445.9799192309415
0.0584931640625,-0.0785869140625,0.6145556640625001,0.6223150468494312,0.390625,0.78515625,0.30517578125,44.059411764705885,445.9799192309415
0.0667939453125,-0.0883525390625,0.6023486328125001,0.6124471224034674,0.3408203125,0.3701171875,0.20068359375,44.20058823529412,445.9799192309415
0.0472626953125,-0.0859111328125,0.6306689453125001,0.6382458802772725,0.3115234375,-0.17333984375,0.08935546875,44.34176470588236,445.9799192309415
0.0184541015625,-0.0863994140625,0.6585009765625001,0.664401195625496,0.25439453125,-0.3134765625,0.08447265625,44.53,445.94769630485786
0.0213837890625,-0.0790751953125,0.6956103515625001,0.700416957354178,0.13916015625,-0.38671875,0.248046875,44.71823529411765,445.94769630485786
0.0189423828125,-0.0815166015625,0.7341845703125001,0.7389389375867704,0.111328125,-0.60986328125,0.06884765625,44.20058823529412,445.94769630485786
0.0443330078125,-0.0732158203125,0.7727587890625001,0.7774844808734621,0.1083984375,-0.89404296875,-0.24609375,44.76529411764706,445.94769630485786
0.0140595703125,-0.0575908203125,0.8069384765625001,0.80911314354585,-0.01220703125,-0.9990234375,-0.50732421875,44.15352941176471,445.94769630485786
-0.0542998046875,-0.0839580078125,0.8577197265625001,0.8635279643412797,-0.1181640625,-0.8046875,-0.57763671875,44.76529411764706,445.2659842795976
-0.0591826171875,-0.1044658203125,0.9070361328125,0.9149482149379716,-0.11669921875,-0.62744140625,-0.32080078125,44.29470588235294,445.2659842795976
-0.0401396484375,-0.1005595703125,0.9558642578125,0.9619770776487152,-0.0361328125,-0.73779296875,-0.19873046875,43.82411764705883,445.2659842795976
-0.0728544921875,-0.1176494140625,0.9880908203125,0.9977337474732312,0.087890625,-0.90478515625,-0.13525390625,44.15352941176471,445.2659842795976
-0.0596708984375,-0.1244853515625,1.0125048828125005,1.021872475699944,0.1240234375,-0.98681640625,-0.23388671875,44.34176470588236,445.0514279099281
-0.0669951171875,-0.1200908203125,1.0496142578125005,1.0585840736821908,0.197265625,-0.96875,-0.45458984375,44.29470588235294,445.0514279099281
-0.0723662109375,-0.1186259765625,1.0696337890625005,1.0786220067776564,0.2646484375,-0.91552734375,-0.515625,44.059411764705885,445.0514279099281
-0.0684599609375,-0.1259501953125,1.0935595703125005,1.1029155687417245,0.2978515625,-0.91259765625,-0.39697265625,44.29470588235294,445.0514279099281
-0.0503935546875,-0.1200908203125,1.1091845703125005,1.1168042471698865,0.3203125,-0.853515625,-0.310546875,44.15352941176471,445.0514279099281
-0.0313505859375,-0.1117900390625,1.1287158203125005,1.134671439270391,0.3408203125,-0.6689453125,-0.32958984375,43.54176470588236,445.0616839711837
-0.0225615234375,-0.1108134765625,1.1409228515625005,1.1465136728993666,0.37158203125,-0.3544921875,-0.376953125,44.15352941176471,445.0616839711837
-0.0337919921875,-0.1254619140625,1.1462939453125005,1.1536344306912496,0.35888671875,-0.0693359375,-0.37646484375,44.20058823529412,445.0616839711837
-0.0552763671875,-0.1337626953125,1.1628955078125005,1.171867696251247,0.38818359375,0.19091796875,-0.2958984375,44.388823529411766,445.0616839711837
-0.0630888671875,-0.1337626953125,1.1594775390625005,1.1688716043307317,0.3955078125,0.4521484375,-0.30126953125,44.20058823529412,445.1041599244692
-0.0806669921875,-0.1308330078125,1.1511767578125005,1.1613924260513946,0.42431640625,0.7021484375,-0.3076171875,44.20058823529412,445.1041599244692
-0.1055693359375,-0.1225322265625,1.1516650390625005,1.1629666347043146,0.47509765625,0.95654296875,-0.326171875,43.30647058823529,445.1041599244692
-0.1216826171875,-0.1171611328125,1.1677783203125005,1.1799320301438525,0.4755859375,1.11865234375,-0.369140625,43.30647058823529,445.1041599244692
-0.1128935546875,-0.1220439453125,1.1868212890625005,1.198409133580596,0.43896484375,1.2490234375,-0.44921875,44.29470588235294,445.1041599244692
-0.0757841796875,-0.1366923828125,1.2258837890625005,1.2358070697710462,0.32568359375,1.126953125,-0.5068359375,44.34176470588236,444.8771752657625
-0.0162138671875,-0.1591533203125,1.3054736328125005,1.31523917019846,0.16259765625,1.3173828125,-0.634765625,44.29470588235294,444.8771752657625
0.0985322265625,-0.1869853515625,1.4060595703125005,1.4218564050696851,-0.04638671875,1.712890625,-1.1669921875,44.20058823529412,444.8771752657625
0.2440400390625,-0.2006572265625,1.4226611328125005,1.4573206792098736,-0.4365234375,1.7412109375,-2.12060546875,44.48294117647059,444.8771752657625
0.3763642578125,-0.1669658203125,1.3923876953125005,1.4519886823832464,-0.7578125,1.31689453125,-2.650390625,44.20058823529412,445.29892851332977
0.4124970703125,-0.0697978515625,1.3787158203125005,1.4407924507989025,-0.92529296875,0.611328125,-1.8505859375,43.54176470588236,445.29892851332977
0.4027314453125,0.0722919921875,1.3918994140625005,1.450793826856685,-0.609375,-0.51904296875,0.20556640625,44.29470588235294,445.29892851332977
0.4207978515625,0.1513935546875,1.3464892578125005,1.4188108266026835,-0.1435546875,-1.521484375,1.515625,44.29470588235294,445.29892851332977
0.4334931640625,0.2197529296875,1.3108447265625005,1.3980420489212309,-0.173828125,-2.19677734375,1.47265625,44.29470588235294,445.29892851332977
0.4007783203125,0.2671162109375,1.2351611328125005,1.325744076429827,-0.76416015625,-3.25390625,0.56591796875,44.20058823529412,445.46003278012256
0.2713837890625,0.2802998046875,1.2507861328125005,1.3102225351099024,-0.49853515625,-2.19921875,-0.48095703125,44.29470588235294,445.46003278012256
0.1341767578125,0.2148701171875,1.2185595703125005,1.2446123878531137,-0.2529296875,-0.09375,-0.44580078125,43.30647058823529,445.46003278012256
0.1302705078125,0.1660419921875,1.1140673828125005,1.133881158597326,-0.18212890625,1.22021484375,0.052734375,43.40058823529412,445.46003278012256
0.1483369140625,0.1426044921875,1.0281298828125005,1.0485184486682555,-0.00927734375,1.490234375,0.3935546875,43.447647058823534,446.41053483118594
0.1654267578125,0.1177021484375,1.0051806640625005,1.0254793880679844,0.1845703125,1.3798828125,0.5751953125,44.29470588235294,446.41053483118594
0.1610322265625,0.0854755859375,1.0261767578125005,1.042245744562006,0.31787109375,1.35498046875,0.67724609375,44.29470588235294,446.41053483118594
0.1581025390625,0.0307880859375,1.0359423828125005,1.0483896888089586,0.35595703125,1.640625,0.732421875,44.20058823529412,446.41053483118594
0.1649384765625,-0.0155986328124999,1.0110400390625005,1.024524269592419,0.29736328125,1.638671875,0.63720703125,44.20058823529412,446.41053483118594
0.1756806640625,-0.0566142578125,0.9861376953125,1.0032628887930373,0.20361328125,1.38232421875,0.419921875,44.15352941176471,446.95098890355
0.2040009765625,-0.0898173828125,0.9822314453125,1.0072051294817872,-0.05859375,1.24951171875,0.1806640625,44.15352941176471,446.95098890355
0.1927705078125,-0.1044658203125,0.9871142578125,1.0111716640969404,-0.046875,1.1328125,0.5322265625,44.48294117647059,446.95098890355
0.1942353515625,-0.1127666015625,0.9558642578125,0.9818962050990956,0.10791015625,1.01708984375,1.33349609375,44.059411764705885,446.95098890355
0.1903291015625,-0.0785869140625,0.9021533203125,0.9253548958720236,0.0146484375,0.71630859375,1.669921875,44.20058823529412,446.1300556038128
0.2059541015625,-0.0058330078124999,0.8669970703125001,0.8911425451974647,-0.09765625,0.23876953125,1.43994140625,44.20058823529412,446.1300556038128
0.1649384765625,0.0425068359375,0.9612353515625,0.976209472011852,-0.2236328125,-0.26708984375,0.77734375,44.34176470588236,446.1300556038128
0.0794892578125,0.0405537109375,0.8391650390625001,0.8438963848501495,-0.17578125,-0.26953125,0.5478515625,44.76529411764706,446.1300556038128
0.0584931640625,0.0459248046875,0.8054736328125001,0.8088994443586878,-0.236328125,-0.279296875,0.60400390625,44.059411764705885,446.1300556038128
0.0379853515625,0.0561787109375,0.7869189453125001,0.7898356544165775,-0.2763671875,-0.2548828125,0.6591796875,44.57705882352941,445.7624559640674
0.0394501953125,0.0718037109375,0.7654345703125001,0.7698065810605104,-0.26708984375,-0.1884765625,0.5947265625,44.76529411764706,445.7624559640674
0.0243134765625,0.0649677734375,0.7463916015625001,0.7496081507100996,-0.26904296875,-0.2314453125,0.62255859375,44.20058823529412,445.7624559640674
0.0111298828125,0.0537373046875,0.7283251953125001,0.7303897331791354,-0.29443359375,-0.2275390625,0.4052734375,44.20058823529412,445.7624559640674
0.0008759765625,0.0449482421875,0.7161181640625001,0.7175279344464088,-0.244140625,-0.1669921875,0.3662109375,44.15352941176471,445.7953999141962
0.0013642578125,0.0312763671875,0.6975634765625001,0.6982656200743295,-0.16552734375,-0.0166015625,0.44287109375,44.29470588235294,445.7953999141962
0.0067353515625,0.0117451171875,0.6741259765625001,0.6742619261197854,-0.0654296875,0.0966796875,0.552734375,43.40058823529412,445.7953999141962
0.0101533203125,0.0161396484375,0.6482470703125001,0.6485274414655048,-0.05224609375,0.24267578125,0.54248046875,44.388823529411766,445.7953999141962
0.0301728515625,0.0166279296875,0.6414111328125001,0.6423356835120713,-0.06982421875,0.369140625,0.421875,44.76529411764706,445.7953999141962
0.0248017578125,0.0044208984375,0.6663134765625001,0.666789562442597,-0.14892578125,0.51904296875,0.3837890625,44.34176470588236,445.7836974306748
0.0208955078125,0.0010029296875,0.6829150390625001,0.68323537576185,-0.2490234375,0.541015625,0.49609375,44.20058823529412,445.7836974306748
0.0267548828125,-0.0033916015624999,0.7214892578125001,0.7219931272902129,-0.09033203125,0.5224609375,0.599609375,44.76529411764706,445.7836974306748
0.0663056640625,0.0161396484375,0.7166064453125001,0.7198484054312215,-0.1630859375,0.24853515625,0.49462890625,44.48294117647059,445.7836974306748
0.0233369140625,-0.0121806640624999,0.7942431640625001,0.7946792961912217,-0.083984375,0.14794921875,0.359375,44.20058823529412,445.75147467510834
0.0072236328125,-0.0136455078124999,0.8333056640625001,0.8334486849909327,-0.0361328125,0.048828125,0.55029296875,44.388823529411766,445.75147467510834
0.0096650390625,-0.0068095703124999,0.8792041015625001,0.8792835921545695,-0.02197265625,-0.13134765625,0.68701171875,44.15352941176471,445.75147467510834
0.0125947265625,-0.0038798828124999,0.9226611328125,0.9227552474143232,-0.01904296875,-0.28662109375,0.73779296875,44.34176470588236,445.75147467510834
0.0174775390625,-0.0033916015624999,0.9607470703125,0.9609120149352344,-0.03173828125,-0.41015625,0.79541015625,44.34176470588236,445.75147467510834
0.0135712890625,0.0044208984375,0.9885791015625,0.9886821351050764,-0.05712890625,-0.45556640625,0.81591796875,44.57705882352941,445.49225423912594
-0.0098662109375,0.0073505859375,1.0129931640625005,1.0130678771283017,-0.06005859375,-0.4931640625,0.94189453125,44.20058823529412,445.49225423912594
-0.0162138671875,0.0049091796875,1.0305712890625005,1.0307105177373137,-0.0888671875,-0.50439453125,0.99072265625,44.53,445.49225423912594
-0.0289091796875,0.0332294921875,1.0515673828125005,1.052489382567052,-0.111328125,-0.49169921875,0.9033203125,44.76529411764706,445.49225423912594
-0.0494169921875,0.0302998046875,1.0730517578125005,1.0746162999998916,-0.10400390625,-0.42626953125,0.90771484375,44.34176470588236,445.2667082655965
-0.0640654296875,0.0278583984375,1.0779345703125005,1.080196004213745,-0.08984375,-0.3564453125,1.041015625,44.76529411764706,445.2667082655965
-0.0591826171875,0.0337177734375,1.0896533203125005,1.0917801192963723,-0.12109375,-0.162109375,1.0546875,44.29470588235294,445.2667082655965
-0.0699248046875,0.0288349609375,1.1111376953125005,1.1137090783625798,-0.119140625,-0.033203125,0.9697265625,44.15352941176471,445.2667082655965
-0.0733427734375,0.0102802734375,1.0886767578125005,1.091192892864773,-0.05908203125,0.099609375,0.9453125,44.29470588235294,445.2667082655965
-0.0621123046875,0.0117451171875,1.0437548828125005,1.045667318780824,-0.138671875,0.1435546875,0.78076171875,44.71823529411765,445.0389960919863
-0.0821318359375,-0.0038798828124999,1.0486376953125005,1.0518563152804736,-0.25,0.31298828125,0.60791015625,44.388823529411766,445.0389960919863
-0.0933623046875,-0.0009501953124999,1.0461962890625005,1.0503542726413029,-0.3271484375,0.50390625,0.46728515625,44.34176470588236,445.0389960919863
-0.1158232421875,0.0039326171875,1.0608447265625005,1.067156044252308,-0.40673828125,0.6708984375,0.45166015625,44.20058823529412,445.0389960919863
-0.1241240234375,0.0205341796875,1.0671923828125005,1.0745827132718886,-0.4375,0.8115234375,0.5322265625,44.29470588235294,445.3421303824874
-0.1241240234375,0.0327412109375,1.0715869140625005,1.0792484767086583,-0.45654296875,0.94873046875,0.6181640625,44.48294117647059,445.3421303824874
-0.1334013671875,0.0532490234375,1.0857470703125005,1.095206868110641,-0.43994140625,1.1005859375,0.736328125,44.34176470588236,445.3421303824874
-0.1368193359375,0.0527607421875,1.1023486328125005,1.112059231725605,-0.35400390625,1.30712890625,0.828125,44.29470588235294,445.3421303824874
-0.1460966796875,0.0351826171875,1.1121142578125005,1.1222210917629925,-0.3759765625,1.53271484375,0.828125,44.15352941176471,445.3421303824874
-0.1641630859375,0.0190693359375,1.1702197265625005,1.1818322075462462,-0.45654296875,1.798828125,0.9052734375,44.29470588235294,445.23304017074776
-0.1612333984375,0.0093037109375,1.2634814453125005,1.2737614103347137,-0.564453125,1.9638671875,1.19287109375,44.15352941176471,445.23304017074776
-0.0953154296875,0.0263935546875,1.3674853515625005,1.3710571970576464,-0.470703125,1.92822265625,1.56787109375,44.20058823529412,445.23304017074776
-0.0098662109375,0.0776630859375,1.4089892578125005,1.4111625085958808,-0.08984375,1.83837890625,1.81201171875,44.059411764705885,445.23304017074776
0.0926728515625,0.1284443359375,1.3748095703125005,1.3839030166431432,0.4287109375,1.68310546875,1.9169921875,44.20058823529412,445.3531118159168
0.2083955078125,0.1255146484375,1.3552783203125005,1.3769393378641963,0.7412109375,1.5244140625,1.93798828125,44.29470588235294,445.3531118159168
0.3675751953125,0.0488544921875,1.3635791015625005,1.4130981041081034,0.74755859375,1.33154296875,1.5615234375,44.20058823529412,445.3531118159168
0.5238251953125,-0.0654033203125,1.3333056640625005,1.4340064237559131,0.63427734375,0.970703125,0.69580078125,44.29470588235294,445.3531118159168
0.6029267578125,-0.1650126953125,1.2820361328125005,1.4263122066144631,0.259765625,0.466796875,-0.271484375,44.15352941176471,445.3531118159168
0.5555634765625,-0.1596416015625,1.2893603515625005,1.4130061336105466,-0.2158203125,0.2158203125,-1.17822265625,44.20058823529412,445.7624559640674
0.4720673828125,-0.1742900390625,1.2395556640625005,1.3378052458939147,-0.3935546875,0.09130859375,-1.91015625,44.53,445.7624559640674
0.3675751953125,-0.2074931640625,1.1350634765625005,1.2110053811473505,-0.658203125,0.07177734375,-2.36083984375,43.447647058823534,445.7624559640674
0.2508759765625,-0.2167705078125,1.0730517578125005,1.1231065326218943,-0.8974609375,0.22314453125,-2.439453125,44.48294117647059,445.7624559640674
0.1263642578125,-0.2030986328125,1.0632861328125005,1.0898597985677665,-0.8994140625,0.4091796875,-2.08349609375,44.29470588235294,446.5936264742504
0.0062470703125,-0.2172587890625,1.0784228515625005,1.100107382978856,-0.4140625,0.59912109375,-0.8828125,43.777058823529416,446.5936264742504
-0.0001005859374999,-0.2255595703125,1.0427783203125005,1.0668944442590609,0.18505859375,0.630859375,0.625,44.29470588235294,446.5936264742504
0.1126923828125,-0.2382548828125,0.9919970703125,1.026412758025026,0.25048828125,0.60302734375,1.80712890625,44.48294117647059,446.5936264742504
0.1932587890625,-0.2055400390625,0.9705126953125,1.010688161091467,0.5224609375,0.38037109375,2.21728515625,44.29470588235294,446.5936264742504
0.2328095703125,-0.1181376953125,0.9587939453125,0.9937014846777424,0.3330078125,0.486328125,1.79638671875,44.29470588235294,446.8309123827332
0.2459931640625,-0.0141337890624999,0.9963916015625,1.0264056821856684,-0.00830078125,0.7841796875,0.54052734375,44.059411764705885,446.8309123827332
0.1942353515625,0.0488544921875,1.0227587890625005,1.0421850477761128,-0.10205078125,0.94775390625,-0.701171875,44.15352941176471,446.8309123827332
0.1092744140625,0.0620380859375,1.0125048828125005,1.0202723947038097,0.0771484375,0.82177734375,-0.92626953125,44.15352941176471,446.8309123827332
0.0790009765625,0.0659443359375,1.0349658203125005,1.0400692568070615,0.21630859375,0.7451171875,-0.5234375,44.15352941176471,446.5181930173823
0.1019501953125,0.0722919921875,1.0349658203125005,1.0424846395385503,0.52001953125,0.869140625,-0.2822265625,43.54176470588236,446.5181930173823
0.1190400390625,0.0449482421875,0.9890673828125,0.997218713783148,0.66650390625,1.15283203125,-0.3671875,44.29470588235294,446.5181930173823
0.1087861328125,0.0122333984375,0.9358447265625,0.9422257855548584,0.74560546875,1.26953125,-0.4423828125,44.20058823529412,446.5181930173823
0.0892548828125,-0.0278056640625,0.8831103515625001,0.8880447523051258,0.65380859375,0.98583984375,-0.53125,43.54176470588236,446.5181930173823
