AccX,AccY,AccZ,Magnitude,GyroX,GyroY,GyroZ,Temperature,Altitude
0.0418916015625,-0.1947978515625,0.9617236328125,0.98214736937229,0.18701171875,0.39892578125,-1.31689453125,43.54176470588236,329.90097753937806
0.0013642578125,-0.1889384765625,1.0364306640625005,1.0535122830485522,0.18115234375,0.240234375,-0.96923828125,43.25941176470588,329.90097753937806
-0.0220732421875,-0.2070048828125,1.0710986328125005,1.0911418472140513,0.166015625,0.0283203125,-0.4287109375,42.64764705882353,329.90097753937806
-0.0435576171875,-0.2001689453125,1.1194384765625005,1.138027844778476,0.22998046875,-0.2216796875,0.1513671875,43.16529411764706,329.90097753937806
-0.0464873046875,-0.1996806640625,1.1628955078125005,1.1808299620131777,0.3681640625,-0.43212890625,0.55712890625,43.02411764705882,329.659756505238
-0.0303740234375,-0.2138408203125,1.1931689453125005,1.212560353050457,0.4619140625,-0.90283203125,0.81982421875,42.93,329.659756505238
-0.0103544921875,-0.2182353515625,1.2185595703125005,1.237990836226284,0.59521484375,-1.77294921875,1.0029296875,43.02411764705882,329.659756505238
0.0228486328125,-0.2426494140625,1.1907275390625005,1.2154146907323908,0.517578125,-3.25439453125,1.193359375,42.788823529411765,329.659756505238
-0.0049833984375,-0.2079814453125,1.3274462890625005,1.3436497929892546,0.74609375,-4.1787109375,1.1708984375,43.02411764705882,329.659756505238
0.1082978515625,-0.1982158203125,1.4119189453125005,1.4298716880222413,0.9619140625,-4.1787109375,0.77197265625,43.25941176470588,329.6205584749964
-0.0464873046875,-0.2309306640625,1.4861376953125005,1.5046910947201777,1.03515625,-2.33056640625,0.3232421875,43.02411764705882,329.6205584749964
-0.0601591796875,-0.2280009765625,1.4026416015625005,1.4223245180506248,0.41796875,-1.33544921875,0.48193359375,42.93,329.6205584749964
-0.0850615234375,-0.1991923828125,1.4246142578125005,1.4409853752563524,0.52734375,0.29443359375,0.708984375,42.60058823529412,329.6205584749964
-0.0411162109375,-0.1137431640625,1.4817431640625005,1.4866710646335846,0.6591796875,0.998046875,0.92724609375,42.97705882352941,329.2260342321194
0.0165009765625,-0.0575908203125,1.5559619140625005,1.557114787941089,0.78564453125,1.3232421875,0.41064453125,43.02411764705882,329.2260342321194
0.0760712890625,-0.0756572265625,1.6047900390625005,1.608372446426816,0.9619140625,1.37255859375,-0.5390625,42.97705882352941,329.2260342321194
0.0907197265625,-0.1933330078125,1.6721728515625005,1.6857549543750618,0.966796875,1.583984375,-1.02294921875,43.68294117647059,329.2260342321194
0.1888642578125,-0.2206767578125,1.7253955078125005,1.7496735688971412,0.84912109375,1.6328125,-1.18603515625,42.97705882352941,329.2260342321194
0.3954072265625,-0.1913798828125,1.6609423828125005,1.7180520170780746,0.5888671875,1.51611328125,-1.8896484375,43.87117647058824,328.53021846345644
0.5731416015625,-0.1967509765625,1.5872119140625005,1.6989537669877512,0.3994140625,1.08740234375,-2.38818359375,43.16529411764706,328.53021846345644
0.6312470703125,-0.1757548828125,1.5183642578125005,1.6537208537153587,0.1904296875,0.484375,-1.57373046875,42.93,328.53021846345644
0.6898408203125,-0.0795634765625,1.3718798828125005,1.5376167002988017,-0.09765625,-0.3388671875,-0.2822265625,43.02411764705882,328.53021846345644
0.6717744140625,0.0351826171875,1.2341845703125005,1.4056067136786976,-0.091796875,-0.9140625,0.89013671875,43.118235294117646,330.5203838943441
0.6239228515625,0.0786396484375,1.1252978515625005,1.289092383710118,0.07177734375,-1.0615234375,1.87158203125,43.02411764705882,330.5203838943441
0.5619111328125,0.0776630859375,1.0667041015625005,1.2081528530720869,0.25830078125,-0.88671875,2.39404296875,43.02411764705882,330.5203838943441
0.4901337890625,0.0757099609375,1.0198291015625005,1.1340258047150855,0.49951171875,-0.3369140625,2.45556640625,43.16529411764706,330.5203838943441
0.4559541015625,0.0981708984375,0.9529345703125,1.060950499942557,0.29052734375,0.689453125,1.60009765625,43.25941176470588,330.5203838943441
0.4178681640625,0.0937763671875,0.8884814453125001,0.9863098337968846,0.177734375,1.46044921875,0.2236328125,43.02411764705882,332.0847212833935
0.3343720703125,0.0073505859375,0.7957080078125001,0.8631395867503875,0.0322265625,1.287109375,-0.158203125,42.97705882352941,332.0847212833935
0.2557587890625,-0.0234111328125,0.8982470703125001,0.9342421734471584,0.01513671875,0.99951171875,-0.05810546875,43.73,332.0847212833935
0.2103486328125,-0.1274150390625,0.8845751953125001,0.9181254901523724,0.2275390625,1.2392578125,0.3974609375,43.02411764705882,332.0847212833935
0.1756806640625,-0.1781962890625,0.9485400390625,0.980992262388331,0.3603515625,1.2744140625,1.18701171875,42.55352941176471,332.09273526842765
0.1620087890625,-0.2026103515625,0.9460986328125,0.981020094240408,0.455078125,1.14794921875,1.9375,43.02411764705882,332.09273526842765
0.1502900390625,-0.1596416015625,0.9314501953125,0.9569075206824024,0.33642578125,0.69140625,2.068359375,42.97705882352941,332.09273526842765
0.1737275390625,-0.0961650390625,1.0330126953125005,1.0519240472787954,0.78662109375,1.86376953125,1.57080078125,42.60058823529412,332.09273526842765
0.1400361328125,-0.2089580078125,0.7693408203125001,0.8094188441846158,0.7001953125,2.6591796875,1.37060546875,43.02411764705882,332.09273526842765
0.1253876953125,-0.1313212890625,0.7703173828125001,0.7914267024557087,0.07763671875,2.1005859375,1.41796875,43.02411764705882,331.665011655879
0.1219697265625,-0.1059306640625,0.7327197265625001,0.7503173445151579,0.28369140625,1.5107421875,1.3173828125,42.83588235294118,331.665011655879
0.1312470703125,-0.1479228515625,0.6155322265625001,0.6465190526326232,0.04345703125,0.6845703125,1.7001953125,42.83588235294118,331.665011655879
0.1444306640625,-0.1025126953125,0.6472705078125001,0.6710649593784642,0.009765625,0.2490234375,1.60595703125,42.97705882352941,331.665011655879
0.1473603515625,-0.0888408203125,0.6243212890625001,0.6475992870155767,-0.11279296875,0.42724609375,1.421875,43.02411764705882,331.324052159046
0.1766572265625,-0.0512431640625,0.6018603515625001,0.6293405440163751,-0.27099609375,0.9404296875,1.0830078125,42.93,331.324052159046
0.1605439453125,-0.0234111328125,0.6067431640625001,0.6280602731049316,-0.24755859375,1.99853515625,0.6396484375,42.64764705882353,331.324052159046
0.1434541015625,-0.0297587890625,0.5779345703125001,0.596215592167686,-0.314453125,2.9951171875,0.41064453125,42.64764705882353,331.324052159046
0.1273408203125,-0.0278056640625,0.5252001953125001,0.5411322247178644,-0.3671875,3.53369140625,0.44970703125,42.97705882352941,331.324052159046
0.1082978515625,-0.0278056640625,0.4817431640625,0.4945483350775319,-0.06689453125,3.0126953125,0.97216796875,43.02411764705882,331.46294350508083
0.0736298828125,-0.0263408203125,0.4065478515625,0.4140004276178981,-0.0068359375,1.95263671875,1.8173828125,43.25941176470588,331.46294350508083
0.0394501953125,-0.0102275390624999,0.4680712890625,0.4698421565910192,-0.02880859375,1.361328125,2.1318359375,42.60058823529412,331.46294350508083
-0.0137724609375,-0.0326884765625,0.5789111328125001,0.5799968248831231,0.306640625,1.62109375,2.65869140625,43.16529411764706,331.46294350508083
0.0316376953125,0.0058857421875,0.5989306640625001,0.5997945698988376,0.34619140625,1.54150390625,2.337890625,42.97705882352941,331.36667149576385
0.0023408203125,-0.0019267578124999,0.6716845703125001,0.6716914126526341,0.36181640625,1.787109375,2.2744140625,43.02411764705882,331.36667149576385
-0.0142607421875,-0.0243876953125,0.7239306640625001,0.7244817008181546,0.439453125,1.63818359375,2.400390625,42.55352941176471,331.36667149576385
-0.0171904296875,-0.0072978515624999,0.7644580078125001,0.7646860893326919,0.28955078125,1.337890625,2.3994140625,42.97705882352941,331.36667149576385
-0.0416044921875,-0.0195048828125,0.8469775390625001,0.8482230401846427,0.265625,1.15576171875,2.4091796875,42.93,331.36667149576385
-0.0586943359375,-0.0356181640625,0.9168017578125,0.919368882337453,0.21142578125,0.93115234375,2.658203125,43.118235294117646,330.63113318529645
-0.0484404296875,-0.0063212890624999,0.9705126953125,0.9717413882749129,-0.0498046875,0.63427734375,2.693359375,43.02411764705882,330.63113318529645
-0.0796904296875,0.0093037109375,1.0710986328125005,1.074099345886494,-0.060546875,0.447265625,2.64453125,43.68294117647059,330.63113318529645
-0.0860380859375,0.0122333984375,1.1199267578125005,1.1232934394598493,-0.11279296875,0.275390625,2.650390625,43.118235294117646,330.63113318529645
-0.0806669921875,0.0234638671875,1.1814501953125005,1.1844333162723495,-0.1337890625,0.1298828125,2.60107421875,42.97705882352941,330.36288826892405
-0.0401396484375,0.0386005859375,1.2327197265625005,1.2339769531347538,-0.19482421875,0.05908203125,2.43408203125,42.69470588235294,330.36288826892405
0.0038056640625,0.0444599609375,1.2698291015625005,1.27061289084463,-0.21630859375,-0.1748046875,2.22119140625,43.02411764705882,330.36288826892405
0.0575166015625,0.0600849609375,1.3127978515625005,1.3154301809876787,-0.26123046875,-0.361328125,1.6943359375,42.74176470588235,330.36288826892405
0.0545869140625,0.0517841796875,1.3440478515625005,1.3461522795518146,-0.21044921875,-0.55615234375,1.24560546875,43.02411764705882,330.36288826892405
-0.0059599609375,0.0386005859375,1.3875048828125005,1.388054511248613,-0.2333984375,-0.6357421875,0.55224609375,42.97705882352941,330.5965198171267
-0.0806669921875,0.0180927734375,1.4060595703125005,1.408487851330856,-0.3017578125,-0.625,0.09619140625,43.02411764705882,330.5965198171267
-0.1334013671875,0.0058857421875,1.4172900390625005,1.423566514622473,-0.38623046875,-0.08642578125,0.0419921875,43.16529411764706,330.5965198171267
-0.1431669921875,0.0010029296875,1.4431689453125005,1.450253218660234,-0.39599609375,0.44677734375,0.31005859375,43.118235294117646,330.5965198171267
-0.1319365234375,0.0073505859375,1.4822314453125005,1.488109987468528,-0.349609375,1.1767578125,0.763671875,42.97705882352941,330.0866485279626
-0.0792021484375,0.0136982421875,1.5349658203125005,1.537068863676501,-0.1943359375,1.75439453125,1.60498046875,43.02411764705882,330.0866485279626
-0.1299833984375,0.0014912109375,1.5300830078125005,1.5355949721121027,0.10107421875,2.06103515625,2.61328125,42.97705882352941,330.0866485279626
0.1039033203125,-0.0170634765625,1.4338916015625005,1.4377524777359394,0.38134765625,1.72119140625,3.13232421875,42.93,330.0866485279626
0.3075166015625,-0.0810283203125,1.3245166015625005,1.3621586826592156,0.53955078125,1.353515625,3.13232421875,43.16529411764706,330.0866485279626
0.6722626953125,-0.2162822265625,1.1819384765625005,1.3768419282599378,0.56884765625,0.86669921875,2.578125,42.97705882352941,331.2247572436549
0.9696259765625,-0.3339580078125,1.1038134765625005,1.5066873187386522,0.451171875,0.12646484375,0.82958984375,43.02411764705882,331.2247572436549
0.9759736328125,-0.4374736328125,1.0554736328125005,1.5026417739813476,0.2744140625,-0.74951171875,-1.33740234375,42.83588235294118,331.2247572436549
0.8241181640625,-0.5131572265625,1.0657275390625005,1.4416227922127465,-0.05419921875,-1.17822265625,-2.927734375,43.16529411764706,331.2247572436549
0.7005830078125,-0.5224345703125,1.1038134765625005,1.407891551979132,-0.2890625,-1.40966796875,-4.06689453125,42.97705882352941,332.4402300531046
0.5409150390625,-0.5292705078125,1.0881884765625005,1.3254699206121212,-0.7294921875,-1.86376953125,-4.43408203125,43.118235294117646,332.4402300531046
0.3895478515625,-0.4823955078125,1.0701220703125005,1.2367757274399231,-1.01708984375,-2.13720703125,-4.267578125,42.97705882352941,332.4402300531046
0.2528291015625,-0.4047587890625,1.0940478515625005,1.1936050156684015,-1.24853515625,-2.19091796875,-4.11767578125,42.55352941176471,332.4402300531046
0.1947236328125,-0.3017314453125,1.0520556640625005,1.1116565470288278,-1.11474609375,-2.24169921875,-3.830078125,42.97705882352941,332.4402300531046
0.2386689453125,-0.1904033203125,1.0452197265625005,1.0888987862230326,-1.16552734375,-1.91845703125,-4.20849609375,43.118235294117646,332.18599617658043
-0.0074248046875,-0.1591533203125,1.0593798828125005,1.0712939107448374,-1.08154296875,-2.16162109375,-3.09912109375,42.97705882352941,332.18599617658043
-0.0376982421875,-0.1098369140625,1.0232470703125005,1.0298154553403809,-1.02197265625,-1.56787109375,-1.73193359375,43.16529411764706,332.18599617658043
-0.0523466796875,-0.1147197265625,1.0750048828125005,1.082375299333645,-0.927734375,-0.400390625,-0.2060546875,43.25941176470588,332.18599617658043
0.0506806640625,-0.1039775390625,1.0667041015625005,1.0729573610491567,-0.46826171875,-0.109375,0.822265625,43.118235294117646,331.5246069390572
0.1991181640625,-0.1166728515625,0.9758837890625,1.0028009609620083,-0.0458984375,-0.18310546875,0.6181640625,42.93,331.5246069390572
0.1991181640625,-0.1606181640625,0.8909228515625001,0.9269248973475064,0.30126953125,-0.63037109375,0.4892578125,43.02411764705882,331.5246069390572
0.1590791015625,-0.1620830078125,0.8147509765625001,0.8458109811210934,0.4208984375,-0.9189453125,0.79052734375,43.118235294117646,331.5246069390572
0.1288056640625,-0.1620830078125,0.7561572265625001,0.7839869589469078,0.51123046875,-1.11669921875,1.13232421875,42.93,331.5246069390572
0.0707001953125,-0.1806376953125,0.7351611328125001,0.7603225537778,0.68505859375,-0.951171875,1.533203125,42.83588235294118,331.51206389595
0.0609345703125,-0.2070048828125,0.6770556640625001,0.7106112971283941,0.82861328125,-0.7841796875,1.99072265625,43.02411764705882,331.51206389595
0.0599580078125,-0.2079814453125,0.6609423828125001,0.6954826221358702,0.93896484375,-0.4208984375,2.38232421875,42.74176470588235,331.51206389595
0.0750947265625,-0.1923564453125,0.6306689453125001,0.6636139981889613,1.05859375,-0.0654296875,2.6259765625,42.788823529411765,331.51206389595
0.1131806640625,-0.1449931640625,0.5574267578125001,0.586990179362346,0.88330078125,0.05078125,2.423828125,42.83588235294118,331.5356396738685
0.1336884765625,-0.0947001953125,0.5090869140625001,0.534799235066307,0.55908203125,0.10693359375,1.89990234375,43.02411764705882,331.5356396738685
0.1209931640625,-0.0810283203125,0.5339892578125001,0.5534884478484305,0.33203125,0.19775390625,1.4580078125,42.97705882352941,331.5356396738685
0.1073212890625,-0.0854228515625,0.5637744140625001,0.5802210894190428,0.23046875,0.48388671875,1.3173828125,43.02411764705882,331.5356396738685
0.1244111328125,-0.0829814453125,0.5652392578125001,0.5846874967076574,0.1298828125,0.59130859375,1.35107421875,42.97705882352941,331.5356396738685
0.1214814453125,-0.0595439453125,0.5930712890625001,0.6083064826950699,0.001953125,0.73974609375,1.2470703125,42.97705882352941,331.267376630735
0.1234345703125,-0.0405009765625,0.6272509765625001,0.6405624168255251,0.0869140625,0.78662109375,1.0576171875,42.83588235294118,331.267376630735
0.1126923828125,-0.0395244140625,0.6751025390625001,0.6855838319998345,0.1142578125,0.57470703125,0.9951171875,43.02411764705882,331.267376630735
0.0951142578125,-0.0571025390625,0.7107470703125001,0.7193530565476239,0.162109375,0.35986328125,1.03759765625,42.97705882352941,331.267376630735
0.1082978515625,-0.0649150390625,0.7537158203125001,0.764218505886166,0.30712890625,0.27587890625,0.72998046875,43.118235294117646,330.8948410794888
0.0599580078125,-0.1200908203125,0.7561572265625001,0.7679782022341942,0.41796875,0.09326171875,0.60107421875,43.02411764705882,330.8948410794888
0.0316376953125,-0.1181376953125,0.8152392578125001,0.8243618782410499,0.25048828125,-0.26904296875,0.66162109375,42.97705882352941,330.8948410794888
0.0052705078125,-0.1420634765625,0.8816455078125001,0.8930333762360658,0.58935546875,-0.2763671875,0.6669921875,43.16529411764706,330.8948410794888
0.0096650390625,-0.1698955078125,0.9099658203125,0.9257406173934188,0.7490234375,-0.52392578125,0.69091796875,42.93,330.8948410794888
0.0243134765625,-0.1908916015625,0.9529345703125,0.972170275201994,0.83837890625,-0.66162109375,0.65625,42.97705882352941,330.2304948924625
0.0277314453125,-0.1874736328125,0.9739306640625,0.9921977295177904,0.837890625,-0.71142578125,0.50390625,42.93,330.2304948924625
0.0194306640625,-0.2167705078125,0.9793017578125,1.0031943663208298,0.66064453125,-0.9677734375,0.5712890625,42.97705882352941,330.2304948924625
0.0282197265625,-0.2030986328125,1.0735400390625005,1.092947218802392,0.79541015625,-1.01220703125,0.71142578125,42.97705882352941,330.2304948924625
0.0614228515625,-0.1923564453125,1.0911181640625005,1.1096452661524092,0.8173828125,-1.37451171875,0.85498046875,43.118235294117646,330.10416425721206
0.0741181640625,-0.1874736328125,1.0862353515625005,1.1047837364063702,0.6806640625,-2.27587890625,1.0322265625,43.25941176470588,330.10416425721206
0.1048798828125,-0.1738017578125,1.1819384765625005,1.199243679664964,0.6376953125,-3.02099609375,1.13818359375,42.93,330.10416425721206
0.1029267578125,-0.2006572265625,1.2600634765625005,1.2800848428960958,0.84765625,-2.4423828125,0.94384765625,42.97705882352941,330.10416425721206
0.0887666015625,-0.1894267578125,1.3088916015625005,1.3255033876867903,0.54541015625,-2.5966796875,1.08544921875,43.118235294117646,330.10416425721206
0.0467744140625,-0.1669658203125,1.4182666015625005,1.4288266459130583,1.033203125,-2.50244140625,1.15771484375,43.68294117647059,330.2304948924625
-0.0044951171875,-0.2070048828125,1.4104541015625005,1.4255707629582006,1.34033203125,-1.15087890625,1.1953125,43.02411764705882,330.2304948924625
0.0052705078125,-0.1742900390625,1.3933642578125005,1.4042324419120893,1.4052734375,-0.56787109375,1.1474609375,43.118235294117646,330.2304948924625
0.0213837890625,-0.1664775390625,1.3728564453125005,1.3830787601879546,1.47021484375,-0.54541015625,0.83544921875,43.02411764705882,330.2304948924625
0.0169892578125,-0.1557353515625,1.4329150390625005,1.441453309607634,1.37646484375,-0.4169921875,0.52587890625,42.97705882352941,330.1593283108099
0.0189423828125,-0.1562236328125,1.4988330078125005,1.507071671362718,1.65087890625,0.29443359375,0.1533203125,43.02411764705882,330.1593283108099
0.1092744140625,-0.1738017578125,1.4988330078125005,1.51282792606948,1.466796875,0.7529296875,-0.5107421875,42.97705882352941,330.1593283108099
0.2132783203125,-0.1689189453125,1.5193408203125005,1.5435082702300853,1.259765625,1.65380859375,-1.91650390625,43.02411764705882,330.1593283108099
0.3309541015625,-0.2026103515625,1.5325244140625005,1.5808898290516424,0.93408203125,2.28466796875,-3.21337890625,43.02411764705882,330.1593283108099
0.5067353515625,-0.2270244140625,1.4685595703125005,1.5700280292593594,0.6025390625,2.2060546875,-3.94091796875,44.01235294117648,330.13726264756986
0.7655244140625,-0.1532939453125,1.3582080078125005,1.5666064134559154,0.1611328125,1.8720703125,-4.06103515625,43.16529411764706,330.13726264756986
0.8202119140625,-0.0297587890625,1.3069384765625005,1.5432826542847051,0.02392578125,0.810546875,-2.95703125,42.97705882352941,330.13726264756986
0.7342744140625,0.0967060546875,1.2166064453125005,1.4243041174327788,0.29638671875,-0.61962890625,-0.900390625,43.25941176470588,330.13726264756986
0.6493134765625,0.1816669921875,1.1165087890625005,1.3043016380231778,0.6513671875,-1.900390625,0.9775390625,43.118235294117646,332.1734559759163
0.5687470703125,0.2119404296875,1.0535205078125005,1.215852555249477,1.04833984375,-2.341796875,1.65869140625,42.97705882352941,332.1734559759163
0.4598603515625,0.2177998046875,0.9983447265625,1.1205358052807828,1.27001953125,-2.31640625,1.6826171875,43.118235294117646,332.1734559759163
0.3592744140625,0.2256123046875,0.9778369140625,1.0659005803214627,1.3271484375,-1.70166015625,1.31982421875,43.25941176470588,332.1734559759163
0.3290009765625,0.1806904296875,0.9758837890625,1.0455811033653557,1.21875,-0.78759765625,0.65576171875,42.55352941176471,332.1734559759163
0.2943330078125,0.0688740234375,0.9700244140625,1.0160329298156232,1.1484375,-0.173828125,0.35546875,43.02411764705882,333.1603576678573
0.2948212890625,-0.0488017578125,0.9319384765625,0.978677949147572,0.916015625,-0.0009765625,0.38330078125,43.02411764705882,333.1603576678573
0.2440400390625,-0.1791728515625,0.9675830078125,1.0138418655836563,1.0576171875,-0.22802734375,0.88232421875,42.788823529411765,333.1603576678573
0.1898408203125,-0.2836650390625,0.9807666015625,1.0384645002038868,1.16015625,-0.4111328125,2.017578125,43.02411764705882,333.1603576678573
0.1161103515625,-0.3500712890625,0.9368212890625,1.0068096388129049,1.130859375,-0.134765625,2.73046875,43.02411764705882,332.8318781984208
0.2079072265625,-0.3998759765625,0.9871142578125,1.0851362907328492,1.39208984375,0.42333984375,3.09130859375,42.93,332.8318781984208
0.3148408203125,-0.3095439453125,0.7839892578125001,0.8997673880398592,1.0302734375,0.64501953125,3.02490234375,43.16529411764706,332.8318781984208
0.3480439453125,-0.1557353515625,0.7683642578125001,0.8577713683020318,0.65625,0.40185546875,1.5224609375,43.02411764705882,332.8318781984208
0.2445283203125,-0.1381572265625,0.6838916015625001,0.7393167395467357,0.38525390625,0.0322265625,0.76123046875,43.25941176470588,332.8318781984208
0.1849580078125,-0.0922587890625,0.6946337890625001,0.724732536678583,-0.08251953125,-0.27734375,0.92578125,43.02411764705882,331.91621238483594
0.2201142578125,-0.0341533203125,0.6521533203125001,0.6891448969377444,-0.3623046875,-0.56005859375,1.1962890625,43.118235294117646,331.91621238483594
0.2708955078125,0.0127216796875,0.6277392578125001,0.6838148821764938,-0.5419921875,-0.80859375,0.978515625,43.16529411764706,331.91621238483594
0.2376923828125,0.0239521484375,0.6624072265625001,0.7041695165683327,-0.70068359375,-0.4814453125,0.40087890625,42.97705882352941,331.91621238483594
0.2235322265625,0.0171162109375,0.6213916015625001,0.6605960516694409,-0.61669921875,-0.48583984375,0.283203125,43.16529411764706,331.8294600502953
0.1820283203125,0.0210224609375,0.5754931640625001,0.6039607894079932,-0.560546875,-0.37646484375,0.66845703125,42.97705882352941,331.8294600502953
0.2166962890625,0.0307880859375,0.5457080078125001,0.587964639855018,-0.47509765625,-0.9013671875,0.84375,43.118235294117646,331.8294600502953
0.1937470703125,0.0547138671875,0.5569384765625001,0.5922094234247262,-0.44140625,-0.99658203125,0.59814453125,43.02411764705882,331.8294600502953
0.1566376953125,0.0586201171875,0.5852587890625001,0.6086867305164387,-0.28515625,-0.6044921875,0.25634765625,42.83588235294118,331.8294600502953
0.1678681640625,0.0727802734375,0.5730517578125001,0.6015521638555944,-0.265625,-0.51513671875,0.04638671875,42.93,331.9147045638407
0.1268525390625,0.0298115234375,0.6770556640625001,0.6894814470566852,-0.03125,0.18994140625,0.36669921875,43.16529411764706,331.9147045638407
0.1458955078125,0.0288349609375,0.6555712890625001,0.6722281377740762,0.1796875,0.515625,0.806640625,42.97705882352941,331.9147045638407
0.2025361328125,0.0552021484375,0.7024462890625001,0.7331431997259715,0.39453125,1.0751953125,0.515625,43.25941176470588,331.9147045638407
0.1590791015625,0.0527607421875,0.7249072265625001,0.7440298002046987,0.49169921875,1.0537109375,0.59716796875,43.16529411764706,331.46793339712065
0.1136689453125,0.0156513671875,0.7761767578125001,0.7846119765792633,0.64306640625,1.21240234375,0.84716796875,43.16529411764706,331.46793339712065
0.1034150390625,0.0356708984375,0.8538134765625001,0.8607929693366342,0.44873046875,1.3662109375,0.42578125,43.118235294117646,331.46793339712065
0.0306611328125,-0.0282939453125,0.9255908203125,0.9265306357878618,0.689453125,1.6376953125,0.74462890625,43.02411764705882,331.46793339712065
0.0233369140625,-0.0453837890625,0.9695361328125,0.97087826873231,0.6220703125,1.65234375,1.52783203125,43.118235294117646,331.46793339712065
0.0672822265625,-0.0199931640625,0.9841845703125,0.9866842924976752,0.423828125,1.20166015625,1.8857421875,43.118235294117646,330.90133624141697
0.1068330078125,0.0283466796875,1.0540087890625005,1.059788353034968,0.14599609375,0.80859375,1.74658203125,43.02411764705882,330.90133624141697
0.1082978515625,0.0259052734375,1.1023486328125005,1.1079584902461432,0.03271484375,0.60009765625,1.501953125,43.02411764705882,330.90133624141697
0.1009736328125,0.0278583984375,1.1585009765625005,1.1632266664683728,-0.00244140625,0.64453125,1.24072265625,43.16529411764706,330.90133624141697
0.0990205078125,0.0420185546875,1.1995166015625005,1.2043299785895565,-0.384765625,0.89404296875,1.18505859375,43.16529411764706,330.583972810248
0.1263642578125,0.0654560546875,1.2498095703125005,1.2578856795402646,-0.3544921875,0.64794921875,1.2626953125,42.97705882352941,330.583972810248
0.1097626953125,0.0517841796875,1.2542041015625005,1.2600624504064752,-0.267578125,0.2587890625,1.11279296875,42.97705882352941,330.583972810248
0.1043916015625,0.0522724609375,1.2722705078125005,1.2776158505977937,-0.2119140625,0.22216796875,0.95166015625,42.97705882352941,330.583972810248
0.1263642578125,0.0454365234375,1.2810595703125005,1.2880784238561866,-0.22509765625,0.2177734375,0.66015625,42.97705882352941,330.583972810248
0.0755830078125,0.0146748046875,1.2976611328125005,1.2999432897533731,-0.3359375,0.17919921875,0.4111328125,42.55352941176471,330.35834291369133
0.0213837890625,-0.0116923828124999,1.3137744140625005,1.3140004525477795,-0.50390625,0.22509765625,0.4248046875,42.83588235294118,330.35834291369133
-0.0181669921875,-0.0356181640625,1.3367236328125005,1.337321488549321,-0.79296875,0.521484375,0.50439453125,43.02411764705882,330.35834291369133
-0.0157255859375,-0.0507548828125,1.3308642578125005,1.3319245567618332,-0.95458984375,0.9072265625,0.908203125,42.64764705882353,330.35834291369133
-0.0264677734375,-0.0468486328125,1.3044970703125005,1.305606351041935,-1.072265625,1.33837890625,1.1484375,43.02411764705882,330.1893946831144
-0.0347685546875,-0.0419658203125,1.3059619140625005,1.307098505641923,-1.2314453125,1.9755859375,1.32763671875,43.02411764705882,330.1893946831144
-0.0010771484374999,-0.0473369140625,1.3464892578125005,1.34732151511292,-1.28125,2.9150390625,1.607421875,43.25941176470588,330.1893946831144
0.0155244140625,-0.0580791015625,1.4421923828125005,1.4434448581475805,-1.1025390625,4.03125,2.400390625,43.118235294117646,330.1893946831144
0.0970673828125,-0.0707744140625,1.4695361328125005,1.4744380421480847,-0.66455078125,4.486328125,3.826171875,43.118235294117646,330.1893946831144
0.2835908203125,-0.0507548828125,1.3689501953125005,1.3989368994850913,-0.2216796875,4.00439453125,5.07958984375,42.97705882352941,330.8822954690465
0.6146455078125,-0.0063212890624999,1.3001025390625005,1.4380875046554913,-0.01953125,3.00048828125,5.3115234375,43.02411764705882,330.8822954690465
0.9872041015625,-0.0981181640625,1.1541064453125005,1.521893820006072,0.09716796875,1.8037109375,3.91552734375,43.118235294117646,330.8822954690465
1.0848603515625,-0.1630595703125,1.0574267578125005,1.5237000210017273,-0.20556640625,0.6494140625,1.671875,42.93,330.8822954690465
0.9901337890625,-0.3559306640625,1.0398486328125005,1.4793027874729574,-0.64013671875,-0.1943359375,-0.56689453125,43.16529411764706,332.4467457882312
0.7889619140625,-0.3593486328125,1.0388720703125005,1.3530881420738108,-1.091796875,-0.8076171875,-2.326171875,42.93,332.4467457882312
0.5658173828125,-0.3359111328125,1.0168994140625005,1.2112266584586142,-1.580078125,-1.0341796875,-3.48681640625,43.118235294117646,332.4467457882312
0.3680634765625,-0.2602275390625,0.9812548828125,1.0798380618913062,-1.91015625,-1.0263671875,-3.94873046875,43.02411764705882,332.4467457882312
0.2650361328125,-0.1498759765625,0.9636767578125,1.010633392281682,-2.0732421875,-0.96142578125,-4.08984375,43.118235294117646,332.4467457882312
0.2249970703125,-0.0761455078125,0.9446337890625,0.9740404588351592,-1.89501953125,-0.65869140625,-4.24951171875,43.118235294117646,332.4878660002703
0.2469697265625,-0.0595439453125,0.8928759765625001,0.92831408304742,-1.80810546875,-0.4287109375,-4.251953125,43.25941176470588,332.4878660002703
0.1961884765625,-0.0058330078124999,0.9187548828125,0.9394862835655804,-1.56103515625,-0.4208984375,-4.298828125,44.01235294117648,332.4878660002703
0.1146455078125,-0.0146220703124999,0.9011767578125,0.908557618548906,-1.3193359375,0.1552734375,-3.341796875,43.118235294117646,332.4878660002703
0.1991181640625,0.0097919921875,0.8679736328125001,0.890574058474841,-1.189453125,0.8056640625,-3.123046875,43.16529411764706,331.5501567399425
0.1722626953125,0.0083271484375,0.8787158203125001,0.8954804690583136,-0.8916015625,0.896484375,-2.60888671875,43.25941176470588,331.5501567399425
0.1146455078125,-0.0273173828125,0.8596728515625001,0.8677138028053437,-0.609375,0.9287109375,-1.79248046875,42.93,331.5501567399425
0.1434541015625,-0.0263408203125,0.8064501953125001,0.8195333035267139,-0.30517578125,0.8671875,-1.18408203125,43.02411764705882,331.5501567399425
0.1756806640625,-0.0302470703125,0.7703173828125001,0.7906753134195035,0.0703125,0.53271484375,-1.53662109375,42.83588235294118,331.5501567399425
0.1576142578125,-0.0932353515625,0.7332080078125001,0.7557308170024187,0.18359375,0.6494140625,-1.19873046875,42.97705882352941,331.6148430293848
0.1751923828125,-0.0820048828125,0.7141650390625001,0.7398978813456325,0.18701171875,0.439453125,-1.0361328125,42.97705882352941,331.6148430293848
0.1468720703125,-0.0898173828125,0.6877978515625001,0.7090165385286565,0.24169921875,0.25,-0.943359375,42.97705882352941,331.6148430293848
0.1434541015625,-0.0990947265625,0.6653369140625001,0.6878023359234914,0.22900390625,0.23291015625,-0.875,43.16529411764706,331.6148430293848
0.1429658203125,-0.1137431640625,0.6570361328125001,0.6819627650904264,0.18115234375,0.4912109375,-0.6005859375,43.16529411764706,331.3701501148392
0.1356416015625,-0.1274150390625,0.6453173828125001,0.6716157836246206,0.15478515625,0.78125,-0.50537109375,43.25941176470588,331.3701501148392
0.1415009765625,-0.1430400390625,0.6023486328125001,0.6350644491657762,0.095703125,1.1005859375,-0.40869140625,43.02411764705882,331.3701501148392
0.1214814453125,-0.1601298828125,0.6130908203125001,0.6451973921802638,-0.03271484375,1.46533203125,-0.2041015625,43.118235294117646,331.3701501148392
0.1078095703125,-0.1611064453125,0.6423876953125001,0.6709993601048371,-0.11181640625,1.9140625,-0.001953125,43.02411764705882,331.3701501148392
0.1336884765625,-0.1469462890625,0.5920947265625001,0.6245334145247664,-0.298828125,2.19287109375,0.0205078125,42.97705882352941,331.4649145610224
0.0853486328125,-0.1274150390625,0.6633837890625001,0.6808796023477138,-0.2880859375,2.2216796875,-0.05029296875,42.97705882352941,331.4649145610224
0.0804658203125,-0.1181376953125,0.6536181640625001,0.6690649951123926,-0.21728515625,1.85791015625,-0.341796875,43.02411764705882,331.4649145610224
0.0633759765625,-0.1366923828125,0.7288134765625001,0.7442247009763432,-0.3232421875,1.95263671875,-0.6494140625,42.93,331.4649145610224
0.0497041015625,-0.1352275390625,0.7610400390625001,0.7745572451983693,-0.18603515625,1.64501953125,-0.62255859375,42.97705882352941,330.91085712335104
0.0599580078125,-0.1440166015625,0.7742236328125001,0.7897835006075024,-0.06884765625,1.18408203125,-0.50048828125,43.02411764705882,330.91085712335104
0.0536103515625,-0.1650126953125,0.8274462890625001,0.8454410805563289,0.0615234375,0.8212890625,-0.623046875,42.93,330.91085712335104
0.0648408203125,-0.1786845703125,0.8596728515625001,0.8804373455051534,0.10009765625,0.48193359375,-0.59619140625,43.118235294117646,330.91085712335104
0.0765595703125,-0.1991923828125,0.8943408203125001,0.9194479191635552,0.1787109375,0.0146484375,-0.3779296875,43.16529411764706,330.91085712335104
0.0951142578125,-0.2060283203125,0.9119189453125,0.9397289788177629,0.1630859375,-0.3857421875,-0.29443359375,43.118235294117646,330.4972251496211
0.0960908203125,-0.2123759765625,0.9417041015625,0.9701255671658386,0.17138671875,-0.779296875,-0.021484375,43.02411764705882,330.4972251496211
0.0833955078125,-0.2197001953125,0.9636767578125,0.9919152585234624,0.23388671875,-0.99365234375,0.44775390625,43.25941176470588,330.4972251496211
0.0633759765625,-0.2123759765625,0.9890673828125,1.0135947699005232,0.29248046875,-1.1982421875,0.771484375,42.93,330.4972251496211
0.0018525390625,-0.2001689453125,1.0271533203125005,1.0464774159041803,0.43310546875,-1.2373046875,1.12451171875,42.93,330.33627757959607
-0.0254912109375,-0.1791728515625,1.0496142578125005,1.065102249915652,0.47412109375,-1.49853515625,1.40283203125,42.97705882352941,330.33627757959607
-0.0152373046875,-0.1674541015625,1.0857470703125005,1.098690016463434,0.4716796875,-1.22216796875,1.490234375,43.02411764705882,330.33627757959607
0.0174775390625,-0.1435283203125,1.1511767578125005,1.1602214318099406,0.59130859375,-1.16552734375,1.275390625,42.93,330.33627757959607
0.0326142578125,-0.1645244140625,1.2073291015625005,1.2189239238422485,0.77001953125,-1.20947265625,1.12548828125,42.55352941176471,330.33627757959607
0.0277314453125,-0.1830791015625,1.2234423828125005,1.237375551136348,0.91455078125,-1.55859375,1.0029296875,42.97705882352941,330.31269830657243
0.0482392578125,-0.1679423828125,1.2683642578125005,1.2803435321956744,0.91259765625,-1.9384765625,1.0283203125,42.93,330.31269830657243
0.0399384765625,-0.1279033203125,1.3816455078125005,1.3881277500704166,1.16796875,-1.6279296875,0.95751953125,43.02411764705882,330.31269830657243
0.0072236328125,-0.1347392578125,1.3962939453125005,1.4027984994942149,1.138671875,-0.6015625,0.7080078125,42.83588235294118,330.31269830657243
0.0130830078125,-0.0859111328125,1.4470751953125005,1.4496822095629305,1.22216796875,0.40869140625,0.23486328125,42.93,330.1958822242228
0.0116181640625,-0.1142314453125,1.3923876953125005,1.3971139176502474,1.2783203125,0.38427734375,0.13232421875,42.97705882352941,330.1958822242228
0.0438447265625,-0.1054423828125,1.4338916015625005,1.4384316393808885,1.27685546875,0.72314453125,-0.06884765625,42.788823529411765,330.1958822242228
0.0975556640625,-0.0805400390625,1.4910205078125005,1.4963776128371844,1.08203125,1.2490234375,-0.42919921875,43.16529411764706,330.1958822242228
0.1825166015625,-0.1069072265625,1.5198291015625005,1.5344777492337538,0.85986328125,1.7890625,-0.86767578125,42.93,330.1958822242228
0.2894501953125,-0.1801494140625,1.5452197265625005,1.582384033764053,0.66650390625,1.9873046875,-1.49853515625,43.16529411764706,329.7176010939976
0.4090791015625,-0.2245830078125,1.5491259765625005,1.6178920019562528,0.45751953125,1.58642578125,-1.95751953125,42.97705882352941,329.7176010939976
0.5160126953125,-0.1962626953125,1.4729541015625005,1.5730168252770822,0.21240234375,0.81298828125,-2.037109375,43.16529411764706,329.7176010939976
0.5545869140625,-0.0937236328125,1.3728564453125005,1.483605602588846,0.03515625,0.24072265625,-1.1787109375,42.83588235294118,329.7176010939976
0.5921845703125,0.0283466796875,1.2644580078125005,1.3965457934083878,0.09130859375,-0.47314453125,0.22412109375,43.02411764705882,331.62587552161347
0.5707001953125,0.0786396484375,1.1707080078125005,1.3047758990694198,0.3642578125,-1.111328125,1.59033203125,43.02411764705882,331.62587552161347
0.4901337890625,0.1157490234375,1.1194384765625005,1.2275061997464898,0.77978515625,-1.6025390625,2.7041015625,43.02411764705882,331.62587552161347
0.4183564453125,0.1489521484375,1.0803759765625005,1.168084375630474,1.07421875,-1.62060546875,3.02490234375,43.25941176470588,331.62587552161347
0.3705048828125,0.1382099609375,1.0183642578125005,1.0924475379075436,1.14453125,-1.14111328125,2.68896484375,43.02411764705882,331.62587552161347
0.3309541015625,0.0805927734375,0.9524462890625,1.0115234777405402,0.9921875,-0.65966796875,2.04345703125,42.64764705882353,332.7546516152344
0.2777314453125,0.0102802734375,0.9246142578125,0.9654801735341232,0.7421875,-0.27392578125,1.68017578125,43.02411764705882,332.7546516152344
0.2699189453125,0.0576435546875,0.9915087890625,1.0292077998265503,0.48046875,0.67138671875,0.8486328125,42.97705882352941,332.7546516152344
0.1185517578125,-0.1235087890625,0.9382861328125,0.9537766023993016,0.61572265625,0.46044921875,1.69287109375,43.02411764705882,332.7546516152344
0.1751923828125,-0.0912822265625,0.9338916015625,0.9545566192482772,0.59326171875,0.70361328125,2.2275390625,43.16529411764706,332.5415234628406
0.1781220703125,-0.1142314453125,0.8792041015625001,0.9043097628771442,0.50634765625,0.68212890625,2.10986328125,43.02411764705882,332.5415234628406
0.1957001953125,-0.1552470703125,0.8474658203125001,0.8835148758701823,0.52490234375,0.51708984375,1.9697265625,42.97705882352941,332.5415234628406
0.1883759765625,-0.1528056640625,0.8171923828125001,0.8524309180468695,0.32568359375,0.23974609375,1.794921875,43.118235294117646,332.5415234628406
0.1747041015625,-0.1210673828125,0.7849658203125001,0.813234390162335,0.25390625,0.2177734375,1.4892578125,43.02411764705882,332.5415234628406
0.1693330078125,-0.0976298828125,0.7361376953125001,0.7616455658722171,0.099609375,0.12353515625,1.36376953125,42.83588235294118,332.13583882909546
0.1766572265625,-0.0712626953125,0.6941455078125001,0.7198084005179644,-0.0576171875,-0.1767578125,1.34814453125,43.118235294117646,332.13583882909546
0.1854462890625,-0.0468486328125,0.6755908203125001,0.7021453389533889,-0.189453125,-0.255859375,1.1572265625,43.02411764705882,332.13583882909546
0.1776337890625,-0.0199931640625,0.6497119140625001,0.6738538869077542,-0.26025390625,-0.17236328125,0.65380859375,42.97705882352941,332.13583882909546
0.1449189453125,-0.0121806640624999,0.5955126953125001,0.613013245832298,-0.3046875,-0.078125,0.25537109375,43.02411764705882,332.1894949554445
0.1419892578125,-0.0063212890624999,0.5725634765625001,0.5899405416844081,-0.39453125,0.06494140625,-0.00634765625,43.25941176470588,332.1894949554445
0.1624970703125,0.0156513671875,0.5505908203125001,0.5742826086234679,-0.42333984375,0.26953125,-0.3662109375,42.93,332.1894949554445
0.1610322265625,0.0093037109375,0.5183642578125001,0.5428806874501881,-0.5185546875,0.46240234375,-0.51806640625,43.118235294117646,332.1894949554445
0.1805634765625,0.0244404296875,0.5295947265625001,0.5600634589709057,-0.61376953125,0.91015625,-0.7841796875,43.25941176470588,332.1894949554445
0.1263642578125,-0.0224345703125,0.5081103515625001,0.5240680919141881,-0.28564453125,0.619140625,-0.33056640625,43.02411764705882,331.548648368628
0.0980439453125,-0.0380595703125,0.4807666015625,0.4921358260508661,-0.197265625,-0.15673828125,0.62939453125,42.97705882352941,331.548648368628
0.1209931640625,-0.0107158203124999,0.5862353515625001,0.5986869482262268,-0.287109375,-0.12353515625,1.18017578125,43.118235294117646,331.548648368628
0.1136689453125,0.0034443359375,0.6643603515625001,0.6740231222345086,-0.05029296875,0.40380859375,1.1005859375,43.16529411764706,331.548648368628
0.0711884765625,-0.0273173828125,0.7073291015625001,0.7114270844691167,0.1376953125,0.8720703125,1.08935546875,43.25941176470588,331.4634058018482
0.0516572265625,-0.0312236328125,0.7444384765625001,0.7468815365831688,0.20263671875,1.22021484375,1.28564453125,42.97705882352941,331.4634058018482
0.0589814453125,-0.0151103515624999,0.8118212890625001,0.814101307572094,0.16748046875,1.712890625,1.42529296875,42.97705882352941,331.4634058018482
0.0721650390625,-0.0131572265624999,0.8635791015625001,0.8666889696593605,0.09033203125,1.71533203125,1.46533203125,42.97705882352941,331.4634058018482
0.0848603515625,0.0049091796875,0.9407275390625,0.9445600468276768,-0.2265625,1.36962890625,1.4462890625,43.16529411764706,331.4634058018482
0.0457978515625,-0.0146220703124999,1.0061572265625005,1.007305123938078,-0.41162109375,0.63427734375,1.71728515625,43.02411764705882,330.69776582775813
0.0155244140625,0.0049091796875,1.0842822265625005,1.0844044698895894,-0.6025390625,0.2646484375,1.75634765625,42.83588235294118,330.69776582775813
0.0619111328125,0.0405537109375,1.1404345703125005,1.1428335841235968,-0.73388671875,-0.36865234375,1.5732421875,42.97705882352941,330.69776582775813
-0.0020537109374999,0.0176044921875,1.2253955078125005,1.2255236784496863,-0.8720703125,-0.53466796875,1.56201171875,42.55352941176471,330.69776582775813
0.0086884765625,0.0132099609375,1.2986376953125005,1.298733943646469,-0.97314453125,-0.5615234375,1.48291015625,43.16529411764706,330.3884126105788
0.0038056640625,0.0317646484375,1.3796923828125005,1.3800632402756583,-1.06494140625,-0.33349609375,1.326171875,43.118235294117646,330.3884126105788
0.0072236328125,0.0444599609375,1.3860400390625005,1.386771740006967,-0.96923828125,0.02734375,1.111328125,43.25941176470588,330.3884126105788
0.0228486328125,0.0512958984375,1.3821337890625005,1.3832740654281692,-0.849609375,0.21337890625,0.646484375,43.02411764705882,330.3884126105788
0.0057587890625,0.0473896484375,1.3660205078125005,1.3668544070949245,-0.74853515625,0.10791015625,0.33447265625,43.02411764705882,330.3884126105788
-0.0040068359375,0.0547138671875,1.3997119140625005,1.4007866020080824,-0.7646484375,0.3408203125,0.2978515625,42.788823529411765,330.5162632883268
-0.0303740234375,0.0742451171875,1.4270556640625005,1.4293084996105043,-0.78271484375,0.87060546875,0.279296875,43.02411764705882,330.5162632883268
-0.0582060546875,0.0957294921875,1.4373095703125005,1.4416694771648129,-0.77587890625,1.498046875,0.36181640625,43.02411764705882,330.5162632883268
-0.0606474609375,0.1050068359375,1.4402392578125005,1.4453351410161148,-0.6728515625,2.1708984375,0.595703125,43.118235294117646,330.5162632883268
-0.0137724609375,0.0981708984375,1.4910205078125005,1.494312337062686,-0.4638671875,2.8984375,0.87109375,43.25941176470588,330.6110178727353
0.0404267578125,0.0434833984375,1.5574267578125005,1.5585580626454894,-0.37451171875,3.71484375,1.35986328125,43.118235294117646,330.6110178727353
0.0902314453125,0.0014912109375,1.6458056640625005,1.6482779563209145,-0.0712890625,4.57568359375,2.11328125,43.02411764705882,330.6110178727353
0.1810517578125,-0.0312236328125,1.6931689453125005,1.7031076688288531,0.52392578125,5.14501953125,3.3291015625,43.25941176470588,330.6110178727353
0.4310517578125,-0.1235087890625,1.5891650390625005,1.651213360007558,1.15478515625,4.85107421875,4.26904296875,42.97705882352941,330.6110178727353
0.7606416015625,-0.2123759765625,1.4285205078125005,1.6322836894024657,1.18798828125,4.11572265625,3.71875,43.118235294117646,331.15402977677763
1.0086884765625,-0.3427470703125,1.3113330078125005,1.6895331468593202,0.92041015625,2.37255859375,1.765625,43.16529411764706,331.15402977677763
1.0165009765625,-0.5014384765625,1.1668017578125005,1.6266963832148202,0.365234375,0.8095703125,-0.9140625,43.25941176470588,331.15402977677763
0.8646455078125,-0.5409892578125,1.0579150390625005,1.4695119805988202,-0.1318359375,-0.15185546875,-3.1943359375,43.16529411764706,331.15402977677763
0.6214814453125,-0.5732158203125,0.9934619140625,1.3045237208333824,-0.8779296875,-0.4873046875,-4.5146484375,42.83588235294118,332.988346515258
0.4051728515625,-0.5878642578125,0.8972705078125001,1.1466663810572066,-1.28369140625,-1.11865234375,-4.05859375,43.118235294117646,332.988346515258
0.2503876953125,-0.5190166015625,0.8845751953125001,1.0557203734055434,-1.5244140625,-1.56396484375,-2.99560546875,42.788823529411765,332.988346515258
0.1517548828125,-0.4623759765625,0.9119189453125,1.0336427095372094,-0.9462890625,-2.37939453125,-1.392578125,43.118235294117646,332.988346515258
0.1180634765625,-0.3290751953125,0.9485400390625,1.01091922247659,-0.4384765625,-3.05224609375,0.025390625,42.97705882352941,332.988346515258
0.1922822265625,-0.1982158203125,0.9939501953125,1.0316001923399136,-0.2822265625,-2.31005859375,0.24462890625,42.97705882352941,332.6774257147807
0.1805634765625,-0.0668681640625,0.9988330078125,1.0172226393121575,-0.79931640625,-1.13525390625,-1.05126953125,43.25941176470588,332.6774257147807
0.1932587890625,0.0512958984375,0.9866259765625,1.0066831906684055,-0.98046875,0.216796875,-2.69970703125,43.25941176470588,332.6774257147807
0.1214814453125,0.0683857421875,0.8801806640625001,0.8911522612209727,-0.87744140625,-0.05810546875,-3.02197265625,42.97705882352941,332.6774257147807
0.0829072265625,0.0766865234375,0.8474658203125001,0.8549577461437229,-0.57275390625,-0.20556640625,-2.177734375,42.93,332.42317638743543
0.0838837890625,0.0019794921875,0.8303759765625001,0.834604499693674,0.025390625,-0.16796875,-0.52880859375,42.97705882352941,332.42317638743543
0.1654267578125,-0.0346416015625,0.7312548828125001,0.7505329815513065,0.35302734375,-0.23583984375,0.689453125,42.788823529411765,332.42317638743543
0.2396455078125,-0.0136455078124999,0.6516650390625001,0.6944663364299969,0.4521484375,-0.3623046875,0.69677734375,43.02411764705882,332.42317638743543
0.2308564453125,-0.0512431640625,0.6340869140625001,0.6767472015389232,0.5322265625,-0.29345703125,0.3828125,42.83588235294118,332.42317638743543
0.1971650390625,-0.0922587890625,0.5994189453125001,0.637721576228487,0.47705078125,-0.21533203125,0.2138671875,42.97705882352941,331.6434164135282
0.1390595703125,-0.1269267578125,0.5593798828125001,0.5902150618542502,0.6767578125,-0.34228515625,0.189453125,43.25941176470588,331.6434164135282
0.0882783203125,-0.1576884765625,0.5252001953125001,0.555422328173874,0.82763671875,-0.5302734375,0.283203125,42.97705882352941,331.6434164135282
0.0877900390625,-0.1606181640625,0.4983447265625,0.5308980618518554,0.79833984375,-0.49560546875,0.2294921875,43.02411764705882,331.6434164135282
0.0951142578125,-0.1650126953125,0.4822314453125,0.5184815122081996,0.67333984375,-0.3701171875,0.00341796875,42.93,332.11377411551564
0.1151337890625,-0.1645244140625,0.4675830078125,0.5088791029325941,0.50244140625,-0.28369140625,-0.24462890625,43.118235294117646,332.11377411551564
0.0951142578125,-0.1738017578125,0.4597705078125,0.5006422803880051,0.43212890625,-0.13330078125,-0.13916015625,42.97705882352941,332.11377411551564
0.0702119140625,-0.1791728515625,0.4817431640625,0.5187572647532817,0.4345703125,0.1552734375,0.146484375,43.02411764705882,332.11377411551564
0.0609345703125,-0.1801494140625,0.5007861328125001,0.5356804869169027,0.44091796875,0.47509765625,0.44970703125,43.02411764705882,332.11377411551564
0.0897431640625,-0.1684306640625,0.5007861328125001,0.5359192802183762,0.3505859375,0.654296875,0.494140625,42.93,331.771283144712
0.0868134765625,-0.1552470703125,0.5393603515625001,0.5679329374064387,0.30224609375,0.57177734375,0.35009765625,42.93,331.771283144712
0.0838837890625,-0.1557353515625,0.6169970703125001,0.6418530786464965,0.20654296875,0.3681640625,0.0439453125,43.118235294117646,331.771283144712
0.0614228515625,-0.1396220703125,0.6648486328125001,0.6821222718582557,0.12109375,0.37939453125,-0.0009765625,43.02411764705882,331.771283144712
0.0785126953125,-0.1376689453125,0.7107470703125001,0.7282021558513072,0.12255859375,0.61181640625,-0.38427734375,43.16529411764706,331.4413410040133
0.0863251953125,-0.1391337890625,0.7771533203125001,0.794215042590716,-0.1591796875,0.52783203125,-0.63037109375,42.97705882352941,331.4413410040133
0.0658173828125,-0.1674541015625,0.8386767578125001,0.8577595864257526,-0.20556640625,0.06689453125,-0.63134765625,43.02411764705882,331.4413410040133
0.0770478515625,-0.1991923828125,0.8630908203125001,0.8891230178713309,-0.20703125,-0.8134765625,-0.43505859375,43.02411764705882,331.4413410040133
0.0736298828125,-0.2070048828125,0.9377978515625,0.9631911500561248,-0.19873046875,-1.65771484375,-0.36083984375,43.02411764705882,331.4413410040133
0.0716767578125,-0.2118876953125,1.0300830078125005,1.0540896337690653,-0.1533203125,-1.7978515625,-0.4501953125,42.93,330.3838732915378
0.0423798828125,-0.1967509765625,1.0847705078125005,1.1032833071633452,-0.0888671875,-1.76416015625,-0.42724609375,42.97705882352941,330.3838732915378
0.0111298828125,-0.1845439453125,1.1423876953125005,1.157251048150024,-0.0458984375,-1.158203125,-0.3974609375,43.02411764705882,330.3838732915378
0.0106416015625,-0.1840556640625,1.1145556640625005,1.1297008716696222,0.10498046875,-1.3642578125,-0.30712890625,42.788823529411765,330.3838732915378
-0.0010771484374999,-0.1825908203125,1.1585009765625005,1.1728022342268174,0.31005859375,-1.52392578125,-0.2109375,42.97705882352941,330.4059381516638
0.0072236328125,-0.1601298828125,1.2000048828125005,1.2106632393090977,0.36279296875,-1.455078125,-0.15771484375,43.30647058823529,330.4059381516638
0.0228486328125,-0.1322978515625,1.2341845703125005,1.2414653982882102,0.45751953125,-1.68017578125,-0.04931640625,43.02411764705882,330.4059381516638
0.0545869140625,-0.1420634765625,1.2805712890625005,1.2895831066399266,0.56201171875,-1.27197265625,0.06982421875,43.02411764705882,330.4059381516638
0.0423798828125,-0.1684306640625,1.3069384765625005,1.3184282781339474,0.685546875,-0.99755859375,0.24560546875,42.97705882352941,330.4059381516638
0.0223603515625,-0.1650126953125,1.3206103515625005,1.3310675698815313,0.78125,-0.57763671875,0.46484375,42.83588235294118,330.4595878885874
0.0213837890625,-0.1567119140625,1.3723681640625005,1.3814522315940134,0.88037109375,-0.34716796875,0.5087890625,43.118235294117646,330.4595878885874
0.0282197265625,-0.1474345703125,1.4216845703125005,1.4295874660037882,1.00830078125,-0.2509765625,0.2841796875,43.25941176470588,330.4595878885874
0.0287080078125,-0.1274150390625,1.4685595703125005,1.4743561148678757,1.0068359375,0.1123046875,-0.3388671875,42.93,330.4595878885874
0.0179658203125,-0.1020244140625,1.5178759765625005,1.5214069909100132,0.8583984375,0.7255859375,-1.15869140625,43.73,329.8629614922078
0.0228486328125,-0.0947001953125,1.5647509765625005,1.5677805349177305,0.8173828125,1.03662109375,-1.73828125,43.02411764705882,329.8629614922078
0.0643525390625,-0.1244853515625,1.5872119140625005,1.5933861779805218,0.9208984375,1.0830078125,-1.95947265625,43.02411764705882,329.8629614922078
0.1947236328125,-0.1864970703125,1.5750048828125005,1.5979170289142235,0.9140625,1.35107421875,-2.12939453125,42.93,329.8629614922078
0.3163056640625,-0.2314189453125,1.5579150390625005,1.606456743988048,0.7392578125,1.66748046875,-2.3662109375,42.93,329.8629614922078
0.4525361328125,-0.2304423828125,1.5252001953125005,1.607522403911835,0.47216796875,1.6787109375,-2.8203125,42.93,329.9371592640367
0.5189423828125,-0.2021220703125,1.5408251953125005,1.6383823761553136,0.2841796875,1.37841796875,-2.98828125,43.02411764705882,329.9371592640367
0.5819306640625,-0.1825908203125,1.4851611328125005,1.6055174542357122,0.044921875,1.0947265625,-2.66064453125,43.118235294117646,329.9371592640367
0.6180634765625,-0.1117900390625,1.3923876953125005,1.527495652351186,-0.05078125,0.72119140625,-1.99755859375,42.83588235294118,329.9371592640367
0.5995087890625,-0.0805400390625,1.2815478515625005,1.417131744722358,0.04296875,0.18017578125,-0.994140625,43.02411764705882,331.3766552134754
0.5746064453125,-0.0317119140625,1.1658251953125005,1.3001256087446336,0.23046875,-0.4150390625,0.0029296875,43.02411764705882,331.3766552134754
0.5453095703125,0.0239521484375,1.0789111328125005,1.2091259096537168,0.53125,-0.7177734375,0.80615234375,42.60058823529412,331.3766552134754
0.4974580078125,0.0786396484375,1.0095751953125005,1.1282245959175985,0.71142578125,-0.47265625,0.96875,42.97705882352941,331.3766552134754
0.4164033203125,0.1142841796875,0.9690478515625,1.0608988347208308,0.71533203125,0.2021484375,0.78955078125,43.118235294117646,331.3766552134754
0.3387666015625,0.1177021484375,0.8875048828125001,0.9572259519554608,0.77197265625,0.64111328125,0.60888671875,43.02411764705882,333.039003235341
0.3285126953125,0.1162373046875,0.8669970703125001,0.9344065613601804,0.5810546875,1.22021484375,0.25732421875,42.83588235294118,333.039003235341
0.2601533203125,0.0703388671875,0.8792041015625001,0.9195798815280606,0.4599609375,1.412109375,0.15966796875,43.02411764705882,333.039003235341
0.2850556640625,0.0893818359375,0.9280322265625,0.9749305912464858,0.69482421875,2.111328125,0.08056640625,43.118235294117646,333.039003235341
0.2660126953125,0.0024677734375,0.8333056640625001,0.8747383458679538,0.42431640625,1.9775390625,-0.029296875,42.93,332.61423835642427
0.1991181640625,-0.1161845703125,0.8342822265625001,0.8655482258062827,0.52294921875,1.13916015625,0.71728515625,42.788823529411765,332.61423835642427
0.2079072265625,-0.1181376953125,0.8460009765625001,0.8791470765778405,0.34619140625,0.84423828125,0.8134765625,43.16529411764706,332.61423835642427
0.1415009765625,-0.1352275390625,0.8445361328125001,0.8669200039882192,0.39111328125,0.6787109375,1.0078125,42.97705882352941,332.61423835642427
0.1341767578125,-0.1542705078125,0.7639697265625001,0.7908555715310994,0.52734375,0.45068359375,1.806640625,43.16529411764706,332.61423835642427
0.1805634765625,-0.1254619140625,0.7224658203125001,0.7551825755857825,0.45703125,0.25244140625,1.7392578125,42.97705882352941,332.39810411316085
0.1341767578125,-0.0907939453125,0.6970751953125001,0.7156540859678254,0.427734375,0.36279296875,1.2900390625,43.118235294117646,332.39810411316085
0.1092744140625,-0.0668681640625,0.6975634765625001,0.7092299012081722,0.38330078125,1.068359375,0.87060546875,43.02411764705882,332.39810411316085
0.0956025390625,-0.0556376953125,0.6101611328125001,0.620106447805469,0.18212890625,1.3740234375,0.52734375,43.25941176470588,332.39810411316085
0.0868134765625,-0.0390361328125,0.5466845703125001,0.5549093789039663,0.05224609375,0.59228515625,0.6474609375,43.02411764705882,331.8755809488577
0.0926728515625,0.0024677734375,0.5535205078125001,0.561230166590742,-0.07177734375,0.3671875,0.751953125,43.25941176470588,331.8755809488577
0.1205048828125,0.0473896484375,0.5623095703125001,0.5770262198771496,-0.19921875,0.8359375,0.46875,43.118235294117646,331.8755809488577
0.1229462890625,0.0937763671875,0.6243212890625001,0.6431849415322054,-0.21484375,2.21484375,-0.1806640625,42.97705882352941,331.8755809488577
0.1336884765625,0.0786396484375,0.6106494140625001,0.6300392923991728,-0.29052734375,3.9677734375,-0.8369140625,42.93,331.8755809488577
0.0833955078125,0.0503193359375,0.5393603515625001,0.5480843321334039,-0.41015625,4.79833984375,-0.9765625,43.16529411764706,331.81089338980433
0.0497041015625,0.0078388671875,0.4910205078125,0.4935920224673045,-0.41748046875,4.50927734375,-0.65966796875,43.16529411764706,331.81089338980433
0.0868134765625,0.0088154296875,0.4768603515625,0.4847783889631984,-0.365234375,4.08984375,-0.38623046875,42.97705882352941,331.81089338980433
0.0658173828125,-0.0761455078125,0.3630908203125,0.3767824439056508,0.33203125,1.39892578125,0.703125,42.97705882352941,331.81089338980433
0.0091767578125,-0.0741923828125,0.4563525390625,0.4624352521814664,-0.064453125,0.17041015625,1.6494140625,42.93,331.6088124647251
0.0575166015625,-0.0072978515624999,0.6296923828125001,0.632355845283976,-0.033203125,0.68408203125,1.7041015625,43.02411764705882,331.6088124647251
0.0580048828125,0.0112568359375,0.6692431640625001,0.6718464820402069,0.03271484375,0.962890625,1.07763671875,43.25941176470588,331.6088124647251
-0.0318388671875,-0.0351298828125,0.7444384765625001,0.7459466921415359,0.00048828125,1.544921875,0.93408203125,42.97705882352941,331.6088124647251
-0.0845732421875,-0.0732158203125,0.7839892578125001,0.7919295082288148,0.279296875,1.8359375,1.57763671875,43.25941176470588,331.6088124647251
-0.0152373046875,-0.0414775390625,0.8113330078125001,0.8125354215459774,-0.01123046875,1.65478515625,1.8603515625,42.93,331.2678403775623
0.0311494140625,-0.0141337890624999,0.8953173828125001,0.8959705720367858,-0.18017578125,1.21484375,1.70654296875,42.93,331.2678403775623
0.0453095703125,-0.0053447265624999,0.9563525390625,0.9574401820663376,-0.32470703125,0.65087890625,1.59130859375,42.93,331.2678403775623
-0.0005888671874999,-0.0092509765624999,1.0378955078125005,1.037936901969138,-0.43603515625,0.15185546875,1.60693359375,43.16529411764706,331.2678403775623
-0.0455107421875,-0.0019267578124999,1.1169970703125005,1.1179254872919009,-0.54638671875,-0.09326171875,1.65185546875,42.83588235294118,330.61751494349267
-0.0557646484375,0.0268818359375,1.1585009765625005,1.1601538009311505,-0.66552734375,-0.36962890625,1.5947265625,43.118235294117646,330.61751494349267
-0.0918974609375,0.0542255859375,1.2146533203125005,1.2193310649873583,-0.728515625,-0.3984375,1.57763671875,43.02411764705882,330.61751494349267
-0.1055693359375,0.0786396484375,1.2473681640625005,1.254295186833351,-0.84423828125,-0.18310546875,1.56201171875,42.93,330.61751494349267
-0.0909208984375,0.0937763671875,1.2791064453125005,1.285758109154108,-0.79638671875,-0.14306640625,1.326171875,43.02411764705882,330.61751494349267
-0.0855498046875,0.0801044921875,1.2971728515625005,1.3024564889398322,-0.748046875,-0.064453125,1.04833984375,43.777058823529416,330.71378415157426
-0.0557646484375,0.0737568359375,1.3098681640625005,1.3131277066939584,-0.63037109375,-0.06689453125,0.78466796875,43.30647058823529,330.71378415157426
-0.0528349609375,0.0591083984375,1.3313525390625005,1.3337109578657886,-0.61669921875,-0.1015625,0.4267578125,42.93,330.71378415157426
-0.0694365234375,0.0493427734375,1.3689501953125005,1.3715978919944882,-0.677734375,-0.115234375,0.2705078125,42.93,330.71378415157426
-0.0738310546875,0.0498310546875,1.4065478515625005,1.40936546622323,-0.70263671875,-0.25146484375,0.02880859375,43.16529411764706,330.6601332865338
-0.0806669921875,0.0552021484375,1.4075244140625005,1.4109143903875525,-0.7578125,-0.3505859375,-0.3310546875,42.83588235294118,330.6601332865338
-0.1011748046875,0.0659443359375,1.4050830078125005,1.4102635411118074,-0.81396484375,-0.22021484375,-0.6708984375,43.16529411764706,330.6601332865338
-0.1285185546875,0.0932880859375,1.4456103515625005,1.4543070426912956,-0.7939453125,0.390625,-0.82861328125,43.25941176470588,330.6601332865338
-0.1280302734375,0.1396748046875,1.4910205078125005,1.5030112962644089,-0.7255859375,1.18798828125,-0.5595703125,42.97705882352941,330.6601332865338
-0.1011748046875,0.1567646484375,1.5847705078125005,1.5957158451728104,-0.4755859375,1.95703125,0.07763671875,42.97705882352941,330.7453704871928
-0.1309599609375,0.1469990234375,1.6765673828125005,1.688086909306238,-0.11376953125,2.435546875,0.986328125,42.97705882352941,330.7453704871928
0.1434541015625,0.0595966796875,1.6711962890625005,1.67840039324982,0.46533203125,2.28759765625,2.08349609375,43.02411764705882,330.7453704871928
0.4476533203125,-0.0458720703125,1.6003955078125005,1.6624570741670268,0.84619140625,1.86669921875,2.55419921875,43.02411764705882,330.7453704871928
0.8441376953125,-0.1781962890625,1.4836962890625005,1.7162974812837604,0.74560546875,0.86083984375,1.9755859375,43.118235294117646,331.3626068825544
1.0526337890625,-0.2602275390625,1.4168017578125005,1.7841198073288664,0.48681640625,-0.58203125,-0.09619140625,43.16529411764706,331.3626068825544
0.9188447265625,-0.3486064453125,1.3142626953125005,1.6410632277688786,0.06884765625,-1.41064453125,-2.80712890625,43.02411764705882,331.3626068825544
0.7498994140625,-0.3554423828125,1.2258837890625005,1.4803646452806625,-0.40478515625,-1.8349609375,-4.8818359375,42.97705882352941,331.3626068825544
0.5863251953125,-0.3793681640625,1.0877001953125005,1.292590094904508,-0.79736328125,-2.12353515625,-5.94677734375,42.97705882352941,331.3626068825544
0.4496064453125,-0.3813212890625,0.9929736328125,1.1547937117163751,-1.21435546875,-2.2841796875,-5.77880859375,43.25941176470588,332.97281061911275
0.3822236328125,-0.3686259765625,0.9568408203125,1.0943145669748435,-1.6181640625,-2.3134765625,-5.17333984375,43.02411764705882,332.97281061911275
0.3163056640625,-0.3627666015625,0.9490283203125,1.0640975674638065,-1.67041015625,-2.19873046875,-4.37939453125,42.97705882352941,332.97281061911275
0.2723603515625,-0.3647197265625,0.9724658203125,1.0737273451501257,-1.23974609375,-1.84423828125,-4.00048828125,43.16529411764706,332.97281061911275
0.2323212890625,-0.3569072265625,0.9368212890625,1.0290724354315015,-0.97509765625,-1.86767578125,-3.58349609375,42.97705882352941,332.8118321575493
0.1839814453125,-0.2626689453125,0.9504931640625,1.0031357844182414,-0.6796875,-1.43115234375,-3.23974609375,42.97705882352941,332.8118321575493
0.0804658203125,-0.1957744140625,0.9583056640625,0.9814031359305656,-0.7177734375,-0.89892578125,-2.8173828125,43.30647058823529,332.8118321575493
0.0848603515625,-0.1283916015625,0.9451220703125,0.9575705772479024,-0.70849609375,-0.08349609375,-2.50927734375,43.16529411764706,332.8118321575493
0.1063447265625,-0.0497783203125,0.8723681640625001,0.880234795784945,-0.80322265625,0.306640625,-2.75732421875,43.02411764705882,332.8118321575493
0.0599580078125,-0.0683330078125,0.8313525390625001,0.8363082008824335,-0.546875,-0.0859375,-2.46630859375,42.93,332.4076330513719
0.0531220703125,-0.0844462890625,0.7952197265625001,0.801453394530743,-0.27001953125,-0.2744140625,-1.6962890625,43.118235294117646,332.4076330513719
0.0907197265625,-0.1103251953125,0.7463916015625001,0.7599356159513448,0.029296875,-0.1650390625,-1.001953125,42.93,332.4076330513719
0.1527314453125,-0.1039775390625,0.6858447265625001,0.7102965662104311,0.06982421875,0.015625,-0.7197265625,42.93,332.4076330513719
0.1615205078125,-0.1342509765625,0.6423876953125001,0.6758506863508376,0.04345703125,0.06884765625,-0.6708984375,43.02411764705882,332.1328280787891
0.1458955078125,-0.0356181640625,0.6282275390625001,0.6459287837274132,0.08154296875,0.16943359375,-0.544921875,43.02411764705882,332.1328280787891
0.1341767578125,-0.1777080078125,0.5686572265625001,0.6107000734399141,0.0712890625,0.23974609375,-0.36328125,42.74176470588235,332.1328280787891
0.1375947265625,-0.1777080078125,0.5618212890625001,0.6051079289369343,0.09033203125,0.44970703125,-0.2646484375,43.118235294117646,332.1328280787891
0.1263642578125,-0.1987041015625,0.5403369140625001,0.5894193976523422,0.11279296875,0.71044921875,-0.0185546875,42.97705882352941,332.1328280787891
0.1082978515625,-0.1947978515625,0.5505908203125001,0.5939906388477942,0.111328125,0.9208984375,0.36474609375,42.97705882352941,331.82042002149325
0.1239228515625,-0.1850322265625,0.5291064453125001,0.5740622165560867,0.06982421875,0.98974609375,0.69970703125,42.97705882352941,331.82042002149325
0.1371064453125,-0.1572001953125,0.5168994140625001,0.5574002897475687,-0.00732421875,0.93798828125,0.71630859375,42.97705882352941,331.82042002149325
0.1312470703125,-0.1249736328125,0.5398486328125001,0.5694565380373584,-0.060546875,0.87158203125,0.52587890625,43.118235294117646,331.82042002149325
0.1009736328125,-0.1293681640625,0.5476611328125001,0.5717206597541551,-0.04296875,0.8076171875,0.51806640625,42.97705882352941,331.8139057315616
0.0921845703125,-0.1274150390625,0.5154345703125001,0.5388927383591564,-0.00146484375,0.64111328125,0.50830078125,42.97705882352941,331.8139057315616
0.0716767578125,-0.1283916015625,0.4861376953125,0.5078895743821138,0.0576171875,0.26904296875,0.62939453125,42.83588235294118,331.8139057315616
0.0609345703125,-0.1235087890625,0.4661181640625,0.4860386668814014,0.1220703125,-0.03662109375,0.72998046875,43.02411764705882,331.8139057315616
0.0345673828125,-0.1025126953125,0.4719775390625,0.4842174656435197,0.16162109375,-0.11669921875,0.8193359375,43.02411764705882,331.8139057315616
0.0179658203125,-0.0903056640625,0.4836962890625,0.4923819490132672,0.16455078125,-0.08984375,0.7060546875,43.02411764705882,331.4383250487225
0.0145478515625,-0.0868876953125,0.4788134765625,0.4868505488542353,0.052734375,-0.025390625,0.62109375,43.02411764705882,331.4383250487225
0.0003876953125,-0.0629619140625,0.5012744140625001,0.5052132135284783,0.07421875,-0.005859375,0.51611328125,43.777058823529416,331.4383250487225
-0.0001005859374999,-0.0488017578125,0.5183642578125001,0.5206564370682694,0.11083984375,-0.06640625,0.4580078125,42.97705882352941,331.4383250487225
-0.0230498046875,-0.0780986328125,0.5461962890625001,0.5522328097179302,0.18359375,-0.3125,0.68017578125,43.118235294117646,331.33101785088644
-0.0186552734375,-0.0824931640625,0.5857470703125001,0.5918215708503259,0.1884765625,-0.28857421875,0.7470703125,42.55352941176471,331.33101785088644
0.0042939453125,-0.0981181640625,0.6248095703125001,0.6324813129567018,0.17431640625,-0.27587890625,-0.17724609375,42.55352941176471,331.33101785088644
0.0091767578125,-0.1459697265625,0.6375048828125001,0.6540671598287593,0.1943359375,-0.4921875,-1.36669921875,43.16529411764706,331.33101785088644
-0.0040068359375,-0.1659892578125,0.6819384765625001,0.70186079407512,0.25439453125,-0.88232421875,-2.41015625,42.83588235294118,331.33101785088644
-0.0318388671875,-0.1586650390625,0.7878955078125001,0.8043429861169955,0.59130859375,-0.916015625,-2.76904296875,43.02411764705882,330.58441794212376
-0.0865263671875,-0.0912822265625,0.9065478515625,0.9152312627295128,1.14453125,-0.3515625,-2.70556640625,42.93,330.58441794212376
0.0008759765625,-0.0409892578125,0.9192431640625,0.9201569872943388,1.419921875,-0.02294921875,-2.43798828125,43.16529411764706,330.58441794212376
0.2069306640625,0.0234638671875,1.0247119140625005,1.045660250566298,1.41455078125,0.08837890625,-1.80078125,43.16529411764706,330.58441794212376
0.3875947265625,-0.0448955078125,1.2888720703125005,1.3466389613821634,1.9892578125,-0.36767578125,-1.5830078125,42.97705882352941,330.13769208086694
0.3700166015625,-0.3315166015625,1.4480517578125005,1.5309047768712734,2.27490234375,-1.5810546875,-1.97607421875,42.97705882352941,330.13769208086694
0.6717744140625,-0.5981181640625,1.8904345703125005,2.093506404624337,2.67529296875,-3.49658203125,-3.93115234375,42.60058823529412,330.13769208086694
0.7445283203125,-0.6952861328125,2.6824267578125003,2.869348103186017,3.45751953125,-3.55419921875,-6.2109375,43.16529411764706,330.13769208086694
0.4676728515625,-0.7641337890625,2.2185595703125003,2.392618839410239,1.34814453125,-3.7265625,-5.33544921875,42.97705882352941,330.13769208086694
0.3622041015625,-0.3080791015625,2.0803759765625003,2.134026416862413,-0.16455078125,-2.8671875,-2.60693359375,42.97705882352941,330.9900539084863
0.2567353515625,-0.0868876953125,2.0076220703125003,2.02583535598145,0.7607421875,-3.05224609375,0.33203125,42.97705882352941,330.9900539084863
0.3988251953125,0.0898701171875,1.9304736328125005,1.9732882762950883,1.357421875,-3.00537109375,2.5732421875,43.118235294117646,330.9900539084863
0.5965791015625,0.1220966796875,1.7820361328125005,1.8832065745056128,1.41845703125,-2.89599609375,3.2392578125,43.118235294117646,330.9900539084863
0.7357392578125,0.1172138671875,1.6755908203125005,1.8337546027926024,1.75537109375,-2.5185546875,2.158203125,42.83588235294118,332.42969731865264
0.6839814453125,0.0322529296875,1.5452197265625005,1.6901404889425882,1.71337890625,-2.619140625,1.86669921875,43.118235294117646,332.42969731865264
0.6400361328125,-0.0038798828124999,1.4021533203125005,1.5413290493790053,1.6650390625,-2.80224609375,1.98486328125,42.97705882352941,332.42969731865264
0.6908173828125,-0.0087626953124999,1.2664111328125005,1.4426027168061524,1.572265625,-3.0244140625,1.64013671875,43.16529411764706,332.42969731865264
0.6722626953125,0.0136982421875,1.1541064453125005,1.335696994254202,1.548828125,-3.12109375,1.06787109375,42.788823529411765,332.42969731865264
0.6346650390625,0.0796162109375,1.0491259765625005,1.2287407242988526,1.486328125,-2.90673828125,0.6015625,43.73,331.96233322585914
0.6131806640625,0.1343037109375,1.0842822265625005,1.252875077727642,1.37060546875,-2.81787109375,0.2578125,42.97705882352941,331.96233322585914
0.6595673828125,0.1997333984375,0.8572314453125001,1.0998946830283716,0.5732421875,-3.966796875,-0.5966796875,43.118235294117646,331.96233322585914
0.5785126953125,0.2085224609375,0.9080126953125,1.0966520005005398,0.27294921875,-4.54248046875,-1.28173828125,43.25941176470588,331.96233322585914
0.4789033203125,0.1611591796875,0.9358447265625,1.063544086363478,0.11572265625,-4.9326171875,-1.564453125,42.97705882352941,332.8338962572005
0.3700166015625,0.2143818359375,0.9836962890625,1.0726277295162234,-0.185546875,-4.5439453125,-1.43603515625,43.16529411764706,332.8338962572005
0.2650361328125,0.0459248046875,1.0164111328125005,1.05140136498246,-0.12353515625,-3.30322265625,-1.09130859375,42.97705882352941,332.8338962572005
0.1952119140625,0.0346943359375,1.0305712890625005,1.0494706142517911,0.029296875,-1.52978515625,-0.58251953125,42.55352941176471,332.8338962572005
0.1537080078125,0.0093037109375,0.9851611328125,0.997123446874711,0.22216796875,-0.1875,-0.11474609375,43.118235294117646,332.8338962572005
0.2230439453125,0.0449482421875,0.8782275390625001,0.9072224404103366,0.234375,0.18603515625,0.00830078125,43.58882352941177,332.58616465410114
0.2772431640625,0.0527607421875,0.8245166015625001,0.871478682577914,0.2568359375,0.2861328125,-0.31298828125,43.777058823529416,332.58616465410114
0.2787080078125,0.0298115234375,0.7776416015625001,0.8266155944749454,0.3916015625,0.39111328125,-0.54541015625,43.25941176470588,332.58616465410114
0.2611298828125,0.0205341796875,0.7317431640625001,0.7772120215136327,0.4501953125,0.482421875,-0.44775390625,43.02411764705882,332.58616465410114
0.2562470703125,0.0302998046875,0.6956103515625001,0.7419261421521315,0.49609375,0.48974609375,-0.19580078125,43.02411764705882,332.7707064210078
0.2621064453125,0.0410419921875,0.6628955078125001,0.7140130867673685,0.56298828125,0.45947265625,0.02099609375,43.02411764705882,332.7707064210078
0.2733369140625,0.0449482421875,0.6389697265625001,0.6964307033210934,0.54150390625,0.48095703125,0.18603515625,42.97705882352941,332.7707064210078
0.2787080078125,0.0556904296875,0.6355517578125001,0.6962080252597995,0.47509765625,0.65087890625,0.1279296875,43.02411764705882,332.7707064210078
0.2684541015625,0.0630146484375,0.6252978515625001,0.6834002149049334,0.30322265625,1.0068359375,-0.10693359375,42.788823529411765,332.7707064210078
0.2513642578125,0.0659443359375,0.6101611328125001,0.6631962405976832,0.11474609375,1.44189453125,-0.46484375,43.16529411764706,332.19150078961303
0.2142548828125,0.0595966796875,0.6204150390625001,0.6590688429395644,0.03662109375,1.55322265625,-0.63330078125,42.83588235294118,332.19150078961303
0.1571259765625,0.0268818359375,0.5408251953125001,0.5638289612097749,0.146484375,0.93359375,-0.0595703125,42.93,332.19150078961303
0.2254853515625,0.0761982421875,0.5144580078125001,0.5668481786899694,-0.1650390625,0.48388671875,-0.244140625,43.02411764705882,332.19150078961303
0.2332978515625,0.0766865234375,0.5740283203125001,0.6243534439253128,-0.39208984375,0.72900390625,-0.84033203125,42.97705882352941,332.21356486753626
0.2523408203125,0.0820576171875,0.7122119140625001,0.7600362837832453,-0.54638671875,0.787109375,-1.50830078125,42.97705882352941,332.21356486753626
0.1673798828125,0.0400654296875,0.6560595703125001,0.6782591124526027,-0.60107421875,1.1572265625,-1.4326171875,43.118235294117646,332.21356486753626
0.1493134765625,0.0029560546875,0.6775439453125001,0.6938076465218035,-0.3095703125,1.3984375,-0.6943359375,42.93,332.21356486753626
0.2010712890625,0.0166279296875,0.6677783203125001,0.6975915971471645,-0.4677734375,1.3017578125,-0.46240234375,43.02411764705882,332.21356486753626
0.2005830078125,0.0351826171875,0.7556689453125001,0.7826282096148706,-0.29345703125,1.3017578125,-0.2939453125,42.93,331.86956182164784
0.1717744140625,-0.0234111328125,0.8044970703125001,0.8229641952159739,-0.08984375,2.02734375,-0.35498046875,43.02411764705882,331.86956182164784
0.1517548828125,-0.0658916015625,0.8230517578125001,0.8395150050190605,-0.0869140625,2.16845703125,-0.30517578125,43.87117647058824,331.86956182164784
0.1258759765625,-0.0644267578125,0.8518603515625001,0.8635170103489449,-0.35400390625,2.220703125,-0.1572265625,43.02411764705882,331.86956182164784
0.1131806640625,-0.0756572265625,0.8821337890625001,0.8925771117693536,-0.4560546875,1.9033203125,0.37158203125,42.97705882352941,331.49999713096526
0.0985322265625,-0.0776103515625,0.8831103515625001,0.8919730149381545,-0.59375,1.8359375,0.91748046875,43.02411764705882,331.49999713096526
0.1283173828125,-0.0409892578125,0.9675830078125,0.9769147081477244,-1.06884765625,1.90966796875,0.76318359375,42.788823529411765,331.49999713096526
0.0902314453125,-0.0346416015625,1.0530322265625005,1.0574585686735791,-0.98046875,2.11181640625,0.990234375,42.97705882352941,331.49999713096526
0.1146455078125,-0.0146220703124999,1.0364306640625005,1.0428546968829575,-1.162109375,2.4541015625,1.32861328125,43.02411764705882,331.49999713096526
0.1610322265625,0.0268818359375,1.0686572265625005,1.0810560942797105,-1.25341796875,2.11376953125,1.1982421875,42.93,330.9444159682916
0.1537080078125,0.0073505859375,1.0896533203125005,1.1004656020282362,-1.20068359375,1.73193359375,1.19189453125,43.58882352941177,330.9444159682916
0.1576142578125,0.0239521484375,1.1375048828125005,1.148622356609359,-1.3642578125,1.32275390625,1.04150390625,42.93,330.9444159682916
0.1302705078125,0.0263935546875,1.1834033203125005,1.1908444245414338,-1.25830078125,1.19970703125,1.06787109375,42.97705882352941,330.9444159682916
0.1400361328125,0.0630146484375,1.2175830078125005,1.2272283183354746,-1.39306640625,1.12646484375,1.0263671875,42.83588235294118,330.9885447731206
0.1229462890625,0.0830341796875,1.2571337890625005,1.2658577442166457,-1.35205078125,1.01513671875,0.94384765625,42.60058823529412,330.9885447731206
0.0819306640625,0.1040302734375,1.2620166015625005,1.2689447718969356,-1.306640625,0.94873046875,0.90966796875,42.97705882352941,330.9885447731206
0.0340791015625,0.1133076171875,1.2581103515625005,1.2636620030628185,-1.28076171875,0.958984375,0.77490234375,42.97705882352941,330.9885447731206
-0.0191435546875,0.0918232421875,1.2581103515625005,1.261602013394325,-1.111328125,1.2626953125,0.9697265625,43.777058823529416,330.9885447731206
-0.0123076171875,0.0898701171875,1.2244189453125005,1.2277743559157377,-1.22998046875,1.3828125,1.05224609375,42.97705882352941,330.7739372488417
-0.0450224609375,0.1045185546875,1.2512744140625005,1.256438939841601,-1.16259765625,2.00927734375,1.1494140625,42.60058823529412,330.7739372488417
-0.0694365234375,0.1181904296875,1.2825244140625005,1.2898291674183686,-1.021484375,2.59765625,1.39501953125,42.97705882352941,330.7739372488417
-0.0035185546874999,0.1401630859375,1.3489306640625005,1.3561976284209871,-0.7841796875,3.404296875,1.80029296875,43.02411764705882,330.7739372488417
0.1488251953125,0.1347919921875,1.4192431640625005,1.4333767748417776,-0.62109375,4.08203125,2.306640625,43.118235294117646,331.30744592614235
0.3255830078125,0.1367451171875,1.4836962890625005,1.5251420262482744,0.0126953125,4.20458984375,3.134765625,42.97705882352941,331.30744592614235
0.5296845703125,0.1308857421875,1.5149462890625005,1.6102046703072723,0.55419921875,3.5380859375,4.1416015625,42.97705882352941,331.30744592614235
0.7894501953125,0.0552021484375,1.4778369140625005,1.676389224684063,1.033203125,2.5322265625,4.30322265625,43.02411764705882,331.30744592614235
1.0121064453125,-0.1537822265625,1.3406298828125005,1.6868007921919774,1.18701171875,1.53173828125,3.52880859375,42.97705882352941,331.30744592614235
1.1468720703125,-0.3183330078125,1.2395556640625005,1.718473070442263,0.61181640625,0.46435546875,1.6572265625,42.97705882352941,332.36200213274697
1.1707978515625,-0.4262431640625,1.2249072265625005,1.7472402690581548,-0.0107421875,-0.57177734375,-0.7685546875,42.55352941176471,332.36200213274697
1.0599580078125,-0.4413798828125,1.1506884765625005,1.6255494915169908,-1.1533203125,-1.38720703125,-3.6494140625,43.118235294117646,332.36200213274697
0.7635712890625,-0.4394267578125,1.0667041015625005,1.3834719474035009,-2.0810546875,-1.841796875,-5.30908203125,42.97705882352941,332.36200213274697
0.4530244140625,-0.3691142578125,1.0584033203125005,1.209005394324471,-2.666015625,-1.80712890625,-5.07421875,43.118235294117646,333.00140662198174
0.3036103515625,-0.3271220703125,1.0608447265625005,1.1509038310549269,-2.5888671875,-1.4150390625,-3.837890625,43.02411764705882,333.00140662198174
0.2733369140625,-0.2992900390625,1.0750048828125005,1.1488790598413572,-2.02197265625,-0.65087890625,-2.72265625,43.02411764705882,333.00140662198174
0.2982392578125,-0.3105205078125,1.0613330078125005,1.145337240355439,-1.52587890625,0.4013671875,-2.28515625,43.02411764705882,333.00140662198174
0.2699189453125,-0.3085673828125,0.9856494140625,1.0675087045153862,-1.05029296875,0.58935546875,-1.96142578125,43.16529411764706,333.00140662198174
0.3382783203125,-0.2148173828125,0.8777392578125001,0.9648859697690172,-0.9296875,1.1220703125,-2.15771484375,43.02411764705882,332.6794487300346
0.2342744140625,-0.1210673828125,0.8767626953125001,0.9155624698277208,-0.84619140625,0.8349609375,-2.24462890625,43.02411764705882,332.6794487300346
0.2269501953125,-0.0522197265625,0.8679736328125001,0.898672086053847,-0.919921875,1.38134765625,-2.3466796875,43.02411764705882,332.6794487300346
0.1781220703125,-0.0273173828125,0.8831103515625001,0.9013088285227092,-1.06298828125,1.853515625,-1.92529296875,42.64764705882353,332.6794487300346
0.0780244140625,-0.0458720703125,0.8303759765625001,0.8352941508694269,-0.2783203125,1.8193359375,-0.658203125,42.93,331.93575392240894
0.1419892578125,-0.0732158203125,0.7507861328125001,0.7675945042154262,0.05126953125,1.744140625,0.02490234375,42.69470588235294,331.93575392240894
0.1820283203125,-0.0551494140625,0.6648486328125001,0.6915196828868125,0.26904296875,0.853515625,0.13818359375,42.55352941176471,331.93575392240894
0.1527314453125,-0.0600322265625,0.6560595703125001,0.6762728165555072,0.484375,0.748046875,0.142578125,43.02411764705882,331.93575392240894
0.1366181640625,-0.0566142578125,0.6121142578125001,0.6297249888298988,0.50537109375,0.67236328125,0.107421875,43.118235294117646,331.93575392240894
0.1332001953125,-0.0727275390625,0.5969775390625001,0.6159657207300536,0.59619140625,0.68359375,0.298828125,42.97705882352941,331.89313004506647
0.1410126953125,-0.0956767578125,0.5618212890625001,0.5870960594899756,0.6708984375,0.673828125,0.51171875,43.91823529411765,331.89313004506647
0.1786103515625,-0.0956767578125,0.5432666015625001,0.5798226453356748,0.58154296875,0.82958984375,0.47607421875,42.83588235294118,331.89313004506647
0.1888642578125,-0.0932353515625,0.5300830078125001,0.570395068204132,0.47216796875,0.9755859375,0.259765625,43.118235294117646,331.89313004506647
0.1854462890625,-0.1083720703125,0.5095751953125001,0.552993409932381,0.40576171875,1.09765625,0.1279296875,42.97705882352941,331.70057210612885
0.1722626953125,-0.1161845703125,0.5173876953125001,0.5575511795663317,0.29248046875,1.291015625,0.119140625,43.02411764705882,331.70057210612885
0.1527314453125,-0.1113017578125,0.5447314453125001,0.576582451338612,0.22119140625,1.7265625,0.1533203125,42.97705882352941,331.70057210612885
0.1283173828125,-0.1191142578125,0.5833056640625001,0.6090148231968303,0.19189453125,2.484375,0.29833984375,43.16529411764706,331.70057210612885
0.1434541015625,-0.0995830078125,0.5720751953125001,0.5981353390261468,0.28515625,2.509765625,0.24462890625,42.93,331.70057210612885
0.1561494140625,-0.0961650390625,0.5325244140625001,0.5632163046490782,0.2578125,1.77880859375,0.064453125,42.74176470588235,331.8078828050911
0.1366181640625,-0.0947001953125,0.6404345703125001,0.661656322115485,0.3662109375,0.9892578125,-0.3935546875,42.97705882352941,331.8078828050911
0.0956025390625,-0.1332744140625,0.7224658203125001,0.740850036403261,0.373046875,1.03759765625,-0.56640625,42.97705882352941,331.8078828050911
0.0736298828125,-0.1401103515625,0.7693408203125001,0.7854537338742877,0.3212890625,0.892578125,-0.5703125,42.97705882352941,331.8078828050911
0.0462861328125,-0.1547587890625,0.8401416015625001,0.8555294264716032,0.3173828125,0.71484375,-0.57421875,42.97705882352941,330.9855278201047
0.0179658203125,-0.1689189453125,0.9050830078125,0.9208863294760709,0.353515625,0.62939453125,-0.43798828125,43.02411764705882,330.9855278201047
0.0116181640625,-0.1752666015625,0.9495166015625,0.9656268119735756,0.40185546875,0.50390625,-0.2431640625,43.02411764705882,330.9855278201047
0.0262666015625,-0.1747783203125,0.9934619140625,1.0090609348803612,0.4111328125,0.44921875,-0.24609375,43.16529411764706,330.9855278201047
0.0521455078125,-0.1894267578125,1.0261767578125005,1.044815959312909,0.4794921875,0.38330078125,-0.2734375,42.97705882352941,330.9855278201047
0.0682587890625,-0.2040751953125,1.0496142578125005,1.0714457698966382,0.52294921875,0.3251953125,-0.1513671875,43.25941176470588,330.7849694515247
0.0824189453125,-0.2016337890625,1.1091845703125005,1.130371389613808,0.48974609375,0.2919921875,-0.265625,42.97705882352941,330.7849694515247
0.0702119140625,-0.2016337890625,1.1433642578125005,1.1631284210314656,0.537109375,0.33544921875,-0.35205078125,42.97705882352941,330.7849694515247
0.0428681640625,-0.2001689453125,1.1726611328125005,1.1903946482434742,0.56396484375,0.451171875,-0.27734375,42.60058823529412,330.7849694515247
0.0389619140625,-0.1781962890625,1.2263720703125005,1.239863058174421,0.64697265625,0.578125,-0.18603515625,42.83588235294118,330.43147726565223
0.0155244140625,-0.1635478515625,1.2678759765625005,1.2784750287459694,0.79345703125,0.7431640625,-0.14306640625,43.02411764705882,330.43147726565223
0.0052705078125,-0.1513408203125,1.3088916015625005,1.3176224978294462,0.94775390625,0.75634765625,-0.0556640625,43.118235294117646,330.43147726565223
-0.0084013671875,-0.1244853515625,1.3347705078125005,1.3405892339752317,1.111328125,0.9208984375,0.0263671875,43.02411764705882,330.43147726565223
-0.0162138671875,-0.1049541015625,1.3118212890625005,1.3161129690727789,1.2919921875,1.04443359375,0.0537109375,42.93,330.43147726565223
-0.0240263671875,-0.0912822265625,1.3157275390625005,1.31910904335233,1.4296875,1.2607421875,0.05712890625,43.02411764705882,330.2058451703666
-0.0084013671875,-0.0878642578125,1.3489306640625005,1.351815315499739,1.50732421875,1.5361328125,-0.09912109375,43.02411764705882,330.2058451703666
0.0414033203125,-0.0795634765625,1.4094775390625005,1.4123284019155364,1.51953125,1.69189453125,-0.45556640625,42.93,330.2058451703666
0.0985322265625,-0.0951884765625,1.4802783203125005,1.4866046385400695,1.47802734375,1.890625,-0.85693359375,43.118235294117646,330.2058451703666
0.2064423828125,-0.1244853515625,1.5388720703125005,1.557639980535561,1.22216796875,2.4267578125,-1.5771484375,43.02411764705882,330.2073564170087
0.2977509765625,-0.1864970703125,1.6008837890625005,1.6389831321164277,0.916015625,2.49462890625,-2.4853515625,42.93,330.2073564170087
0.4652314453125,-0.2602275390625,1.5974658203125005,1.6840592973113424,0.52099609375,1.93505859375,-3.54833984375,43.02411764705882,330.2073564170087
0.5355439453125,-0.2719462890625,1.5559619140625005,1.6678667751078868,0.1279296875,1.162109375,-3.953125,43.16529411764706,330.2073564170087
0.5663056640625,-0.1293681640625,1.4211962890625005,1.535329645081861,-0.1240234375,0.48681640625,-3.04736328125,42.93,330.2073564170087
0.6082978515625,0.0595966796875,1.3044970703125005,1.440586910567781,-0.01806640625,0.24755859375,-1.34619140625,42.93,331.7291544146452
0.5692353515625,0.1279560546875,1.2087939453125005,1.3422311423982956,0.51025390625,-0.54833984375,1.17578125,43.02411764705882,331.7291544146452
0.4828095703125,0.1626240234375,1.1770556640625005,1.2825800912558851,1.03271484375,-1.1298828125,2.6142578125,43.02411764705882,331.7291544146452
0.4212861328125,0.1806904296875,1.0984423828125005,1.1902548909538528,1.32373046875,-1.50341796875,2.79931640625,43.02411764705882,331.7291544146452
0.3612275390625,0.1596943359375,1.0188525390625005,1.092725085399696,1.3828125,-1.4560546875,2.4150390625,42.55352941176471,332.6889805461459
0.3138642578125,0.1328388671875,0.9172900390625,0.9785591207132722,1.3681640625,-0.85400390625,1.58642578125,43.16529411764706,332.6889805461459
0.3001923828125,0.1152607421875,0.8948291015625001,0.9508520528407196,0.79931640625,-0.1064453125,0.45703125,43.02411764705882,332.6889805461459
0.2157197265625,0.0620380859375,0.9041064453125,0.9315536425727684,0.603515625,0.56982421875,-0.015625,43.02411764705882,332.6889805461459
0.1673798828125,0.0132099609375,0.8997119140625001,0.9152442605907476,0.61083984375,0.85888671875,0.208984375,42.93,332.6889805461459
0.0819306640625,-0.1161845703125,0.8914111328125001,0.9026767393671374,0.93212890625,0.955078125,1.1396484375,43.02411764705882,332.8073312729866
0.1014619140625,-0.1498759765625,0.8484423828125001,0.8675320197596986,1.0009765625,0.974609375,1.83056640625,43.16529411764706,332.8073312729866
0.1302705078125,-0.1440166015625,0.8450244140625001,0.8670510060503996,0.9638671875,1.1533203125,1.466796875,42.97705882352941,332.8073312729866
0.1073212890625,-0.1757548828125,0.8298876953125001,0.855056269931731,0.9326171875,1.263671875,1.0595703125,43.02411764705882,332.8073312729866
0.0877900390625,-0.1767314453125,0.8240283203125001,0.8473274263222457,0.85498046875,1.419921875,0.8701171875,42.97705882352941,332.7867673299372
0.1444306640625,-0.1308330078125,0.7434619140625001,0.7685786298852426,0.70654296875,1.2236328125,0.8779296875,42.93,332.7867673299372
0.1834931640625,-0.1015361328125,0.7092822265625001,0.7396354537484279,0.44091796875,0.8837890625,0.6474609375,42.83588235294118,332.7867673299372
0.1380830078125,-0.0888408203125,0.7102587890625001,0.7289905046301177,0.24072265625,0.70068359375,0.72314453125,43.118235294117646,332.7867673299372
0.1483369140625,-0.0575908203125,0.6887744140625001,0.7069163572340029,0.08349609375,0.47119140625,0.7822265625,43.25941176470588,332.7867673299372
0.1488251953125,-0.0282939453125,0.6677783203125001,0.6847462093217709,-0.0380859375,0.38134765625,0.69091796875,42.83588235294118,332.22309385555366
0.1512666015625,-0.0180400390625,0.6506884765625001,0.6682832642591552,-0.10205078125,0.32568359375,0.6142578125,43.16529411764706,332.22309385555366
0.1493134765625,-0.0121806640624999,0.6262744140625001,0.6439429513314914,-0.16162109375,0.30908203125,0.63134765625,42.97705882352941,332.22309385555366
0.1395478515625,-0.0033916015624999,0.6179736328125001,0.6335428294033064,-0.25,0.302734375,0.7177734375,42.83588235294118,332.22309385555366
0.1341767578125,0.0205341796875,0.6316455078125001,0.6460658653823338,-0.2236328125,0.57470703125,0.60009765625,42.97705882352941,332.33843616599006
0.1019501953125,0.0469013671875,0.6970751953125001,0.7060505707725713,0.02880859375,1.587890625,0.28076171875,43.118235294117646,332.33843616599006
0.0648408203125,-0.0126689453124999,0.5471728515625001,0.5511469528548323,0.21728515625,1.54248046875,0.7900390625,43.118235294117646,332.33843616599006
0.0565400390625,-0.0077861328124999,0.5266650390625001,0.5297484905613867,0.1884765625,0.74267578125,1.3857421875,43.02411764705882,332.33843616599006
0.0540986328125,-0.0058330078124999,0.5632861328125001,0.5659080786410314,0.19189453125,0.15380859375,1.88623046875,43.16529411764706,332.33843616599006
0.0765595703125,0.0112568359375,0.5984423828125001,0.6034247009429273,0.15478515625,0.181640625,1.845703125,43.25941176470588,332.34796647503345
0.0179658203125,-0.0087626953124999,0.7014697265625001,0.7017544676112218,0.23193359375,0.70751953125,1.87060546875,42.97705882352941,332.34796647503345
0.0116181640625,-0.0292705078125,0.7029345703125001,0.703639648189472,0.25244140625,0.787109375,2.05224609375,42.60058823529412,332.34796647503345
0.0023408203125,-0.0444072265625,0.7483447265625001,0.7496647990833046,0.44775390625,0.8486328125,2.28759765625,43.118235294117646,332.34796647503345
0.0248017578125,-0.0185283203125,0.7791064453125001,0.7797212828772035,0.23974609375,0.7236328125,2.13916015625,43.02411764705882,331.76074627800296
-0.0245146484375,-0.0468486328125,0.8787158203125001,0.8803052057393984,0.08251953125,0.97509765625,2.05126953125,42.97705882352941,331.76074627800296
-0.0494169921875,-0.0512431640625,0.9065478515625,0.909338720253669,0.06640625,1.03857421875,2.57421875,43.02411764705882,331.76074627800296
-0.0245146484375,-0.0224345703125,0.9490283203125,0.949609936072852,-0.1728515625,0.978515625,2.72216796875,43.25941176470588,331.76074627800296
0.0262666015625,0.0239521484375,0.9724658203125,0.9731153125136192,-0.47021484375,0.75146484375,2.41064453125,42.788823529411765,331.76074627800296
-0.0201201171875,0.0342060546875,1.0237353515625005,1.0245042427104532,-0.6318359375,0.52734375,1.9873046875,42.97705882352941,331.58223006934764
-0.0367216796875,0.0683857421875,1.0837939453125005,1.0865700195521877,-0.76123046875,0.40625,1.50634765625,42.83588235294118,331.58223006934764
-0.1080107421875,0.0444599609375,1.1238330078125005,1.1298865597941017,-0.68896484375,0.46044921875,1.7998046875,43.68294117647059,331.58223006934764
-0.0718779296875,0.0737568359375,1.1462939453125005,1.150911081136927,-0.6552734375,0.42041015625,1.84619140625,43.16529411764706,331.58223006934764
-0.0318388671875,0.1064716796875,1.1707080078125005,1.1759707358584963,-0.66455078125,0.26025390625,1.34619140625,43.118235294117646,331.2257027117741
-0.0411162109375,0.1142841796875,1.1946337890625005,1.200791949714241,-0.63037109375,0.2734375,0.896484375,42.97705882352941,331.2257027117741
-0.0528349609375,0.1142841796875,1.2102587890625005,1.21679034485286,-0.6416015625,0.31982421875,0.75537109375,43.118235294117646,331.2257027117741
-0.0528349609375,0.1264912109375,1.2258837890625005,1.2335244723263237,-0.60888671875,0.3544921875,0.70556640625,43.16529411764706,331.2257027117741
-0.0669951171875,0.1181904296875,1.2302783203125005,1.2377568698365724,-0.63671875,0.45751953125,0.70556640625,43.118235294117646,331.2257027117741
-0.1070341796875,0.0918232421875,1.2278369140625005,1.2359091030337643,-0.65185546875,0.61474609375,0.66796875,42.64764705882353,331.6770032405457
-0.1626982421875,0.0884052734375,1.2385791015625005,1.252343563567854,-0.68115234375,0.98486328125,0.66259765625,43.02411764705882,331.6770032405457
-0.1641630859375,0.0683857421875,1.2727587890625005,1.285122976082406,-0.7294921875,1.31689453125,0.63525390625,43.118235294117646,331.6770032405457
-0.1519560546875,0.0727802734375,1.3264697265625005,1.3371273485515964,-0.71630859375,1.7783203125,0.72119140625,43.02411764705882,331.6770032405457
-0.1065458984375,0.0913349609375,1.4055712890625005,1.4125596455371814,-0.6240234375,2.30224609375,0.94873046875,43.02411764705882,331.6469170181076
-0.0699248046875,0.1050068359375,1.5266650390625005,1.531868811419534,-0.5234375,2.88330078125,1.42333984375,43.02411764705882,331.6469170181076
-0.0337919921875,0.1059833984375,1.6423876953125005,1.6461505767074496,-0.37451171875,3.28955078125,2.31689453125,43.02411764705882,331.6469170181076
0.0638642578125,0.0615498046875,1.6736376953125005,1.675986323647645,0.12255859375,3.4111328125,3.36865234375,43.118235294117646,331.6469170181076
0.3187470703125,-0.0927470703125,1.5935595703125005,1.6277695838228807,0.60693359375,3.1474609375,3.87744140625,42.97705882352941,331.6469170181076
0.6107392578125,-0.2489970703125,1.5335009765625005,1.669319390403081,0.529296875,2.54052734375,3.4365234375,43.02411764705882,331.80487397742684
0.8153291015625,-0.3149150390625,1.5437548828125005,1.77401019272435,0.20361328125,1.2314453125,1.80615234375,43.02411764705882,331.80487397742684
0.8548798828125,-0.3744853515625,1.4836962890625005,1.7528301602694534,-0.1533203125,0.03271484375,-0.5205078125,42.97705882352941,331.80487397742684
0.6839814453125,-0.3886455078125,1.3274462890625005,1.5430455594765875,-0.712890625,-0.47998046875,-2.58837890625,42.83588235294118,331.80487397742684
0.6117158203125,-0.3779033203125,1.1985400390625005,1.397678571617862,-1.27392578125,-0.8564453125,-3.26318359375,42.60058823529412,332.60222599053355
0.3187470703125,-0.3666728515625,1.1150439453125005,1.2162942386132738,-1.5009765625,-0.94580078125,-3.0615234375,42.93,332.60222599053355
0.2450166015625,-0.3979228515625,1.0413134765625005,1.1413629954171236,-1.89208984375,-0.95947265625,-2.8720703125,43.25941176470588,332.60222599053355
0.2215791015625,-0.4291728515625,1.0178759765625005,1.126657950946336,-1.91162109375,-1.1123046875,-2.32080078125,42.93,332.60222599053355
0.2298798828125,-0.3808330078125,1.0168994140625005,1.1099382679600072,-1.66064453125,-1.7421875,-1.46142578125,43.02411764705882,332.60222599053355
0.2498994140625,-0.3007548828125,0.9949267578125,1.0690100420929798,-1.16552734375,-1.89697265625,-0.98583984375,43.02411764705882,332.9828833986438
0.1810517578125,-0.2358134765625,1.0100634765625005,1.0529083347666184,-0.88671875,-1.58447265625,-0.69091796875,42.97705882352941,332.9828833986438
0.0462861328125,-0.1801494140625,1.0339892578125005,1.0505855523228196,-0.87451171875,-1.0341796875,-0.1376953125,43.02411764705882,332.9828833986438
0.0482392578125,-0.0619853515625,0.9817431640625,0.9848801196014044,-0.86083984375,-0.22998046875,-0.33740234375,42.93,332.9828833986438
-0.0069365234375,-0.0102275390624999,0.9534228515625,0.9535029374859016,-0.6953125,-0.09423828125,-0.24462890625,42.788823529411765,332.61475783821766
0.0218720703125,0.0044208984375,0.8909228515625001,0.8912022549561947,-0.43017578125,-0.43798828125,0.0966796875,43.118235294117646,332.61475783821766
0.0389619140625,-0.0248759765625,0.8127978515625001,0.8141112899732859,-0.1796875,-0.6689453125,0.7568359375,42.60058823529412,332.61475783821766
0.1058564453125,-0.0146220703124999,0.7571337890625001,0.7646378008538162,-0.05859375,-0.76025390625,1.30029296875,43.118235294117646,332.61475783821766
0.1317353515625,-0.0165751953125,0.6819384765625001,0.6947438562285574,0.0126953125,-0.953125,1.42919921875,42.83588235294118,332.61475783821766
0.1297822265625,-0.0424541015625,0.6316455078125001,0.6462366630041274,0.0947265625,-1.0029296875,1.34228515625,43.02411764705882,332.2722449360747
0.1112275390625,-0.0619853515625,0.5901416015625001,0.6037225017745979,0.181640625,-0.95703125,1.24609375,43.16529411764706,332.2722449360747
0.0999970703125,-0.0790751953125,0.5393603515625001,0.5542218774303453,0.21142578125,-0.9169921875,1.2353515625,42.97705882352941,332.2722449360747
0.0995087890625,-0.0737041015625,0.5144580078125001,0.5291515241310628,0.18603515625,-1.0009765625,1.0244140625,42.93,332.2722449360747
0.0638642578125,-0.0927470703125,0.4851611328125,0.4980582167472007,0.2333984375,-0.89892578125,1.00927734375,42.97705882352941,332.2612131131938
0.0511689453125,-0.0903056640625,0.4812548828125,0.492320663954943,0.22216796875,-0.67578125,1.01611328125,43.16529411764706,332.2612131131938
0.0404267578125,-0.1005595703125,0.4768603515625,0.4890218244833009,0.2265625,-0.4541015625,0.8759765625,43.25941176470588,332.2612131131938
0.0384736328125,-0.0937236328125,0.4685595703125,0.479387537072876,0.14892578125,-0.22509765625,0.79345703125,42.97705882352941,332.2612131131938
0.0326142578125,-0.0912822265625,0.4783251953125,0.4880482836457978,0.1708984375,0.03759765625,0.69677734375,43.25941176470588,332.2612131131938
0.0150361328125,-0.1044658203125,0.5051806640625001,0.5160878764766202,0.3310546875,0.34521484375,0.7568359375,43.16529411764706,332.1664316763157
-0.0196318359375,-0.1371806640625,0.5232470703125001,0.5412868372365245,0.58740234375,0.64599609375,1.27392578125,43.118235294117646,332.1664316763157
0.0257783203125,-0.1283916015625,0.5339892578125001,0.5498121975811944,0.6240234375,0.71630859375,1.57080078125,43.02411764705882,332.1664316763157
0.0550751953125,-0.1254619140625,0.5867236328125001,0.6025102408421235,0.67236328125,0.6337890625,1.16455078125,43.16529411764706,332.1664316763157
0.0331025390625,-0.0898173828125,0.6384814453125001,0.6456171437903508,0.60009765625,0.783203125,0.76953125,42.97705882352941,331.65343511526885
0.0409150390625,-0.0961650390625,0.6921923828125001,0.7000371775720378,0.4208984375,0.734375,0.3671875,42.97705882352941,331.65343511526885
0.0135712890625,-0.0932353515625,0.7620166015625001,0.7678191920788793,0.3505859375,0.61279296875,-0.24365234375,42.55352941176471,331.65343511526885
-0.0020537109374999,-0.1044658203125,0.8235400390625001,0.8301418681654615,0.30322265625,0.58203125,-0.4775390625,42.83588235294118,331.65343511526885
-0.0044951171875,-0.1391337890625,0.8699267578125001,0.8809943139973071,0.34375,0.26806640625,-0.46875,42.97705882352941,331.65343511526885
0.0047822265625,-0.1513408203125,0.9177783203125,0.9301849057146592,0.29052734375,-0.04248046875,-0.39599609375,43.777058823529416,331.6439073947228
0.0057587890625,-0.1757548828125,0.9890673828125,1.0045781354516286,0.3583984375,-0.169921875,-0.3466796875,43.25941176470588,331.6439073947228
-0.0093779296875,-0.1889384765625,1.0789111328125005,1.095369766790071,0.40869140625,-0.17919921875,-0.1083984375,42.97705882352941,331.6439073947228
-0.1343779296875,-0.1835673828125,1.1609423828125005,1.1830222433369946,0.55419921875,-0.2177734375,0.16162109375,42.97705882352941,331.6439073947228
0.0062470703125,-0.1625712890625,1.2283251953125005,1.2390525555255614,0.6455078125,-0.39794921875,0.14013671875,43.777058823529416,331.0787864991233
-0.0186552734375,-0.1713603515625,1.3005908203125005,1.311963746143846,0.7919921875,-0.50341796875,0.14501953125,42.788823529411765,331.0787864991233
-0.0386748046875,-0.1864970703125,1.3533251953125005,1.3666623511388536,0.93359375,-1.02978515625,0.30908203125,42.97705882352941,331.0787864991233
-0.0577177734375,-0.2006572265625,1.3674853515625005,1.3833332392017303,0.90478515625,-1.3798828125,0.52783203125,42.788823529411765,331.0787864991233
-0.0723662109375,-0.2006572265625,1.3914111328125005,1.407666555535,1.02294921875,-1.9619140625,0.65283203125,43.02411764705882,331.0787864991233
-0.1133818359375,-0.1718486328125,1.4441455078125005,1.4587472848492669,1.2734375,-2.138671875,0.73974609375,43.16529411764706,330.9920376142349
-0.1338896484375,-0.1640361328125,1.4133837890625005,1.429156403621195,1.384765625,-2.08203125,0.583984375,42.60058823529412,330.9920376142349
-0.1431669921875,-0.1650126953125,1.4412158203125005,1.4576793261843788,1.21435546875,-1.62890625,0.359375,43.118235294117646,330.9920376142349
-0.1475615234375,-0.1586650390625,1.5510791015625005,1.5661402801549529,1.447265625,0.2177734375,-0.2236328125,43.16529411764706,330.9920376142349
-0.1089873046875,-0.1298564453125,1.4861376953125005,1.4957761123914883,1.33447265625,1.142578125,-0.73193359375,42.74176470588235,330.3321882176328
-0.0923857421875,-0.1098369140625,1.5642626953125005,1.5708332352597574,1.49755859375,1.37548828125,-1.18603515625,43.68294117647059,330.3321882176328
-0.0171904296875,-0.1249736328125,1.6502001953125005,1.6550149861498562,1.3720703125,2.11474609375,-1.65869140625,43.02411764705882,330.3321882176328
0.1234345703125,-0.1796611328125,1.8372119140625005,1.8500977901086464,0.95361328125,2.6650390625,-2.51904296875,43.73,330.3321882176328
0.3661103515625,-0.2206767578125,1.6946337890625005,1.747718140888908,0.54150390625,2.55078125,-3.73486328125,43.25941176470588,330.3321882176328
0.4720673828125,-0.3197978515625,1.6365283203125005,1.733015644177596,0.37353515625,1.8505859375,-4.29541015625,42.93,330.3843289133972
0.5965791015625,-0.3134501953125,1.5110400390625005,1.6545088845372111,-0.23046875,1.5068359375,-3.91943359375,42.93,330.3843289133972
0.6488251953125,-0.1943095703125,1.3616259765625005,1.520774685230233,-0.64501953125,0.923828125,-2.64404296875,43.02411764705882,330.3843289133972
0.6942353515625,0.0288349609375,1.2239306640625005,1.4074091262898107,-0.32177734375,0.23046875,-0.7333984375,43.02411764705882,330.3843289133972
0.6756806640625,0.1162373046875,1.1697314453125005,1.3558492264783082,-0.1240234375,-0.83447265625,1.25,43.118235294117646,332.7301086509793
0.5741181640625,0.1914326171875,1.1096728515625005,1.2639746637985283,0.37353515625,-1.71728515625,2.517578125,43.02411764705882,332.7301086509793
0.3861298828125,0.2011982421875,1.0618212890625005,1.1476242716875955,0.68310546875,-1.869140625,3.0859375,42.93,332.7301086509793
0.2650361328125,0.1982685546875,0.9963916015625,1.0499289476618687,0.97802734375,-1.00439453125,2.64599609375,42.93,332.7301086509793
0.2557587890625,0.1611591796875,0.8997119140625001,0.949139804078552,1.0009765625,-0.12548828125,1.859375,42.93,332.7301086509793
0.2987275390625,0.0947529296875,0.8181689453125001,0.8761373655725856,0.6904296875,0.345703125,1.0390625,42.55352941176471,333.25268643226497
0.3900361328125,0.1103779296875,0.7971728515625001,0.8943131596536621,0.33203125,0.6806640625,-0.0419921875,42.97705882352941,333.25268643226497
0.3197236328125,0.0434833984375,0.8064501953125001,0.8686057361300732,0.361328125,0.8193359375,-0.5576171875,43.118235294117646,333.25268643226497
0.2376923828125,-0.0697978515625,0.7219775390625001,0.7632961259174375,0.34912109375,0.9580078125,-0.24853515625,42.93,333.25268643226497
0.1976533203125,-0.1484111328125,0.8391650390625001,0.8748089289427792,0.41064453125,0.9580078125,0.806640625,42.93,333.3474818083116
0.1903291015625,-0.1889384765625,0.7986376953125001,0.8424636984472438,0.478515625,0.72509765625,1.37451171875,43.25941176470588,333.3474818083116
0.2000947265625,-0.1679423828125,0.7810595703125001,0.8235876370609319,0.4541015625,0.43701171875,1.2607421875,43.25941176470588,333.3474818083116
0.1693330078125,-0.1532939453125,0.8254931640625001,0.8565113339111268,0.4951171875,0.73779296875,0.98486328125,43.16529411764706,333.3474818083116
0.1712861328125,-0.1513408203125,0.7039111328125001,0.7400904445296527,0.50390625,0.38525390625,1.07666015625,43.118235294117646,333.3474818083116
0.2157197265625,-0.1215556640625,0.6746142578125001,0.7186203286421734,0.2158203125,-0.2646484375,1.1904296875,43.02411764705882,332.71907690356784
0.1903291015625,-0.0927470703125,0.6912158203125001,0.7229152759510775,0.24951171875,-0.5380859375,1.1689453125,42.93,332.71907690356784
0.2127900390625,-0.0600322265625,0.6980517578125001,0.7322292848113853,0.0478515625,-0.53857421875,1.09228515625,42.93,332.71907690356784
0.2215791015625,-0.0253642578125,0.6804736328125001,0.7160900842608177,-0.08251953125,-0.4267578125,0.71533203125,43.25941176470588,332.71907690356784
0.2303681640625,0.0132099609375,0.6775439453125001,0.715758193743617,-0.09619140625,-0.11474609375,0.21240234375,42.97705882352941,332.5485670104766
0.2025361328125,0.0454365234375,0.7571337890625001,0.785071294403806,0.12255859375,1.34423828125,-0.53857421875,43.02411764705882,332.5485670104766
0.1693330078125,0.0322529296875,0.6780322265625001,0.6996010429277221,0.04296875,2.88427734375,-0.98388671875,42.93,332.5485670104766
0.1654267578125,0.0312763671875,0.6746142578125001,0.6953046959346048,-0.2578125,3.85400390625,-1.01220703125,42.97705882352941,332.5485670104766
0.0960908203125,-0.0468486328125,0.5095751953125001,0.5206679554404152,0.14697265625,1.95068359375,0.14501953125,42.55352941176471,332.5485670104766
0.1146455078125,-0.0033916015624999,0.5271533203125001,0.5394865323057083,0.4150390625,0.50341796875,0.71923828125,42.97705882352941,332.4964084782937
0.0741181640625,0.0078388671875,0.6199267578125001,0.6243910114140795,0.14892578125,0.2333984375,0.98583984375,43.02411764705882,332.4964084782937
0.0594697265625,0.0249287109375,0.7014697265625001,0.7044273321571874,0.13916015625,0.431640625,1.03857421875,43.49470588235295,332.4964084782937
0.0267548828125,0.0273701171875,0.7590869140625001,0.7600512418055098,0.2333984375,0.73974609375,1.0546875,42.97705882352941,332.4964084782937
0.0174775390625,0.0180927734375,0.8044970703125001,0.8048902713809738,0.33056640625,0.9462890625,1.13623046875,43.118235294117646,332.13183441283434
-0.0274443359375,-0.0219462890625,0.8723681640625001,0.8730756237855013,0.50732421875,1.27880859375,1.67626953125,43.118235294117646,332.13183441283434
-0.1334013671875,-0.0365947265625,0.9094775390625,0.9199372222270712,0.70556640625,1.44482421875,2.24951171875,42.69470588235294,332.13183441283434
0.0448212890625,-0.0209697265625,0.9124072265625,0.9137481187224428,0.64013671875,1.3935546875,2.4833984375,42.74176470588235,332.13183441283434
0.0882783203125,0.0127216796875,0.9343798828125,0.9386270123834968,0.435546875,1.130859375,2.15185546875,43.118235294117646,332.13183441283434
0.0663056640625,0.0097919921875,0.9622119140625,0.9645434628681018,0.2880859375,0.62890625,1.89990234375,42.93,331.5130291215753
0.0189423828125,-0.0024150390624999,1.0037158203125005,1.003897452046714,0.1953125,0.388671875,1.9931640625,43.02411764705882,331.5130291215753
0.0033173828125,0.0063740234375,1.0310595703125005,1.0310846089126269,-0.0458984375,0.28759765625,1.98291015625,43.16529411764706,331.5130291215753
0.0145478515625,0.0293232421875,1.0725634765625005,1.073062861053959,-0.13720703125,0.1484375,1.82470703125,44.01235294117648,331.5130291215753
-0.0098662109375,0.0205341796875,1.1033251953125005,1.1035603659361226,-0.2958984375,-0.091796875,1.67333984375,42.97705882352941,331.3234843234605
-0.0484404296875,0.0132099609375,1.1428759765625005,1.143978354734026,-0.34765625,-0.02734375,1.5234375,43.118235294117646,331.3234843234605
-0.0816435546875,0.0210224609375,1.1702197265625005,1.1732526677241746,-0.3701171875,0.18994140625,1.4453125,43.02411764705882,331.3234843234605
-0.0977568359375,0.0420185546875,1.1868212890625005,1.1915816086540243,-0.37548828125,0.390625,1.30712890625,43.25941176470588,331.3234843234605
-0.1055693359375,0.0454365234375,1.1965869140625005,1.202093842117989,-0.3935546875,0.44970703125,1.1806640625,43.02411764705882,331.3234843234605
-0.1148466796875,0.0469013671875,1.2239306640625005,1.230201515407851,-0.400390625,0.58984375,1.11865234375,43.118235294117646,331.05672255398247
-0.1026396484375,0.0469013671875,1.2351611328125005,1.2403054703120877,-0.49609375,0.732421875,1.0546875,43.16529411764706,331.05672255398247
-0.0713896484375,0.0425068359375,1.2644580078125005,1.2671848194034698,-0.57568359375,0.68359375,1.0478515625,42.93,331.05672255398247
-0.0586943359375,0.0293232421875,1.2664111328125005,1.268109630479546,-0.638671875,0.58056640625,1.0341796875,42.93,331.05672255398247
-0.0474638671875,0.0366474609375,1.2849658203125005,1.2863642619619589,-0.716796875,0.65283203125,0.98486328125,43.73,331.3219789357144
-0.0591826171875,0.0400654296875,1.2947314453125005,1.2967024856589895,-0.73193359375,0.7509765625,1.0341796875,44.01235294117648,331.3219789357144
-0.0469755859375,0.0537373046875,1.3147509765625005,1.3166869536686756,-0.720703125,1.18798828125,1.1865234375,42.97705882352941,331.3219789357144
-0.0416044921875,0.0664326171875,1.3411181640625005,1.3434069213663191,-0.6923828125,1.7392578125,1.44970703125,43.68294117647059,331.3219789357144
-0.0391630859375,0.0908466796875,1.4158251953125005,1.4192772280960724,-0.603515625,2.3984375,1.89990234375,43.02411764705882,331.3219789357144
-0.0210966796875,0.1206318359375,1.4983447265625005,1.5033409557891857,-0.4033203125,2.9208984375,2.4453125,43.68294117647059,331.4924696785037
0.0404267578125,0.1206318359375,1.5559619140625005,1.561154649803126,-0.10888671875,2.9912109375,3.123046875,42.93,331.4924696785037
0.1747041015625,0.0605732421875,1.5339892578125005,1.545093422371609,0.1884765625,2.37939453125,3.3779296875,43.16529411764706,331.4924696785037
0.4471650390625,-0.0707744140625,1.4558642578125005,1.524633177856759,0.33251953125,1.70947265625,2.74658203125,43.91823529411765,331.4924696785037
0.6908173828125,-0.2221416015625,1.3699267578125005,1.550249937691124,0.2177734375,0.78173828125,1.5087890625,42.788823529411765,331.8209250359448
0.7684541015625,-0.2812236328125,1.2874072265625005,1.525459211144578,-0.130859375,0.11083984375,-0.10888671875,43.25941176470588,331.8209250359448
0.6707978515625,-0.2397197265625,1.2415087890625005,1.4313557832640709,-0.66455078125,-0.37646484375,-1.90478515625,43.02411764705882,331.8209250359448
0.4847626953125,-0.2123759765625,1.1726611328125005,1.286558416317196,-0.96337890625,-0.859375,-2.974609375,42.97705882352941,331.8209250359448
0.3490205078125,-0.2773173828125,1.0613330078125005,1.151150728252386,-1.12744140625,-1.0068359375,-3.07080078125,42.83588235294118,331.8209250359448
0.3070283203125,-0.3163798828125,0.9846728515625,1.0788620135710552,-1.6748046875,-0.92236328125,-2.8515625,43.73,333.06010492711584
0.3167939453125,-0.3036845703125,0.9529345703125,1.0491267880143067,-2.01220703125,-0.873046875,-2.90380859375,43.118235294117646,333.06010492711584
0.3539033203125,-0.3207744140625,0.9749072265625,1.0856278760464555,-2.00927734375,-0.9677734375,-3.41357421875,42.97705882352941,333.06010492711584
0.2992158203125,-0.3383525390625,0.9802783203125,1.0793322626003632,-1.759765625,-1.09423828125,-3.224609375,42.55352941176471,333.06010492711584
0.2459931640625,-0.2885478515625,0.9241259765625,0.9988900439810224,-1.80908203125,-1.1435546875,-2.958984375,43.25941176470588,332.8991230564388
0.3592744140625,-0.1884501953125,0.9226611328125,1.0079162399307384,-1.5986328125,-1.0654296875,-3.119140625,43.25941176470588,332.8991230564388
0.1053681640625,-0.1308330078125,0.8987353515625001,0.9143002559768526,-1.43310546875,-1.07568359375,-3.13427734375,42.97705882352941,332.8991230564388
0.0262666015625,-0.1396220703125,0.9094775390625,0.9205072791320952,-0.98828125,-0.98681640625,-2.28076171875,44.01235294117648,332.8991230564388
-0.0386748046875,-0.1122783203125,0.8767626953125001,0.8847683231340577,-0.8466796875,-0.18505859375,-1.48193359375,43.02411764705882,332.8991230564388
0.0384736328125,-0.0810283203125,0.9578173828125,0.9620082889103624,-0.5927734375,-0.11328125,-0.6318359375,43.118235294117646,332.79180268112407
0.0663056640625,-0.0541728515625,0.7869189453125001,0.7915633679149883,-0.443359375,-0.5146484375,-0.294921875,43.02411764705882,332.79180268112407
0.0702119140625,-0.0644267578125,0.7400439453125001,0.7461538453913114,-0.14453125,-0.58447265625,0.064453125,42.97705882352941,332.79180268112407
0.0824189453125,-0.0693095703125,0.7053759765625001,0.713548854245334,-0.1943359375,-0.44970703125,0.337890625,43.118235294117646,332.79180268112407
0.1043916015625,-0.0868876953125,0.6668017578125001,0.6804936901216216,-0.05712890625,-0.37255859375,0.54052734375,43.02411764705882,332.2391495092152
0.1112275390625,-0.0917705078125,0.6379931640625001,0.6540861326618569,-0.0185546875,-0.2646484375,0.5908203125,43.02411764705882,332.2391495092152
0.0951142578125,-0.1039775390625,0.6013720703125001,0.6176620577797044,0.02099609375,-0.2158203125,0.7431640625,43.118235294117646,332.2391495092152
0.0824189453125,-0.1152080078125,0.5867236328125001,0.6035813026521343,0.1103515625,-0.12255859375,0.9765625,43.68294117647059,332.2391495092152
0.0741181640625,-0.1347392578125,0.5823291015625001,0.6022917502062,0.1806640625,0.11767578125,1.1728515625,42.93,332.2391495092152
0.0848603515625,-0.1254619140625,0.5667041015625001,0.5865965477867199,0.2763671875,0.39501953125,1.29833984375,43.25941176470588,332.27074375398905
0.0794892578125,-0.1269267578125,0.5295947265625001,0.550363078666424,0.27197265625,0.4833984375,1.34130859375,43.118235294117646,332.27074375398905
0.0643525390625,-0.1215556640625,0.5281298828125001,0.5457455468155568,0.3095703125,0.51416015625,1.392578125,43.118235294117646,332.27074375398905
0.0414033203125,-0.1215556640625,0.5403369140625001,0.5553863475970222,0.27392578125,0.43359375,1.3837890625,43.16529411764706,332.27074375398905
0.0394501953125,-0.1249736328125,0.5691455078125001,0.5840388136688319,0.3701171875,0.482421875,1.37744140625,42.97705882352941,331.6519313403866
0.0262666015625,-0.1454814453125,0.5979541015625001,0.6159577037940784,0.4287109375,0.37744140625,1.48193359375,42.97705882352941,331.6519313403866
0.0321259765625,-0.1498759765625,0.6316455078125001,0.6499776413541996,0.3896484375,0.50146484375,1.50244140625,42.97705882352941,331.6519313403866
0.0868134765625,-0.1376689453125,0.6672900390625001,0.6868517412428659,0.32373046875,0.78271484375,1.02294921875,43.91823529411765,331.6519313403866
0.0672822265625,-0.1669658203125,0.7063525390625001,0.7289296211595975,0.32666015625,0.630859375,0.728515625,43.91823529411765,331.6519313403866
0.0648408203125,-0.1625712890625,0.7654345703125001,0.7851903192447819,0.3046875,0.61767578125,0.5126953125,43.118235294117646,331.53208527479217
0.0477509765625,-0.1484111328125,0.8054736328125001,0.8204229356018322,0.30224609375,0.33837890625,0.23583984375,43.118235294117646,331.53208527479217
0.0277314453125,-0.1357158203125,0.8626025390625001,0.8736537971870132,0.26318359375,0.06494140625,0.083984375,42.93,331.53208527479217
0.0013642578125,-0.1430400390625,0.8953173828125001,0.9066727799711456,0.244140625,-0.1103515625,0.15478515625,42.55352941176471,331.53208527479217
0.0096650390625,-0.1381572265625,0.9368212890625,0.9470031467066232,0.31640625,-0.05859375,0.19287109375,42.97705882352941,331.69455514686393
0.0135712890625,-0.1210673828125,0.9666064453125,0.9742533095594562,0.396484375,0.03173828125,0.05859375,43.777058823529416,331.69455514686393
-0.0186552734375,-0.1318095703125,1.0046923828125005,1.0134735152604897,0.44482421875,0.06787109375,0.15380859375,43.16529411764706,331.69455514686393
-0.0230498046875,-0.1274150390625,1.0681689453125005,1.0759882812584205,0.509765625,0.134765625,0.2060546875,43.25941176470588,331.69455514686393
-0.0328154296875,-0.1625712890625,1.1467822265625005,1.1587129720567833,0.61865234375,0.24658203125,0.32421875,42.788823529411765,331.69455514686393
-0.0040068359375,-0.0341533203125,1.1882861328125005,1.18878359572173,0.73779296875,-0.06640625,0.2939453125,43.02411764705882,331.07125782821464
0.0086884765625,-0.1757548828125,1.2336962890625005,1.246182892718399,0.77001953125,-0.52880859375,0.306640625,43.16529411764706,331.07125782821464
0.0047822265625,-0.1752666015625,1.2903369140625005,1.3021945335112184,0.9521484375,-0.89208984375,0.48828125,42.93,331.07125782821464
-0.0064482421875,-0.1918681640625,1.3137744140625005,1.3277266974996356,1.04052734375,-1.20947265625,0.66064453125,43.68294117647059,331.07125782821464
-0.0440458984375,-0.1947978515625,1.3787158203125005,1.3931057236701394,1.201171875,-1.09521484375,0.58447265625,43.16529411764706,330.8581495557251
-0.0894560546875,-0.1957744140625,1.3460009765625005,1.3631025771485332,1.1875,-1.2744140625,0.46044921875,43.25941176470588,330.8581495557251
-0.1670927734375,-0.1855205078125,1.4016650390625005,1.4237284626936852,1.33349609375,-0.79052734375,0.25244140625,42.83588235294118,330.8581495557251
-0.2071318359375,-0.1669658203125,1.4519580078125005,1.476131172715457,1.36376953125,0.1201171875,0.02294921875,43.02411764705882,330.8581495557251
-0.1885771484375,-0.1430400390625,1.4763720703125005,1.495224492739013,1.36767578125,0.8642578125,-0.25,42.97705882352941,330.8581495557251
-0.1358427734375,-0.1362041015625,1.5154345703125005,1.527595088129008,1.3125,1.306640625,-0.65625,42.97705882352941,330.7869521618257
-0.0489287109375,-0.1698955078125,1.5461962890625005,1.5562716557977658,1.1455078125,1.69287109375,-1.34423828125,43.02411764705882,330.7869521618257
0.0687470703125,-0.2382548828125,1.5676806640625005,1.587171765542719,0.87744140625,2.05126953125,-2.154296875,43.30647058823529,330.7869521618257
0.1771455078125,-0.2548564453125,1.6047900390625005,1.6345284971910683,0.57763671875,2.068359375,-2.6357421875,43.118235294117646,330.7869521618257
0.3055634765625,-0.2675517578125,1.5515673828125005,1.6038436098089963,0.33544921875,1.77783203125,-3.01806640625,43.16529411764706,331.1058579701915
0.5023408203125,-0.1923564453125,1.5022509765625005,1.5956519978956822,0.0029296875,1.37548828125,-3.26171875,42.93,331.1058579701915
0.6712861328125,-0.0551494140625,1.4446337890625005,1.5939364210905262,-0.22265625,0.78271484375,-2.89111328125,42.97705882352941,331.1058579701915
0.7171845703125,0.0420185546875,1.3503955078125005,1.529603639624505,-0.2041015625,0.11767578125,-1.71533203125,43.02411764705882,331.1058579701915
0.5809541015625,0.0683857421875,1.3064501953125005,1.4314315878479478,-0.0771484375,-0.8701171875,-0.1337890625,42.93,331.1058579701915
0.4378876953125,0.0820576171875,1.2361376953125005,1.3139693634240803,0.1572265625,-1.62158203125,1.1015625,42.93,332.79180268112407
0.3460908203125,0.1050068359375,1.1292041015625005,1.1857095742565955,0.443359375,-1.77978515625,1.4248046875,43.16529411764706,332.79180268112407
0.2816376953125,0.1050068359375,1.0227587890625005,1.0660120860567828,0.57763671875,-1.62744140625,1.38671875,43.02411764705882,332.79180268112407
0.2718720703125,0.1313740234375,0.9251025390625,0.9731332202890036,0.6162109375,-1.22412109375,1.12890625,43.02411764705882,332.79180268112407
0.2582001953125,0.1220966796875,0.8626025390625001,0.9086572953799452,0.55615234375,-0.66015625,0.8671875,42.60058823529412,333.45480623507666
0.2284150390625,0.0747333984375,0.8430712890625001,0.8766571218860011,0.365234375,-0.07861328125,0.43603515625,43.25941176470588,333.45480623507666
0.2127900390625,0.0493427734375,0.8406298828125001,0.868546435081097,0.11767578125,0.29931640625,0.24609375,43.118235294117646,333.45480623507666
0.1541962890625,-0.0444072265625,0.8645556640625001,0.8793207569449102,-0.02978515625,0.6015625,0.541015625,43.118235294117646,333.45480623507666
