AccX,AccY,AccZ,Magnitude,GyroX,GyroY,GyroZ,Temperature,Altitude
0.0228486328125,-0.2128642578125,1.0315478515625005,1.0535294121849077,-0.16357421875,0.53271484375,0.56884765625,43.54176470588236,206.116326841762
0.0291962890625,-0.2509501953125,0.9661181640625,0.9986053929124852,-0.07666015625,0.6904296875,0.8056640625,44.01235294117648,206.116326841762
0.0599580078125,-0.2602275390625,1.1653369140625005,1.1955431644504015,-0.1005859375,0.69140625,0.75146484375,43.54176470588236,206.116326841762
0.1034150390625,-0.2958720703125,1.2161181640625005,1.2558576118565552,-0.046875,0.62451171875,0.77294921875,44.01235294117648,206.116326841762
0.1873994140625,-0.2651103515625,1.3171923828125005,1.356612624235759,0.09521484375,0.36669921875,0.4697265625,43.447647058823534,206.05025130028795
0.2127900390625,-0.2587626953125,1.3518603515625005,1.3927541575368916,0.42529296875,0.41357421875,0.162109375,44.29470588235294,206.05025130028795
0.2074189453125,-0.2489970703125,1.2952197265625005,1.3351465462545289,0.3173828125,0.025390625,-0.3671875,44.15352941176471,206.05025130028795
0.0814423828125,-0.2509501953125,1.3474658203125005,1.3730524386038572,0.32763671875,-0.080078125,-0.55615234375,43.30647058823529,206.05025130028795
-0.0259794921875,-0.2577861328125,1.3738330078125005,1.3980506992380088,0.5234375,0.201171875,-0.18212890625,43.447647058823534,206.05025130028795
-0.0459990234375,-0.2138408203125,1.3811572265625005,1.398370155243219,0.486328125,0.759765625,0.185546875,44.15352941176471,205.83181544729968
0.0125947265625,-0.1791728515625,1.4211962890625005,1.4325014589588534,0.5537109375,1.1259765625,0.27880859375,44.20058823529412,205.83181544729968
0.0956025390625,-0.1630595703125,1.4783251953125005,1.4903602423714328,0.67822265625,1.607421875,0.07861328125,44.20058823529412,205.83181544729968
0.2074189453125,-0.1752666015625,1.5300830078125005,1.5539932468625357,0.8505859375,1.6162109375,-0.12841796875,43.30647058823529,205.83181544729968
0.3001923828125,-0.1972392578125,1.5999072265625005,1.639732272393266,0.802734375,1.2890625,-0.078125,44.059411764705885,204.68784912038552
0.4017548828125,-0.2699931640625,1.6829150390625005,1.751144289659451,0.6953125,0.99853515625,-0.0361328125,43.54176470588236,204.68784912038552
0.5184541015625,-0.3251689453125,1.7180712890625005,1.823814259381559,0.32177734375,0.8759765625,-0.865234375,43.40058823529412,204.68784912038552
0.5965791015625,-0.3608134765625,1.6843798828125005,1.8229724569816437,-0.03369140625,0.98779296875,-2.453125,44.15352941176471,204.68784912038552
0.5956025390625,-0.3905986328125,1.5432666015625005,1.699700408892979,-0.38427734375,0.8798828125,-3.46142578125,44.20058823529412,204.68784912038552
0.6458955078125,-0.3051494140625,1.5286181640625005,1.6872968510066222,-0.36376953125,1.0576171875,-2.64794921875,44.059411764705885,206.2561558302089
0.7982392578125,-0.1879619140625,1.4041064453125005,1.6260475096439204,-0.22265625,0.7373046875,-1.62353515625,44.059411764705885,206.2561558302089
0.8622041015625,-0.0473369140625,1.2361376953125005,1.507870384998876,0.0849609375,0.0849609375,-0.15625,43.30647058823529,206.2561558302089
0.8402314453125,0.0444599609375,1.1365283203125005,1.4140941244099878,0.2763671875,-0.8525390625,0.9013671875,44.01235294117648,206.2561558302089
0.6703095703125,0.1709248046875,1.1472705078125005,1.3396864659338543,0.521484375,-1.46533203125,1.52392578125,43.447647058823534,208.2618172063443
0.4974580078125,0.2700458984375,1.1414111328125005,1.2740520518832867,1.47265625,-1.27197265625,1.970703125,44.76529411764706,208.2618172063443
0.2811494140625,0.1704365234375,0.9983447265625,1.0510879100267023,2.16748046875,-0.92041015625,3.14013671875,44.29470588235294,208.2618172063443
0.2503876953125,0.1235615234375,0.9177783203125,0.959311468332228,2.19140625,-0.3427734375,3.5732421875,44.20058823529412,208.2618172063443
0.2782197265625,0.0337177734375,0.8323291015625001,0.8782453175519546,2.01953125,0.30517578125,2.99072265625,43.447647058823534,208.2618172063443
0.3172822265625,-0.0429423828125,0.7410205078125001,0.80723196946898,1.51708984375,0.4462890625,2.40771484375,44.34176470588236,208.48968664655075
0.2831025390625,-0.1279033203125,0.7390673828125001,0.8017025029946675,1.04736328125,0.51611328125,2.24658203125,44.20058823529412,208.48968664655075
0.2582001953125,-0.1791728515625,0.7717822265625001,0.8333175006167943,0.94775390625,0.578125,2.4140625,44.20058823529412,208.48968664655075
0.2430634765625,-0.2577861328125,0.7888720703125001,0.8647847635268576,0.9462890625,0.6806640625,2.669921875,44.01235294117648,208.48968664655075
0.3255830078125,-0.2431376953125,0.7410205078125001,0.8451222555682721,0.6796875,0.591796875,1.9599609375,43.73,208.00653518241995
0.2845673828125,-0.2289775390625,0.8342822265625001,0.9107338482311708,0.44189453125,0.6015625,0.83544921875,44.01235294117648,208.00653518241995
0.2689423828125,-0.1845439453125,0.6248095703125001,0.7048215888992471,0.1650390625,0.611328125,0.1455078125,44.48294117647059,208.00653518241995
0.2518525390625,-0.1108134765625,0.5930712890625001,0.6537911607924592,-0.17236328125,0.48681640625,-0.453125,43.54176470588236,208.00653518241995
0.2162080078125,-0.0644267578125,0.5759814453125001,0.6185881789274323,-0.2275390625,0.423828125,-0.62744140625,44.34176470588236,208.00653518241995
0.1756806640625,-0.0429423828125,0.5667041015625001,0.5948624065234049,-0.291015625,0.4814453125,-0.59765625,43.30647058823529,207.9074308107511
0.1410126953125,-0.0248759765625,0.5588916015625001,0.576942992631274,-0.2939453125,0.59814453125,-0.40869140625,44.059411764705885,207.9074308107511
0.1097626953125,-0.0243876953125,0.5901416015625001,0.6007576207254242,-0.28466796875,1.12353515625,-0.03466796875,44.76529411764706,207.9074308107511
0.1444306640625,-0.0121806640624999,0.5354541015625001,0.5547248689022716,-0.17236328125,1.265625,0.2109375,44.20058823529412,207.9074308107511
0.1654267578125,-0.0063212890624999,0.5159228515625001,0.5418324092006205,-0.15771484375,1.4150390625,0.2900390625,44.20058823529412,207.19847018606885
0.2015595703125,0.0088154296875,0.4636767578125,0.5056679819018075,-0.15478515625,1.11083984375,0.220703125,44.15352941176471,207.19847018606885
0.2059541015625,0.0200458984375,0.4910205078125,0.5328415046587761,-0.30126953125,1.1591796875,0.07177734375,43.40058823529412,207.19847018606885
0.2083955078125,0.0342060546875,0.5173876953125001,0.5588280317901871,-0.2529296875,1.0791015625,-0.12841796875,44.059411764705885,207.19847018606885
0.1546845703125,0.0171162109375,0.5369189453125001,0.5590189932418282,-0.2578125,0.92529296875,-0.18701171875,44.29470588235294,207.19847018606885
0.0926728515625,0.0093037109375,0.5930712890625001,0.6003402121832163,-0.19873046875,0.7978515625,0.0576171875,43.54176470588236,207.51620567050915
0.0658173828125,-0.0141337890624999,0.6287158203125001,0.6323094769057082,-0.02294921875,0.52685546875,0.43408203125,43.96529411764706,207.51620567050915
0.0531220703125,-0.0195048828125,0.6814501953125001,0.6837958492849017,0.04833984375,0.353515625,0.84326171875,44.29470588235294,207.51620567050915
0.0619111328125,-0.0297587890625,0.7512744140625001,0.754408257588387,0.04052734375,0.419921875,1.05908203125,44.20058823529412,207.51620567050915
0.0672822265625,-0.0517314453125,0.8132861328125001,0.8177024974099316,0.00634765625,0.47509765625,1.22119140625,44.76529411764706,206.97624049933916
0.0877900390625,-0.0497783203125,0.8762744140625001,0.8820667893489171,-0.18359375,0.48583984375,1.11767578125,43.40058823529412,206.97624049933916
0.1161103515625,-0.0644267578125,0.9563525390625,0.965527109838708,-0.28564453125,0.400390625,1.025390625,44.34176470588236,206.97624049933916
0.1366181640625,-0.0986064453125,1.0110400390625005,1.0249827873659525,-0.32666015625,0.05224609375,1.09521484375,44.57705882352941,206.97624049933916
0.1454072265625,-0.1156962890625,1.1150439453125005,1.1304211130448236,-0.47119140625,-0.16748046875,1.06591796875,43.73,206.97624049933916
0.1122041015625,-0.1152080078125,1.1668017578125005,1.1778323257178476,-0.4208984375,-0.6552734375,1.08349609375,44.34176470588236,206.5097703771665
0.0975556640625,-0.1064189453125,1.0901416015625005,1.0996594068025578,-0.3896484375,-0.94677734375,1.20458984375,44.15352941176471,206.5097703771665
0.1141572265625,-0.0737041015625,1.2395556640625005,1.2469813195365052,-0.51708984375,-0.9111328125,1.0693359375,44.76529411764706,206.5097703771665
0.1195283203125,-0.0400126953125,1.2659228515625005,1.2721826524721325,-0.4326171875,-0.66845703125,0.80126953125,44.76529411764706,206.5097703771665
0.1029267578125,-0.0483134765625,1.2449267578125005,1.2501082920326911,-0.31494140625,-0.68505859375,0.6181640625,43.30647058823529,205.92941687279463
0.0892548828125,-0.0527080078125,1.2610400390625005,1.265293068151481,-0.30615234375,-0.6591796875,0.4755859375,44.388823529411766,205.92941687279463
0.0677705078125,-0.0522197265625,1.2722705078125005,1.275143908200523,-0.37890625,-0.58349609375,0.3720703125,44.71823529411765,205.92941687279463
0.0326142578125,-0.0571025390625,1.2883837890625005,1.2900609201503197,-0.6025390625,-0.23828125,-0.05615234375,44.20058823529412,205.92941687279463
-0.0132841796875,-0.0717509765625,1.3152392578125005,1.3172619243562833,-0.89306640625,0.3056640625,-0.19775390625,43.447647058823534,205.92941687279463
-0.0274443359375,-0.0873759765625,1.3342822265625005,1.3374217034936604,-1.11376953125,1.09033203125,-0.0625,44.29470588235294,206.39405811457223
0.0096650390625,-0.0893291015625,1.3049853515625005,1.308074871388769,-1.142578125,1.453125,0.17578125,44.76529411764706,206.39405811457223
0.0111298828125,-0.0976298828125,1.3137744140625005,1.3174439947696708,-1.2353515625,1.71337890625,0.25341796875,43.87117647058824,206.39405811457223
0.0057587890625,-0.1054423828125,1.3811572265625005,1.3851882703194038,-1.3037109375,2.09521484375,0.603515625,43.40058823529412,206.39405811457223
0.0560517578125,-0.1191142578125,1.4773486328125005,1.483202275093002,-1.298828125,2.3515625,0.9375,44.20058823529412,206.14242174420744
0.1483369140625,-0.1239970703125,1.5501025390625005,1.5621129905124274,-1.20556640625,2.60595703125,1.50830078125,44.15352941176471,206.14242174420744
0.2616181640625,-0.1098369140625,1.6277392578125005,1.6522842681821417,-1.12451171875,2.56982421875,2.208984375,44.15352941176471,206.14242174420744
0.2562470703125,-0.0766337890625,1.6550830078125005,1.676554520861009,-0.40673828125,2.62841796875,3.27197265625,44.15352941176471,206.14242174420744
0.6126923828125,-0.0419658203125,1.4705126953125005,1.5935999099856255,0.37060546875,1.9619140625,3.57861328125,43.87117647058824,206.14242174420744
0.8636689453125,-0.0473369140625,1.2419970703125005,1.5135129841514412,0.525390625,1.43212890625,2.826171875,44.15352941176471,206.97624049933916
1.0453095703125,-0.1557353515625,1.1316455078125005,1.5484014830997193,0.283203125,0.63916015625,1.47802734375,44.388823529411766,206.97624049933916
1.0497041015625,-0.3071025390625,1.0671923828125005,1.5281002101527217,-0.138671875,-0.33642578125,-0.404296875,44.29470588235294,206.97624049933916
0.8900361328125,-0.4198955078125,1.0442431640625005,1.434893843071399,-0.5205078125,-0.81201171875,-2.20703125,44.15352941176471,206.97624049933916
0.6488251953125,-0.4711650390625,1.0051806640625005,1.2858300025711795,-0.814453125,-0.90625,-3.005859375,44.059411764705885,208.01035016326145
0.4637666015625,-0.4916728515625,0.9846728515625,1.1943208439496718,-1.10693359375,-0.80810546875,-2.9453125,44.059411764705885,208.01035016326145
0.3265595703125,-0.4462626953125,0.9773486328125,1.1229434074122904,-1.1396484375,-0.34130859375,-2.55859375,44.48294117647059,208.01035016326145
0.2230439453125,-0.3808330078125,0.9622119140625,1.058600089242345,-0.98046875,0.23974609375,-2.0888671875,44.76529411764706,208.01035016326145
0.1942353515625,-0.2802470703125,0.9031298828125,0.9653545345852308,-1.00439453125,0.62939453125,-1.8720703125,44.059411764705885,208.01035016326145
0.1732392578125,-0.1855205078125,0.9050830078125,0.9400026331332034,-1.24853515625,0.80029296875,-1.70703125,43.447647058823534,208.54856937103483
0.2264619140625,-0.0297587890625,0.8284228515625001,0.8593340474101218,-1.19091796875,0.46923828125,-1.70849609375,44.57705882352941,208.54856937103483
0.1756806640625,0.0542255859375,0.8333056640625001,0.8533477835292891,-1.73193359375,0.5302734375,-1.8017578125,44.059411764705885,208.54856937103483
0.1292939453125,0.0771748046875,0.9959033203125,1.007222069944105,-1.38916015625,1.28955078125,-1.37060546875,44.20058823529412,208.54856937103483
0.2332978515625,0.1269794921875,0.8357470703125001,0.8769406162995307,-0.734375,1.14013671875,-1.09521484375,44.71823529411765,207.3894708226236
0.2284150390625,0.0508076171875,0.7502978515625001,0.7859400168546569,-0.27880859375,0.66162109375,-0.63916015625,44.57705882352941,207.3894708226236
0.2279267578125,0.0058857421875,0.8308642578125001,0.8615803292777362,0.1064453125,0.2001953125,-0.3486328125,44.388823529411766,207.3894708226236
0.2645478515625,-0.0121806640624999,0.6589892578125001,0.7102117826786652,0.16064453125,-0.13037109375,-0.33935546875,44.53,207.3894708226236
0.2240205078125,-0.0771220703125,0.6721728515625001,0.7127056503406713,0.5419921875,-0.20068359375,-0.16357421875,44.15352941176471,207.3894708226236
0.2020478515625,-0.1171611328125,0.6238330078125001,0.666121375576044,0.7333984375,-0.20458984375,0.1103515625,43.30647058823529,207.26093548286408
0.1761689453125,-0.1205791015625,0.5847705078125001,0.6225201714269406,0.76513671875,-0.1953125,-0.04345703125,43.96529411764706,207.26093548286408
0.1224580078125,-0.1357158203125,0.5593798828125001,0.5884901025980194,0.8330078125,0.060546875,-0.26904296875,44.29470588235294,207.26093548286408
0.1068330078125,-0.1552470703125,0.5217822265625001,0.5547716975075424,0.79541015625,0.4892578125,-0.44189453125,44.01235294117648,207.26093548286408
0.0921845703125,-0.1801494140625,0.5042041015625001,0.5432987966333169,0.66357421875,0.94873046875,-0.4814453125,43.82411764705883,207.55485004740825
0.0790009765625,-0.2201884765625,0.5164111328125001,0.5669255485523941,0.5390625,1.6943359375,-0.1806640625,44.76529411764706,207.55485004740825
0.0760712890625,-0.2338603515625,0.5144580078125001,0.5702144744348155,0.57568359375,2.125,0.302734375,44.29470588235294,207.55485004740825
0.1273408203125,-0.2162822265625,0.4631884765625,0.5268180434125075,0.1748046875,2.2607421875,0.39208984375,44.20058823529412,207.55485004740825
0.1507783203125,-0.1991923828125,0.4778369140625,0.5392029522244416,-0.00537109375,1.94873046875,0.2744140625,44.15352941176471,207.55485004740825
0.1756806640625,-0.1816142578125,0.4978564453125,0.5583085835856588,-0.42822265625,1.32421875,-0.12158203125,44.34176470588236,207.20767964214423
0.1634736328125,-0.1825908203125,0.5574267578125001,0.6089233339367637,-0.58642578125,0.69287109375,-0.50146484375,44.29470588235294,207.20767964214423
0.1273408203125,-0.1884501953125,0.6052783203125001,0.646599571351158,-0.6376953125,0.40087890625,-0.81689453125,44.20058823529412,207.20767964214423
-0.0084013671875,-0.1806376953125,0.6697314453125001,0.6937151928412705,-0.6494140625,0.22607421875,-0.8603515625,44.15352941176471,207.20767964214423
0.0907197265625,-0.1908916015625,0.7454150390625001,0.774798846666165,-0.6376953125,0.1298828125,-0.7880859375,44.76529411764706,206.82568504259484
0.0506806640625,-0.2084697265625,0.8132861328125001,0.8411078946413302,-0.607421875,0.08740234375,-0.63232421875,43.63588235294118,206.82568504259484
0.0423798828125,-0.2094462890625,0.8718798828125001,0.897684985126961,-0.60595703125,0.1240234375,-0.4638671875,44.76529411764706,206.82568504259484
0.0272431640625,-0.2187236328125,0.9319384765625,0.9576489657679724,-0.51220703125,-0.21240234375,-0.4228515625,44.059411764705885,206.82568504259484
0.0282197265625,-0.2133525390625,0.9866259765625,1.009824973210499,-0.42724609375,-0.29638671875,-0.38818359375,43.96529411764706,206.82568504259484
0.0423798828125,-0.2109111328125,1.0252001953125005,1.0475280430042158,-0.30810546875,-0.41943359375,-0.38916015625,43.40058823529412,206.7191765382575
0.0589814453125,-0.2113994140625,1.0461962890625005,1.0689692223844738,-0.171875,-0.455078125,-0.36376953125,44.76529411764706,206.7191765382575
0.0663056640625,-0.2221416015625,1.0710986328125005,1.095899454076116,-0.04052734375,-0.64208984375,-0.2978515625,44.20058823529412,206.7191765382575
0.0575166015625,-0.2211650390625,1.1106494140625005,1.1339154531605042,0.02685546875,-0.82421875,-0.04638671875,44.29470588235294,206.7191765382575
0.0536103515625,-0.2079814453125,1.1365283203125005,1.156644705283902,0.25634765625,-1.39013671875,0.01416015625,44.15352941176471,206.35741360541329
0.0521455078125,-0.2045634765625,1.1585009765625005,1.1775779730551292,0.52783203125,-1.96728515625,-0.048828125,44.71823529411765,206.35741360541329
0.0467744140625,-0.2270244140625,1.1775439453125005,1.2001406890583457,0.6650390625,-2.498046875,-0.08349609375,44.01235294117648,206.35741360541329
0.0272431640625,-0.2382548828125,1.2366259765625005,1.2596632030353558,0.7353515625,-2.49658203125,0.044921875,43.30647058823529,206.35741360541329
0.0682587890625,-0.2519267578125,1.3069384765625005,1.3327469884061662,0.7880859375,-1.962890625,0.1064453125,43.30647058823529,206.35741360541329
0.0594697265625,-0.2592509765625,1.3543017578125005,1.3801742529260776,0.9326171875,-1.6015625,0.12060546875,44.059411764705885,206.50796576002057
0.0687470703125,-0.2602275390625,1.3826220703125005,1.40857670045983,1.0712890625,-1.3525390625,-0.04296875,43.40058823529412,206.50796576002057
0.0760712890625,-0.2450908203125,1.4475634765625005,1.4701348135116037,1.05029296875,-0.7421875,-0.41748046875,44.76529411764706,206.50796576002057
0.1087861328125,-0.2245830078125,1.4929736328125005,1.5136849798963334,1.0029296875,0.369140625,-0.796875,44.20058823529412,206.50796576002057
0.1024384765625,-0.2421611328125,1.4651416015625005,1.4885481410940686,1.3125,0.50537109375,-0.7900390625,44.15352941176471,206.2343008963693
0.1429658203125,-0.2387431640625,1.4627001953125005,1.4889356552690336,1.1435546875,0.142578125,-0.7431640625,44.48294117647059,206.2343008963693
0.2376923828125,-0.2421611328125,1.5999072265625005,1.6354946703364792,0.8974609375,0.2939453125,-1.56396484375,43.73,206.2343008963693
0.3407197265625,-0.3251689453125,1.6668017578125005,1.7320660711737614,0.81396484375,0.767578125,-2.36865234375,43.73,206.2343008963693
0.4696259765625,-0.3554423828125,1.5759814453125005,1.6824402994849437,0.69921875,0.90087890625,-3.07470703125,44.34176470588236,206.2343008963693
0.5829072265625,-0.3285869140625,1.4353564453125005,1.5836661011627542,0.4677734375,0.60498046875,-3.05126953125,44.71823529411765,206.42348262415305
0.6107392578125,-0.2035869140625,1.3772509765625005,1.5202862641796169,0.3369140625,0.19091796875,-1.80712890625,43.73,206.42348262415305
0.6419892578125,-0.1132548828125,1.3040087890625005,1.457880584128812,0.521484375,0.04638671875,-0.5419921875,44.15352941176471,206.42348262415305
0.6522431640625,-0.0697978515625,1.2195361328125005,1.3847603635229708,0.48046875,-0.3564453125,-0.11181640625,44.15352941176471,206.42348262415305
0.5555634765625,-0.0522197265625,1.1985400390625005,1.3220725780260376,0.6953125,-0.4794921875,0.30126953125,44.34176470588236,207.26834420931348
0.4984345703125,-0.0204814453125,1.1609423828125005,1.2635836840886563,1.18798828125,-0.38134765625,0.8330078125,44.059411764705885,207.26834420931348
0.4681611328125,0.0288349609375,1.0823291015625005,1.1795942460599067,1.69921875,-0.10546875,0.92138671875,44.15352941176471,207.26834420931348
0.4486298828125,0.0190693359375,1.0237353515625005,1.1178848247311757,2.11328125,0.3408203125,1.40185546875,44.62411764705882,207.26834420931348
0.4041962890625,-0.0375712890625,0.9607470703125,1.0429866609730758,2.3330078125,0.43408203125,2.244140625,44.71823529411765,207.26834420931348
0.4173798828125,-0.1015361328125,0.8489306640625001,0.9514193740032264,2.09130859375,0.5576171875,2.337890625,44.059411764705885,208.20878086198528
0.4359345703125,-0.1396220703125,0.7678759765625001,0.8939612897064984,1.287109375,0.66552734375,1.51025390625,44.20058823529412,208.20878086198528
0.3626923828125,-0.1611064453125,0.8118212890625001,0.90363424937667,0.84033203125,0.60205078125,1.03515625,44.15352941176471,208.20878086198528
0.3094697265625,-0.2026103515625,0.8005908203125001,0.8819116326410431,0.666015625,0.5634765625,1.45166015625,44.059411764705885,208.20878086198528
0.2850556640625,-0.2182353515625,0.8142626953125001,0.8898916435517856,0.44091796875,0.30078125,2.1328125,44.059411764705885,208.3795723076888
0.2655244140625,-0.2143291015625,0.8562548828125001,0.921744326036277,0.330078125,-0.029296875,2.57470703125,44.15352941176471,208.3795723076888
0.2957978515625,-0.2172587890625,0.8948291015625001,0.9671695153472558,0.22900390625,-0.111328125,2.78173828125,43.40058823529412,208.3795723076888
0.3402314453125,-0.1840556640625,0.9031298828125,0.982485373469672,0.07177734375,-0.09375,2.41943359375,44.29470588235294,208.3795723076888
0.3412080078125,-0.1396220703125,0.8450244140625001,0.9219454905119908,-0.02001953125,-0.0810546875,1.5849609375,44.62411764705882,208.3795723076888
0.2992158203125,-0.1156962890625,0.7932666015625001,0.8556796360686831,-0.091796875,-0.185546875,0.81640625,44.71823529411765,208.12248728654643
0.2332978515625,-0.1103251953125,0.7478564453125001,0.7911313412195652,-0.09326171875,-0.29931640625,0.47705078125,44.15352941176471,208.12248728654643
0.2030244140625,-0.0834697265625,0.7175830078125001,0.7504075433116824,-0.208984375,-0.365234375,0.2548828125,44.48294117647059,208.12248728654643
0.1576142578125,-0.0717509765625,0.7151416015625001,0.7358110947715013,-0.20849609375,-0.11572265625,0.38720703125,44.53,208.12248728654643
0.1566376953125,-0.0614970703125,0.6960986328125001,0.7161498194185795,-0.14453125,0.13525390625,0.6181640625,44.34176470588236,207.6155197507677
0.1707978515625,-0.0483134765625,0.6423876953125001,0.6664593379980706,-0.1689453125,0.36083984375,0.630859375,44.34176470588236,207.6155197507677
0.1820283203125,-0.0307353515625,0.6189501953125001,0.6458934242650582,-0.19384765625,0.64599609375,0.4580078125,44.388823529411766,207.6155197507677
0.1737275390625,-0.0238994140625,0.7122119140625001,0.7334836401405374,-0.19189453125,0.90576171875,0.2919921875,44.71823529411765,207.6155197507677
0.1610322265625,-0.0234111328125,0.5691455078125001,0.591951069087969,-0.1005859375,1.0205078125,0.20654296875,43.447647058823534,207.6155197507677
0.1366181640625,-0.0253642578125,0.5535205078125001,0.5706950331790133,-0.0703125,1.1923828125,0.25,44.15352941176471,207.57507303587968
0.1297822265625,-0.0185283203125,0.5335009765625001,0.5493723846156302,-0.02197265625,1.14111328125,0.26806640625,43.447647058823534,207.57507303587968
0.1112275390625,-0.0331767578125,0.5173876953125001,0.5302473856282836,0.08837890625,0.67626953125,0.4375,44.15352941176471,207.57507303587968
0.1039033203125,-0.0307353515625,0.5335009765625001,0.5443931059453028,0.01611328125,0.22119140625,0.630859375,44.059411764705885,207.57507303587968
0.0965791015625,-0.0229228515625,0.5774462890625001,0.5859156908074987,0.01025390625,-0.01513671875,0.72705078125,44.15352941176471,207.075542238211
0.0936494140625,-0.0351298828125,0.6057666015625001,0.6139686449561168,0.02880859375,-0.15283203125,0.8388671875,44.34176470588236,207.075542238211
0.1053681640625,-0.0531962890625,0.6619189453125001,0.6723607553475556,-0.04150390625,-0.27685546875,0.822265625,43.73,207.075542238211
0.0960908203125,-0.0624736328125,0.7219775390625001,0.7310184453595299,-0.06201171875,-0.56591796875,0.87890625,44.20058823529412,207.075542238211
0.0897431640625,-0.0702861328125,0.7927783203125001,0.8009316082657708,-0.08154296875,-0.810546875,1.02001953125,43.54176470588236,207.075542238211
0.0804658203125,-0.0634501953125,0.8723681640625001,0.8783660337203022,-0.09716796875,-0.85498046875,1.16455078125,43.54176470588236,207.1948664797278
0.0736298828125,-0.0649150390625,0.9495166015625,0.9545769212495492,-0.115234375,-0.453125,1.42333984375,44.34176470588236,207.1948664797278
0.0819306640625,-0.0688212890625,0.9602587890625,0.9662018140708106,-0.08984375,-0.23828125,1.4384765625,44.29470588235294,207.1948664797278
0.0702119140625,-0.0771220703125,1.0046923828125005,1.0100912387933407,-0.12353515625,-0.46240234375,1.31689453125,44.01235294117648,207.1948664797278
0.0531220703125,-0.0795634765625,1.0364306640625005,1.0408365974378653,-0.166015625,-0.67138671875,1.33642578125,44.20058823529412,206.95241449879487
0.0677705078125,-0.0673564453125,1.0847705078125005,1.0889705170821151,-0.1201171875,-0.60400390625,1.494140625,44.059411764705885,206.95241449879487
0.0658173828125,-0.0727275390625,1.1111376953125005,1.1154587400539515,-0.10009765625,-0.37548828125,1.375,44.059411764705885,206.95241449879487
0.0824189453125,-0.0644267578125,1.1389697265625005,1.143763842624216,-0.0927734375,-0.099609375,1.08203125,44.57705882352941,206.95241449879487
0.0980439453125,-0.0668681640625,1.1462939453125005,1.1524208326985534,-0.08984375,-0.07080078125,0.8095703125,44.62411764705882,206.95241449879487
0.1273408203125,-0.0644267578125,1.1570361328125005,1.165804059125631,-0.08935546875,-0.29296875,0.64306640625,44.71823529411765,206.94140299972656
0.1556611328125,-0.0531962890625,1.1741259765625005,1.1855935400791189,-0.1357421875,-0.91455078125,0.5166015625,44.15352941176471,206.94140299972656
0.1878876953125,-0.0282939453125,1.1917041015625005,1.2067563959109873,-0.1259765625,-2.11572265625,0.20947265625,43.30647058823529,206.94140299972656
0.1180634765625,-0.0278056640625,1.2903369140625005,1.2960252664374707,-0.611328125,-2.3369140625,0.0498046875,44.20058823529412,206.94140299972656
0.1122041015625,-0.0268291015625,1.3977587890625005,1.402511744513951,-0.69384765625,-1.70703125,-0.10986328125,44.20058823529412,206.5814380518431
0.0858369140625,-0.0488017578125,1.4002001953125005,1.403677375444417,-0.68115234375,-0.7919921875,-0.20849609375,44.20058823529412,206.5814380518431
0.0897431640625,-0.0502666015625,1.4280322265625005,1.431732030384752,-0.6953125,0.87158203125,-0.06494140625,44.20058823529412,206.5814380518431
0.1581025390625,-0.0639384765625,1.3689501953125005,1.3795322319138743,-0.630859375,1.06884765625,-0.0029296875,44.29470588235294,206.5814380518431
0.1644501953125,-0.0654033203125,1.4417041015625005,1.452526136600769,-0.802734375,1.30224609375,0.01904296875,44.20058823529412,206.5814380518431
0.2445283203125,-0.0458720703125,1.5662158203125005,1.585853190578108,-0.9501953125,1.326171875,0.14599609375,44.15352941176471,206.5428052253128
0.3612275390625,-0.0053447265624999,1.6931689453125005,1.7312813111825076,-0.75439453125,1.23779296875,0.3349609375,44.20058823529412,206.5428052253128
0.4955048828125,0.0044208984375,1.7210009765625005,1.7909184779221816,-0.021484375,1.34228515625,0.50048828125,44.53,206.5428052253128
0.6771455078125,-0.0395244140625,1.6531298828125005,1.7868762205327215,0.60302734375,1.23583984375,1.09619140625,43.30647058823529,206.5428052253128
0.8597626953125,-0.1337626953125,1.5671923828125005,1.792533490803952,0.9619140625,0.6962890625,1.16455078125,43.40058823529412,206.13880852869104
0.9525361328125,-0.2299541015625,1.4553759765625005,1.7545150914979502,0.89404296875,0.1240234375,0.37158203125,43.30647058823529,206.13880852869104
0.8807587890625,-0.2446025390625,1.3411181640625005,1.6230108984862162,0.74951171875,-0.345703125,-1.16162109375,43.30647058823529,206.13880852869104
0.7196259765625,-0.2768291015625,1.1687548828125005,1.4001728013761352,0.2216796875,-0.47021484375,-2.349609375,44.15352941176471,206.13880852869104
0.5560517578125,-0.3193095703125,1.0486376953125005,1.2291432687404007,-0.16259765625,-0.32666015625,-3.1923828125,44.29470588235294,206.13880852869104
0.4276337890625,-0.3495830078125,0.9641650390625,1.1111674758782213,-0.46484375,-0.15869140625,-3.3642578125,44.01235294117648,207.48878164599145
0.3832001953125,-0.3578837890625,0.8977587890625001,1.039660540513218,-0.54150390625,0.33837890625,-3.25927734375,44.15352941176471,207.48878164599145
0.3592744140625,-0.3783916015625,0.8132861328125001,0.9662777253761456,-0.53759765625,0.6640625,-3.029296875,44.29470588235294,207.48878164599145
0.3934541015625,-0.3710673828125,0.8132861328125001,0.976694151947673,-0.56396484375,1.087890625,-3.1533203125,43.40058823529412,207.48878164599145
0.4002900390625,-0.3398173828125,0.8162158203125001,0.9705236907786446,-0.5234375,1.38623046875,-3.31689453125,43.54176470588236,208.41822951937448
0.3812470703125,-0.2934306640625,0.8103564453125001,0.942405672570754,-0.560546875,1.5048828125,-3.0966796875,44.059411764705885,208.41822951937448
0.3758759765625,-0.2035869140625,0.7590869140625001,0.8711735329056055,-0.49609375,1.4462890625,-2.89892578125,44.71823529411765,208.41822951937448
0.3089814453125,-0.1064189453125,0.7717822265625001,0.8381183273897526,-0.666015625,1.9365234375,-2.328125,44.388823529411766,208.41822951937448
0.1961884765625,-0.1030009765625,0.7639697265625001,0.7954551292264852,-0.53125,1.154296875,-2.0859375,44.20058823529412,208.41822951937448
0.1004853515625,-0.0590556640625,0.7893603515625001,0.7979189444770538,-0.6748046875,1.41943359375,-1.8349609375,43.54176470588236,207.7110239979645
0.0897431640625,-0.0478251953125,0.7507861328125001,0.7576416712577104,0.0927734375,0.75732421875,-1.38720703125,44.01235294117648,207.7110239979645
0.0741181640625,-0.0927470703125,0.6497119140625001,0.6604703570716137,0.27880859375,0.74853515625,-0.45751953125,43.96529411764706,207.7110239979645
0.1527314453125,-0.0746806640625,0.6477587890625001,0.6696980997283609,0.26123046875,0.8720703125,-0.39892578125,43.447647058823534,207.7110239979645
0.1624970703125,-0.1327861328125,0.6238330078125001,0.6581831633852656,0.66064453125,1.01806640625,0.02001953125,44.15352941176471,207.44473632384748
0.2235322265625,-0.1405986328125,0.5315478515625001,0.5935299068803885,0.7080078125,0.96484375,0.44482421875,44.71823529411765,207.44473632384748
0.2718720703125,-0.1366923828125,0.5354541015625001,0.6158817459667628,0.62158203125,0.8212890625,0.30712890625,44.76529411764706,207.44473632384748
0.2479462890625,-0.1562236328125,0.5383837890625001,0.6129765819623897,0.6552734375,0.8046875,0.08837890625,44.34176470588236,207.44473632384748
0.2240205078125,-0.1503642578125,0.5295947265625001,0.5943611464008087,0.59423828125,0.8486328125,-0.26025390625,44.15352941176471,207.44473632384748
0.1927705078125,-0.1728251953125,0.4895556640625,0.5537993906034642,0.5478515625,0.77978515625,-0.216796875,44.76529411764706,207.58428490214325
0.1898408203125,-0.1625712890625,0.4963916015625,0.5557639635548077,0.3916015625,0.77978515625,-0.2392578125,44.15352941176471,207.58428490214325
0.1878876953125,-0.1562236328125,0.5115283203125001,0.5668940218248075,0.29931640625,0.86279296875,-0.3623046875,43.82411764705883,207.58428490214325
0.1600556640625,-0.1694072265625,0.5090869140625001,0.5598983033371019,0.23974609375,0.86669921875,-0.38134765625,43.58882352941177,207.58428490214325
0.1332001953125,-0.1723369140625,0.5247119140625001,0.5681240152810002,0.20166015625,0.7880859375,-0.2080078125,44.76529411764706,207.3308112452864
0.0936494140625,-0.1767314453125,0.5774462890625001,0.6111042736461161,0.11767578125,0.85693359375,0.119140625,44.20058823529412,207.3308112452864
0.1014619140625,-0.1684306640625,0.6257861328125001,0.6559509833990531,0.083984375,0.82958984375,0.17333984375,43.58882352941177,207.3308112452864
0.0692353515625,-0.1703837890625,0.6941455078125001,0.7180962021188741,0.0654296875,0.966796875,0.15185546875,44.34176470588236,207.3308112452864
0.0663056640625,-0.1777080078125,0.7502978515625001,0.773901442812171,0.09228515625,1.07421875,0.12353515625,44.059411764705885,207.3308112452864
0.0726533203125,-0.1786845703125,0.7893603515625001,0.8125862694133265,0.0537109375,1.1015625,0.0166015625,44.059411764705885,207.0222866687328
0.0814423828125,-0.1923564453125,0.8357470703125001,0.8614563420785557,0.01318359375,0.97265625,-0.02099609375,44.76529411764706,207.0222866687328
0.0897431640625,-0.1913798828125,0.8865283203125001,0.9113794806541224,-0.01904296875,0.85498046875,-0.0712890625,43.40058823529412,207.0222866687328
0.0760712890625,-0.1918681640625,0.9436572265625,0.9659654210394772,-0.03173828125,0.75341796875,-0.0087890625,44.76529411764706,207.0222866687328
0.0667939453125,-0.2065166015625,1.0027392578125005,1.0259612843619867,0.03076171875,0.68017578125,0.064453125,44.71823529411765,206.79084774809576
0.0619111328125,-0.2270244140625,1.0613330078125005,1.0871066306572126,0.07177734375,0.58984375,0.212890625,44.20058823529412,206.79084774809576
0.0746064453125,-0.2299541015625,1.1003955078125005,1.1266389324541886,0.0888671875,0.6298828125,0.0087890625,43.63588235294118,206.79084774809576
0.0228486328125,-0.2353251953125,1.1545947265625005,1.1785537705918223,0.14599609375,0.6259765625,-0.02099609375,44.20058823529412,206.79084774809576
0.0404267578125,-0.2431376953125,1.1799853515625005,1.2054524841449297,0.1806640625,0.5048828125,-0.140625,44.15352941176471,206.79084774809576
0.0360322265625,-0.2270244140625,1.2385791015625005,1.2597287790468403,0.3251953125,0.63671875,-0.328125,43.87117647058824,206.28574762502723
0.0570283203125,-0.2319072265625,1.2473681640625005,1.2700238296056607,0.29345703125,0.66162109375,-0.36279296875,44.059411764705885,206.28574762502723
0.0560517578125,-0.2363017578125,1.2815478515625005,1.304356245871353,0.3486328125,0.61376953125,-0.27197265625,44.20058823529412,206.28574762502723
0.0355439453125,-0.2436259765625,1.3015673828125005,1.3246488744213658,0.3984375,0.53173828125,0.01025390625,44.29470588235294,206.28574762502723
-0.0152373046875,-0.2822001953125,1.3552783203125005,1.3844307318163755,0.48046875,0.71044921875,0.4892578125,44.059411764705885,206.2012661571476
-0.0430693359375,-0.2880595703125,1.3469775390625005,1.3781080416591396,0.6318359375,0.7392578125,1.0048828125,44.059411764705885,206.2012661571476
0.0003876953125,-0.2748759765625,1.3196337890625005,1.3479578220531587,0.7763671875,0.896484375,1.314453125,44.15352941176471,206.2012661571476
0.0008759765625,-0.2655986328125,1.3767626953125005,1.4021479666179844,0.583984375,1.2275390625,0.81103515625,43.96529411764706,206.2012661571476
0.2137666015625,-0.2826884765625,1.4915087890625005,1.533038617444288,0.4150390625,1.2392578125,-0.044921875,44.71823529411765,206.2012661571476
0.3026337890625,-0.3188212890625,1.5857470703125005,1.6455479317377777,0.25634765625,1.16748046875,-0.82470703125,44.20058823529412,205.68157216270208
0.4281220703125,-0.3681376953125,1.6751025390625005,1.7677054014094926,0.03564453125,0.890625,-1.48291015625,43.30647058823529,205.68157216270208
0.5252900390625,-0.3598369140625,1.6760791015625005,1.7929454494085604,-0.2421875,0.201171875,-1.80224609375,44.15352941176471,205.68157216270208
0.5316376953125,-0.2504619140625,1.6248095703125005,1.7278240504322568,-0.3984375,-0.306640625,-1.541015625,44.15352941176471,205.68157216270208
0.5101533203125,-0.1103251953125,1.5754931640625005,1.659700807059597,-0.296875,-0.43798828125,-0.64208984375,44.20058823529412,206.2655299415464
0.4984345703125,-0.0204814453125,1.5037158203125005,1.584303562687022,-0.07470703125,-0.537109375,0.33984375,44.76529411764706,206.2655299415464
0.4647431640625,-0.0043681640624999,1.4085009765625005,1.4831993427646932,0.3466796875,-0.767578125,1.0654296875,43.54176470588236,206.2655299415464
0.4383759765625,0.0034443359375,1.3186572265625005,1.3896194592199265,0.76708984375,-0.8251953125,1.59521484375,44.29470588235294,206.2655299415464
0.4662080078125,0.0088154296875,1.2180712890625005,1.3042719362109485,1.0751953125,-0.71728515625,2.05517578125,43.40058823529412,206.2655299415464
0.5072236328125,0.0591083984375,1.1126025390625005,1.2241952566391026,1.27734375,-0.53759765625,2.19970703125,43.87117647058824,207.2977771241599
0.5389619140625,0.1094013671875,1.0183642578125005,1.1573739091332638,1.37646484375,-0.2919921875,2.1337890625,43.87117647058824,207.2977771241599
0.4398408203125,0.0869404296875,0.9695361328125,1.068184861508736,1.51123046875,-0.1123046875,2.6982421875,44.01235294117648,207.2977771241599
0.3919892578125,0.0581318359375,0.9016650390625,0.9849034121463072,1.38623046875,0.06787109375,3.42822265625,44.059411764705885,207.2977771241599
0.3729462890625,0.0503193359375,0.9246142578125,0.998264742362887,1.35888671875,0.40478515625,3.7470703125,44.29470588235294,208.49351283566415
0.3763642578125,0.0107685546875,0.8762744140625001,0.95374150851758,1.447265625,0.4814453125,3.47119140625,44.059411764705885,208.49351283566415
0.3241181640625,-0.0683330078125,0.8518603515625001,0.913995647033472,1.2431640625,0.56689453125,3.52392578125,44.71823529411765,208.49351283566415
0.2855439453125,-0.1142314453125,0.8645556640625001,0.9176277371926816,0.85693359375,0.52099609375,3.50439453125,44.20058823529412,208.49351283566415
0.2860322265625,-0.1166728515625,0.8909228515625001,0.9429583852749192,0.5732421875,0.5244140625,2.99462890625,44.15352941176471,208.49351283566415
0.2933564453125,-0.1264384765625,0.8464892578125001,0.9047589490874288,0.423828125,0.5263671875,2.091796875,43.777058823529416,208.49171759418323
0.2977509765625,-0.1303447265625,0.7942431640625001,0.8581769021865985,0.3193359375,0.3427734375,1.578125,44.34176470588236,208.49171759418323
0.2855439453125,-0.1254619140625,0.7483447265625001,0.8107378530442236,0.193359375,0.0673828125,1.14111328125,44.20058823529412,208.49171759418323
0.2660126953125,-0.0966533203125,0.7278369140625001,0.7809296971346876,0.1220703125,-0.154296875,0.64599609375,44.20058823529412,208.49171759418323
0.2293916015625,-0.0712626953125,0.6990283203125001,0.7391478006525665,-0.13037109375,-0.18017578125,0.2529296875,44.48294117647059,208.5027288120536
0.1986298828125,-0.0400126953125,0.6653369140625001,0.6955056112976293,-0.2412109375,-0.13232421875,-0.0029296875,44.29470588235294,208.5027288120536
0.1683564453125,-0.0224345703125,0.6384814453125001,0.6606858244519147,-0.33056640625,-0.0234375,-0.392578125,44.20058823529412,208.5027288120536
0.1507783203125,-0.0077861328124999,0.6062548828125001,0.6247717252520563,-0.36328125,0.08251953125,-0.482421875,44.29470588235294,208.5027288120536
0.1483369140625,0.0010029296875,0.5735400390625001,0.5924128816537987,-0.33251953125,0.2529296875,-0.5283203125,44.71823529411765,208.5027288120536
0.1180634765625,-0.0068095703124999,0.5637744140625001,0.576044221130097,-0.47412109375,0.54833984375,-0.4833984375,44.20058823529412,207.72023674500556
0.1385712890625,2.6367187500001e-05,0.5320361328125001,0.5497858214484543,-0.4404296875,0.66943359375,-0.552734375,43.447647058823534,207.72023674500556
0.1463837890625,0.0029560546875,0.4900439453125,0.5114489420235909,-0.4453125,0.73095703125,-0.66015625,44.34176470588236,207.72023674500556
0.1488251953125,-0.0043681640624999,0.4861376953125,0.5084268663444427,-0.5234375,1.0244140625,-0.87939453125,43.40058823529412,207.72023674500556
0.1327119140625,-0.0024150390624999,0.5046923828125001,0.5218550429159087,-0.615234375,1.3828125,-1.13232421875,43.30647058823529,207.90945034319773
0.1112275390625,-0.0116923828124999,0.5330126953125001,0.5446198771859415,-0.5439453125,1.95947265625,-1.2333984375,44.76529411764706,207.90945034319773
0.0877900390625,-0.0453837890625,0.5046923828125001,0.514277338152503,-0.37841796875,1.8916015625,-0.95068359375,43.30647058823529,207.90945034319773
0.0667939453125,-0.0610087890625,0.5173876953125001,0.5252366426041335,-0.3046875,1.3505859375,-0.3271484375,44.059411764705885,207.90945034319773
0.0472626953125,-0.0688212890625,0.5920947265625001,0.5979517517488749,-0.24853515625,0.8955078125,0.37451171875,43.30647058823529,207.90945034319773
0.0482392578125,-0.0693095703125,0.6809619140625001,0.6861777983401007,-0.1923828125,0.74267578125,0.92724609375,44.15352941176471,207.81574197765912
0.0731416015625,-0.0605205078125,0.7595751953125001,0.7654847503896031,-0.12158203125,0.708984375,1.1826171875,44.15352941176471,207.81574197765912
0.0687470703125,-0.0839580078125,0.8132861328125001,0.8204934128788038,-0.12451171875,0.6083984375,1.548828125,44.059411764705885,207.81574197765912
0.0687470703125,-0.0800517578125,0.8626025390625001,0.8690325563536125,-0.0927734375,0.49658203125,1.69775390625,44.059411764705885,207.81574197765912
0.0594697265625,-0.0673564453125,0.9392626953125,0.9435507140097222,-0.3115234375,0.01953125,1.47900390625,43.40058823529412,207.50159294113567
0.0526337890625,-0.0639384765625,1.0374072265625005,1.0407075469411702,-0.642578125,-0.09228515625,0.97802734375,43.96529411764706,207.50159294113567
0.0467744140625,-0.0424541015625,1.0872119140625005,1.0890454272571988,-0.65576171875,-0.2021484375,0.66259765625,44.20058823529412,207.50159294113567
0.0033173828125,-0.0468486328125,1.1238330078125005,1.124813953004681,-0.7978515625,-0.3994140625,0.48583984375,44.71823529411765,207.50159294113567
-0.0459990234375,-0.0790751953125,1.1853564453125005,1.1888812804964168,-0.630859375,-0.2978515625,1.1044921875,44.059411764705885,207.50159294113567
-0.0162138671875,-0.0517314453125,1.2249072265625005,1.2261063353593482,-0.6083984375,-0.13623046875,1.66162109375,43.30647058823529,207.30698835148584
0.0584931640625,-0.0092509765624999,1.2483447265625005,1.249748609579465,-0.6015625,0.00146484375,1.572265625,44.29470588235294,207.30698835148584
0.1014619140625,0.0122333984375,1.2810595703125005,1.2851294871458692,-0.572265625,0.19189453125,1.04638671875,43.40058823529412,207.30698835148584
0.1068330078125,0.0200458984375,1.2908251953125005,1.29539369091253,-0.4765625,0.21533203125,0.5263671875,44.29470588235294,207.30698835148584
0.0619111328125,-0.0024150390624999,1.3201220703125005,1.321575234826214,-0.50341796875,0.2080078125,0.20654296875,44.15352941176471,206.539196058551
0.0057587890625,-0.0253642578125,1.3689501953125005,1.3691972635350895,-0.50537109375,0.56884765625,0.2919921875,43.447647058823534,206.539196058551
-0.0127958984375,-0.0390361328125,1.3875048828125005,1.3881128752771903,-0.40185546875,0.9892578125,0.4375,44.29470588235294,206.539196058551
-0.0015654296874999,-0.0468486328125,1.3713916015625005,1.3721924682065072,-0.4541015625,1.23974609375,0.44873046875,44.53,206.539196058551
0.0140595703125,-0.0419658203125,1.3938525390625005,1.3945550194391227,-0.60888671875,1.533203125,0.27392578125,44.20058823529412,206.539196058551
0.0042939453125,-0.0322001953125,1.4475634765625005,1.4479279364741264,-0.67333984375,2.05224609375,0.154296875,44.76529411764706,206.32437928424
0.0057587890625,-0.0141337890624999,1.5173876953125005,1.5174644462162896,-0.6552734375,2.53369140625,0.26025390625,43.87117647058824,206.32437928424
0.0414033203125,-0.0204814453125,1.5911181640625005,1.5917885338651647,-0.48876953125,2.92138671875,0.4873046875,44.57705882352941,206.32437928424
0.1512666015625,-0.0610087890625,1.5833056640625005,1.5916847938406449,-0.197265625,2.908203125,0.60986328125,44.059411764705885,206.32437928424
0.2967744140625,-0.1503642578125,1.5193408203125005,1.5553395099262106,0.23046875,2.9580078125,0.91259765625,44.76529411764706,207.02408819394157
0.5340791015625,-0.2245830078125,1.4255908203125005,1.5388265662780791,0.38134765625,2.5166015625,1.40576171875,44.01235294117648,207.02408819394157
0.8050751953125,-0.2280009765625,1.4285205078125005,1.655536576660811,0.17822265625,1.7109375,1.15478515625,44.29470588235294,207.02408819394157
0.9403291015625,-0.2597392578125,1.3352587890625005,1.6536624005712235,0.1533203125,0.7490234375,0.15673828125,44.29470588235294,207.02408819394157
0.8978486328125,-0.3134501953125,1.1589892578125005,1.4992128908562288,-0.048828125,-0.310546875,-1.03515625,44.059411764705885,207.02408819394157
0.8612275390625,-0.3666728515625,1.0715869140625005,1.4228353272612462,-0.47607421875,-0.859375,-2.27392578125,44.29470588235294,208.07844229833853
0.5287080078125,-0.4242900390625,1.0632861328125005,1.2610042010255489,-0.66357421875,-1.02099609375,-2.83447265625,44.29470588235294,208.07844229833853
0.3626923828125,-0.4613994140625,1.0247119140625005,1.180876661920736,-0.5634765625,-0.890625,-2.59228515625,44.71823529411765,208.07844229833853
0.2806611328125,-0.4682353515625,0.9788134765625,1.1207545841194768,-0.5458984375,-0.654296875,-2.11279296875,44.76529411764706,208.07844229833853
0.2220673828125,-0.4462626953125,0.9465869140625,1.0698089089230551,-0.5048828125,-0.44677734375,-1.84814453125,44.15352941176471,208.5449787103788
0.1888642578125,-0.4008525390625,0.9290087890625,1.0292763458407526,-0.58203125,-0.24609375,-1.53271484375,44.34176470588236,208.5449787103788
0.2010712890625,-0.3017314453125,0.9177783203125,0.9868072626461863,-0.71923828125,-0.0029296875,-1.658203125,44.29470588235294,208.5449787103788
0.1654267578125,-0.2280009765625,0.8875048828125001,0.9311366035817938,-0.771484375,0.09814453125,-1.71826171875,44.29470588235294,208.5449787103788
0.1039033203125,-0.2778056640625,0.8547900390625001,0.9047861061254416,-0.77294921875,0.58251953125,-1.12109375,43.447647058823534,208.5449787103788
0.1790986328125,-0.0488017578125,0.8342822265625001,0.8546840149429374,-0.994140625,0.55615234375,-0.67236328125,44.34176470588236,207.96091235664096
0.1097626953125,-0.0048564453124999,0.8377001953125001,0.8448745774195947,-0.9384765625,0.23828125,-0.8466796875,44.34176470588236,207.96091235664096
0.0985322265625,-0.0170634765625,0.8118212890625001,0.8179569470814843,-0.54833984375,0.14697265625,-0.66552734375,43.40058823529412,207.96091235664096
0.0838837890625,-0.0649150390625,0.7361376953125001,0.7437399806545074,-0.12890625,0.046875,-0.06884765625,43.96529411764706,207.96091235664096
0.1004853515625,-0.1010478515625,0.6887744140625001,0.703362045927399,0.29248046875,-0.04248046875,0.8720703125,44.29470588235294,207.68720291630729
0.1668916015625,-0.0947001953125,0.6218798828125001,0.6508114337588198,0.48876953125,-0.20947265625,1.26953125,43.54176470588236,207.68720291630729
0.1830048828125,-0.1015361328125,0.6067431640625001,0.6418236833713044,0.5732421875,-0.26708984375,1.05419921875,44.059411764705885,207.68720291630729
0.1400361328125,-0.1415751953125,0.5945361328125001,0.6269982995515182,0.68701171875,-0.123046875,0.94580078125,44.20058823529412,207.68720291630729
0.1297822265625,-0.1454814453125,0.5486376953125001,0.5822470248782261,0.6953125,-0.0390625,0.7587890625,43.58882352941177,207.68720291630729
0.1107392578125,-0.1449931640625,0.5100634765625001,0.5417111324024478,0.71484375,0.0322265625,0.5615234375,43.40058823529412,207.6577661216099
0.1058564453125,-0.1425517578125,0.4646533203125,0.4974226560452014,0.58935546875,0.04150390625,0.34765625,44.01235294117648,207.6577661216099
0.0912080078125,-0.1474345703125,0.4666064453125,0.4977724661123028,0.48876953125,0.056640625,0.22021484375,44.15352941176471,207.6577661216099
0.0877900390625,-0.1484111328125,0.4807666015625,0.5107538355012524,0.39697265625,0.1953125,0.13232421875,44.29470588235294,207.6577661216099
0.1014619140625,-0.1596416015625,0.4944384765625,0.5293858404416499,0.3486328125,0.29931640625,0.11083984375,44.29470588235294,208.0379910175513
0.1180634765625,-0.1684306640625,0.5125048828125001,0.5522400999576299,0.20654296875,0.4013671875,0.13134765625,44.71823529411765,208.0379910175513
0.1097626953125,-0.1655009765625,0.5618212890625001,0.5958872237003031,0.12890625,0.49169921875,0.02783203125,44.29470588235294,208.0379910175513
0.0887666015625,-0.1811259765625,0.6145556640625001,0.6468112500335591,0.060546875,0.6923828125,0.08740234375,44.01235294117648,208.0379910175513
0.0765595703125,-0.1947978515625,0.6658251953125001,0.6979475349141433,-0.06689453125,0.83935546875,0.15234375,44.29470588235294,208.0379910175513
0.0482392578125,-0.1933330078125,0.7478564453125001,0.7739469883006054,-0.2470703125,1.2822265625,0.12841796875,43.777058823529416,207.5310275129609
0.0038056640625,-0.2011455078125,0.8010791015625001,0.8259550383357968,-0.07275390625,1.70166015625,0.28662109375,43.54176470588236,207.5310275129609
0.0570283203125,-0.2045634765625,0.7864306640625001,0.8145990637355204,0.07568359375,1.583984375,0.5478515625,44.20058823529412,207.5310275129609
0.0892548828125,-0.1908916015625,0.8254931640625001,0.8519653758028474,-0.05322265625,0.849609375,0.38720703125,43.63588235294118,207.5310275129609
0.1009736328125,-0.1860087890625,0.9006884765625001,0.9252214199554226,-0.046875,0.4130859375,-0.1708984375,44.57705882352941,207.1085764010027
0.0243134765625,-0.2099345703125,0.9719775390625,0.994687893460478,0.0986328125,0.04150390625,-0.33740234375,44.62411764705882,207.1085764010027
0.0194306640625,-0.2343486328125,1.0027392578125005,1.0299431302578612,0.00244140625,-0.08251953125,-0.3330078125,44.76529411764706,207.1085764010027
-0.0098662109375,-0.2289775390625,1.0339892578125005,1.0590853793651516,0.02685546875,-0.193359375,-0.28515625,44.76529411764706,207.1085764010027
-0.0445341796875,-0.2568095703125,1.0442431640625005,1.0762798122494872,0.080078125,-0.17626953125,0.05029296875,44.76529411764706,207.1085764010027
-0.0455107421875,-0.2475322265625,1.0935595703125005,1.1221479245908297,0.0048828125,-0.08056640625,0.43359375,44.059411764705885,206.52638068238747
-0.0391630859375,-0.2157939453125,1.1741259765625005,1.1944340010953,0.09130859375,0.052734375,0.501953125,43.447647058823534,206.52638068238747
-0.0406279296875,-0.2026103515625,1.2253955078125005,1.2426969597605153,0.2939453125,0.09912109375,0.73046875,44.29470588235294,206.52638068238747
-0.0215849609375,-0.2045634765625,1.2654345703125005,1.282043984512229,0.47021484375,0.1484375,0.7255859375,44.20058823529412,206.52638068238747
-0.0030302734374999,-0.2162822265625,1.2947314453125005,1.312675397638325,0.5009765625,0.16162109375,0.67236328125,44.76529411764706,206.37763223918887
0.0116181640625,-0.2421611328125,1.3474658203125005,1.369102309139699,0.7724609375,0.18603515625,0.71826171875,43.40058823529412,206.37763223918887
0.0370087890625,-0.2592509765625,1.3889697265625005,1.4134417641429693,0.8798828125,0.18408203125,0.63037109375,44.71823529411765,206.37763223918887
0.0623994140625,-0.2626689453125,1.3914111328125005,1.4173614931348637,1.0458984375,0.24072265625,0.4990234375,44.059411764705885,206.37763223918887
0.0628876953125,-0.2670634765625,1.3879931640625005,1.4148507999854958,1.15673828125,0.1572265625,0.07568359375,43.30647058823529,206.37763223918887
0.0653291015625,-0.2680400390625,1.3914111328125005,1.4184986057681392,1.1533203125,0.0654296875,-0.140625,44.15352941176471,206.00847601235813
0.0433564453125,-0.2519267578125,1.4412158203125005,1.4637110074639348,1.0966796875,0.12158203125,-0.2265625,44.15352941176471,206.00847601235813
0.0433564453125,-0.2411845703125,1.5374072265625005,1.556814298043784,1.017578125,0.392578125,-0.275390625,43.54176470588236,206.00847601235813
0.0887666015625,-0.2621806640625,1.6355517578125005,1.6588091399087386,0.998046875,0.60498046875,-0.57666015625,44.29470588235294,206.00847601235813
0.1800751953125,-0.2680400390625,1.6814501953125005,1.712176187728327,0.7490234375,0.62109375,-1.22021484375,43.82411764705883,205.82669911209152
0.2796845703125,-0.2568095703125,1.6409228515625005,1.6842809798412457,0.4306640625,0.60009765625,-1.779296875,44.15352941176471,205.82669911209152
0.3612275390625,-0.1772197265625,1.5681689453125005,1.6189644861770611,0.35107421875,0.70703125,-1.6884765625,44.71823529411765,205.82669911209152
0.4261689453125,-0.0795634765625,1.5066455078125005,1.5677790032281549,0.31787109375,0.880859375,-1.10205078125,44.29470588235294,205.82669911209152
0.4627900390625,-0.0595439453125,1.4524462890625005,1.525555742767296,0.4052734375,0.89306640625,-0.3037109375,44.059411764705885,205.82669911209152
0.4911103515625,-0.0712626953125,1.3665087890625005,1.4538273693049342,0.6689453125,0.3916015625,0.1669921875,43.40058823529412,206.74500007303823
0.5184541015625,-0.0795634765625,1.2629931640625005,1.3675806136013688,0.97900390625,0.10302734375,0.5556640625,43.447647058823534,206.74500007303823
0.5096650390625,-0.0639384765625,1.1658251953125005,1.2739681969551448,1.224609375,-0.27490234375,1.0263671875,43.40058823529412,206.74500007303823
0.4657197265625,0.0107685546875,1.0662158203125005,1.1635407173641004,1.37060546875,-0.45849609375,1.44873046875,44.76529411764706,206.74500007303823
0.3690400390625,0.0415302734375,1.0300830078125005,1.0949823363995843,1.59326171875,-0.33935546875,1.94140625,44.20058823529412,208.40542310393636
0.2899384765625,0.0010029296875,0.9163134765625,0.9610908975686936,1.509765625,-0.35888671875,2.9609375,44.01235294117648,208.40542310393636
0.2801728515625,-0.0092509765624999,0.8953173828125001,0.9381767548208853,1.40283203125,-0.12109375,3.1669921875,44.71823529411765,208.40542310393636
0.2806611328125,-0.0341533203125,0.8762744140625001,0.920757280449382,1.21484375,0.12744140625,2.75732421875,44.15352941176471,208.40542310393636
0.2420869140625,-0.0898173828125,0.8738330078125001,0.9111845925816744,0.8935546875,0.43115234375,2.21875,44.15352941176471,208.40542310393636
0.1883759765625,-0.1137431640625,0.8733447265625001,0.9006408981005428,0.45751953125,0.57177734375,1.5478515625,44.76529411764706,208.70117493892636
0.1551728515625,-0.1303447265625,0.8801806640625001,0.903208925439842,0.29296875,0.77197265625,1.20556640625,43.30647058823529,208.70117493892636
0.1595673828125,-0.1586650390625,0.8557666015625001,0.8848575143084711,0.28662109375,0.7021484375,1.12060546875,43.54176470588236,208.70117493892636
0.1864228515625,-0.1816142578125,0.7966845703125001,0.8381190385616426,0.376953125,0.21728515625,1.244140625,44.62411764705882,208.70117493892636
0.2274384765625,-0.1694072265625,0.7473681640625001,0.799366149950585,0.31689453125,-0.0810546875,1.1748046875,44.29470588235294,208.56520637715676
0.2332978515625,-0.1430400390625,0.6995166015625001,0.7511403438640673,0.2001953125,-0.41259765625,0.77001953125,44.48294117647059,208.56520637715676
0.2010712890625,-0.1269267578125,0.6697314453125001,0.710689998504565,-0.0361328125,-0.4921875,0.16748046875,43.58882352941177,208.56520637715676
0.1541962890625,-0.1034892578125,0.6399462890625001,0.6663465876914904,-0.1826171875,-0.43505859375,-0.41845703125,44.20058823529412,208.56520637715676
0.1131806640625,-0.0737041015625,0.6243212890625001,0.6387638290334117,-0.2626953125,-0.234375,-0.6455078125,44.15352941176471,208.56520637715676
0.1034150390625,-0.0478251953125,0.6062548828125001,0.6168686266499337,-0.3134765625,0.076171875,-0.78857421875,44.29470588235294,207.9737205796428
0.0819306640625,-0.0307353515625,0.5974658203125001,0.6038399638903352,-0.35009765625,0.45556640625,-0.88037109375,43.82411764705883,207.9737205796428
0.0882783203125,-0.0190166015625,0.5623095703125001,0.5695144825526491,-0.34765625,0.66943359375,-0.85888671875,43.54176470588236,207.9737205796428
0.0882783203125,-0.0043681640624999,0.5300830078125001,0.5374012819728106,-0.3916015625,0.87451171875,-0.92529296875,44.388823529411766,207.9737205796428
0.1092744140625,0.0005146484375,0.5139697265625001,0.5254579357612253,-0.38232421875,0.9833984375,-1.08251953125,44.34176470588236,207.92967563616455
0.1043916015625,0.0073505859375,0.5046923828125001,0.5154280152061658,-0.37060546875,0.966796875,-1.29638671875,43.447647058823534,207.92967563616455
0.1248994140625,0.0234638671875,0.4919970703125,0.5081451897761422,-0.5048828125,0.93310546875,-1.62890625,44.62411764705882,207.92967563616455
0.0838837890625,2.6367187500001e-05,0.5027392578125001,0.5096893682514615,-0.5078125,0.9384765625,-1.767578125,44.29470588235294,207.92967563616455
0.0623994140625,0.0029560546875,0.5383837890625001,0.5419958758698754,-0.515625,0.814453125,-1.87939453125,44.15352941176471,207.92967563616455
-0.0001005859374999,-0.0473369140625,0.5618212890625001,0.5638119849686956,-0.2509765625,0.455078125,-1.1845703125,44.71823529411765,208.01417163599905
0.0160126953125,-0.0595439453125,0.6335986328125001,0.6365917964727619,-0.24267578125,0.4765625,-0.34033203125,44.15352941176471,208.01417163599905
0.0218720703125,-0.0654033203125,0.6746142578125001,0.6781300602477114,-0.2158203125,0.1796875,-0.083984375,44.15352941176471,208.01417163599905
0.0394501953125,-0.0702861328125,0.7288134765625001,0.7332568049428854,-0.2998046875,-0.02001953125,-0.17578125,43.54176470588236,208.01417163599905
0.0433564453125,-0.0785869140625,0.7947314453125001,0.7997835673358747,-0.37939453125,-0.1142578125,-0.1279296875,44.15352941176471,207.7386632195318
0.0218720703125,-0.0863994140625,0.8709033203125001,0.8754517916718403,-0.3681640625,-0.3935546875,0.13671875,44.15352941176471,207.7386632195318
0.0086884765625,-0.0907939453125,0.9270556640625,0.9315316604392732,-0.4326171875,-0.69775390625,0.4873046875,44.71823529411765,207.7386632195318
0.0213837890625,-0.0785869140625,1.0027392578125005,1.006041345400327,-0.5244140625,-0.7529296875,0.640625,44.059411764705885,207.7386632195318
0.0042939453125,-0.0761455078125,1.0471728515625005,1.0499464545279955,-0.4091796875,-1.064453125,0.6826171875,44.059411764705885,207.7386632195318
-0.0025419921874999,-0.0751689453125,1.0911181640625005,1.0937073100289658,-0.3662109375,-1.1669921875,0.77294921875,43.447647058823534,207.49439583522377
-0.0494169921875,-0.0951884765625,1.1614306640625005,1.1663721844299142,-0.328125,-1.0546875,1.0810546875,44.34176470588236,207.49439583522377
-0.0333037109375,-0.0693095703125,1.2727587890625005,1.2750795617666195,-0.3154296875,-0.6611328125,1.22998046875,44.76529411764706,207.49439583522377
0.0321259765625,-0.0492900390625,1.3201220703125005,1.3214325055964982,-0.3701171875,-0.31787109375,0.92138671875,44.01235294117648,207.49439583522377
0.0438447265625,-0.0453837890625,1.3938525390625005,1.3952802403130309,-0.28466796875,-0.23974609375,0.3701171875,44.059411764705885,206.98004262690796
0.0492158203125,-0.0507548828125,1.3567431640625005,1.3585839202377847,-0.3232421875,-0.3857421875,0.11572265625,44.57705882352941,206.98004262690796
0.0487275390625,-0.0126689453124999,1.3928759765625005,1.39378562244104,-0.3974609375,-0.43212890625,-0.23095703125,43.447647058823534,206.98004262690796
0.0062470703125,-0.0136455078124999,1.4060595703125005,1.4061396591513673,-0.396484375,-0.21435546875,-0.44482421875,44.059411764705885,206.98004262690796
-0.0386748046875,-0.0238994140625,1.3840869140625005,1.3848333864365063,-0.4404296875,0.00244140625,-0.67236328125,43.58882352941177,206.98004262690796
-0.1060576171875,-0.0488017578125,1.3962939453125005,1.40116616125477,-0.6005859375,0.56396484375,-0.67236328125,44.20058823529412,206.76522091053573
-0.1187529296875,-0.0541728515625,1.4153369140625005,1.421342863795973,-0.77490234375,1.09765625,-0.4716796875,44.388823529411766,206.76522091053573
-0.0923857421875,-0.0522197265625,1.4578173828125005,1.4616749114738494,-0.80126953125,1.68017578125,-0.09423828125,44.29470588235294,206.76522091053573
-0.0215849609375,-0.0439189453125,1.5105517578125005,1.5113442352179305,-0.69873046875,2.1943359375,0.37451171875,44.059411764705885,206.76522091053573
0.0755830078125,-0.0444072265625,1.5872119140625005,1.5896309172203789,-0.68701171875,2.49072265625,0.6943359375,43.87117647058824,207.13980936046968
0.1927705078125,-0.0644267578125,1.6599658203125005,1.672362939200182,-0.2822265625,2.376953125,0.876953125,44.29470588235294,207.13980936046968
0.3724580078125,-0.1283916015625,1.5847705078125005,1.6330054909178138,0.31787109375,2.61865234375,1.521484375,44.34176470588236,207.13980936046968
0.7171845703125,-0.2294658203125,1.4114306640625005,1.5997327245643018,0.58251953125,2.0673828125,1.95361328125,43.30647058823529,207.13980936046968
1.0311494140625,-0.2734111328125,1.3420947265625005,1.7144214816474168,0.50927734375,0.99560546875,1.85986328125,44.059411764705885,207.13980936046968
1.1488251953125,-0.2909892578125,1.2830126953125005,1.746595446541677,0.3662109375,-0.31494140625,0.08447265625,44.29470588235294,207.4685587028204
0.9188447265625,-0.3149150390625,1.1980517578125005,1.5423278275895411,0.17333984375,-1.04248046875,-2.40478515625,44.059411764705885,207.4685587028204
0.5858369140625,-0.3495830078125,1.0984423828125005,1.2930540737294445,-0.255859375,-1.373046875,-3.525390625,44.20058823529412,207.4685587028204
0.3485322265625,-0.3910869140625,1.0940478515625005,1.212998099261522,-0.41015625,-1.20751953125,-3.5625,44.76529411764706,207.4685587028204
0.2181611328125,-0.4555400390625,1.0579150390625005,1.1723033894575707,-0.32470703125,-0.7705078125,-3.09619140625,44.34176470588236,208.6919576174661
0.1722626953125,-0.4784892578125,0.9934619140625,1.1160613696078772,-0.33544921875,-0.26416015625,-2.44921875,44.29470588235294,208.6919576174661
0.2015595703125,-0.4311259765625,0.9216845703125,1.0373033862875731,-0.52392578125,-0.00732421875,-1.88720703125,44.388823529411766,208.6919576174661
0.2601533203125,-0.3608134765625,0.8953173828125001,0.9997296289022152,-0.611328125,-0.0078125,-1.6181640625,44.01235294117648,208.6919576174661
0.3006806640625,-0.2714580078125,0.8479541015625001,0.939747024524826,-0.8037109375,-0.03271484375,-1.54296875,44.059411764705885,208.6919576174661
0.2699189453125,-0.1869853515625,0.8772509765625001,0.9366904689476796,-1.02294921875,-0.59228515625,-1.755859375,44.34176470588236,208.85916859094397
0.1673798828125,-0.0863994140625,0.8787158203125001,0.8986781274673037,-1.47216796875,-0.15966796875,-1.6220703125,44.57705882352941,208.85916859094397
0.0667939453125,-0.0556376953125,1.0232470703125005,1.0269330801825456,-1.24951171875,0.2744140625,-0.77294921875,44.76529411764706,208.85916859094397
0.0506806640625,-0.0302470703125,0.9334033203125,0.9352674341292468,-0.40673828125,0.490234375,0.16357421875,44.76529411764706,208.85916859094397
0.1605439453125,0.0132099609375,0.7937548828125001,0.8099355995591001,-0.0107421875,-0.0556640625,0.404296875,44.15352941176471,208.2584481449924
0.1498017578125,-0.0317119140625,0.7791064453125001,0.7940107463156288,0.26220703125,-0.2080078125,0.759765625,44.62411764705882,208.2584481449924
0.1766572265625,-0.0732158203125,0.7317431640625001,0.756317651647101,0.50537109375,-0.40771484375,1.21533203125,44.059411764705885,208.2584481449924
0.1888642578125,-0.1044658203125,0.6721728515625001,0.7059739073579793,0.64599609375,-0.6787109375,1.50341796875,44.29470588235294,208.2584481449924
0.1893525390625,-0.1191142578125,0.6238330078125001,0.6627293656539063,0.69482421875,-0.83203125,1.47412109375,43.54176470588236,208.2584481449924
0.1659150390625,-0.1415751953125,0.5964892578125001,0.6351147697862101,0.73291015625,-0.76904296875,1.27490234375,44.29470588235294,207.7184385760738
0.1498017578125,-0.1498759765625,0.5657275390625001,0.6041117640370782,0.71337890625,-0.619140625,0.96044921875,44.20058823529412,207.7184385760738
0.1332001953125,-0.1440166015625,0.5168994140625001,0.5528725692373025,0.63232421875,-0.3876953125,0.5068359375,44.059411764705885,207.7184385760738
0.1117158203125,-0.1518291015625,0.4807666015625,0.5164000636786622,0.50830078125,-0.3134765625,0.22900390625,44.059411764705885,207.7184385760738
0.1048798828125,-0.1572001953125,0.4763720703125,0.5124861369821329,0.33740234375,-0.2138671875,0.1884765625,44.059411764705885,207.68900133678923
0.0990205078125,-0.1655009765625,0.4895556640625,0.5261752392751506,0.197265625,-0.177734375,0.1826171875,44.29470588235294,207.68900133678923
0.1019501953125,-0.1738017578125,0.4983447265625,0.5375391705128332,0.06298828125,-0.162109375,0.140625,44.15352941176471,207.68900133678923
0.0799775390625,-0.1679423828125,0.5154345703125001,0.5479724874229231,-0.05517578125,-0.15625,0.09423828125,44.20058823529412,207.68900133678923
0.0453095703125,-0.1703837890625,0.5442431640625001,0.5720875932634436,-0.01806640625,0.13720703125,0.2783203125,44.29470588235294,207.68900133678923
0.0296845703125,-0.1811259765625,0.5930712890625001,0.6208231205509446,0.07275390625,0.54345703125,0.71044921875,44.29470588235294,207.9278788539196
0.0477509765625,-0.1874736328125,0.6096728515625001,0.6396307565267157,0.2275390625,0.82763671875,1.27783203125,44.15352941176471,207.9278788539196
0.0692353515625,-0.1747783203125,0.6145556640625001,0.6426660558863695,0.10400390625,0.68896484375,1.45703125,44.34176470588236,207.9278788539196
0.0487275390625,-0.1625712890625,0.6980517578125001,0.7183871196476532,0.06689453125,0.57958984375,1.38330078125,44.15352941176471,207.9278788539196
0.0653291015625,-0.1518291015625,0.7034228515625001,0.7225812588855031,-0.07568359375,0.53955078125,1.18896484375,44.29470588235294,207.4337250281612
0.1029267578125,-0.1279033203125,0.7732470703125001,0.7904835283341579,-0.3447265625,0.45458984375,0.41650390625,44.29470588235294,207.4337250281612
0.0697236328125,-0.1220439453125,0.8215869140625001,0.833523345155224,-0.38623046875,0.32275390625,-0.32373046875,44.29470588235294,207.4337250281612
0.0145478515625,-0.1572001953125,0.8948291015625001,0.9086488113647228,-0.2822265625,0.17529296875,-0.46142578125,44.76529411764706,207.4337250281612
-0.0010771484374999,-0.1899150390625,0.9412158203125,0.9601854522525322,-0.1123046875,0.033203125,-0.20849609375,44.29470588235294,207.4337250281612
-0.0054716796875,-0.2035869140625,0.9744189453125,0.9954746866897316,-0.0693359375,-0.08837890625,0.05224609375,44.15352941176471,206.6825364250069
0.0223603515625,-0.1991923828125,1.0418017578125005,1.0609092766460928,-0.05712890625,-0.06201171875,0.17626953125,44.15352941176471,206.6825364250069
0.0301728515625,-0.2211650390625,1.1199267578125005,1.1419546043251232,0.142578125,-0.05908203125,0.25390625,43.96529411764706,206.6825364250069
0.0487275390625,-0.2231181640625,1.1863330078125005,1.2081150994930747,0.185546875,-0.130859375,0.3134765625,44.29470588235294,206.6825364250069
0.0501923828125,-0.2236064453125,1.2634814453125005,1.2840967566062351,0.3359375,-0.22216796875,0.369140625,44.20058823529412,206.83309093912044
0.0599580078125,-0.2309306640625,1.3069384765625005,1.3285375854015948,0.4638671875,-0.498046875,0.43310546875,44.20058823529412,206.83309093912044
0.0516572265625,-0.2397197265625,1.3611376953125005,1.3830509180648245,0.56982421875,-0.9013671875,0.35693359375,44.15352941176471,206.83309093912044
0.0184541015625,-0.2577861328125,1.4133837890625005,1.4368187009221356,0.814453125,-0.947265625,0.37890625,43.30647058823529,206.83309093912044
-0.0186552734375,-0.2631572265625,1.4236376953125005,1.4478756965408952,1.0634765625,-0.830078125,0.45849609375,44.62411764705882,206.83309093912044
-0.0416044921875,-0.2421611328125,1.4397509765625005,1.4605669524290512,1.18310546875,-0.4609375,0.32080078125,44.29470588235294,206.98184434231536
-0.0367216796875,-0.2328837890625,1.4045947265625005,1.424243548995172,1.04931640625,0.21875,-0.04296875,43.30647058823529,206.98184434231536
-0.0015654296874999,-0.2148173828125,1.3884814453125005,1.4050016663711145,0.98583984375,0.69580078125,-0.33203125,44.20058823529412,206.98184434231536
0.0238251953125,-0.2128642578125,1.3918994140625005,1.408283640128393,0.9541015625,0.83740234375,-0.37158203125,43.447647058823534,206.98184434231536
0.0863251953125,-0.2319072265625,1.4651416015625005,1.4858912859650195,0.98193359375,0.99951171875,-0.0810546875,44.53,206.53558863373644
0.1859345703125,-0.2631572265625,1.5520556640625005,1.5851498902873034,0.978515625,1.20849609375,-0.5244140625,44.71823529411765,206.53558863373644
0.2645478515625,-0.3320048828125,1.5789111328125005,1.634984150778511,0.79638671875,1.34619140625,-1.4130859375,44.62411764705882,206.53558863373644
0.3548798828125,-0.3447001953125,1.5544970703125005,1.6313243385310094,0.50732421875,1.4658203125,-2.21142578125,44.059411764705885,206.53558863373644
0.4603486328125,-0.3036845703125,1.4817431640625005,1.581046484523518,0.31591796875,1.41796875,-2.5009765625,44.76529411764706,206.53558863373644
0.5648408203125,-0.2109111328125,1.4197314453125005,1.5424545487775876,0.181640625,1.19775390625,-2.16748046875,44.29470588235294,206.76882493680304
0.6751923828125,-0.1239970703125,1.3772509765625005,1.53885680935442,0.3427734375,0.81396484375,-1.34228515625,44.20058823529412,206.76882493680304
0.7137666015625,-0.0849345703125,1.2815478515625005,1.4693677342941454,0.4619140625,0.1376953125,-0.513671875,44.20058823529412,206.76882493680304
0.6932587890625,-0.0395244140625,1.1863330078125005,1.3746111935179497,0.4912109375,-0.7470703125,0.06201171875,44.059411764705885,206.76882493680304
0.5711884765625,0.0298115234375,1.1541064453125005,1.288063154429669,0.59326171875,-1.30810546875,0.7841796875,43.40058823529412,208.35575342073676
0.4447236328125,0.0327412109375,1.1531298828125005,1.2363493127392322,1.0146484375,-1.54248046875,1.939453125,44.29470588235294,208.35575342073676
0.3412080078125,0.1303974609375,1.0935595703125005,1.1529522697130103,1.33984375,-1.4140625,2.85693359375,44.29470588235294,208.35575342073676
0.3080048828125,0.1318623046875,1.0457080078125005,1.098070996264371,1.68408203125,-0.88818359375,3.0712890625,44.15352941176471,208.35575342073676
0.3001923828125,0.2143818359375,0.9739306640625,1.0414489793935189,1.693359375,-0.3291015625,2.611328125,44.29470588235294,208.35575342073676
0.2972626953125,0.0522724609375,0.9197314453125,0.9679893861471494,1.28759765625,0.23046875,1.7265625,44.29470588235294,208.43666171392923
0.2699189453125,0.0102802734375,0.8694384765625001,0.9104313184353244,0.798828125,0.744140625,1.0888671875,44.01235294117648,208.43666171392923
0.2508759765625,-0.0473369140625,0.8557666015625001,0.8930375218315181,0.630859375,1.00244140625,0.99609375,44.53,208.43666171392923
0.2166962890625,-0.1191142578125,0.8455126953125001,0.8809297395605905,0.55419921875,1.0498046875,1.2109375,44.059411764705885,208.43666171392923
0.1854462890625,-0.1825908203125,0.8743212890625001,0.9122321252276504,0.587890625,1.04736328125,1.58251953125,43.58882352941177,208.5449787103788
0.2269501953125,-0.1947978515625,0.8479541015625001,0.899154465307499,0.408203125,0.96728515625,1.30029296875,44.29470588235294,208.5449787103788
0.2528291015625,-0.1723369140625,0.9597705078125,1.007363883714396,0.7021484375,0.9326171875,0.45556640625,44.059411764705885,208.5449787103788
0.2669892578125,-0.1884501953125,0.8318408203125001,0.893731441898942,0.580078125,0.2783203125,-0.119140625,43.30647058823529,208.5449787103788
0.2323212890625,-0.1508525390625,0.6965869140625001,0.7496419136737097,0.32763671875,0.0224609375,-0.40576171875,44.059411764705885,208.5449787103788
0.2425751953125,-0.1200908203125,0.6438525390625001,0.6984344082026993,0.115234375,-0.21875,-0.58447265625,44.15352941176471,208.71397998361087
0.2191376953125,-0.0898173828125,0.6409228515625001,0.6832792938595226,-0.3623046875,-0.3271484375,-0.9033203125,44.15352941176471,208.71397998361087
0.1771455078125,-0.0751689453125,0.6492236328125001,0.6771426929974228,-0.5283203125,-0.10986328125,-1.01318359375,44.059411764705885,208.71397998361087
0.1361298828125,-0.0732158203125,0.6184619140625001,0.6374849335352393,-0.56591796875,0.00634765625,-1.06787109375,44.29470588235294,208.71397998361087
0.1034150390625,-0.0629619140625,0.5955126953125001,0.6076958476121673,-0.55810546875,0.2216796875,-1.12451171875,44.34176470588236,207.9829347614846
0.0951142578125,-0.0434306640625,0.5584033203125001,0.5681084515795879,-0.4873046875,0.4326171875,-0.85546875,43.96529411764706,207.9829347614846
0.1151337890625,-0.0253642578125,0.5271533203125001,0.5401756733459593,-0.4404296875,0.4931640625,-0.8056640625,43.58882352941177,207.9829347614846
0.1205048828125,-0.0043681640624999,0.5252001953125001,0.5388652454883498,-0.42724609375,0.55517578125,-0.75830078125,44.20058823529412,207.9829347614846
0.1288056640625,0.0136982421875,0.5212939453125001,0.537146086603152,-0.40966796875,0.65576171875,-0.7138671875,44.71823529411765,207.9829347614846
0.1165986328125,0.0176044921875,0.5466845703125001,0.5592577033324501,-0.4208984375,0.72021484375,-0.63916015625,44.29470588235294,207.85798919388063
0.1156220703125,0.0229755859375,0.5647509765625001,0.5769228771862125,-0.4130859375,0.693359375,-0.623046875,44.29470588235294,207.85798919388063
0.0892548828125,0.0298115234375,0.5999072265625001,0.6072428192390986,-0.4404296875,0.57861328125,-0.30322265625,44.62411764705882,207.85798919388063
0.0785126953125,0.0337177734375,0.6677783203125001,0.6732228580865328,-0.47265625,0.5234375,-0.14111328125,44.01235294117648,207.85798919388063
0.0526337890625,0.0136982421875,0.7263720703125001,0.7284053419080414,-0.38525390625,0.45751953125,0.0869140625,44.29470588235294,207.9701269600829
0.0345673828125,-0.0180400390625,0.7752001953125001,0.7761801915640599,-0.3203125,0.34130859375,0.5439453125,44.57705882352941,207.9701269600829
0.0316376953125,-0.0405009765625,0.8381884765625001,0.8397625825847252,-0.30029296875,0.330078125,1.0263671875,44.29470588235294,207.9701269600829
0.0492158203125,-0.0444072265625,0.8967822265625001,0.8992288699871689,-0.30859375,0.26611328125,1.2763671875,44.20058823529412,207.9701269600829
0.0526337890625,-0.0688212890625,0.9836962890625,0.9875044681897056,-0.3857421875,0.25390625,1.37451171875,44.29470588235294,207.9701269600829
0.0277314453125,-0.0873759765625,1.0271533203125005,1.0312359273068237,-0.38623046875,0.27197265625,1.10986328125,44.34176470588236,207.41350191775896
0.0374970703125,-0.0859111328125,1.0691455078125005,1.073246882082029,-0.43994140625,0.20263671875,1.0166015625,44.20058823529412,207.41350191775896
0.0287080078125,-0.0780986328125,1.0920947265625005,1.0952599864622858,-0.49169921875,0.05517578125,0.91015625,44.20058823529412,207.41350191775896
0.0228486328125,-0.0917705078125,1.1257861328125005,1.1297514341475692,-0.4833984375,-0.04931640625,0.904296875,44.15352941176471,207.41350191775896
0.0506806640625,-0.0649150390625,1.1570361328125005,1.159963406595229,-0.6103515625,-0.08984375,0.5537109375,44.76529411764706,207.38967998481948
0.0467744140625,-0.0600322265625,1.2141650390625005,1.2165477615443565,-0.58154296875,-0.01953125,0.32421875,43.54176470588236,207.38967998481948
0.0584931640625,-0.0453837890625,1.2151416015625005,1.21739486215426,-0.57275390625,0.03515625,0.2763671875,44.76529411764706,207.38967998481948
0.0614228515625,-0.0165751953125,1.2449267578125005,1.2465512970236163,-0.55078125,0.0615234375,0.09228515625,43.30647058823529,207.38967998481948
0.0467744140625,0.0200458984375,1.2795947265625005,1.2806062424108422,-0.55078125,0.24462890625,-0.29345703125,44.15352941176471,207.38967998481948
-0.0093779296875,0.0332294921875,1.3020556640625005,1.3025133769115391,-0.564453125,0.58642578125,-0.501953125,44.29470588235294,207.0535195327192
-0.0508818359375,0.0200458984375,1.3147509765625005,1.315887886426722,-0.55859375,0.8388671875,-0.70361328125,44.15352941176471,207.0535195327192
-0.0777373046875,-0.0351298828125,1.3479541015625005,1.350650753202198,-0.51220703125,1.24267578125,-0.376953125,43.96529411764706,207.0535195327192
-0.0108427734375,-0.0444072265625,1.3440478515625005,1.3448249680893656,-0.61279296875,1.38232421875,-0.1630859375,44.76529411764706,207.0535195327192
0.0189423828125,-0.0473369140625,1.4158251953125005,1.416742948096533,-0.69970703125,1.7626953125,-0.12646484375,44.48294117647059,206.9047647074148
0.0365205078125,-0.0439189453125,1.4856494140625005,1.4867470540587917,-0.6064453125,1.86083984375,-0.10400390625,44.29470588235294,206.9047647074148
0.0374970703125,-0.0444072265625,1.5706103515625005,1.5716853719775707,-0.36669921875,2.0048828125,0.224609375,43.447647058823534,206.9047647074148
0.1380830078125,-0.0282939453125,1.6545947265625005,1.660587598880688,-0.09326171875,2.1953125,0.75,43.54176470588236,206.9047647074148
0.3265595703125,-0.0605205078125,1.6243212890625005,1.6579274818067975,0.43798828125,2.1328125,1.2431640625,43.54176470588236,206.9047647074148
0.6258759765625,-0.1601298828125,1.4993212890625005,1.6325828142068768,0.73974609375,1.837890625,0.76806640625,43.54176470588236,206.93599728291315
0.9032197265625,-0.2944072265625,1.4246142578125005,1.712310507199708,0.70458984375,1.04541015625,0.2548828125,44.059411764705885,206.93599728291315
1.0101533203125,-0.3373759765625,1.3337939453125005,1.706821188247953,0.20751953125,-0.1982421875,-0.73486328125,44.34176470588236,206.93599728291315
0.8978486328125,-0.3363994140625,1.2600634765625005,1.5833687814882682,-0.2119140625,-0.943359375,-2.37744140625,44.76529411764706,206.93599728291315
0.6551728515625,-0.3329814453125,1.1853564453125005,1.3947035565993318,-0.51904296875,-1.35400390625,-3.62744140625,44.01235294117648,207.46495964678127
0.3709931640625,-0.3280986328125,1.1130908203125005,1.2183003795856306,-0.6162109375,-1.25146484375,-3.7587890625,44.29470588235294,207.46495964678127
0.1966767578125,-0.3447001953125,1.0349658203125005,1.1084467605290025,-0.548828125,-0.84765625,-3.0966796875,44.76529411764706,207.46495964678127
0.1732392578125,-0.3691142578125,0.9744189453125,1.05629042254099,-0.4755859375,-0.3525390625,-2.40771484375,44.57705882352941,207.46495964678127
0.2293916015625,-0.4076884765625,0.9187548828125,1.030990269343543,-0.36572265625,0.04150390625,-2.01318359375,43.777058823529416,207.46495964678127
0.2899384765625,-0.4018291015625,0.8870166015625001,1.0160361206676642,-0.33740234375,0.23388671875,-1.77978515625,44.71823529411765,208.66071821769987
0.3080048828125,-0.3881572265625,0.8464892578125001,0.9808552920594308,-0.4384765625,0.34033203125,-1.5009765625,44.76529411764706,208.66071821769987
0.3080048828125,-0.3139384765625,0.8176806640625001,0.9284535762677724,-0.564453125,0.02001953125,-1.3388671875,44.71823529411765,208.66071821769987
0.1957001953125,-0.2660869140625,0.8132861328125001,0.8778013135703127,-0.7080078125,-0.25390625,-0.8994140625,44.15352941176471,208.66071821769987
0.1820283203125,-0.1742900390625,0.8240283203125001,0.8617041254335726,-0.68896484375,-0.845703125,-0.986328125,44.71823529411765,208.77645928433023
0.0062470703125,-0.1635478515625,0.8460009765625001,0.8616870533917187,-0.45947265625,-0.31396484375,-0.033203125,44.62411764705882,208.77645928433023
0.0492158203125,-0.1200908203125,0.8645556640625001,0.8742428142998443,-0.3935546875,0.23193359375,0.732421875,44.76529411764706,208.77645928433023
0.1029267578125,-0.0668681640625,0.7859423828125001,0.7954688541607854,-0.10791015625,0.130859375,0.38330078125,44.34176470588236,208.77645928433023
0.0877900390625,-0.1049541015625,0.6892626953125001,0.7027129695279852,0.27490234375,-0.06884765625,0.5634765625,43.96529411764706,208.77645928433023
0.1126923828125,-0.0937236328125,0.6863330078125001,0.7018095825111571,0.3115234375,-0.13720703125,0.98583984375,44.57705882352941,208.1022616569331
0.1175751953125,-0.0986064453125,0.6472705078125001,0.6652114460032924,0.4833984375,-0.10107421875,1.2373046875,44.48294117647059,208.1022616569331
0.1439423828125,-0.1132548828125,0.6233447265625001,0.6496958720693023,0.63330078125,-0.015625,1.4169921875,44.29470588235294,208.1022616569331
0.1620087890625,-0.1269267578125,0.5916064453125001,0.6263828188237468,0.79248046875,0.00830078125,1.61572265625,43.30647058823529,208.1022616569331
0.1624970703125,-0.1396220703125,0.5793994140625001,0.6177404806182468,0.798828125,0.07470703125,1.6201171875,44.57705882352941,207.86540548897744
0.1668916015625,-0.1386455078125,0.5657275390625001,0.6059067848789901,0.78466796875,0.078125,1.39306640625,44.71823529411765,207.86540548897744
0.1527314453125,-0.1503642578125,0.5300830078125001,0.5717729440838348,0.7392578125,0.07080078125,1.193359375,44.71823529411765,207.86540548897744
0.1375947265625,-0.1542705078125,0.5227587890625001,0.5621462887012838,0.67724609375,0.08154296875,1.07568359375,44.29470588235294,207.86540548897744
0.1307587890625,-0.1625712890625,0.5320361328125001,0.5714802984903457,0.6748046875,0.095703125,1.07421875,43.30647058823529,207.86540548897744
0.1195283203125,-0.1635478515625,0.5520556640625001,0.5880479362525857,0.59521484375,0.298828125,1.01953125,44.29470588235294,207.7845062418968
0.1141572265625,-0.1542705078125,0.5789111328125001,0.6098929099861882,0.5390625,0.5390625,0.765625,44.76529411764706,207.7845062418968
0.0921845703125,-0.1723369140625,0.6008837890625001,0.631869713556832,0.533203125,0.69140625,0.62109375,44.059411764705885,207.7845062418968
0.0609345703125,-0.1747783203125,0.6316455078125001,0.6582070575815325,0.4091796875,0.7392578125,0.53564453125,44.29470588235294,207.7845062418968
0.0438447265625,-0.1733134765625,0.6697314453125001,0.6931811668286227,0.3759765625,0.82080078125,0.46044921875,44.059411764705885,207.80293289620292
0.0199189453125,-0.1723369140625,0.7288134765625001,0.7491767881815785,0.3134765625,0.90087890625,0.45458984375,44.76529411764706,207.80293289620292
-0.0074248046875,-0.1772197265625,0.7820361328125001,0.8018992905794748,0.298828125,0.90185546875,0.36767578125,43.96529411764706,207.80293289620292
-0.0289091796875,-0.1864970703125,0.8684619140625001,0.888731114613667,0.19580078125,1.07666015625,0.49951171875,44.29470588235294,207.80293289620292
-0.0303740234375,-0.2021220703125,0.9211962890625,0.9435987047414351,0.15380859375,1.10791015625,0.658203125,44.059411764705885,207.80293289620292
-0.0230498046875,-0.2143291015625,0.9856494140625,1.008946492493269,0.09423828125,0.86474609375,1.123046875,44.29470588235294,207.11778661035137
-0.0108427734375,-0.2128642578125,1.0608447265625005,1.0820444962502,0.236328125,0.74853515625,1.3408203125,44.20058823529412,207.11778661035137
0.0091767578125,-0.2372783203125,1.1218798828125005,1.1467343570477253,0.361328125,0.6494140625,1.23876953125,43.40058823529412,207.11778661035137
0.0418916015625,-0.2763408203125,1.1853564453125005,1.2178624953977124,0.42626953125,0.541015625,1.115234375,43.54176470588236,207.11778661035137
0.1004853515625,-0.2665751953125,1.2512744140625005,1.283295484259954,0.52001953125,0.22998046875,0.8291015625,43.54176470588236,206.5998538074488
0.0897431640625,-0.2778056640625,1.2717822265625005,1.3048600899258993,0.5517578125,-0.11328125,0.60205078125,44.76529411764706,206.5998538074488
0.1615205078125,-0.2294658203125,1.3123095703125005,1.341976097204967,0.65478515625,-0.06494140625,-0.2001953125,43.54176470588236,206.5998538074488
0.1034150390625,-0.2455791015625,1.3074267578125005,1.334304497658855,0.75146484375,-0.11083984375,-0.6279296875,43.40058823529412,206.5998538074488
-0.0181669921875,-0.2582744140625,1.3098681640625005,1.3352117134705392,0.80615234375,-0.11474609375,-0.4580078125,44.15352941176471,206.5998538074488
-0.0821318359375,-0.2392314453125,1.3386767578125005,1.3623629416598793,0.8916015625,0.07470703125,0.33935546875,44.53,206.3464021510797
-0.0357451171875,-0.2084697265625,1.3835986328125005,1.399672289150718,0.97802734375,0.31201171875,0.66650390625,44.059411764705885,206.3464021510797
0.0399384765625,-0.2030986328125,1.4373095703125005,1.4521373686646677,1.0927734375,0.63427734375,0.462890625,44.62411764705882,206.3464021510797
0.1058564453125,-0.2231181640625,1.5320361328125005,1.551812493309646,1.0302734375,0.6787109375,0.0556640625,44.29470588235294,206.3464021510797
0.2030244140625,-0.2602275390625,1.6868212890625005,1.7188086996598608,0.7939453125,0.62109375,-0.4189453125,44.71823529411765,205.6687534439613
0.3265595703125,-0.2699931640625,1.7595751953125005,1.8098735672864523,0.42626953125,0.19873046875,-0.79150390625,44.76529411764706,205.6687534439613
0.4461884765625,-0.2392314453125,1.7351611328125005,1.807512101720658,0.21533203125,-0.25,-1.1259765625,43.447647058823534,205.6687534439613
0.4774384765625,-0.2079814453125,1.6643603515625005,1.7439320974022603,0.08642578125,-0.51953125,-1.40087890625,44.20058823529412,205.6687534439613
0.4998994140625,-0.1391337890625,1.5671923828125005,1.650863289368457,-0.11181640625,-0.76708984375,-0.94677734375,44.34176470588236,205.6687534439613
0.5228486328125,-0.0536845703125,1.4666064453125005,1.5579432567830274,0.01611328125,-0.68603515625,-0.35791015625,44.29470588235294,206.55580826309733
0.5799775390625,-0.0273173828125,1.3347705078125005,1.4555866493434042,0.44140625,-0.88916015625,0.46630859375,44.20058823529412,206.55580826309733
0.5838837890625,-0.0331767578125,1.2205126953125005,1.35339285346418,0.72021484375,-1.0771484375,1.11328125,44.15352941176471,206.55580826309733
0.5072236328125,0.0361591796875,1.1404345703125005,1.2486690150408313,1.01123046875,-1.1826171875,1.6572265625,44.71823529411765,206.55580826309733
0.4286103515625,0.1006123046875,1.0520556640625005,1.140460779512846,1.1708984375,-1.12158203125,1.876953125,44.20058823529412,207.76989928487671
0.3729462890625,0.1308857421875,1.0022509765625005,1.0773704247165634,1.30517578125,-0.3837890625,1.7607421875,44.34176470588236,207.76989928487671
0.2596650390625,0.0747333984375,0.9304736328125,0.9689128932533816,1.314453125,-0.01220703125,2.26611328125,44.059411764705885,207.76989928487671
0.2611298828125,0.0688740234375,0.8865283203125001,0.9267496477033276,1.197265625,0.35546875,2.482421875,44.76529411764706,207.76989928487671
0.2957978515625,0.0327412109375,0.8533251953125001,0.9037323966959252,1.06103515625,0.5625,2.2568359375,44.53,207.76989928487671
0.3114228515625,-0.0253642578125,0.8420947265625001,0.8981932233957622,0.8818359375,0.4833984375,2.1552734375,44.20058823529412,209.03918711608844
0.2752900390625,-0.0922587890625,0.8318408203125001,0.8810535966128762,0.65478515625,0.125,2.2314453125,43.54176470588236,209.03918711608844
0.2269501953125,-0.1327861328125,0.8596728515625001,0.8989860732699262,0.4072265625,0.337890625,2.28369140625,44.15352941176471,209.03918711608844
0.2411103515625,-0.1415751953125,0.8640673828125001,0.9081795965550032,0.353515625,0.20849609375,2.00830078125,43.63588235294118,209.03918711608844
0.2606416015625,-0.1122783203125,0.8630908203125001,0.9085517210291144,0.31298828125,0.19140625,1.140625,44.01235294117648,208.7728728943117
0.2582001953125,-0.1254619140625,0.7302783203125001,0.784674746540301,0.3525390625,-0.00390625,0.48974609375,44.29470588235294,208.7728728943117
0.2274384765625,-0.1366923828125,0.6824267578125001,0.732201712589168,0.0712890625,-0.41162109375,0.3046875,44.388823529411766,208.7728728943117
0.2113251953125,-0.0937236328125,0.6702197265625001,0.7089689269600967,-0.166015625,-0.55908203125,0.0693359375,44.20058823529412,208.7728728943117
0.1996064453125,-0.0405009765625,0.6482470703125001,0.6794904902068517,-0.1982421875,-0.56787109375,-0.333984375,44.059411764705885,208.7728728943117
0.1795869140625,-0.0170634765625,0.6267626953125001,0.6522070976080224,-0.47509765625,-0.32568359375,-0.88330078125,44.059411764705885,208.6369019460445
0.1141572265625,-0.0282939453125,0.6433642578125001,0.6540259841538544,-0.396484375,0.11083984375,-0.8525390625,44.059411764705885,208.6369019460445
0.1024384765625,-0.0121806640624999,0.5901416015625001,0.5990902435795478,-0.4404296875,0.38525390625,-0.857421875,43.54176470588236,208.6369019460445
0.1190400390625,-0.0043681640624999,0.5447314453125001,0.5576037654728703,-0.578125,0.7646484375,-1.1025390625,44.20058823529412,208.6369019460445
0.1390595703125,0.0053974609375,0.5232470703125001,0.5414371554212764,-0.611328125,1.00634765625,-1.4599609375,43.87117647058824,208.1941768329424
0.1375947265625,-0.0077861328124999,0.4876025390625,0.5067042221475758,-0.6611328125,1.00927734375,-1.6328125,44.20058823529412,208.1941768329424
0.1053681640625,-0.0097392578124999,0.4910205078125,0.5022931835423269,-0.7314453125,0.93505859375,-1.748046875,44.15352941176471,208.1941768329424
0.0941376953125,-0.0121806640624999,0.4988330078125,0.5077840524662214,-0.73046875,0.81005859375,-1.46728515625,44.76529411764706,208.1941768329424
0.0697236328125,-0.0185283203125,0.5300830078125001,0.534969792416097,-0.6181640625,0.6826171875,-1.15234375,44.29470588235294,208.1941768329424
0.0443330078125,-0.0351298828125,0.5398486328125001,0.5428038969993203,-0.51025390625,0.7001953125,-0.74658203125,44.20058823529412,208.16114333006357
0.0492158203125,-0.0263408203125,0.6057666015625001,0.6083331417507585,-0.52099609375,0.78662109375,-0.29150390625,43.447647058823534,208.16114333006357
0.0370087890625,-0.0429423828125,0.6433642578125001,0.645857001928536,-0.40185546875,0.7734375,0.10595703125,44.48294117647059,208.16114333006357
0.0291962890625,-0.0551494140625,0.6956103515625001,0.6984036385696762,-0.35986328125,0.712890625,0.60302734375,44.48294117647059,208.16114333006357
0.0218720703125,-0.0522197265625,0.7644580078125001,0.7665515853552672,-0.365234375,0.62451171875,0.943359375,44.76529411764706,208.26586840663512
0.0223603515625,-0.0571025390625,0.8518603515625001,0.8540648358605857,-0.40478515625,0.60595703125,1.1337890625,44.15352941176471,208.26586840663512
0.0355439453125,-0.0531962890625,0.9109423828125,0.9131863128751516,-0.490234375,0.51611328125,1.14013671875,44.34176470588236,208.26586840663512
0.0555634765625,-0.0468486328125,1.0051806640625005,1.0078046743934268,-0.60107421875,0.43701171875,0.93896484375,43.447647058823534,208.26586840663512
0.0755830078125,-0.0610087890625,1.0588916015625005,1.06333733465559,-0.583984375,0.27880859375,0.828125,44.48294117647059,208.26586840663512
0.0643525390625,-0.0800517578125,1.0896533203125005,1.0944833903174218,-0.5478515625,-0.2216796875,0.64697265625,44.059411764705885,207.47057542131563
0.0374970703125,-0.0785869140625,1.1292041015625005,1.1325563281044615,-0.67138671875,-0.53271484375,0.42724609375,44.15352941176471,207.47057542131563
0.0233369140625,-0.0605205078125,1.1882861328125005,1.1900551570655582,-0.75244140625,-0.54541015625,0.32861328125,43.447647058823534,207.47057542131563
0.0282197265625,-0.0507548828125,1.2317431640625005,1.2331113628992607,-0.7275390625,-0.71240234375,0.39306640625,44.62411764705882,207.47057542131563
0.0248017578125,-0.1547587890625,1.2722705078125005,1.2818883161306052,-0.603515625,-0.89892578125,0.494140625,44.20058823529412,207.27395449797547
0.0370087890625,-0.0224345703125,1.2991259765625005,1.299846630719351,-0.396484375,-0.8525390625,0.66357421875,44.76529411764706,207.27395449797547
0.0594697265625,-0.0053447265624999,1.3084033203125005,1.3097650411750277,-0.27734375,-0.728515625,0.525390625,44.20058823529412,207.27395449797547
0.0414033203125,0.0005146484375,1.3279345703125005,1.328579964784566,-0.27587890625,-0.69921875,0.2783203125,44.059411764705885,207.27395449797547
0.0106416015625,0.0010029296875,1.3303759765625005,1.330418914690557,-0.37109375,-0.76025390625,0.05517578125,43.87117647058824,207.27395449797547
-0.0337919921875,-0.0126689453124999,1.3616259765625005,1.3621041446824518,-0.67236328125,-0.33642578125,-0.07568359375,44.01235294117648,206.96723005142397
-0.0450224609375,-0.0331767578125,1.4197314453125005,1.4208325362465977,-0.853515625,0.7587890625,-0.080078125,44.29470588235294,206.96723005142397
-0.0093779296875,-0.0571025390625,1.4006884765625005,1.40188332392806,-0.7998046875,1.61572265625,0.12109375,44.34176470588236,206.96723005142397
-0.0113310546875,-0.0820048828125,1.4392626953125005,1.4416415295501257,-0.92822265625,2.0146484375,0.56298828125,44.059411764705885,206.96723005142397
0.0160126953125,-0.0522197265625,1.5569384765625005,1.557896250093116,-0.814453125,2.39599609375,1.09228515625,44.62411764705882,207.49619445841867
0.0892548828125,-0.0258525390625,1.6335986328125005,1.6362393715495056,-0.404296875,2.65478515625,1.68408203125,43.447647058823534,207.49619445841867
0.2494111328125,-0.0380595703125,1.6082080078125005,1.6278782019719529,0.16455078125,2.5751953125,2.24462890625,44.059411764705885,207.49619445841867
0.5057587890625,-0.0771220703125,1.4617236328125005,1.5486690237638985,0.6005859375,2.3916015625,2.3466796875,43.447647058823534,207.49619445841867
0.8260712890625,-0.0361064453125,1.3860400390625005,1.613940655628596,0.63525390625,2.1181640625,1.94970703125,44.34176470588236,207.49619445841867
1.1195283203125,-0.2470439453125,1.3621142578125005,1.7803734502158224,0.55712890625,0.7099609375,0.8076171875,44.059411764705885,207.82136085780087
1.1610322265625,-0.3027080078125,1.2317431640625005,1.7195404011901518,0.431640625,-0.55126953125,-1.54833984375,44.059411764705885,207.82136085780087
0.9564423828125,-0.3368876953125,1.0960009765625005,1.493148851092541,0.21142578125,-1.19482421875,-3.7373046875,43.73,207.82136085780087
0.7010712890625,-0.3940166015625,1.0295947265625005,1.306451428725893,-0.19287109375,-1.57861328125,-4.822265625,43.40058823529412,207.82136085780087
0.4286103515625,-0.4413798828125,1.0183642578125005,1.1897851890186355,-0.44287109375,-1.49658203125,-4.87060546875,44.059411764705885,209.06863668426504
0.2289033203125,-0.4579814453125,1.0261767578125005,1.1468140531817652,-0.375,-0.861328125,-3.53857421875,44.34176470588236,209.06863668426504
0.1292939453125,-0.4369853515625,1.0012744140625005,1.1001016198655815,-0.4169921875,-0.32080078125,-2.27685546875,44.76529411764706,209.06863668426504
0.0990205078125,-0.3681376953125,0.9919970703125,1.0627269692569337,-0.21630859375,0.31591796875,-1.51318359375,44.29470588235294,209.06863668426504
0.1415009765625,-0.2831767578125,0.9504931640625,1.0018227674907787,-0.40234375,0.9150390625,-1.3955078125,44.76529411764706,209.06863668426504
0.1473603515625,-0.1967509765625,0.9221728515625,0.9543735055783108,-0.38037109375,0.6845703125,-1.22802734375,44.76529411764706,208.76365478182868
0.1678681640625,-0.1230205078125,0.8250048828125001,0.8508506464195856,-0.58203125,0.37158203125,-0.7236328125,44.01235294117648,208.76365478182868
0.2303681640625,-0.0043681640624999,0.8435595703125001,0.874460588326663,-1.06103515625,0.265625,-0.9345703125,44.76529411764706,208.76365478182868
0.2572236328125,0.0776630859375,0.9006884765625001,0.9399123810265894,-1.28466796875,0.7783203125,-1.83203125,44.15352941176471,208.76365478182868
0.1239228515625,-0.0175517578125,0.9031298828125,0.9117612201506544,-0.30810546875,0.4541015625,-1.755859375,44.15352941176471,208.1923811308132
0.0965791015625,-0.0790751953125,0.7673876953125001,0.7774730119363373,-0.23046875,0.30615234375,-0.86181640625,44.48294117647059,208.1923811308132
0.1180634765625,-0.0878642578125,0.7327197265625001,0.7473535374859681,0.11767578125,0.03564453125,-0.37548828125,44.76529411764706,208.1923811308132
0.1302705078125,-0.1171611328125,0.8347705078125001,0.8529589304070707,0.53125,0.08984375,0.490234375,44.29470588235294,208.1923811308132
0.1454072265625,-0.1523173828125,0.6306689453125001,0.6648963567542155,0.8310546875,-0.13134765625,1.4375,44.15352941176471,208.1923811308132
0.2044892578125,-0.1200908203125,0.6013720703125001,0.6464410480747481,0.830078125,-0.150390625,1.330078125,44.15352941176471,207.87461977046635
0.1771455078125,-0.1318095703125,0.5994189453125001,0.6387936801218875,0.75244140625,-0.02783203125,0.86279296875,44.059411764705885,207.87461977046635
0.1424775390625,-0.0331767578125,0.5603564453125001,0.5791371963529164,0.87744140625,0.08837890625,0.533203125,44.01235294117648,207.87461977046635
0.1302705078125,-0.1620830078125,0.5120166015625001,0.5526321623855107,0.75,0.28564453125,0.3134765625,44.29470588235294,207.87461977046635
0.1507783203125,-0.1596416015625,0.4836962890625,0.5312077210268432,0.5556640625,0.3466796875,0.234375,43.30647058823529,208.1188945631216
0.1502900390625,-0.1728251953125,0.4817431640625,0.5334155229248212,0.345703125,0.29296875,0.3017578125,44.20058823529412,208.1188945631216
0.1317353515625,-0.1757548828125,0.5159228515625001,0.5607319952063664,0.17333984375,0.28173828125,0.46728515625,44.29470588235294,208.1188945631216
0.1122041015625,-0.1689189453125,0.5476611328125001,0.5840000743890416,0.02490234375,0.3583984375,0.486328125,44.57705882352941,208.1188945631216
0.1068330078125,-0.1674541015625,0.5740283203125001,0.6074229829444716,-0.046875,0.373046875,0.33251953125,44.20058823529412,208.1188945631216
0.0814423828125,-0.1860087890625,0.6028369140625001,0.636116715928039,-0.0810546875,0.4365234375,0.17578125,44.20058823529412,207.99035299103923
0.0755830078125,-0.1908916015625,0.6316455078125001,0.6641750086812901,-0.1279296875,0.60009765625,0.2265625,44.71823529411765,207.99035299103923
0.0765595703125,-0.1845439453125,0.6663134765625001,0.6956230909096843,-0.17138671875,0.57666015625,0.271484375,44.29470588235294,207.99035299103923
0.0492158203125,-0.1845439453125,0.7219775390625001,0.7468133847429886,-0.1708984375,0.52880859375,0.39013671875,43.447647058823534,207.99035299103923
0.0477509765625,-0.1796611328125,0.7683642578125001,0.7905326755358676,-0.20849609375,0.53466796875,0.486328125,44.76529411764706,207.45214957112205
0.0428681640625,-0.1703837890625,0.8357470703125001,0.8540149182545413,-0.27197265625,0.46044921875,0.45556640625,44.059411764705885,207.45214957112205
0.0335908203125,-0.1738017578125,0.9050830078125,0.9222313404232712,-0.271484375,0.46484375,0.40087890625,44.48294117647059,207.45214957112205
0.0423798828125,-0.1860087890625,0.9485400390625,0.967534769287589,-0.1787109375,0.44580078125,0.390625,43.447647058823534,207.45214957112205
0.0296845703125,-0.2187236328125,0.9793017578125,1.0038690821616072,-0.09228515625,0.3447265625,0.572265625,43.447647058823534,207.45214957112205
0.0179658203125,-0.2328837890625,1.0266650390625005,1.0529001530728417,-0.0791015625,-0.0361328125,0.78759765625,44.29470588235294,207.1674416649793
0.0287080078125,-0.2236064453125,1.0501025390625005,1.0740294849972063,-0.10205078125,-0.53857421875,0.88623046875,44.29470588235294,207.1674416649793
0.0267548828125,-0.2206767578125,1.1057666015625005,1.1278891046215618,-0.00244140625,-0.79833984375,0.89013671875,44.29470588235294,207.1674416649793
0.0218720703125,-0.2280009765625,1.1677783203125005,1.1900290072788533,0.12255859375,-1.21044921875,1.06298828125,44.059411764705885,207.1674416649793
0.0291962890625,-0.2299541015625,1.2424853515625005,1.2639229252481448,0.251953125,-1.431640625,1.1845703125,44.34176470588236,207.198675513542
0.0428681640625,-0.2363017578125,1.2952197265625005,1.3172966030139168,0.46826171875,-1.88916015625,1.16162109375,43.30647058823529,207.198675513542
0.0487275390625,-0.2328837890625,1.3860400390625005,1.4063129886890655,0.6533203125,-1.38720703125,0.91552734375,44.15352941176471,207.198675513542
0.0301728515625,-0.2250712890625,1.4470751953125005,1.464784662337908,0.71484375,-0.232421875,0.61767578125,44.29470588235294,207.198675513542
0.0218720703125,-0.2065166015625,1.3972705078125005,1.4126189741693551,0.73876953125,0.44873046875,0.14794921875,44.15352941176471,207.198675513542
-0.0352568359375,-0.1913798828125,1.3543017578125005,1.368211443907585,0.826171875,0.56005859375,0.06298828125,44.20058823529412,206.58703947013936
-0.0518583984375,-0.1752666015625,1.3474658203125005,1.359805799378062,1.01611328125,0.55908203125,0.392578125,43.54176470588236,206.58703947013936
0.0106416015625,-0.1567119140625,1.3728564453125005,1.38181282637303,1.14990234375,0.6162109375,0.5341796875,44.15352941176471,206.58703947013936
0.0702119140625,-0.1528056640625,1.4436572265625005,1.453418546617605,1.197265625,0.697265625,0.45654296875,43.30647058823529,206.58703947013936
0.1273408203125,-0.1738017578125,1.5100634765625005,1.5253571512221655,1.216796875,0.90185546875,0.16748046875,44.059411764705885,206.2693223610785
0.2083955078125,-0.1908916015625,1.6013720703125005,1.626118322509303,1.05029296875,1.197265625,-0.474609375,44.15352941176471,206.2693223610785
0.3182587890625,-0.2128642578125,1.6423876953125005,1.686427345243044,0.7919921875,1.49072265625,-1.54638671875,43.96529411764706,206.2693223610785
0.4193330078125,-0.2529033203125,1.5837939453125005,1.657770648212442,0.51611328125,1.57861328125,-2.82177734375,44.71823529411765,206.2693223610785
0.4808564453125,-0.2934306640625,1.4861376953125005,1.5893173770645947,0.30615234375,1.68359375,-3.421875,44.20058823529412,206.2693223610785
0.6366181640625,-0.2480205078125,1.4041064453125005,1.561509452061685,0.19384765625,1.57080078125,-3.0283203125,44.20058823529412,207.387881103832
0.8426728515625,-0.1308330078125,1.2732470703125005,1.532440182438814,0.3466796875,0.89697265625,-2.28369140625,43.63588235294118,207.387881103832
0.8998017578125,-0.0463603515625,1.1169970703125005,1.4350870846907418,0.634765625,0.11474609375,-0.91552734375,44.059411764705885,207.387881103832
0.7938447265625,0.0053974609375,1.0696337890625005,1.332041675466599,0.76513671875,-0.89794921875,0.48583984375,44.29470588235294,207.387881103832
0.6146455078125,0.0425068359375,1.0872119140625005,1.2496502220441323,0.99951171875,-1.48193359375,1.66162109375,44.62411764705882,208.943671982371
0.4076142578125,0.1987568359375,1.1296923828125005,1.2173161227834397,1.71923828125,-1.50048828125,2.77197265625,43.30647058823529,208.943671982371
0.2987275390625,0.1557880859375,1.0769580078125005,1.1284266129907947,2.181640625,-1.10009765625,3.474609375,44.059411764705885,208.943671982371
0.2635712890625,0.1103779296875,1.0120166015625005,1.051584858020635,2.24658203125,-0.623046875,3.0390625,44.62411764705882,208.943671982371
0.2362275390625,0.0386005859375,0.9490283203125,0.9787482864360012,1.68603515625,0.28076171875,1.9794921875,44.71823529411765,208.943671982371
0.2079072265625,0.0879169921875,0.8811572265625001,0.9096113842160974,1.185546875,0.8134765625,0.84521484375,44.20058823529412,208.9106388218547
0.1825166015625,-0.1108134765625,0.8723681640625001,0.8981192293362664,0.82275390625,1.0673828125,0.44482421875,44.76529411764706,208.9106388218547
0.1947236328125,-0.1923564453125,0.8557666015625001,0.8984735786759612,0.716796875,1.09912109375,0.57421875,44.15352941176471,208.9106388218547
0.2293916015625,-0.2587626953125,0.8630908203125001,0.9297872893627352,0.7890625,0.95703125,0.82861328125,43.54176470588236,208.9106388218547
0.2889619140625,-0.2865947265625,0.8445361328125001,0.9374842957073952,0.98388671875,0.8271484375,0.705078125,44.15352941176471,208.6681416364091
0.3036103515625,-0.2963603515625,0.7649462890625001,0.8747294031325592,0.6572265625,0.64697265625,0.1201171875,44.388823529411766,208.6681416364091
0.2645478515625,-0.2294658203125,0.7488330078125001,0.8266746651782301,0.16650390625,0.57373046875,-0.70849609375,44.76529411764706,208.6681416364091
0.2049775390625,-0.1518291015625,0.7068408203125001,0.7514597879204467,-0.00732421875,0.44873046875,-1.02685546875,44.20058823529412,208.6681416364091
0.1629853515625,-0.0922587890625,0.6624072265625001,0.6883743478554775,-0.14599609375,0.2841796875,-0.83740234375,43.54176470588236,208.6681416364091
0.1742158203125,-0.0405009765625,0.6472705078125001,0.6715285484873484,-0.33544921875,0.18359375,-0.74853515625,43.30647058823529,208.42385614171093
0.1424775390625,-0.0478251953125,0.6873095703125001,0.7035492476629752,-0.29833984375,0.46142578125,-0.20361328125,44.76529411764706,208.42385614171093
0.1385712890625,-0.0253642578125,0.6619189453125001,0.6767437017737471,-0.24609375,0.65869140625,-0.00732421875,43.54176470588236,208.42385614171093
0.1595673828125,-0.0131572265624999,0.6267626953125001,0.6468897421538214,-0.2001953125,0.80029296875,-0.00439453125,44.059411764705885,208.42385614171093
0.1742158203125,0.0019794921875,0.6135791015625001,0.6378357032267185,-0.1572265625,0.92333984375,-0.10205078125,43.447647058823534,208.24564136789888
0.2000947265625,0.0180927734375,0.5769580078125001,0.6109384509324579,-0.2021484375,0.89208984375,-0.43701171875,44.62411764705882,208.24564136789888
0.1937470703125,0.0322529296875,0.5691455078125001,0.6020837049707061,-0.2099609375,0.91552734375,-0.81591796875,43.40058823529412,208.24564136789888
0.1683564453125,0.0366474609375,0.5662158203125001,0.5918507280079867,-0.16796875,0.94775390625,-1.083984375,44.20058823529412,208.24564136789888
0.1307587890625,0.0293232421875,0.5764697265625001,0.5918404000172021,-0.05712890625,0.81103515625,-1.177734375,44.76529411764706,208.24564136789888
0.0936494140625,0.0078388671875,0.5803759765625001,0.587935315118856,0.06884765625,0.544921875,-0.8564453125,44.71823529411765,208.26586840663512
0.0570283203125,-0.0097392578124999,0.5994189453125001,0.6022044125211583,0.21240234375,0.25390625,-0.2119140625,44.76529411764706,208.26586840663512
0.0467744140625,-0.0131572265624999,0.6365283203125001,0.6383801852983533,0.37451171875,-0.0166015625,0.421875,43.82411764705883,208.26586840663512
0.0399384765625,-0.0248759765625,0.6912158203125001,0.6928154201303214,0.396484375,-0.41015625,0.9384765625,44.20058823529412,208.26586840663512
0.0492158203125,-0.0434306640625,0.7429736328125001,0.7458674403703017,0.26220703125,-0.5830078125,1.16064453125,44.20058823529412,208.08586116900503
0.0443330078125,-0.0531962890625,0.8289111328125001,0.831798609551751,0.14697265625,-0.5068359375,1.2763671875,44.15352941176471,208.08586116900503
0.0540986328125,-0.0859111328125,0.9197314453125,0.9253179541703106,0.03857421875,-0.375,1.40185546875,44.29470588235294,208.08586116900503
0.0687470703125,-0.0932353515625,0.9651416015625,0.9720685683243556,-0.05859375,-0.0078125,1.18212890625,44.29470588235294,208.08586116900503
0.0599580078125,-0.1088603515625,0.9876025390625,0.9953915380421172,-0.09765625,-0.35205078125,0.91943359375,44.34176470588236,208.08586116900503
0.0589814453125,-0.1191142578125,1.0149462890625005,1.023612713377044,-0.2451171875,-0.896484375,0.931640625,44.15352941176471,207.65057404663332
0.0580048828125,-0.1127666015625,1.0579150390625005,1.0654881992460823,-0.28662109375,-1.720703125,1.033203125,44.20058823529412,207.65057404663332
0.0555634765625,-0.0937236328125,1.0798876953125005,1.0853703763059996,-0.220703125,-2.70703125,1.1689453125,44.57705882352941,207.65057404663332
0.0565400390625,-0.0810283203125,1.1209033203125005,1.1252495804031395,-0.2041015625,-3.28125,1.33447265625,44.15352941176471,207.65057404663332
0.1004853515625,-0.0429423828125,1.2034228515625005,1.2083740785795904,-0.2431640625,-3.08056640625,1.35595703125,43.40058823529412,207.198675513542
0.0853486328125,-0.0312236328125,1.2449267578125005,1.2482395349797717,-0.2412109375,-2.98095703125,1.18896484375,44.059411764705885,207.198675513542
0.0623994140625,-0.0190166015625,1.3044970703125005,1.3061270705655812,-0.4794921875,-1.408203125,0.93017578125,44.01235294117648,207.198675513542
0.0877900390625,-0.0185283203125,1.3147509765625005,1.3178089846348164,-0.58251953125,-0.2236328125,0.51611328125,44.71823529411765,207.198675513542
0.1048798828125,-0.0488017578125,1.2918017578125005,1.2969707717877914,-0.662109375,0.099609375,0.32421875,44.15352941176471,207.198675513542
0.0995087890625,-0.0727275390625,1.2620166015625005,1.2680209764267052,-0.85546875,0.0380859375,0.26025390625,44.15352941176471,206.8404983462705
0.0956025390625,-0.0756572265625,1.2869189453125005,1.292681025315435,-1.17041015625,0.02880859375,0.2392578125,44.059411764705885,206.8404983462705
0.0570283203125,-0.0834697265625,1.3308642578125005,1.334698129650634,-1.39892578125,0.2158203125,0.46875,44.62411764705882,206.8404983462705
0.0252900390625,-0.0795634765625,1.3665087890625005,1.3690566838022284,-1.4521484375,0.53271484375,0.83544921875,44.20058823529412,206.8404983462705
0.0179658203125,-0.0863994140625,1.4041064453125005,1.406876874221035,-1.4248046875,0.95703125,1.119140625,44.15352941176471,207.0076736961421
0.0604462890625,-0.0722392578125,1.4509814453125005,1.4540355631386326,-1.3505859375,1.427734375,1.30419921875,44.71823529411765,207.0076736961421
0.1351533203125,-0.0458720703125,1.5061572265625005,1.5129045766183309,-1.18798828125,1.8955078125,1.71630859375,44.29470588235294,207.0076736961421
0.2337861328125,-0.0268291015625,1.5320361328125005,1.5500033770379844,-0.99072265625,2.259765625,2.3125,44.15352941176471,207.0076736961421
0.3939423828125,-0.0190166015625,1.4880908203125005,1.5394695585198517,-0.3095703125,2.197265625,2.66357421875,44.15352941176471,207.0076736961421
0.6097626953125,-0.0258525390625,1.3972705078125005,1.524743837624322,0.076171875,1.8037109375,2.6240234375,43.54176470588236,207.51641823986571
0.8304658203125,-0.0981181640625,1.3220751953125005,1.56434761958041,0.09716796875,1.39990234375,1.95458984375,43.40058823529412,207.51641823986571
0.8709931640625,-0.1796611328125,1.2454150390625005,1.5303482721296238,-0.056640625,0.81298828125,1.0625,44.62411764705882,207.51641823986571
0.9925751953125,-0.2494853515625,1.1853564453125005,1.5660518386815292,-0.1748046875,0.07421875,-0.18017578125,43.30647058823529,207.51641823986571
0.8578095703125,-0.3320048828125,1.2048876953125005,1.5158558174993182,-0.53857421875,-0.32373046875,-1.5400390625,44.15352941176471,208.8335619352005
0.6957001953125,-0.3847392578125,1.0408251953125005,1.3097099470712088,-0.9296875,-0.330078125,-2.255859375,43.58882352941177,208.8335619352005
0.5257783203125,-0.3764384765625,1.0427783203125005,1.2270026055640997,-1.07373046875,-0.02294921875,-2.39013671875,44.20058823529412,208.8335619352005
0.4056611328125,-0.3344462890625,1.0398486328125005,1.1652040396876522,-0.873046875,0.22314453125,-1.88427734375,44.388823529411766,208.8335619352005
0.3172822265625,-0.2885478515625,1.0374072265625005,1.1225603002324156,-0.68798828125,0.5693359375,-1.32958984375,44.20058823529412,208.8335619352005
0.3040986328125,-0.2192119140625,1.0173876953125005,1.084254381738279,-0.64599609375,0.6494140625,-1.25634765625,43.58882352941177,209.49117066564872
0.2528291015625,-0.2123759765625,0.9895556640625,1.0431905493705127,-0.60595703125,0.7353515625,-1.2763671875,43.58882352941177,209.49117066564872
0.2430634765625,-0.1889384765625,0.9695361328125,1.0172403424920902,-0.51171875,0.94677734375,-1.064453125,44.29470588235294,209.49117066564872
0.2645478515625,-0.1230205078125,0.9490283203125,0.9928617042992166,-0.70458984375,0.927734375,-1.27001953125,44.29470588235294,209.49117066564872
0.2577119140625,-0.0863994140625,0.8987353515625001,0.938938507863146,-0.337890625,0.33203125,-0.98681640625,44.20058823529412,208.5708356003572
0.2142548828125,-0.0961650390625,0.8962939453125001,0.9265504335710696,-0.29296875,0.685546875,0.0849609375,44.62411764705882,208.5708356003572
0.2523408203125,-0.0893291015625,0.9177783203125,0.9560191542106168,-0.13671875,1.6171875,1.01171875,44.15352941176471,208.5708356003572
0.3026337890625,-0.0903056640625,0.8274462890625001,0.8856690603873419,0.1513671875,0.1474609375,1.00439453125,44.20058823529412,208.5708356003572
0.2874970703125,-0.1025126953125,0.6672900390625001,0.7337843105235604,0.05126953125,-1.3466796875,1.216796875,44.059411764705885,208.5708356003572
0.2357392578125,-0.0741923828125,0.7395556640625001,0.7797564283725466,0.0693359375,-1.37548828125,1.24755859375,44.388823529411766,208.5506070283044
0.1717744140625,-0.1161845703125,0.6926806640625001,0.7230572633417643,0.48095703125,-1.650390625,1.53759765625,44.15352941176471,208.5506070283044
0.1312470703125,-0.1347392578125,0.6521533203125001,0.6787373676585782,0.53662109375,-1.41552734375,1.7509765625,44.62411764705882,208.5506070283044
0.1351533203125,-0.1244853515625,0.6209033203125001,0.6475213941795434,0.52099609375,-1.1318359375,1.3798828125,44.76529411764706,208.5506070283044
0.1283173828125,-0.1205791015625,0.5710986328125001,0.5976272407326962,0.4716796875,-0.6669921875,0.837890625,44.20058823529412,207.99035299103923
0.1190400390625,-0.1259501953125,0.5188525390625001,0.5470301087608082,0.4501953125,-0.2177734375,0.521484375,44.53,207.99035299103923
0.1112275390625,-0.1308330078125,0.4739306640625,0.5040824493253936,0.359375,0.0400390625,0.31884765625,44.76529411764706,207.99035299103923
0.1239228515625,-0.1357158203125,0.4612353515625,0.4965014668190409,0.21875,0.23095703125,0.17431640625,44.34176470588236,207.99035299103923
0.1444306640625,-0.1366923828125,0.4719775390625,0.5121599570641847,0.0654296875,0.29150390625,-0.0205078125,44.76529411764706,207.99035299103923
0.1419892578125,-0.1420634765625,0.4880908203125,0.5278026426425865,0.01513671875,0.25244140625,-0.16943359375,44.15352941176471,208.3081178566493
0.1576142578125,-0.1435283203125,0.4998095703125,0.5433711802934332,-0.03466796875,0.41650390625,-0.30322265625,44.059411764705885,208.3081178566493
0.1629853515625,-0.1449931640625,0.5569384765625001,0.5981368648767313,-0.15478515625,0.54833984375,-0.56298828125,44.059411764705885,208.3081178566493
0.1375947265625,-0.1572001953125,0.5818408203125001,0.618209471268453,-0.1748046875,0.82470703125,-0.69287109375,44.34176470588236,208.3081178566493
0.1385712890625,-0.1684306640625,0.6052783203125001,0.6433760453959249,-0.32421875,1.0029296875,-0.87939453125,44.29470588235294,208.37059511763127
0.1302705078125,-0.1542705078125,0.6296923828125001,0.6612732353260167,-0.39990234375,1.13525390625,-0.87646484375,44.29470588235294,208.37059511763127
0.0882783203125,-0.1640361328125,0.6716845703125001,0.6970373567472293,-0.40966796875,1.01318359375,-0.57421875,44.29470588235294,208.37059511763127
0.0829072265625,-0.1669658203125,0.7087939453125001,0.7328983901473458,-0.39794921875,0.603515625,-0.4326171875,44.15352941176471,208.37059511763127
0.0692353515625,-0.1694072265625,0.7844775390625001,0.8055416510715864,-0.46728515625,0.44482421875,-0.37841796875,44.20058823529412,208.37059511763127
0.0619111328125,-0.1557353515625,0.8430712890625001,0.8595671506833704,-0.34130859375,0.22119140625,-0.51171875,43.40058823529412,207.93889000755087
0.0516572265625,-0.1816142578125,0.8718798828125001,0.8920912160480303,-0.38330078125,0.1748046875,-0.39453125,43.30647058823529,207.93889000755087
0.0589814453125,-0.1850322265625,0.9275439453125,0.9476568504705202,-0.25927734375,0.08740234375,-0.16455078125,44.34176470588236,207.93889000755087
0.0589814453125,-0.1913798828125,0.9793017578125,0.999568408509958,-0.11767578125,-0.07177734375,0.08740234375,44.48294117647059,207.93889000755087
0.0848603515625,-0.1923564453125,1.0168994140625005,1.0384058453423826,-0.021484375,-0.275390625,0.177734375,44.34176470588236,207.76989928487671
0.0760712890625,-0.2040751953125,1.0642626953125005,1.0863188348709107,0.08251953125,-0.33740234375,0.1728515625,44.20058823529412,207.76989928487671
0.0477509765625,-0.2167705078125,1.0994189453125005,1.1216022584374603,0.24169921875,-0.37890625,0.154296875,44.29470588235294,207.76989928487671
0.0418916015625,-0.2226298828125,1.1204150390625005,1.1430874116881888,0.30908203125,-0.412109375,0.162109375,44.15352941176471,207.76989928487671
0.0521455078125,-0.2280009765625,1.1663134765625005,1.189533826719435,0.3876953125,-0.40771484375,0.30419921875,43.87117647058824,207.76989928487671
0.0902314453125,-0.2353251953125,1.2141650390625005,1.2400469359478663,0.4599609375,-0.4677734375,0.46240234375,44.15352941176471,207.3051886545552
0.1131806640625,-0.2514384765625,1.2835009765625005,1.3127855601927496,0.5068359375,-0.568359375,0.7314453125,44.76529411764706,207.3051886545552
0.1234345703125,-0.2704814453125,1.3152392578125005,1.348425233632828,0.5986328125,-0.83056640625,1.03271484375,44.62411764705882,207.3051886545552
0.1131806640625,-0.2558330078125,1.3416064453125005,1.3704627848679665,0.60205078125,-0.95947265625,1.0634765625,44.15352941176471,207.3051886545552
0.0902314453125,-0.2314189453125,1.4021533203125005,1.423983980119194,0.65087890625,-0.703125,0.83203125,44.20058823529412,207.0719407520661
0.0614228515625,-0.2138408203125,1.4153369140625005,1.4327174332135255,0.736328125,-0.318359375,0.57373046875,44.29470588235294,207.0719407520661
0.0560517578125,-0.2182353515625,1.4251025390625005,1.4428048083742528,0.80078125,-0.20751953125,0.4716796875,44.29470588235294,207.0719407520661
0.1239228515625,-0.2157939453125,1.4412158203125005,1.462541261192979,0.7353515625,-0.20556640625,0.2705078125,44.15352941176471,207.0719407520661
0.1786103515625,-0.2035869140625,1.5286181640625005,1.552424806798893,0.71533203125,0.0810546875,-0.17529296875,43.54176470588236,207.0719407520661
0.2372041015625,-0.2367900390625,1.5964892578125005,1.6312918986827591,0.724609375,0.32470703125,-0.62158203125,44.059411764705885,206.313367871724
0.3075166015625,-0.2563212890625,1.5906298828125005,1.6402348879228608,0.5673828125,0.427734375,-1.2607421875,43.447647058823534,206.313367871724
0.3758759765625,-0.2348369140625,1.5491259765625005,1.611279745178947,0.42041015625,0.3828125,-1.73486328125,44.388823529411766,206.313367871724
0.4369111328125,-0.1762431640625,1.5164111328125005,1.5879092274346016,0.251953125,0.3486328125,-1.60107421875,44.57705882352941,206.313367871724
0.5584931640625,-0.0712626953125,1.4695361328125005,1.5736992824835574,0.22900390625,0.43994140625,-1.17236328125,44.29470588235294,206.6477004714121
0.6869111328125,0.0185810546875,1.3899462890625005,1.5505298599039192,0.294921875,0.359375,-1.1171875,44.57705882352941,206.6477004714121
0.7220673828125,0.0493427734375,1.2888720703125005,1.4781769948973733,0.4072265625,-0.06201171875,-1.263671875,44.20058823529412,206.6477004714121
0.6834931640625,0.0508076171875,1.2219775390625005,1.4010615351431512,0.77587890625,-0.51513671875,-0.94482421875,44.71823529411765,206.6477004714121
0.6629853515625,0.0786396484375,1.1453173828125005,1.3257019567253043,1.1142578125,-0.7734375,-0.41650390625,43.447647058823534,206.6477004714121
0.6136689453125,0.1308857421875,1.1140673828125005,1.278619093160908,1.42236328125,-0.83154296875,-0.01220703125,44.059411764705885,208.3944119502017
0.4603486328125,0.1250263671875,1.0222705078125005,1.1280910634198238,1.7216796875,-0.685546875,0.642578125,43.87117647058824,208.3944119502017
0.3622041015625,0.1064716796875,0.9475634765625,1.0200022411148846,1.66455078125,-0.220703125,1.43505859375,44.15352941176471,208.3944119502017
0.3402314453125,0.0693623046875,0.9080126953125,0.9721397124588962,1.4990234375,0.34375,1.486328125,44.059411764705885,208.3944119502017
0.3187470703125,2.6367187500001e-05,0.8840869140625001,0.9397921935963208,1.08349609375,0.75048828125,0.9189453125,44.76529411764706,209.23764826054352
0.2840791015625,-0.0634501953125,0.8713916015625001,0.9187220398485118,0.73583984375,1.36083984375,0.2783203125,43.54176470588236,209.23764826054352
0.2557587890625,-0.1181376953125,0.8450244140625001,0.8907498715117151,0.6240234375,1.56494140625,0.333984375,44.059411764705885,209.23764826054352
0.2230439453125,-0.1904033203125,0.8406298828125001,0.8903149026069077,0.40771484375,1.3193359375,0.63671875,43.40058823529412,209.23764826054352
