AccX,AccY,AccZ,Magnitude,GyroX,GyroY,GyroZ,Temperature,Altitude
0.3470673828125,-0.2304423828125,1.3689501953125005,1.4309381877826708,0.88037109375,0.85595703125,-0.607421875,44.48294117647059,457.2700789340101
0.4403291015625,-0.2704814453125,1.1560595703125005,1.266303146980335,0.5693359375,0.19384765625,-1.04541015625,44.53,457.2700789340101
0.4320283203125,-0.2944072265625,1.0300830078125005,1.1551601999672214,0.14501953125,-0.14013671875,-1.1494140625,44.48294117647059,457.2700789340101
0.3861298828125,-0.3027080078125,0.9802783203125,1.0962089261036438,-0.28125,-0.39697265625,-1.18701171875,44.34176470588236,457.2700789340101
0.3153291015625,-0.3344462890625,0.9724658203125,1.075628436885133,-0.55517578125,-0.525390625,-1.23486328125,44.67117647058824,458.1973659359298
0.2557587890625,-0.3613017578125,0.9866259765625,1.0813798296662582,-0.77001953125,-0.64453125,-1.09716796875,44.20058823529412,458.1973659359298
0.1961884765625,-0.3134501953125,0.9905322265625,1.057305554291768,-1.03076171875,-0.7646484375,-0.6064453125,44.53,458.1973659359298
0.0995087890625,-0.2948955078125,1.0720751953125005,1.1163380240917231,-0.9482421875,-0.7763671875,0.505859375,44.57705882352941,458.1973659359298
0.0555634765625,-0.2685283203125,1.1223681640625005,1.1553809131358332,-0.84521484375,-0.90380859375,1.58203125,44.059411764705885,458.6061780122426
0.0072236328125,-0.1972392578125,1.1306689453125005,1.1477664264071838,-0.83642578125,-0.82470703125,1.95556640625,44.53,458.6061780122426
-0.0181669921875,-0.1127666015625,1.1516650390625005,1.1573153019950642,-0.71142578125,-0.45166015625,2.18017578125,44.48294117647059,458.6061780122426
-0.0054716796875,-0.0170634765625,1.1482470703125005,1.1483868842825755,-0.46533203125,-0.25390625,2.24267578125,44.388823529411766,458.6061780122426
0.0116181640625,0.0625263671875,1.1072314453125005,1.109056356466459,-0.00146484375,0.013671875,2.12060546875,44.29470588235294,458.6061780122426
0.0262666015625,0.0903583984375,1.0266650390625005,1.0309683200559745,0.32421875,0.07568359375,2.18798828125,44.48294117647059,458.3982712548933
0.0311494140625,0.1181904296875,0.9778369140625,0.98544624113618,0.54296875,0.173828125,2.14306640625,44.34176470588236,458.3982712548933
0.0423798828125,0.0942646484375,0.9431689453125,0.9488148069113068,0.7607421875,0.55908203125,2.0498046875,44.15352941176471,458.3982712548933
0.0252900390625,0.0327412109375,0.9446337890625,0.94553930029799,0.93994140625,0.61474609375,1.9208984375,44.34176470588236,458.3982712548933
-0.0005888671874999,-0.0278056640625,0.9016650390625,0.9020938667267951,0.98095703125,0.40966796875,1.76806640625,44.48294117647059,458.32144118769855
-0.0054716796875,-0.0571025390625,0.8450244140625001,0.8469692436019495,0.9609375,0.314453125,1.71240234375,44.71823529411765,458.32144118769855
-0.0455107421875,-0.0815166015625,0.8054736328125001,0.8108661770852961,0.6650390625,0.97998046875,1.50732421875,44.57705882352941,458.32144118769855
-0.0411162109375,-0.0649150390625,0.8489306640625001,0.8524011834130337,0.466796875,2.55126953125,1.17822265625,44.53,458.32144118769855
-0.0293974609375,-0.0834697265625,0.7317431640625001,0.7370749379229966,0.63623046875,2.98681640625,1.17333984375,44.20058823529412,458.32144118769855
-0.0176787109375,-0.0639384765625,0.6970751953125001,0.7002246021995407,0.58642578125,2.76953125,1.142578125,44.48294117647059,458.0825140942018
-0.0127958984375,-0.1069072265625,0.6423876953125001,0.6513484790778389,0.78466796875,2.3056640625,1.4609375,44.48294117647059,458.0825140942018
-0.0147490234375,-0.1186259765625,0.5857470703125001,0.5978204466120606,0.591796875,1.23486328125,1.4619140625,44.57705882352941,458.0825140942018
-0.0840849609375,-0.0829814453125,0.6155322265625001,0.6267664021459679,0.34619140625,0.74267578125,0.95068359375,45.235882352941175,458.0825140942018
-0.1241240234375,-0.0473369140625,0.6448291015625001,0.6583708125738675,0.3818359375,0.44140625,0.53662109375,44.059411764705885,458.05022184201295
-0.1607451171875,-0.0619853515625,0.6570361328125001,0.6792478607468374,0.38037109375,0.556640625,0.48583984375,44.34176470588236,458.05022184201295
-0.1548857421875,-0.0820048828125,0.6707080078125001,0.6932269654895699,0.26025390625,0.7353515625,0.55078125,44.48294117647059,458.05022184201295
-0.1543974609375,-0.0898173828125,0.7268603515625001,0.748486278346367,0.29833984375,1.11865234375,0.533203125,44.20058823529412,458.05022184201295
-0.1124052734375,-0.0990947265625,0.7146533203125001,0.7301945484340023,0.06103515625,1.259765625,0.43505859375,44.48294117647059,458.05022184201295
-0.0943388671875,-0.0912822265625,0.7625048828125001,0.7737221484882882,0.1416015625,1.06005859375,0.251953125,44.57705882352941,457.5077966671378
-0.0884794921875,-0.1030009765625,0.7766650390625001,0.7884455622378385,0.22265625,0.84521484375,0.22265625,44.388823529411766,457.5077966671378
-0.0757841796875,-0.0922587890625,0.8103564453125001,0.8191046908116795,0.20947265625,0.708984375,0.17041015625,44.20058823529412,457.5077966671378
-0.0831083984375,-0.0878642578125,0.8279345703125001,0.8367214509084441,0.169921875,0.6005859375,0.1728515625,44.67117647058824,457.5077966671378
-0.0987333984375,-0.0785869140625,0.8425830078125001,0.8519802298664239,0.1240234375,0.3173828125,0.2392578125,44.34176470588236,457.8229094819517
-0.1275419921875,-0.0693095703125,0.8577197265625001,0.8699160336736584,0.1142578125,0.07275390625,0.2490234375,44.57705882352941,457.8229094819517
-0.1700224609375,-0.0517314453125,0.8723681640625001,0.8902864670021335,0.1865234375,-0.09375,0.26953125,44.48294117647059,457.8229094819517
-0.2056669921875,-0.0478251953125,0.8640673828125001,0.8894934530521152,0.27587890625,-0.14892578125,0.224609375,44.29470588235294,457.8229094819517
-0.2383818359375,-0.0409892578125,0.8616259765625001,0.8949331497090912,0.3994140625,-0.0712890625,0.1259765625,44.15352941176471,457.8229094819517
-0.2471708984375,-0.0282939453125,0.8938525390625001,0.9278288430331456,0.5185546875,-0.00341796875,-0.03759765625,44.29470588235294,457.7783717799288
-0.2422880859375,-0.0199931640625,0.9348681640625,0.9659615558468552,0.62353515625,0.09716796875,-0.27197265625,44.48294117647059,457.7783717799288
-0.2134794921875,-0.0121806640624999,0.9758837890625,0.9990350503944384,0.7294921875,0.3330078125,-0.5185546875,44.57705882352941,457.7783717799288
-0.1895537109375,-0.0131572265624999,1.0115283203125005,1.029219735885016,0.79248046875,0.52880859375,-0.7373046875,44.48294117647059,457.7783717799288
-0.1749052734375,-0.0395244140625,1.0383837890625005,1.0537527828532771,0.7900390625,0.62255859375,-0.91064453125,44.57705882352941,457.800322870148
-0.1807646484375,-0.0849345703125,1.0359423828125005,1.055019601650198,0.7900390625,0.57421875,-1.00634765625,44.53,457.800322870148
-0.2105498046875,-0.1347392578125,1.0535205078125005,1.082770219497801,0.75830078125,0.60107421875,-0.91064453125,44.57705882352941,457.800322870148
-0.2222685546875,-0.1601298828125,1.1008837890625005,1.1344558196743595,0.6953125,0.6728515625,-0.701171875,44.53,457.800322870148
-0.2203154296875,-0.1786845703125,1.1492236328125005,1.1837153468807062,0.57421875,0.6904296875,-0.517578125,44.34176470588236,457.800322870148
-0.2159208984375,-0.1786845703125,1.1941455078125005,1.2265942702779082,0.501953125,0.72021484375,-0.35009765625,44.34176470588236,457.7028134343218
-0.2378935546875,-0.1596416015625,1.2634814453125005,1.295555536038598,0.44873046875,0.75390625,-0.2041015625,44.53,457.7028134343218
-0.2530302734375,-0.1137431640625,1.3601611328125005,1.3881643036256872,0.37744140625,0.87451171875,-0.08447265625,44.34176470588236,457.7028134343218
-0.2242216796875,-0.0561259765625,1.4973681640625005,1.5151029356564791,0.26513671875,0.5849609375,-0.00341796875,44.48294117647059,457.7028134343218
-0.1626982421875,0.0249287109375,1.5364306640625005,1.5452221018712629,0.080078125,0.65283203125,-0.61279296875,44.15352941176471,457.0745069706732
-0.1470732421875,0.0547138671875,1.4080126953125005,1.4167300010910076,0.04833984375,0.80224609375,-1.16796875,44.48294117647059,457.0745069706732
-0.1426787109375,0.0678974609375,1.3386767578125005,1.3479698593306653,0.00830078125,1.1572265625,-1.29736328125,44.29470588235294,457.0745069706732
-0.0455107421875,0.1489521484375,1.3582080078125005,1.367108979805416,0.01025390625,1.21337890625,-1.32666015625,44.34176470588236,457.0745069706732
0.0960908203125,0.2026630859375,1.4089892578125005,1.4267293018582956,0.0732421875,0.8271484375,-1.3037109375,44.48294117647059,457.0745069706732
0.2513642578125,0.1689716796875,1.3616259765625005,1.394905272300534,0.12548828125,0.36865234375,-1.38427734375,44.48294117647059,458.00505129278105
0.3211884765625,0.0825458984375,1.2141650390625005,1.2586391877369132,0.02099609375,-0.01123046875,-1.71875,44.34176470588236,458.00505129278105
0.3607392578125,0.0688740234375,1.0994189453125005,1.1591369464147163,-0.20654296875,-0.46240234375,-2.37841796875,44.57705882352941,458.00505129278105
0.2982392578125,0.1391865234375,1.0510791015625005,1.1014022067113365,-0.66455078125,-1.46826171875,-2.92578125,44.34176470588236,458.00505129278105
0.1781220703125,0.2422138671875,1.0652392578125005,1.10685577460447,-0.73388671875,-2.30859375,-2.6337890625,44.48294117647059,458.4493495435182
0.0140595703125,0.2656513671875,1.1462939453125005,1.1767574641641572,-0.3408203125,-2.23193359375,-1.9501953125,44.48294117647059,458.4493495435182
-0.1089873046875,0.1948505859375,1.2625048828125005,1.2820934297268036,0.193359375,-1.29150390625,-1.2353515625,44.48294117647059,458.4493495435182
-0.1309599609375,0.0884052734375,1.2937548828125005,1.3033678301007343,0.6376953125,0.0576171875,-0.81640625,44.20058823529412,458.4493495435182
-0.0132841796875,0.0171162109375,1.2058642578125005,1.2060588884364307,0.74609375,0.31640625,-1.1181640625,44.29470588235294,458.4493495435182
0.0067353515625,-0.0561259765625,1.1599658203125005,1.1613424105314576,0.7890625,0.18505859375,-1.57763671875,44.48294117647059,458.5565775974811
0.0135712890625,-0.1103251953125,1.1096728515625005,1.1152262847074623,0.62548828125,0.37158203125,-1.6982421875,44.29470588235294,458.5565775974811
0.0394501953125,-0.1132548828125,1.0974658203125005,1.1039991907357798,0.46142578125,0.4560546875,-1.52099609375,44.48294117647059,458.5565775974811
0.0414033203125,-0.1073955078125,1.0584033203125005,1.064643423160886,0.36328125,0.42333984375,-1.28173828125,44.15352941176471,458.5565775974811
0.0257783203125,-0.0839580078125,0.9666064453125,0.9705882180377242,0.27001953125,0.31591796875,-1.029296875,44.34176470588236,458.1141725418379
0.0409150390625,-0.0863994140625,0.8762744140625001,0.881473622924933,0.267578125,-0.048828125,-0.89013671875,44.20058823529412,458.1141725418379
0.0311494140625,-0.0629619140625,0.8088916015625001,0.8119360268501435,0.001953125,-0.58935546875,-1.18310546875,44.48294117647059,458.1141725418379
-0.0142607421875,-0.0268291015625,0.8142626953125001,0.8148293725903397,-0.01025390625,-0.837890625,-1.37646484375,45.33,458.1141725418379
-0.0596708984375,-0.0155986328124999,0.7649462890625001,0.7674286667934991,-0.1875,-1.03173828125,-1.205078125,44.48294117647059,458.1141725418379
-0.0752958984375,0.0210224609375,0.7380908203125001,0.7422192905165954,-0.3720703125,-1.17919921875,-1.04150390625,44.57705882352941,458.1342239133582
-0.0904326171875,0.0674091796875,0.7253955078125001,0.73411218387388,-0.49267578125,-1.19384765625,-1.2138671875,44.29470588235294,458.1342239133582
-0.1021513671875,0.0776630859375,0.7087939453125001,0.7203161206354265,-0.43798828125,-1.18603515625,-1.37890625,44.48294117647059,458.1342239133582
-0.1436552734375,0.0488544921875,0.7214892578125001,0.7372722347492366,-0.314453125,-0.93994140625,-1.28466796875,44.388823529411766,458.1342239133582
-0.2574248046875,0.0400654296875,0.6995166015625001,0.7464557887684916,-0.220703125,-0.673828125,-1.091796875,44.34176470588236,458.2756391560888
-0.0948271484375,0.0390888671875,0.6668017578125001,0.6746441371868799,-0.21533203125,-0.5751953125,-1.0625,44.48294117647059,458.2756391560888
-0.0679716796875,0.0337177734375,0.6658251953125001,0.6701344851580551,-0.2197265625,-0.57373046875,-1.17626953125,44.57705882352941,458.2756391560888
-0.0796904296875,0.0127216796875,0.6770556640625001,0.6818480607561795,-0.22216796875,-0.54833984375,-1.203125,44.48294117647059,458.2756391560888
-0.0865263671875,-0.0053447265624999,0.6931689453125001,0.6985689408113831,-0.1591796875,-0.4853515625,-0.9423828125,44.48294117647059,458.2756391560888
-0.0679716796875,-0.0116923828124999,0.6917041015625001,0.6951341058916326,-0.1572265625,-0.56982421875,-0.64404296875,44.57705882352941,458.1238812781889
-0.0523466796875,-0.0136455078124999,0.6912158203125001,0.6933294202671981,-0.24951171875,-0.658203125,-0.50537109375,44.34176470588236,458.1238812781889
-0.0684599609375,-0.0268291015625,0.6985400390625001,0.7023992832539439,-0.07275390625,-0.69970703125,-0.4208984375,44.388823529411766,458.1238812781889
-0.0938505859375,-0.0414775390625,0.7346728515625001,0.7418035572511555,-0.08056640625,-0.64697265625,-0.2666015625,44.29470588235294,458.1238812781889
-0.1094755859375,-0.0312236328125,0.7571337890625001,0.7656444303346738,-0.0791015625,-0.6552734375,-0.07421875,44.53,458.1781255384894
-0.1163115234375,-0.0199931640625,0.7844775390625001,0.7933051785959414,-0.0869140625,-0.8388671875,0.10546875,44.48294117647059,458.1781255384894
-0.1143583984375,-0.0219462890625,0.8079150390625001,0.8162635562366887,-0.1494140625,-0.9443359375,0.30517578125,44.57705882352941,458.1781255384894
-0.0997099609375,-0.0112041015624999,0.8352587890625001,0.8412638426249726,-0.20849609375,-1.02783203125,0.44775390625,44.15352941176471,458.1781255384894
-0.0909208984375,-0.0014384765624999,0.8528369140625001,0.8576709631176463,-0.3369140625,-1.11279296875,0.55859375,44.57705882352941,458.1781255384894
-0.1104521484375,0.0117451171875,0.8748095703125001,0.8818329825894179,-0.46630859375,-1.16943359375,0.505859375,44.48294117647059,457.7990535136398
-0.1539091796875,0.0146748046875,0.9387744140625,0.9514204044391132,-0.587890625,-1.1533203125,0.4345703125,44.53,457.7990535136398
-0.1939482421875,0.0210224609375,1.0105517578125005,1.0292097549719514,-0.58154296875,-1.091796875,0.48388671875,44.53,457.7990535136398
-0.1895537109375,0.0259052734375,1.0593798828125005,1.0765163392303323,-0.546875,-1.06201171875,0.615234375,44.34176470588236,457.7990535136398
-0.1417021484375,0.0249287109375,1.0857470703125005,1.0952386224896318,-0.56494140625,-1.05322265625,0.7216796875,44.15352941176471,457.98373412644816
-0.0938505859375,0.0346943359375,1.1077197265625005,1.1122295725445608,-0.55078125,-1.05322265625,0.5673828125,44.53,457.98373412644816
-0.1006865234375,0.0449482421875,1.1428759765625005,1.1481827460301628,-0.51904296875,-1.00341796875,0.255859375,44.53,457.98373412644816
-0.1539091796875,0.0537373046875,1.1863330078125005,1.1974814148589574,-0.484375,-0.85693359375,0.1103515625,44.29470588235294,457.98373412644816
-0.1812529296875,0.0713154296875,1.2346728515625005,1.2499422248317282,-0.45703125,-0.7275390625,0.0986328125,44.388823529411766,457.98373412644816
-0.1876005859375,0.0854755859375,1.2737353515625005,1.2903107383322432,-0.408203125,-0.58203125,0.20751953125,44.20058823529412,457.4852098001191
-0.1910185546875,0.0805927734375,1.3030322265625005,1.3194227021033391,-0.35498046875,-0.466796875,0.2822265625,44.20058823529412,457.4852098001191
-0.1905302734375,0.0683857421875,1.3694384765625005,1.3843193764159067,-0.31201171875,-0.33642578125,0.24072265625,44.34176470588236,457.4852098001191
-0.2071318359375,0.0469013671875,1.4460986328125005,1.4616102734741154,-0.291015625,-0.17578125,0.29150390625,44.34176470588236,457.4852098001191
-0.1939482421875,0.0527607421875,1.5422900390625005,1.5553321771104736,-0.23681640625,-0.14794921875,0.3134765625,44.388823529411766,457.246929683956
-0.1700224609375,0.0620380859375,1.5149462890625005,1.525719050177415,0.1025390625,-0.15625,0.39892578125,44.71823529411765,457.246929683956
-0.1158232421875,0.0718037109375,1.4202197265625005,1.4267427476782504,0.30615234375,-0.09765625,0.318359375,44.388823529411766,457.246929683956
-0.0743193359375,0.0469013671875,1.4431689453125005,1.4458422136086089,0.2568359375,0.00439453125,0.0830078125,44.34176470588236,457.246929683956
-0.0215849609375,-0.0058330078124999,1.5022509765625005,1.5024173624868025,0.17236328125,0.1630859375,-0.1279296875,44.48294117647059,457.246929683956
0.0858369140625,-0.0693095703125,1.4714892578125005,1.4756193371633008,0.08837890625,0.24267578125,-0.09765625,44.34176470588236,457.38643120407824
0.1917939453125,-0.1083720703125,1.3855517578125005,1.4029551299523664,-0.02978515625,0.38134765625,0.0361328125,44.388823529411766,457.38643120407824
0.2699189453125,-0.1191142578125,1.2981494140625005,1.331253674054516,-0.20458984375,0.48974609375,-0.0341796875,44.48294117647059,457.38643120407824
0.3602509765625,-0.1205791015625,1.2361376953125005,1.2931962293559145,-0.3154296875,0.50146484375,-0.27294921875,44.34176470588236,457.38643120407824
0.4256806640625,-0.1596416015625,1.1462939453125005,1.2331582533341892,-0.31103515625,0.20849609375,-0.462890625,44.67117647058824,457.8093948839893
0.4295869140625,-0.2113994140625,1.0701220703125005,1.1723463116202577,-0.27587890625,-0.1142578125,-0.49560546875,44.15352941176471,457.8093948839893
0.4378876953125,-0.2836650390625,1.0139697265625005,1.1403271874675505,-0.1376953125,-0.42041015625,-0.39599609375,44.34176470588236,457.8093948839893
0.4120087890625,-0.3495830078125,0.9534228515625,1.0958898920500868,-0.11279296875,-0.890625,0.10595703125,43.30647058823529,457.8093948839893
0.3514619140625,-0.3901103515625,0.9641650390625,1.0978733014255724,-0.15673828125,-1.21337890625,0.74755859375,44.53,457.8093948839893
0.3070283203125,-0.3842509765625,0.9793017578125,1.0958773358902,-0.01611328125,-1.81884765625,1.37451171875,44.20058823529412,459.33422186141473
0.2591767578125,-0.3378642578125,1.0359423828125005,1.1200452977467614,-0.02490234375,-2.134765625,1.81396484375,44.67117647058824,459.33422186141473
0.2152314453125,-0.2065166015625,1.0725634765625005,1.1132682035466877,-0.32421875,-1.7880859375,1.56787109375,44.29470588235294,459.33422186141473
0.1019501953125,-0.1191142578125,1.1028369140625005,1.1139260782284337,-0.24658203125,-1.30908203125,1.3046875,44.20058823529412,459.33422186141473
0.0223603515625,-0.0356181640625,1.1252978515625005,1.1260834310406849,-0.2431640625,-0.4521484375,1.10791015625,44.388823529411766,459.0855555594495
-0.0005888671874999,0.0683857421875,1.2034228515625005,1.2053644744067744,-0.2197265625,0.63525390625,0.880859375,44.53,459.0855555594495
-0.0113310546875,0.1220966796875,1.1985400390625005,1.2047963384850495,0.3515625,1.2724609375,0.87841796875,44.48294117647059,459.0855555594495
-0.0035185546874999,0.1313740234375,1.0696337890625005,1.0776771116458987,0.64794921875,1.6044921875,1.43408203125,44.29470588235294,459.0855555594495
0.0492158203125,0.1391865234375,0.9876025390625,0.9985759162118556,0.71533203125,1.8701171875,1.57177734375,44.059411764705885,459.0855555594495
0.0946259765625,0.0947529296875,0.9226611328125,0.9323281391911418,0.70361328125,2.013671875,1.44384765625,44.57705882352941,458.18720433473663
0.1029267578125,0.0293232421875,0.8889697265625001,0.8953887115386178,0.7099609375,2.02490234375,1.24365234375,44.059411764705885,458.18720433473663
0.0868134765625,0.0014912109375,0.8259814453125001,0.8305324505541336,0.85009765625,1.6337890625,1.16259765625,44.48294117647059,458.18720433473663
0.0409150390625,-0.0346416015625,0.7908251953125001,0.7926402529025098,0.8984375,1.19677734375,0.9931640625,44.48294117647059,458.18720433473663
0.0008759765625,-0.0571025390625,0.7571337890625001,0.7592845592019244,0.88232421875,1.10009765625,0.88818359375,44.53,458.1451992988392
-0.0206083984375,-0.0629619140625,0.7180712890625001,0.721120853175425,0.88427734375,1.06005859375,0.73046875,44.57705882352941,458.1451992988392
-0.0391630859375,-0.0668681640625,0.6834033203125001,0.6877828122884337,0.76708984375,1.2412109375,0.47509765625,44.29470588235294,458.1451992988392
-0.0513701171875,-0.0746806640625,0.6545947265625001,0.6608406362869248,0.69921875,1.40869140625,0.201171875,44.34176470588236,458.1451992988392
-0.0494169921875,-0.0947001953125,0.6550830078125001,0.6637348214714647,0.50830078125,1.50927734375,-0.076171875,44.53,458.1451992988392
-0.0479521484375,-0.1078837890625,0.6345751953125001,0.6454641732800912,0.4541015625,1.521484375,-0.12548828125,44.48294117647059,458.7070806092707
-0.0279326171875,-0.1132548828125,0.6228564453125001,0.6336852933839793,0.33935546875,1.5517578125,-0.43505859375,44.29470588235294,458.7070806092707
-0.0137724609375,-0.1225322265625,0.6296923828125001,0.6416512481081316,0.2294921875,1.5849609375,-0.56982421875,44.57705882352941,458.7070806092707
-0.0074248046875,-0.1269267578125,0.6204150390625001,0.6333090479918663,0.2392578125,1.46923828125,-0.52783203125,44.48294117647059,458.7070806092707
-0.0127958984375,-0.1327861328125,0.6306689453125001,0.6446233091237881,0.17431640625,1.56982421875,-0.32470703125,44.29470588235294,458.4255046053364
0.0189423828125,-0.1059306640625,0.6365283203125001,0.6455605486824534,-0.00439453125,1.59716796875,-0.29736328125,44.67117647058824,458.4255046053364
0.0370087890625,-0.0785869140625,0.6653369140625001,0.6709834295598887,-0.1337890625,1.4052734375,-0.47607421875,44.48294117647059,458.4255046053364
0.0306611328125,-0.0717509765625,0.6770556640625001,0.6815369982195619,-0.072265625,1.15087890625,-0.51611328125,44.48294117647059,458.4255046053364
0.0072236328125,-0.0585673828125,0.7341845703125001,0.7365523080443548,-0.248046875,1.06298828125,-0.8701171875,44.57705882352941,458.4255046053364
-0.0396513671875,-0.0571025390625,0.7419970703125001,0.7452466593280076,-0.05615234375,0.78369140625,-0.857421875,44.15352941176471,457.97085900314266
-0.0953154296875,-0.1000712890625,0.8088916015625001,0.8206125255621496,0.10205078125,0.595703125,-0.30908203125,44.34176470588236,457.97085900314266
-0.0997099609375,-0.0907939453125,0.8279345703125001,0.8388451999827568,0.07470703125,0.42578125,-0.23388671875,44.48294117647059,457.97085900314266
-0.1475615234375,-0.0986064453125,0.8816455078125001,0.8993311046007049,0.02783203125,0.30419921875,-0.53955078125,44.53,457.97085900314266
-0.2022490234375,-0.1142314453125,0.9011767578125,0.9306304526508116,0.17578125,0.10888671875,-0.47119140625,44.53,457.5278410156471
-0.2310576171875,-0.1474345703125,0.9314501953125,0.970939772247121,0.205078125,0.154296875,-0.1474609375,44.48294117647059,457.5278410156471
-0.2125029296875,-0.1454814453125,0.9734423828125,1.00693218178369,0.1259765625,0.1767578125,0.169921875,44.53,457.5278410156471
-0.1915068359375,-0.1108134765625,1.0681689453125005,1.090843430804201,0.1552734375,0.33740234375,0.18310546875,44.53,457.5278410156471
-0.1792998046875,-0.0873759765625,1.1423876953125005,1.159669188882171,0.2998046875,0.56396484375,0.0859375,44.67117647058824,457.5278410156471
-0.1822294921875,-0.0629619140625,1.2151416015625005,1.2303417827145455,0.47216796875,0.8525390625,-0.00537109375,44.34176470588236,457.6143746779703
-0.1602568359375,-0.0580791015625,1.2542041015625005,1.2657343180459335,0.62353515625,1.0537109375,0.025390625,44.388823529411766,457.6143746779703
-0.1573271484375,-0.0483134765625,1.2561572265625005,1.2668926558703475,0.791015625,1.0595703125,0.0556640625,44.48294117647059,457.6143746779703
-0.1856474609375,-0.0502666015625,1.2439501953125005,1.2587310274253158,1.021484375,1.05908203125,0.220703125,44.34176470588236,457.6143746779703
-0.2046904296875,-0.0458720703125,1.3337939453125005,1.3501883969997273,1.11767578125,1.06689453125,0.26904296875,44.34176470588236,457.127472881082
-0.2242216796875,-0.0502666015625,1.2195361328125005,1.2409957582964557,1.0947265625,1.2353515625,0.2568359375,44.53,457.127472881082
-0.2281279296875,-0.0522197265625,1.2224658203125005,1.244665390367259,1.16064453125,1.4453125,-0.076171875,44.48294117647059,457.127472881082
-0.2833037109375,-0.0834697265625,1.2175830078125005,1.2528912837102475,1.12255859375,1.5556640625,-0.28955078125,44.67117647058824,457.127472881082
-0.2920927734375,-0.0888408203125,1.2307666015625005,1.2680683369479402,1.11767578125,1.76220703125,-0.5,44.34176470588236,457.127472881082
-0.2984404296875,-0.0600322265625,1.2439501953125005,1.2806571152014572,1.1083984375,2.14404296875,-0.51025390625,44.388823529411766,456.6625434327003
-0.3194365234375,-0.0248759765625,1.3889697265625005,1.425445687503695,1.24267578125,2.83740234375,0.22412109375,44.48294117647059,456.6625434327003
-0.2383818359375,0.0136982421875,1.5613330078125005,1.5794854550861777,1.40087890625,2.8505859375,0.603515625,44.53,456.6625434327003
-0.0709013671875,0.0151630859375,1.6121142578125005,1.613743877846343,1.5732421875,2.26220703125,0.0634765625,44.29470588235294,456.6625434327003
0.0799775390625,-0.0756572265625,1.3962939453125005,1.4006274324037675,1.2802734375,1.21826171875,-1.32958984375,44.388823529411766,456.100779803091
0.0248017578125,-0.0849345703125,1.2727587890625005,1.2758306876543617,0.671875,0.89501953125,-2.1748046875,44.34176470588236,456.100779803091
0.1063447265625,0.0200458984375,1.3709033203125005,1.3751679724876005,0.35595703125,0.681640625,-1.91552734375,44.57705882352941,456.100779803091
0.2899384765625,0.1050068359375,1.3352587890625005,1.3704038782613115,0.28271484375,-0.01611328125,-1.35302734375,44.48294117647059,456.100779803091
0.3871064453125,0.1455341796875,1.2073291015625005,1.2761955794232744,0.26513671875,0.12744140625,-1.39208984375,44.48294117647059,456.100779803091
0.4207978515625,0.1333271484375,1.0530322265625005,1.1418072650711537,0.50146484375,0.0791015625,-1.06689453125,44.53,458.4371108324081
0.4715791015625,0.1914326171875,1.0237353515625005,1.143270469308355,0.50341796875,0.26513671875,-0.66845703125,44.48294117647059,458.4371108324081
0.4525361328125,0.2441669921875,1.0256884765625005,1.1473636400583234,0.560546875,-0.0546875,-0.33544921875,44.34176470588236,458.4371108324081
0.3490205078125,0.2348896484375,1.0598681640625005,1.1403109168161123,0.57861328125,-0.201171875,0.275390625,44.34176470588236,458.4371108324081
0.2762666015625,0.2011982421875,1.0969775390625005,1.148983763595401,0.8662109375,-0.3046875,0.66357421875,44.57705882352941,459.23669883577753
0.2318330078125,0.1792255859375,1.1555712890625005,1.1921465338923731,1.02734375,-0.06005859375,0.35546875,44.29470588235294,459.23669883577753
0.0985322265625,0.0561787109375,1.1252978515625005,1.130999514573345,1.0009765625,-0.0107421875,-0.11669921875,44.20058823529412,459.23669883577753
0.0106416015625,-0.0185283203125,1.1516650390625005,1.1518632316973434,0.90771484375,-0.064453125,-0.49462890625,44.48294117647059,459.23669883577753
-0.0464873046875,-0.0644267578125,1.1707080078125005,1.17340066310517,0.79638671875,-0.0576171875,-0.7587890625,44.29470588235294,459.23669883577753
-0.0621123046875,-0.1059306640625,1.1599658203125005,1.1664475763083255,0.54736328125,0.1083984375,-0.72802734375,44.29470588235294,458.6101929768087
-0.0372099609375,-0.1322978515625,1.1243212890625005,1.1326895707828273,0.3642578125,0.1015625,-0.4677734375,44.67117647058824,458.6101929768087
-0.0220732421875,-0.1508525390625,1.0447314453125005,1.0557970966937809,0.19580078125,-0.064453125,-0.23095703125,44.29470588235294,458.6101929768087
0.0052705078125,-0.1449931640625,0.9710009765625,0.981780877977762,0.130859375,-0.35791015625,-0.18896484375,44.57705882352941,458.6101929768087
0.1151337890625,-0.1581767578125,0.8342822265625001,0.8569145287915506,-0.27734375,-0.79248046875,-0.50341796875,44.29470588235294,458.2207621456242
-0.0357451171875,-0.1484111328125,0.7761767578125001,0.7910461030267212,-0.58154296875,-1.0673828125,-0.986328125,44.48294117647059,458.2207621456242
-0.0860380859375,-0.1552470703125,0.7610400390625001,0.7814641041843537,-0.76708984375,-1.0,-0.9404296875,44.29470588235294,458.2207621456242
-0.0787138671875,-0.1005595703125,0.7654345703125001,0.7760142920710467,-1.14794921875,-0.6806640625,-1.26416015625,44.388823529411766,458.2207621456242
-0.0733427734375,-0.0776103515625,0.7385791015625001,0.7462584125824171,-1.15380859375,-0.619140625,-1.1259765625,44.48294117647059,458.2207621456242
-0.0806669921875,-0.0810283203125,0.7229541015625001,0.7319394683218585,-1.1455078125,-0.39208984375,-1.04443359375,44.48294117647059,458.2091548920405
-0.0538115234375,-0.0522197265625,0.6848681640625001,0.6889607986259206,-1.1025390625,-0.302734375,-0.7109375,44.67117647058824,458.2091548920405
-0.0445341796875,-0.0351298828125,0.6506884765625001,0.6531561033612759,-1.064453125,-0.24658203125,-0.51513671875,44.53,458.2091548920405
-0.0552763671875,-0.0175517578125,0.6262744140625001,0.6289540386078173,-0.91650390625,-0.26025390625,-0.30908203125,44.388823529411766,458.2091548920405
-0.0870146484375,-0.0077861328124999,0.6150439453125001,0.6212175364334471,-0.751953125,-0.197265625,0.0390625,44.48294117647059,458.069004322986
-0.1001982421875,0.0088154296875,0.5969775390625001,0.6053920892142207,-0.5849609375,-0.134765625,0.5517578125,44.71823529411765,458.069004322986
-0.0835966796875,0.0356708984375,0.5955126953125001,0.6024086554229374,-0.43994140625,-0.064453125,0.9501953125,44.48294117647059,458.069004322986
-0.0713896484375,0.0434833984375,0.5960009765625001,0.6018342395603278,-0.306640625,-0.05224609375,1.1884765625,44.20058823529412,458.069004322986
-0.0889677734375,0.0361591796875,0.6155322265625001,0.6229788703664741,-0.21484375,0.04248046875,1.4072265625,44.71823529411765,458.069004322986
-0.1158232421875,0.0346943359375,0.6482470703125001,0.6594262540615954,-0.1875,0.12353515625,1.5693359375,44.53,458.00378494332034
-0.1377958984375,0.0346943359375,0.6785205078125001,0.6932398474514249,-0.1787109375,0.1943359375,1.7568359375,44.48294117647059,458.00378494332034
-0.1163115234375,0.0483662109375,0.7224658203125001,0.733365203949994,-0.1796875,0.208984375,1.9287109375,44.53,458.00378494332034
-0.0718779296875,0.0683857421875,0.7639697265625001,0.7703848321551233,-0.208984375,0.1494140625,1.97900390625,44.53,458.00378494332034
-0.0572294921875,0.0815693359375,0.8206103515625001,0.8266378411570896,-0.16845703125,0.123046875,2.0166015625,44.48294117647059,457.6473008931182
-0.0655302734375,0.0976826171875,0.8513720703125001,0.8594594304244882,-0.1279296875,0.11328125,2.03076171875,44.48294117647059,457.6473008931182
-0.0933623046875,0.0786396484375,0.8831103515625001,0.8915069305842651,-0.10400390625,0.0009765625,2.0966796875,44.53,457.6473008931182
-0.1216826171875,0.0615498046875,0.9197314453125,0.9297854426045232,-0.09423828125,0.18408203125,2.0703125,44.29470588235294,457.6473008931182
-0.1392607421875,0.0586201171875,0.9529345703125,0.9648389335792574,-0.056640625,0.16015625,1.97607421875,44.34176470588236,457.6473008931182
-0.1504912109375,0.0576435546875,0.9783251953125,0.9915092393667784,-0.0869140625,0.0849609375,1.79248046875,44.29470588235294,457.6247157016776
-0.1460966796875,0.0610615234375,0.9846728515625,0.9973231041465176,-0.09130859375,-0.0009765625,1.52587890625,44.29470588235294,457.6247157016776
-0.1373076171875,0.0815693359375,1.0139697265625005,1.0264704304987189,-0.12841796875,0.05078125,1.1689453125,44.48294117647059,457.6247157016776
-0.1280302734375,0.0727802734375,1.0603564453125005,1.0705346842741152,-0.1064453125,0.16259765625,0.9423828125,44.53,457.6247157016776
-0.0762724609375,0.0996357421875,1.1287158203125005,1.1356690417733668,-0.11181640625,0.02978515625,0.70703125,44.48294117647059,457.9398322791439
-0.0782255859375,0.1069599609375,1.1404345703125005,1.1481074360454573,-0.080078125,-0.25,0.67578125,44.20058823529412,457.9398322791439
-0.0962919921875,0.1094013671875,1.1570361328125005,1.1661789826332996,-0.08203125,-0.3974609375,0.5703125,44.15352941176471,457.9398322791439
-0.1631865234375,0.0991474609375,1.2004931640625005,1.215583768155352,-0.048828125,-0.21337890625,0.25732421875,44.059411764705885,457.9398322791439
-0.1998076171875,0.0888935546875,1.2703173828125005,1.2890040345269391,-0.06982421875,-0.126953125,0.14599609375,44.48294117647059,457.9398322791439
-0.2120146484375,0.1020771484375,1.3772509765625005,1.3972080044959552,-0.0498046875,-0.13720703125,0.31982421875,44.48294117647059,457.5717427080819
-0.1939482421875,0.1313740234375,1.5281298828125005,1.5459805928362502,0.11865234375,-0.34765625,0.6953125,44.388823529411766,457.5717427080819
-0.1470732421875,0.1543232421875,1.6570361328125005,1.6706929541639333,0.33740234375,-0.6806640625,0.97802734375,44.388823529411766,457.5717427080819
-0.0650419921875,0.1826435546875,1.7214892578125005,1.7323724754164267,0.65087890625,-1.01318359375,0.82421875,44.71823529411765,457.5717427080819
0.0062470703125,0.1928974609375,1.7263720703125005,1.7371266452042846,1.07568359375,-1.11865234375,0.19287109375,44.53,457.6576417753313
0.0912080078125,0.1245380859375,1.6838916015625005,1.6909522646576465,1.36767578125,-1.05224609375,-0.5068359375,44.29470588235294,457.6576417753313
0.2264619140625,-0.0268291015625,1.7102587890625005,1.7253955850114582,1.2392578125,-1.0205078125,-1.5166015625,44.57705882352941,457.6576417753313
0.4159150390625,-0.1967509765625,1.5706103515625005,1.6366163701160816,0.4306640625,-0.8779296875,-2.50537109375,44.388823529411766,457.6576417753313
0.4998994140625,-0.2680400390625,1.3293994140625005,1.4453538282477327,-0.46728515625,-0.56201171875,-3.990234375,44.57705882352941,457.6576417753313
0.4315400390625,-0.2280009765625,1.2258837890625005,1.3194704676171236,-1.07470703125,-0.25390625,-5.01953125,44.48294117647059,457.7874441322514
0.2523408203125,-0.1679423828125,1.0798876953125005,1.121622917039443,-1.40673828125,0.16259765625,-5.24755859375,44.29470588235294,457.7874441322514
0.0931611328125,-0.1269267578125,1.0139697265625005,1.0261208529705128,-1.50341796875,0.61279296875,-4.21044921875,44.48294117647059,457.7874441322514
0.1092744140625,-0.1098369140625,1.0442431640625005,1.0556745857274097,-1.4873046875,0.72900390625,-2.69189453125,44.53,457.7874441322514
-0.0108427734375,-0.1274150390625,1.0227587890625005,1.0307219307454885,-1.0205078125,0.71044921875,-1.251953125,44.15352941176471,458.825920493573
0.0511689453125,-0.1811259765625,0.9558642578125,0.9742183326716628,-0.5830078125,0.85888671875,-0.34765625,44.34176470588236,458.825920493573
0.1161103515625,-0.2328837890625,0.9246142578125,0.9605352667644405,-0.2294921875,0.94384765625,0.3369140625,44.48294117647059,458.825920493573
0.1507783203125,-0.2323955078125,0.9148486328125,0.9558712229618532,-0.07080078125,1.01953125,1.05126953125,44.388823529411766,458.825920493573
0.1878876953125,-0.1171611328125,0.8445361328125001,0.8730806358622576,-0.158203125,0.92822265625,0.84423828125,44.388823529411766,458.825920493573
0.1253876953125,-0.0409892578125,0.9880908203125,0.9968578948765112,0.06591796875,0.85791015625,0.59716796875,44.48294117647059,459.1184812073317
0.0755830078125,0.0044208984375,0.9812548828125,0.9841714690318716,0.27001953125,0.625,0.57763671875,44.29470588235294,459.1184812073317
0.0379853515625,0.0283466796875,0.9753955078125,0.9765463726026724,0.44921875,0.49267578125,0.73193359375,44.53,459.1184812073317
0.0321259765625,0.0293232421875,0.9778369140625,0.978803842149056,0.49560546875,0.55517578125,0.77392578125,44.53,459.1184812073317
0.0443330078125,0.0454365234375,0.9802783203125,0.9823316540346676,0.498046875,0.60498046875,0.6962890625,44.20058823529412,458.4584304618838
0.0516572265625,0.0459248046875,0.9519580078125,0.9544640409046632,0.54345703125,0.5615234375,0.650390625,44.53,458.4584304618838
0.0516572265625,0.0283466796875,0.9158251953125,0.917718797712357,0.62255859375,0.42578125,0.66357421875,44.57705882352941,458.4584304618838
0.0487275390625,0.0141865234375,0.8777392578125001,0.8792052292926655,0.59423828125,0.23193359375,0.6337890625,44.15352941176471,458.4584304618838
0.0423798828125,0.0102802734375,0.8377001953125001,0.83883452224843,0.56103515625,0.13232421875,0.482421875,44.53,458.4584304618838
0.0204072265625,0.0058857421875,0.8015673828125001,0.8018487176805559,0.5107421875,0.06494140625,0.36328125,44.48294117647059,458.1445668842
0.0062470703125,0.0068623046875,0.7708056640625001,0.7708615237926622,0.4013671875,0.08544921875,0.23095703125,44.48294117647059,458.1445668842
-0.0069365234375,0.0039326171875,0.7463916015625001,0.7464341924901191,0.33056640625,0.19580078125,0.013671875,44.29470588235294,458.1445668842
-0.0347685546875,-0.0068095703124999,0.7210009765625001,0.7218709239517667,0.24609375,0.3134765625,-0.28955078125,44.48294117647059,458.1445668842
-0.0494169921875,-0.0170634765625,0.6985400390625001,0.7004936741489516,0.1875,0.34228515625,-0.6171875,44.48294117647059,458.3718900774436
-0.0694365234375,-0.0322001953125,0.6775439453125001,0.6818534162082622,0.18701171875,0.3984375,-0.974609375,44.15352941176471,458.3718900774436
-0.0933623046875,-0.0497783203125,0.6804736328125001,0.6886499590232592,0.228515625,0.5107421875,-1.208984375,44.53,458.3718900774436
-0.0972685546875,-0.0683330078125,0.6619189453125001,0.6725081872002087,0.37109375,0.64208984375,-1.27294921875,44.388823529411766,458.3718900774436
-0.0933623046875,-0.0844462890625,0.6418994140625001,0.6541273220457695,0.40576171875,0.703125,-1.337890625,44.53,458.3718900774436
-0.1021513671875,-0.0971416015625,0.6541064453125001,0.6691237810538179,0.43017578125,0.740234375,-1.3271484375,44.48294117647059,458.6418587561616
-0.1172880859375,-0.1064189453125,0.6448291015625001,0.6639925129443918,0.43212890625,0.7861328125,-1.19580078125,44.57705882352941,458.6418587561616
-0.1216826171875,-0.1122783203125,0.6638720703125001,0.6842069908140379,0.421875,0.8740234375,-0.97412109375,44.48294117647059,458.6418587561616
-0.0972685546875,-0.1122783203125,0.6921923828125001,0.70795330903022,0.31787109375,0.97021484375,-0.81396484375,44.34176470588236,458.6418587561616
-0.0743193359375,-0.0981181640625,0.7161181640625001,0.7266194070580777,0.28759765625,0.9033203125,-0.8955078125,44.388823529411766,458.1981796064526
-0.0792021484375,-0.0888408203125,0.7214892578125001,0.7312403304042698,0.21337890625,0.69189453125,-0.96533203125,44.57705882352941,458.1981796064526
-0.1060576171875,-0.0917705078125,0.7439501953125001,0.7570547783173694,0.158203125,0.4462890625,-0.93212890625,44.34176470588236,458.1981796064526
-0.1412138671875,-0.0903056640625,0.7703173828125001,0.7883434147063814,0.09716796875,0.330078125,-0.73193359375,44.48294117647059,458.1981796064526
-0.1558623046875,-0.0712626953125,0.8015673828125001,0.8196839018515505,0.06005859375,0.365234375,-0.67724609375,44.48294117647059,458.1981796064526
-0.1724638671875,-0.0678447265625,0.8181689453125001,0.8388963675457038,0.06103515625,0.3212890625,-0.70703125,44.53,458.0147602844454
-0.2027373046875,-0.0780986328125,0.8357470703125001,0.8635247400596354,0.0712890625,0.4755859375,-0.591796875,44.388823529411766,458.0147602844454
-0.1934599609375,-0.0820048828125,0.8757861328125001,0.9006402765353684,0.02880859375,0.68994140625,-0.57177734375,44.34176470588236,458.0147602844454
-0.1871123046875,-0.0776103515625,0.9251025390625,0.9470211660860632,0.04345703125,0.75927734375,-0.71337890625,44.48294117647059,458.0147602844454
-0.1646513671875,-0.0903056640625,0.9846728515625,1.0024199769970206,0.1025390625,0.8828125,-0.77734375,44.53,458.04768639104753
-0.1373076171875,-0.1083720703125,1.0461962890625005,1.0607188895318462,0.1337890625,0.85400390625,-0.86474609375,44.29470588235294,458.04768639104753
-0.1114287109375,-0.1371806640625,1.0901416015625005,1.1043747568968945,0.1328125,0.69775390625,-0.96142578125,44.57705882352941,458.04768639104753
-0.1216826171875,-0.1723369140625,1.1326220703125005,1.1521021766463075,0.1474609375,0.5751953125,-0.98095703125,44.29470588235294,458.04768639104753
-0.1451201171875,-0.1947978515625,1.1716845703125005,1.1965996756201582,0.17822265625,0.4892578125,-0.9912109375,44.53,458.04768639104753
-0.1773466796875,-0.2035869140625,1.2034228515625005,1.2333393839639162,0.1611328125,0.5185546875,-1.166015625,44.48294117647059,457.7764687771806
-0.2159208984375,-0.2109111328125,1.2361376953125005,1.2724550059231206,0.0078125,0.765625,-1.47998046875,44.53,457.7764687771806
-0.2564482421875,-0.2050517578125,1.2869189453125005,1.3281461877772691,-0.2763671875,0.97802734375,-1.6806640625,44.388823529411766,457.7764687771806
-0.2784208984375,-0.1786845703125,1.4138720703125005,1.4520608126260632,-0.51708984375,1.09326171875,-1.5869140625,44.53,457.7764687771806
-0.2413115234375,-0.1322978515625,1.6111376953125005,1.6344719777740626,-0.611328125,1.01416015625,-1.37109375,44.388823529411766,457.376091056785
-0.1133818359375,-0.0619853515625,1.7327197265625005,1.7375313739175215,-0.67529296875,0.6787109375,-1.541015625,44.48294117647059,457.376091056785
-0.0445341796875,0.0107685546875,1.6384814453125005,1.6391219300478643,-0.6787109375,0.634765625,-1.76220703125,44.29470588235294,457.376091056785
0.0462861328125,0.0835224609375,1.4417041015625005,1.4448630122035544,-0.77880859375,1.01318359375,-1.44482421875,44.29470588235294,457.376091056785
0.2127900390625,0.1689716796875,1.4504931640625005,1.4757240420392557,-0.9609375,1.15576171875,-1.03173828125,44.29470588235294,457.376091056785
0.3465791015625,0.2304951171875,1.4192431640625005,1.4790186717635738,-0.6171875,0.33544921875,-0.6982421875,44.57705882352941,457.3224853955833
0.3031220703125,0.2422138671875,1.4085009765625005,1.4609673329496375,-0.0927734375,0.0146484375,-0.10595703125,44.388823529411766,457.3224853955833
0.2196259765625,0.1943623046875,1.3528369140625005,1.3842615327728418,0.3564453125,-0.3212890625,0.7353515625,45.04764705882353,457.3224853955833
0.2040009765625,0.1489521484375,1.2566455078125005,1.2817804309896206,0.33642578125,-0.40380859375,0.8916015625,44.53,457.3224853955833
0.1737275390625,0.1157490234375,1.1711962890625005,1.1896553457910486,0.26513671875,-0.376953125,0.1953125,44.48294117647059,458.1652538329109
0.0926728515625,0.1001240234375,1.1140673828125005,1.1223899549322116,0.166015625,0.0458984375,-0.52392578125,44.388823529411766,458.1652538329109
0.0272431640625,0.1128193359375,1.0891650390625005,1.0953313995615814,0.11865234375,0.4736328125,-0.80517578125,44.53,458.1652538329109
0.0208955078125,0.1484638671875,1.0881884765625005,1.0984681618647056,0.12060546875,0.6337890625,-0.90673828125,44.059411764705885,458.1652538329109
0.0262666015625,0.1567646484375,1.1116259765625005,1.1229325006989104,0.232421875,0.650390625,-0.916015625,44.53,458.1652538329109
0.0384736328125,0.1264912109375,1.1350634765625005,1.1427376526098962,0.45654296875,0.5419921875,-0.84912109375,44.53,458.1116409524685
0.0277314453125,0.0591083984375,1.1008837890625005,1.1028181866679447,0.591796875,0.568359375,-0.79443359375,44.29470588235294,458.1116409524685
0.0316376953125,-0.0141337890624999,1.0803759765625005,1.0809315234978236,0.5234375,0.5322265625,-0.54052734375,44.388823529411766,458.1116409524685
0.0374970703125,-0.0800517578125,1.0588916015625005,1.0625750505590128,0.501953125,0.42822265625,-0.1904296875,44.29470588235294,458.1116409524685
0.0321259765625,-0.1059306640625,1.0203173828125005,1.0263045092116505,0.375,0.2578125,-0.20751953125,44.48294117647059,458.4151601809125
0.0340791015625,-0.0761455078125,0.9392626953125,0.9429601976377544,0.21044921875,-0.07666015625,-0.62548828125,44.48294117647059,458.4151601809125
-0.0210966796875,-0.0893291015625,0.8640673828125001,0.8689287659643016,0.0771484375,-0.20361328125,-0.9423828125,44.34176470588236,458.4151601809125
-0.0240263671875,-0.0776103515625,0.8254931640625001,0.8294815229429774,-0.03955078125,-0.31982421875,-0.876953125,44.29470588235294,458.4151601809125
-0.0284208984375,-0.0419658203125,0.7864306640625001,0.7880622227465801,-0.1474609375,-0.48486328125,-0.9326171875,44.53,458.4151601809125
-0.0586943359375,-0.0209697265625,0.7620166015625001,0.7645613484607445,-0.26171875,-0.47314453125,-1.01904296875,44.57705882352941,458.0263687143093
-0.0909208984375,-0.0112041015624999,0.7459033203125001,0.751507754396265,-0.265625,-0.4775390625,-0.82958984375,44.48294117647059,458.0263687143093
-0.0938505859375,-0.0082744140624999,0.7185595703125001,0.7247097725962957,-0.30419921875,-0.30322265625,-0.6318359375,44.29470588235294,458.0263687143093
-0.0787138671875,-0.0048564453124999,0.6946337890625001,0.6990962443440892,-0.2197265625,-0.32080078125,-0.4140625,44.29470588235294,458.0263687143093
-0.0582060546875,0.0093037109375,0.6379931640625001,0.6407103723446133,-0.158203125,-0.35009765625,-0.28271484375,44.388823529411766,458.5669221744526
-0.1094755859375,-0.0199931640625,0.6624072265625001,0.6716903783201098,-0.0888671875,-0.10986328125,-0.0078125,44.29470588235294,458.5669221744526
-0.0918974609375,-0.0170634765625,0.6502001953125001,0.6568840076783508,0.11181640625,0.009765625,0.4140625,44.48294117647059,458.5669221744526
-0.0669951171875,-0.0092509765624999,0.6189501953125001,0.6226341386173013,0.146484375,-0.01611328125,0.6875,44.388823529411766,458.5669221744526
-0.0464873046875,0.0097919921875,0.6116259765625001,0.6134682451554769,0.05712890625,-0.04248046875,0.74267578125,44.34176470588236,458.5669221744526
-0.0572294921875,0.0127216796875,0.6331103515625001,0.6358189782994078,0.09423828125,0.12451171875,0.9814453125,44.67117647058824,458.2627684630863
-0.0616240234375,0.0044208984375,0.6570361328125001,0.6599345001049918,0.1201171875,-0.01416015625,1.30419921875,44.34176470588236,458.2627684630863
-0.0767607421875,0.0014912109375,0.6775439453125001,0.6818799257060323,0.171875,-0.0830078125,1.3994140625,44.20058823529412,458.2627684630863
-0.0855498046875,-0.0019267578124999,0.7141650390625001,0.7192733725760183,0.2060546875,-0.0771484375,1.39892578125,44.57705882352941,458.2627684630863
-0.1138701171875,-0.0048564453124999,0.7483447265625001,0.7569741200485465,0.24658203125,-0.06884765625,1.36328125,44.29470588235294,457.841053934004
-0.1485380859375,-0.0151103515624999,0.7898486328125001,0.8038362696806447,0.34423828125,-0.04345703125,1.619140625,44.29470588235294,457.841053934004
-0.1514677734375,-0.0102275390624999,0.8186572265625001,0.8326144026789312,0.32421875,-0.06787109375,1.88330078125,44.388823529411766,457.841053934004
-0.1470732421875,0.0073505859375,0.8552783203125001,0.8678626474723631,0.2314453125,-0.20703125,2.18896484375,44.29470588235294,457.841053934004
-0.1377958984375,0.0259052734375,0.9011767578125,0.9120188274589066,0.111328125,-0.39892578125,2.55419921875,44.48294117647059,457.841053934004
-0.1202177734375,0.0410419921875,0.9456103515625,0.9541046562904636,0.07373046875,-0.5048828125,2.87060546875,44.48294117647059,457.483305083389
-0.1167998046875,0.0327412109375,0.9685595703125,0.9761259255406686,-0.02099609375,-0.57666015625,3.0810546875,44.57705882352941,457.483305083389
-0.1373076171875,0.0327412109375,0.9758837890625,0.9860398259636094,-0.07470703125,-0.63232421875,3.20947265625,44.48294117647059,457.483305083389
-0.1597685546875,0.0400654296875,1.0125048828125005,1.0258154646144362,-0.16064453125,-0.68701171875,3.19091796875,44.34176470588236,457.483305083389
-0.1866240234375,0.0664326171875,1.0588916015625005,1.0772619192239083,-0.15283203125,-0.75634765625,2.8916015625,44.34176470588236,457.72222579507513
-0.2071318359375,0.0420185546875,1.0740283203125005,1.094625958595061,-0.14013671875,-0.78564453125,2.8173828125,44.71823529411765,457.72222579507513
-0.1880888671875,0.0610615234375,1.1062548828125005,1.1237908156551577,-0.18505859375,-0.79296875,2.52001953125,44.53,457.72222579507513
-0.1763701171875,0.0713154296875,1.1462939453125005,1.1619733722458283,-0.2265625,-0.7978515625,1.94970703125,44.29470588235294,457.72222579507513
-0.1792998046875,0.0605732421875,1.1751025390625005,1.1902451490937551,-0.37353515625,-0.6943359375,1.39599609375,44.388823529411766,457.72222579507513
-0.1773466796875,0.0434833984375,1.2039111328125005,1.2176800345105987,-0.29296875,-0.51806640625,1.0185546875,44.48294117647059,457.5272063097843
-0.1807646484375,0.0454365234375,1.2371142578125005,1.2510763456599252,-0.39794921875,-0.3779296875,0.85302734375,44.48294117647059,457.5272063097843
-0.1763701171875,0.0591083984375,1.2825244140625005,1.2959433219353915,-0.45556640625,-0.30078125,0.8515625,44.48294117647059,457.5272063097843
-0.1836943359375,0.0888935546875,1.3113330078125005,1.3271171502542938,-0.50048828125,-0.31103515625,0.9111328125,44.388823529411766,457.5272063097843
-0.1856474609375,0.1294208984375,1.3997119140625005,1.4178886384598115,-0.4736328125,-0.15380859375,1.13671875,44.57705882352941,457.6783245467159
-0.1426787109375,0.1528583984375,1.5178759765625005,1.5322109465583478,-0.36279296875,-0.10546875,1.61328125,44.34176470588236,457.6783245467159
-0.0918974609375,0.1958271484375,1.6082080078125005,1.6226911017763588,-0.24951171875,-0.3701171875,2.08544921875,44.53,457.6783245467159
-0.0479521484375,0.2466083984375,1.6863330078125005,1.7049440237021374,0.01025390625,-0.69873046875,2.3203125,44.48294117647059,457.6783245467159
0.0252900390625,0.2475849609375,1.8035205078125005,1.820610919735039,0.53515625,-0.66357421875,2.1826171875,44.57705882352941,457.6783245467159
0.1400361328125,0.1474873046875,1.8489306640625005,1.860082585276165,1.03466796875,-0.634765625,1.58349609375,44.29470588235294,457.7984195011844
0.3153291015625,0.0840107421875,1.7756884765625005,1.805425105866195,1.01171875,-0.837890625,0.6611328125,44.57705882352941,457.7984195011844
0.4652314453125,-0.2016337890625,1.6033251953125005,1.681590962310135,0.46337890625,-1.00830078125,-0.509765625,44.57705882352941,457.7984195011844
0.4706025390625,-0.2455791015625,1.4851611328125005,1.5771745101012842,-0.205078125,-1.107421875,-1.5537109375,44.53,457.7984195011844
0.4364228515625,-0.1615947265625,1.3460009765625005,1.424182709460397,-0.7646484375,-0.83984375,-2.23779296875,44.48294117647059,457.8197365899965
0.3089814453125,-0.1347392578125,1.2830126953125005,1.326554098963292,-0.755859375,-0.376953125,-2.16015625,44.53,457.8197365899965
0.3031220703125,-0.1303447265625,1.2415087890625005,1.2846076484953002,-0.6982421875,-0.0390625,-2.11376953125,44.57705882352941,457.8197365899965
0.2874970703125,-0.2240947265625,1.1868212890625005,1.2415384746689755,-0.4326171875,0.30908203125,-2.13525390625,44.57705882352941,457.8197365899965
0.3158173828125,-0.2822001953125,1.1179736328125005,1.1955093530311376,-0.45751953125,0.375,-1.92333984375,44.57705882352941,457.8197365899965
0.3436494140625,-0.2636455078125,1.0501025390625005,1.1359221875290229,-0.45166015625,0.68408203125,-1.80810546875,44.48294117647059,459.0526300363807
0.3089814453125,-0.2197001953125,0.9900439453125,1.0601531601696488,-0.40673828125,0.6630859375,-1.49951171875,44.71823529411765,459.0526300363807
0.2567353515625,-0.1488994140625,0.9910205078125,1.034507478539919,-0.37255859375,0.60107421875,-0.751953125,44.71823529411765,459.0526300363807
0.2044892578125,-0.0854228515625,1.0032275390625005,1.0274134587707018,-0.1982421875,0.60693359375,-0.13623046875,44.29470588235294,459.0526300363807
0.1463837890625,-0.0282939453125,0.9973681640625,1.0084503040443011,-0.037109375,0.63427734375,0.42138671875,44.48294117647059,459.1611268244965
0.1024384765625,0.0073505859375,1.0212939453125005,1.0264448330651008,0.14697265625,0.64501953125,0.84814453125,44.48294117647059,459.1611268244965
0.0599580078125,0.0185810546875,1.0374072265625005,1.0393045617230026,0.4208984375,0.623046875,1.18115234375,44.15352941176471,459.1611268244965
0.0350556640625,0.0005146484375,1.0168994140625005,1.0175036033186975,0.63427734375,0.52978515625,1.42822265625,44.53,459.1611268244965
0.0121064453125,-0.0155986328124999,0.9592822265625,0.9594854212349616,0.65478515625,0.34326171875,1.5185546875,44.48294117647059,459.1611268244965
-0.0015654296874999,-0.0146220703124999,0.9319384765625,0.9320544939047092,0.6396484375,0.20556640625,1.42431640625,44.48294117647059,458.77167337675576
-0.0162138671875,-0.0185283203125,0.8875048828125001,0.8878463296983358,0.6728515625,0.146484375,1.240234375,44.48294117647059,458.77167337675576
-0.0230498046875,-0.0356181640625,0.8245166015625001,0.8256073966235341,0.6962890625,0.1572265625,1.11181640625,44.57705882352941,458.77167337675576
-0.0152373046875,-0.0419658203125,0.7625048828125001,0.7638108416627413,0.65576171875,0.25341796875,1.0205078125,44.53,458.77167337675576
-0.0064482421875,-0.0439189453125,0.7043994140625001,0.7057967045235224,0.58544921875,0.38916015625,0.90380859375,44.20058823529412,458.273743709813
-0.0040068359375,-0.1552470703125,0.6668017578125001,0.6846475675825369,0.51513671875,0.58203125,0.70947265625,44.34176470588236,458.273743709813
0.0042939453125,-0.0234111328125,0.6340869140625001,0.6345334772029098,0.537109375,0.685546875,0.3818359375,44.48294117647059,458.273743709813
0.0184541015625,-0.0268291015625,0.6013720703125001,0.6022530377732208,0.5673828125,0.86083984375,0.06396484375,44.71823529411765,458.273743709813
0.0321259765625,-0.0478251953125,0.5608447265625001,0.5637961821347662,0.62158203125,1.0029296875,-0.08544921875,44.388823529411766,458.273743709813
0.0467744140625,-0.0492900390625,0.4959033203125,0.500537168308843,0.53271484375,1.0390625,-0.2900390625,44.388823529411766,458.55531656331664
0.0438447265625,-0.0566142578125,0.4856494140625,0.4909000790530087,0.3447265625,0.88330078125,-0.57861328125,44.48294117647059,458.55531656331664
0.0379853515625,-0.0619853515625,0.4832080078125,0.4886461394053764,0.27294921875,0.7939453125,-0.7802734375,44.15352941176471,458.55531656331664
0.0345673828125,-0.0673564453125,0.4856494140625,0.4915151554722309,0.1591796875,0.6162109375,-0.923828125,44.48294117647059,458.55531656331664
0.0301728515625,-0.0663798828125,0.5002978515625001,0.5055834551205837,0.01513671875,0.505859375,-0.9658203125,44.53,458.446824589925
0.0233369140625,-0.0863994140625,0.5183642578125001,0.5260332442781614,0.333984375,0.54248046875,-0.59619140625,44.53,458.446824589925
0.0340791015625,-0.0746806640625,0.5115283203125001,0.5180731697645139,0.32470703125,0.57861328125,-0.56884765625,44.57705882352941,458.446824589925
0.0111298828125,-0.0693095703125,0.5330126953125001,0.5376153124610751,0.2275390625,0.60205078125,-0.7109375,44.48294117647059,458.446824589925
-0.0084013671875,-0.0683330078125,0.5916064453125001,0.595599000219623,0.1533203125,0.67724609375,-0.82568359375,44.34176470588236,458.446824589925
-0.0469755859375,-0.0702861328125,0.6624072265625001,0.6677800385921483,0.126953125,0.8232421875,-0.845703125,44.34176470588236,458.0573966033136
-0.0850615234375,-0.1108134765625,0.6794970703125001,0.6937084098673209,0.36376953125,0.6689453125,-0.43603515625,44.388823529411766,458.0573966033136
-0.0894560546875,-0.1015361328125,0.7234423828125001,0.7359897100070072,0.275390625,0.5107421875,-0.25390625,44.48294117647059,458.0573966033136
-0.0948271484375,-0.0868876953125,0.7776416015625001,0.7882056331682714,0.29736328125,0.34912109375,-0.451171875,44.48294117647059,458.0573966033136
-0.1290068359375,-0.0947001953125,0.8127978515625001,0.8284028236404355,0.3837890625,0.2431640625,-0.53076171875,44.34176470588236,457.7648600504907
-0.1573271484375,-0.1327861328125,0.8377001953125001,0.86262715348485,0.41015625,0.21484375,-0.18359375,44.388823529411766,457.7648600504907
-0.1617216796875,-0.1371806640625,0.8855517578125001,0.9105901119814468,0.34912109375,0.2158203125,0.24658203125,44.48294117647059,457.7648600504907
-0.1807646484375,-0.1220439453125,0.9519580078125,0.976624099308694,0.32080078125,0.3134765625,0.310546875,44.48294117647059,457.7648600504907
-0.1861357421875,-0.1147197265625,1.0286181640625005,1.0515999513225431,0.40087890625,0.52880859375,0.18505859375,44.20058823529412,457.7648600504907
-0.1758818359375,-0.1083720703125,1.0925830078125005,1.1119426940257189,0.478515625,0.7646484375,0.02490234375,44.57705882352941,457.67895833164624
-0.1475615234375,-0.0981181640625,1.1565478515625005,1.1700446616569928,0.552734375,0.96875,-0.19384765625,44.57705882352941,457.67895833164624
-0.1490263671875,-0.0859111328125,1.2136767578125005,1.225806205447049,0.6240234375,1.087890625,-0.427734375,44.57705882352941,457.67895833164624
-0.1602568359375,-0.0663798828125,1.2600634765625005,1.2719467391654709,0.724609375,1.06884765625,-0.6982421875,44.388823529411766,457.67895833164624
-0.2339873046875,-0.0966533203125,1.2493212890625005,1.274713931196776,0.86328125,1.03125,-0.58642578125,44.48294117647059,457.5278410156471
-0.2603544921875,-0.0854228515625,1.2346728515625005,1.264712843121614,0.828125,1.1220703125,-0.54248046875,44.34176470588236,457.5278410156471
-0.2798857421875,-0.0937236328125,1.2180712890625005,1.2533227091478878,0.88232421875,1.27880859375,-0.34716796875,44.388823529411766,457.5278410156471
-0.2798857421875,-0.0922587890625,1.2102587890625005,1.2456219528180117,0.8642578125,1.53857421875,-0.0390625,44.15352941176471,457.5278410156471
-0.2984404296875,-0.0981181640625,1.2625048828125005,1.3010043978851342,0.88330078125,1.8701171875,0.01904296875,44.67117647058824,457.5278410156471
-0.3184599609375,-0.1132548828125,1.3650439453125005,1.4062675377877083,0.7548828125,2.06005859375,0.09619140625,44.15352941176471,457.051918561336
-0.2466826171875,-0.1513408203125,1.5110400390625005,1.5385052346889618,0.6142578125,1.908203125,0.2841796875,44.388823529411766,457.051918561336
-0.0425810546875,-0.2016337890625,1.6179736328125005,1.6310450660807876,0.36669921875,1.40087890625,-0.17626953125,44.53,457.051918561336
0.1253876953125,-0.1952861328125,1.6331103515625005,1.649517556191881,-0.02783203125,1.0078125,-1.1630859375,44.29470588235294,457.051918561336
0.1942353515625,-0.1362041015625,1.5632861328125005,1.5811838799212816,-0.44580078125,0.69091796875,-1.8056640625,44.48294117647059,457.00801684609104
0.1810517578125,-0.0146220703124999,1.5188525390625005,1.529675318282878,-0.6298828125,0.47802734375,-1.39892578125,44.67117647058824,457.00801684609104
0.2381806640625,0.1025654296875,1.5242236328125005,1.546126572737294,-0.595703125,0.296875,-0.30126953125,44.48294117647059,457.00801684609104
0.3329072265625,0.2011982421875,1.5105517578125005,1.5598315829560927,-0.41748046875,0.04833984375,0.7548828125,44.53,457.00801684609104
0.3905244140625,0.2544208984375,1.4324267578125005,1.506348474967806,0.02783203125,-0.32666015625,1.72998046875,44.48294117647059,457.00801684609104
0.3832001953125,0.2939716796875,1.3044970703125005,1.391033552650591,0.28955078125,-0.61669921875,1.7802734375,44.388823529411766,457.9812019158058
0.2577119140625,0.2593037109375,1.1887744140625005,1.2437196037231852,0.60888671875,-0.798828125,1.96240234375,44.53,457.9812019158058
0.1454072265625,0.2085224609375,1.0627978515625005,1.092778180390648,0.54150390625,-0.583984375,1.94384765625,44.388823529411766,457.9812019158058
0.0663056640625,0.1640888671875,1.0276416015625005,1.042769801386474,0.50390625,-0.10595703125,1.75341796875,44.388823529411766,457.9812019158058
0.0453095703125,0.1548115234375,1.0227587890625005,1.0354009395183756,0.59326171875,0.25732421875,1.5849609375,44.20058823529412,458.8575888917792
0.0623994140625,0.1391865234375,1.0022509765625005,1.013791692214158,0.6025390625,0.50927734375,1.3134765625,44.29470588235294,458.8575888917792
0.0682587890625,0.1045185546875,1.0212939453125005,1.0288948990495652,0.5771484375,0.76318359375,0.94140625,44.34176470588236,458.8575888917792
0.0609345703125,0.0527607421875,1.0266650390625005,1.029824169559323,0.56689453125,1.0390625,0.6201171875,44.53,458.8575888917792
0.0492158203125,-0.0170634765625,1.0178759765625005,1.0192079585955434,0.52880859375,1.21630859375,0.076171875,44.57705882352941,458.8575888917792
0.0511689453125,-0.0790751953125,0.9832080078125,0.9877090331189288,0.3779296875,1.197265625,0.02490234375,44.48294117647059,458.9228116545411
0.0296845703125,-0.1239970703125,0.9622119140625,0.970622591291044,0.26708984375,1.05078125,0.369140625,44.29470588235294,458.9228116545411
0.0189423828125,-0.1298564453125,0.9534228515625,0.9624118890253708,0.18359375,0.86572265625,0.83740234375,44.48294117647059,458.9228116545411
0.0165009765625,-0.1108134765625,0.8884814453125001,0.8955172736915648,0.1669921875,0.63134765625,1.228515625,44.48294117647059,458.9228116545411
0.0467744140625,-0.0654033203125,0.8098681640625001,0.8138500373414959,-0.00341796875,0.27880859375,1.03125,44.15352941176471,458.5546867120674
0.0584931640625,-0.0019267578124999,0.8230517578125001,0.825129904121743,-0.3876953125,-0.02099609375,0.244140625,44.34176470588236,458.5546867120674
0.0550751953125,-0.0224345703125,0.7800830078125001,0.7823465256276234,-0.1953125,-0.2373046875,-0.15869140625,44.20058823529412,458.5546867120674
0.0204072265625,-0.0424541015625,0.7122119140625001,0.713767900768886,-0.18896484375,-0.2900390625,-0.1005859375,44.53,458.5546867120674
0.0438447265625,0.0053974609375,0.7053759765625001,0.7067579224482827,-0.396484375,-0.2001953125,-0.625,44.34176470588236,458.5546867120674
-0.0201201171875,-0.0038798828124999,0.7092822265625001,0.7095781489897608,-0.40380859375,-0.08056640625,-0.9287109375,44.34176470588236,458.2517932302316
-0.0577177734375,-0.0165751953125,0.6668017578125001,0.6695003082090927,-0.44140625,-0.05078125,-0.755859375,44.48294117647059,458.2517932302316
-0.0699248046875,-0.0131572265624999,0.6506884765625001,0.654567096982906,-0.45458984375,0.142578125,-0.326171875,44.29470588235294,458.2517932302316
-0.0582060546875,-0.0107158203124999,0.6492236328125001,0.6519157146514525,-0.42041015625,0.21630859375,0.09619140625,44.48294117647059,458.2517932302316
-0.0616240234375,0.0024677734375,0.6311572265625001,0.6341632714155175,-0.3876953125,0.20751953125,0.38623046875,44.29470588235294,458.3066695332004
-0.0718779296875,0.0078388671875,0.6272509765625001,0.631404523434505,-0.3232421875,0.1826171875,0.74755859375,44.388823529411766,458.3066695332004
-0.0787138671875,0.0200458984375,0.6311572265625001,0.6363624404172868,-0.2666015625,0.16552734375,1.0849609375,44.48294117647059,458.3066695332004
-0.0782255859375,0.0302998046875,0.6423876953125001,0.6478420112560401,-0.24365234375,0.20263671875,1.23046875,44.34176470588236,458.3066695332004
-0.0738310546875,0.0254169921875,0.6399462890625001,0.6446924080621649,-0.22802734375,0.197265625,1.36279296875,44.48294117647059,458.3066695332004
-0.0635771484375,0.0244404296875,0.6604541015625001,0.6639570834605824,-0.20654296875,0.15283203125,1.421875,44.48294117647059,458.1116409524685
-0.0728544921875,0.0293232421875,0.6931689453125001,0.6976036240659369,-0.1708984375,0.14892578125,1.4912109375,44.53,458.1116409524685
-0.0713896484375,0.0376240234375,0.7366259765625001,0.7410329806360256,-0.17578125,0.173828125,1.5947265625,44.388823529411766,458.1116409524685
-0.0772490234375,0.0425068359375,0.7825244140625001,0.7874761592120259,-0.15478515625,0.12255859375,1.71630859375,44.388823529411766,458.1116409524685
-0.0879912109375,0.0517841796875,0.8386767578125001,0.8448684859568628,-0.17333984375,0.05126953125,1.8818359375,44.48294117647059,457.9812019158058
-0.1070341796875,0.0659443359375,0.8923876953125001,0.9011996281672388,-0.15625,-0.04736328125,1.99658203125,44.388823529411766,457.9812019158058
-0.1148466796875,0.0703388671875,0.9363330078125,0.945968719140156,-0.16015625,-0.2197265625,2.02392578125,44.57705882352941,457.9812019158058
-0.1304716796875,0.0586201171875,0.9578173828125,0.968438596998974,-0.15625,-0.36865234375,1.916015625,44.20058823529412,457.9812019158058
-0.1392607421875,0.0517841796875,0.9636767578125,0.97506310007534,-0.23291015625,-0.44482421875,1.87353515625,44.48294117647059,457.9812019158058
-0.1490263671875,0.0478779296875,0.9636767578125,0.9763063288826292,-0.37841796875,-0.458984375,1.458984375,44.76529411764706,458.1542786027961
-0.1695341796875,0.0449482421875,0.9690478515625,0.9847923238815162,-0.56201171875,-0.447265625,1.24853515625,44.29470588235294,458.1542786027961
-0.1988310546875,0.0635029296875,1.0198291015625005,1.0409696473869043,-0.70458984375,-0.3779296875,0.85888671875,44.48294117647059,458.1542786027961
-0.1773466796875,0.0766865234375,1.0374072265625005,1.0552470902102549,-0.8271484375,-0.32177734375,0.67138671875,44.388823529411766,458.1542786027961
-0.1363310546875,0.0947529296875,1.0681689453125005,1.080994528148311,-0.8994140625,-0.38134765625,0.43994140625,44.53,457.9921771681649
-0.1133818359375,0.1123310546875,1.0935595703125005,1.105145348083149,-0.89794921875,-0.46240234375,0.02587890625,44.48294117647059,457.9921771681649
-0.1373076171875,0.1103779296875,1.1077197265625005,1.1216415032065763,-0.9677734375,-0.5927734375,-0.28759765625,44.53,457.9921771681649
-0.1749052734375,0.1235615234375,1.1487353515625005,1.1685256576900072,-0.8916015625,-0.51513671875,-0.3447265625,44.53,457.9921771681649
-0.1900419921875,0.1225849609375,1.1653369140625005,1.187077568956365,-0.759765625,-0.34814453125,-0.2958984375,44.29470588235294,457.9921771681649
-0.2110380859375,0.0962177734375,1.1570361328125005,1.1800540437942406,-0.68408203125,-0.20458984375,-0.3583984375,44.57705882352941,457.8630045802902
-0.2789091796875,0.0473896484375,1.1770556640625005,1.210576782197064,-0.68505859375,0.0498046875,-0.3896484375,44.67117647058824,457.8630045802902
-0.2798857421875,0.0122333984375,1.1921923828125005,1.2246666331509672,-0.74853515625,0.3134765625,-0.34375,44.48294117647059,457.8630045802902
-0.2613310546875,-0.0116923828124999,1.1829150390625005,1.2114943753894,-0.8330078125,0.5673828125,-0.3876953125,44.34176470588236,457.8630045802902
-0.3165068359375,-0.0580791015625,1.2009814453125005,1.2433447595974243,-0.99853515625,0.81689453125,-0.32666015625,44.34176470588236,457.58144858763086
-0.4253935546875,-0.0722392578125,1.2385791015625005,1.3115854442491874,-1.2919921875,1.1611328125,0.01806640625,44.48294117647059,457.58144858763086
-0.4639677734375,-0.0746806640625,1.3694384765625005,1.4478276960547445,-1.4287109375,1.63720703125,0.69482421875,44.67117647058824,457.58144858763086
-0.4141630859375,-0.0961650390625,1.5027392578125005,1.5617311079254423,-1.37646484375,2.12158203125,1.59912109375,44.57705882352941,457.58144858763086
-0.2618193359375,-0.0844462890625,1.6516650390625005,1.6744186876849263,-1.1796875,2.1923828125,2.55859375,44.29470588235294,457.58144858763086
0.0008759765625,0.0058857421875,1.7034228515625005,1.7034332451027705,-0.90625,1.873046875,3.099609375,44.53,457.0732324774928
0.1610322265625,0.0742451171875,1.4597705078125005,1.4705011563739168,-0.701171875,1.552734375,2.54150390625,44.20058823529412,457.0732324774928
0.2376923828125,0.0405537109375,1.4485400390625005,1.4684721710284727,-0.74951171875,1.5546875,1.5361328125,44.29470588235294,457.0732324774928
0.6224580078125,-0.1176494140625,1.4089892578125005,1.544845003471279,-0.36865234375,1.27294921875,-0.423828125,44.34176470588236,457.0732324774928
0.4945283203125,-0.0702861328125,1.1604541015625005,1.263389141116097,-0.71484375,0.541015625,-0.58154296875,44.34176470588236,458.3286201514672
0.4427705078125,-0.0351298828125,1.1169970703125005,1.2020658411009224,-0.80419921875,0.50390625,-0.32177734375,44.48294117647059,458.3286201514672
0.3353486328125,-0.0937236328125,1.0813525390625005,1.136030870449259,-0.4833984375,0.52783203125,-0.17236328125,44.34176470588236,458.3286201514672
0.4300751953125,-0.2226298828125,1.0129931640625005,1.122801802982854,-0.572265625,0.5078125,-0.5458984375,44.34176470588236,458.3286201514672
0.5047822265625,-0.3261455078125,0.9876025390625,1.156085967254324,-0.73681640625,-0.1484375,-2.19189453125,44.34176470588236,458.3286201514672
0.5863251953125,-0.3588603515625,1.0129931640625005,1.2242193990536003,-0.9111328125,-1.125,-3.4755859375,44.34176470588236,459.3025499564648
0.3021455078125,-0.3324931640625,1.0017626953125005,1.097894398273045,-0.78564453125,-2.6728515625,-2.43505859375,44.53,459.3025499564648
0.0399384765625,-0.2719462890625,0.9929736328125,1.0303137878849589,-0.50244140625,-5.1435546875,0.0810546875,44.388823529411766,459.3025499564648
-0.1343779296875,-0.1947978515625,1.0554736328125005,1.081678427501853,-0.140625,-7.85791015625,2.66357421875,44.53,459.3025499564648
-0.1968779296875,-0.0785869140625,1.1140673828125005,1.1340559755614346,0.056640625,-8.97900390625,3.92578125,44.53,459.1830771925708
-0.1631865234375,0.0307880859375,1.3381884765625005,1.3484532422268034,0.15673828125,-6.7421875,3.3515625,44.48294117647059,459.1830771925708
-0.0005888671874999,0.0923115234375,1.2747119140625005,1.2780501664554484,-0.517578125,-2.41357421875,1.98388671875,44.48294117647059,459.1830771925708
0.1180634765625,0.2427021484375,1.4744189453125005,1.498917790824643,-0.68603515625,1.5009765625,1.0546875,44.57705882352941,459.1830771925708
0.2791962890625,0.1933857421875,1.1272509765625005,1.1773034346627855,1.00634765625,1.82470703125,0.78125,44.34176470588236,459.1830771925708
0.2479462890625,0.0840107421875,0.8938525390625001,0.9314008420928326,1.22412109375,0.9931640625,0.92138671875,44.29470588235294,458.8801677906522
0.1878876953125,0.0639912109375,0.8333056640625001,0.8566183461062078,1.177734375,0.0419921875,0.9814453125,44.29470588235294,458.8801677906522
0.1122041015625,0.0527607421875,0.8191455078125001,0.8284762032146863,1.1669921875,-0.14111328125,0.7861328125,44.53,458.8801677906522
0.0794892578125,0.0366474609375,0.7776416015625001,0.7825522595849033,1.1474609375,-0.05224609375,0.36962890625,44.388823529411766,458.8801677906522
0.0667939453125,0.0141865234375,0.7249072265625001,0.7281161828308637,1.08837890625,0.00341796875,-0.01953125,44.48294117647059,458.5546867120674
0.0457978515625,-0.0146220703124999,0.6829150390625001,0.6846051407385869,0.96142578125,0.1201171875,-0.32958984375,44.29470588235294,458.5546867120674
0.0228486328125,-0.0341533203125,0.6350634765625001,0.6363914900227828,0.6669921875,0.359375,-0.78173828125,44.53,458.5546867120674
0.0033173828125,-0.0448955078125,0.6350634765625001,0.6366570748166677,0.3916015625,0.54833984375,-1.23388671875,44.29470588235294,458.5546867120674
-0.0079130859375,-0.0639384765625,0.6057666015625001,0.6091829949061024,0.05322265625,0.9189453125,-1.59228515625,44.48294117647059,458.5546867120674
0.0047822265625,-0.0717509765625,0.5984423828125001,0.6027473416572406,-0.2099609375,1.1953125,-1.95361328125,44.20058823529412,458.273743709813
0.0057587890625,-0.0873759765625,0.6101611328125001,0.6164124698014717,-0.37109375,1.427734375,-2.15625,44.53,458.273743709813
-0.0005888671874999,-0.1034892578125,0.6057666015625001,0.6145433660985425,-0.33349609375,1.3525390625,-1.99658203125,44.388823529411766,458.273743709813
-0.0005888671874999,-0.1147197265625,0.6086962890625001,0.6194127337612603,-0.31787109375,1.064453125,-1.37841796875,44.67117647058824,458.273743709813
0.0189423828125,-0.1171611328125,0.6296923828125001,0.6407792458254307,-0.240234375,0.58837890625,-0.94287109375,44.67117647058824,458.0683718917152
0.0350556640625,-0.0981181640625,0.6428759765625001,0.6512646120764176,-0.2490234375,-0.0361328125,-0.7900390625,44.34176470588236,458.0683718917152
0.0169892578125,-0.0561259765625,0.6790087890625001,0.6815362761806862,-0.173828125,-0.59228515625,-0.78857421875,44.29470588235294,458.0683718917152
0.0047822265625,-0.0463603515625,0.6946337890625001,0.6961955564316821,-0.1767578125,-1.0888671875,-0.865234375,44.48294117647059,458.0683718917152
-0.0225615234375,-0.0390361328125,0.7234423828125001,0.7248459996814524,-0.26904296875,-1.35791015625,-0.921875,44.29470588235294,458.0683718917152
-0.0362333984375,-0.0258525390625,0.7576220703125001,0.7589284645886643,-0.33837890625,-1.396484375,-1.0302734375,44.48294117647059,457.8630045802902
-0.0518583984375,-0.0126689453124999,0.7893603515625001,0.7911634219822775,-0.419921875,-0.9541015625,-1.06298828125,44.48294117647059,457.8630045802902
-0.0289091796875,-0.0414775390625,0.8806689453125001,0.882118993194635,-0.47021484375,-0.43408203125,-1.1923828125,44.53,457.8630045802902
-0.0660185546875,-0.0756572265625,0.8831103515625001,0.8888005167252089,-0.3671875,-0.44775390625,-1.525390625,44.29470588235294,457.8630045802902
-0.1319365234375,-0.1152080078125,0.8923876953125001,0.9094151582341558,-0.5185546875,-0.3349609375,-1.76904296875,44.57705882352941,457.592423937207
-0.1465849609375,-0.1215556640625,0.9285205078125,0.9478466456484966,-0.43896484375,-0.3837890625,-1.75244140625,44.53,457.592423937207
-0.1202177734375,-0.1176494140625,0.9563525390625,0.9710323767263428,-0.4814453125,-0.279296875,-1.5341796875,44.34176470588236,457.592423937207
-0.1031279296875,-0.1186259765625,0.9968798828125,1.0091962113252808,-0.34716796875,-0.1142578125,-1.27001953125,44.15352941176471,457.592423937207
-0.1202177734375,-0.1186259765625,1.0286181640625005,1.0423913673879814,-0.2353515625,0.033203125,-0.96435546875,44.20058823529412,457.592423937207
-0.0948271484375,-0.0981181640625,1.1150439453125005,1.12336207973113,-0.0498046875,0.33935546875,-0.6669921875,44.29470588235294,458.00315243438615
-0.0518583984375,-0.0844462890625,1.1707080078125005,1.1748947649816317,0.291015625,0.48974609375,-0.48681640625,44.67117647058824,458.00315243438615
-0.0489287109375,-0.1030009765625,1.1858447265625005,1.1913147927575336,0.47900390625,0.69384765625,-0.63818359375,43.54176470588236,458.00315243438615
-0.0762724609375,-0.1503642578125,1.2087939453125005,1.220495678218127,0.5595703125,0.68408203125,-0.8857421875,44.48294117647059,458.00315243438615
-0.0840849609375,-0.1811259765625,1.2712939453125005,1.286881966393889,0.5927734375,0.61767578125,-1.02392578125,44.29470588235294,458.30603842242925
-0.0333037109375,-0.1889384765625,1.3215869140625005,1.3354395742635492,0.59326171875,0.658203125,-1.2373046875,44.29470588235294,458.30603842242925
-0.0157255859375,-0.1913798828125,1.3572314453125005,1.3707482444794383,0.61865234375,0.66552734375,-1.55078125,44.57705882352941,458.30603842242925
-0.0284208984375,-0.1938212890625,1.3958056640625005,1.4094849738080932,0.6181640625,0.603515625,-1.7958984375,44.34176470588236,458.30603842242925
-0.0088896484375,-0.1586650390625,1.4456103515625005,1.4543187095732155,0.4892578125,0.59375,-1.90478515625,44.34176470588236,458.30603842242925
0.0335908203125,-0.1156962890625,1.6038134765625005,1.608331944007702,0.24609375,0.3837890625,-2.1162109375,44.48294117647059,457.5272063097843
0.0780244140625,-0.0531962890625,1.7752001953125005,1.7777101529207051,0.03369140625,0.45654296875,-2.46240234375,44.34176470588236,457.5272063097843
0.1883759765625,-0.0297587890625,1.7971728515625005,1.8072634983492668,-0.06884765625,0.48095703125,-2.9111328125,44.34176470588236,457.5272063097843
0.3065400390625,-0.0492900390625,1.7092822265625005,1.7372512868153762,0.01513671875,0.1875,-3.1689453125,44.53,457.5272063097843
0.3807587890625,-0.1142314453125,1.5593798828125005,1.6092519061560409,0.04248046875,-0.220703125,-2.60302734375,44.48294117647059,457.2462934580682
0.4413056640625,-0.0912822265625,1.4065478515625005,1.4769766392042012,0.015625,-0.5341796875,-1.7646484375,44.34176470588236,457.2462934580682
0.4808564453125,-0.0160869140625,1.2932666015625005,1.3798623889792947,0.1708984375,-0.88037109375,-0.7529296875,44.48294117647059,457.2462934580682
0.5296845703125,0.0903583984375,1.1868212890625005,1.3027951321552067,0.44921875,-1.62060546875,0.10791015625,44.15352941176471,457.2462934580682
0.5365205078125,0.2114521484375,1.0974658203125005,1.2397570298798095,0.75390625,-2.2783203125,0.7041015625,44.29470588235294,457.2462934580682
0.4437470703125,0.2734638671875,1.0325244140625005,1.1566333103897617,1.0771484375,-2.197265625,0.69287109375,44.53,458.6418587561616
0.3080048828125,0.2436787109375,0.9939501953125,1.0687297660130275,1.03515625,-1.02978515625,-0.0947265625,44.29470588235294,458.6418587561616
0.1786103515625,0.1372333984375,1.0002978515625005,1.025344066727135,0.794921875,0.30224609375,-1.22021484375,44.57705882352941,458.6418587561616
0.0721650390625,0.0478779296875,1.0559619140625005,1.0595072689531642,0.70263671875,1.1005859375,-1.6279296875,44.48294117647059,458.6418587561616
0.0506806640625,0.0229755859375,1.0461962890625005,1.0476750844165066,0.85400390625,1.73486328125,-1.7001953125,44.67117647058824,458.5223908816399
0.0775361328125,0.0117451171875,1.0007861328125005,1.0038539153178938,0.95751953125,2.18212890625,-1.90283203125,44.34176470588236,458.5223908816399
0.1009736328125,0.0132099609375,0.9387744140625,0.944281514215816,0.95849609375,2.52685546875,-2.18017578125,44.1064705882353,458.5223908816399
0.1175751953125,-0.0185283203125,0.9216845703125,0.9293382981231932,0.8037109375,2.73681640625,-2.2978515625,44.67117647058824,458.5223908816399
0.1947236328125,-0.0610087890625,0.8997119140625001,0.9225621354817124,0.73876953125,2.2587890625,-2.28857421875,44.20058823529412,458.5223908816399
0.2381806640625,-0.1298564453125,0.8860400390625001,0.9266389134632368,0.6083984375,1.48779296875,-1.9013671875,44.059411764705885,458.9770594425753
0.1624970703125,-0.1996806640625,0.9280322265625,0.9630791654890776,0.58056640625,0.88818359375,-1.12158203125,44.53,458.9770594425753
0.1864228515625,-0.1078837890625,0.8279345703125001,0.8554928662740093,0.44091796875,0.59912109375,-0.630859375,44.48294117647059,458.9770594425753
0.1566376953125,-0.1235087890625,0.7654345703125001,0.7909992857126853,0.72021484375,0.81005859375,0.12890625,44.48294117647059,458.9770594425753
0.1502900390625,-0.0868876953125,0.7376025390625001,0.7577559455851024,0.2138671875,0.3837890625,-0.41748046875,44.34176470588236,458.29506319513314
0.1468720703125,-0.0434306640625,0.7224658203125001,0.7385218271240216,-0.23291015625,-0.21337890625,-1.45751953125,44.388823529411766,458.29506319513314
0.0755830078125,-0.0644267578125,0.7600634765625001,0.7665246810093521,-0.5849609375,-0.59130859375,-2.169921875,44.29470588235294,458.29506319513314
0.0272431640625,-0.0878642578125,0.8064501953125001,0.8116798847505384,-0.5400390625,-0.53271484375,-2.03466796875,44.48294117647059,458.29506319513314
0.0140595703125,-0.1078837890625,0.7571337890625001,0.7649105555553489,-0.2275390625,-0.54833984375,-1.30322265625,44.57705882352941,458.29506319513314
0.0594697265625,-0.0790751953125,0.7595751953125001,0.765992175041724,-0.20263671875,-0.3701171875,-0.96630859375,44.57705882352941,458.348678092124
0.0550751953125,-0.0488017578125,0.7532275390625001,0.7568134607064346,-0.197265625,-0.30908203125,-1.29150390625,44.34176470588236,458.348678092124
0.0106416015625,-0.0380595703125,0.7214892578125001,0.7225707741910264,-0.001953125,-0.19189453125,-1.18408203125,44.29470588235294,458.348678092124
0.1136689453125,-0.0151103515624999,0.6912158203125001,0.7006627306365601,-0.0087890625,-0.0771484375,-1.2197265625,44.53,458.348678092124
-0.0411162109375,0.0127216796875,0.6960986328125001,0.6974279106397736,0.18798828125,0.3984375,-0.98974609375,44.53,458.33770293142334
-0.0635771484375,0.0088154296875,0.6780322265625001,0.6810634815208643,0.32080078125,0.8876953125,-0.66064453125,44.57705882352941,458.33770293142334
-0.0674833984375,0.0205341796875,0.6853564453125001,0.6889768637127801,0.31982421875,1.69091796875,-0.494140625,44.388823529411766,458.33770293142334
-0.0816435546875,0.0268818359375,0.6863330078125001,0.6916945140293761,0.3037109375,2.3564453125,-0.45849609375,44.57705882352941,458.33770293142334
-0.0713896484375,0.0444599609375,0.6907275390625001,0.6958287887475851,0.35693359375,2.654296875,-0.2158203125,44.29470588235294,458.33770293142334
-0.0518583984375,0.0420185546875,0.6423876953125001,0.645845804751749,0.49658203125,2.2294921875,-0.21044921875,44.53,457.70935122123296
-0.0337919921875,0.0493427734375,0.6921923828125001,0.6947711154402946,0.1591796875,1.82666015625,-0.17919921875,44.57705882352941,457.70935122123296
-0.0362333984375,0.0273701171875,0.7317431640625001,0.733150762551187,0.2392578125,1.08642578125,0.0068359375,44.48294117647059,457.70935122123296
-0.0328154296875,0.0259052734375,0.7820361328125001,0.7831528896976485,0.22509765625,0.61474609375,0.44140625,44.29470588235294,457.70935122123296
-0.0376982421875,0.0273701171875,0.8591845703125001,0.860446632070787,0.17626953125,0.146484375,0.6328125,44.53,457.8513962641717
-0.0542998046875,0.0337177734375,0.9153369140625,0.9175658141409496,0.291015625,-0.0439453125,0.8359375,44.29470588235294,457.8513962641717
-0.0792021484375,0.0195576171875,0.9446337890625,0.9481500282896924,0.43505859375,-0.177734375,1.03955078125,44.48294117647059,457.8513962641717
-0.0958037109375,2.6367187500001e-05,0.9592822265625,0.9640543251930008,0.42236328125,-0.2529296875,1.126953125,44.53,457.8513962641717
-0.1070341796875,-0.0170634765625,0.9851611328125,0.9911054108712068,0.3427734375,-0.27099609375,1.1083984375,44.34176470588236,457.8513962641717
-0.0962919921875,-0.0136455078124999,1.0461962890625005,1.0507069157910047,0.140625,-0.2197265625,0.95068359375,44.34176470588236,457.6453987560654
-0.0948271484375,-0.0126689453124999,1.1243212890625005,1.1283842657956913,-0.02197265625,-0.255859375,0.833984375,44.48294117647059,457.6453987560654
-0.0655302734375,0.0068623046875,1.1711962890625005,1.1730481897501863,-0.10400390625,-0.31591796875,0.7900390625,44.57705882352941,457.6453987560654
-0.0430693359375,0.0312763671875,1.1663134765625005,1.167527431992007,-0.14208984375,-0.15966796875,0.7509765625,44.53,457.6453987560654
-0.0401396484375,0.0459248046875,1.1506884765625005,1.1523038875036389,-0.12548828125,-0.04736328125,0.55224609375,44.48294117647059,458.2511624246293
-0.0513701171875,0.0508076171875,1.1951220703125005,1.1973040824503047,-0.41552734375,0.05615234375,0.38671875,44.53,458.2511624246293
-0.0879912109375,0.0639912109375,1.1985400390625005,1.203468135646073,-0.5302734375,0.1875,0.267578125,44.53,458.2511624246293
-0.1094755859375,0.0552021484375,1.2195361328125005,1.2256837113806087,-0.59375,0.22412109375,0.13818359375,44.15352941176471,458.2511624246293
-0.1509794921875,0.0395771484375,1.2346728515625005,1.2444991796401936,-0.6181640625,0.3173828125,-0.00927734375,44.53,458.2511624246293
-0.1861357421875,0.0058857421875,1.2405322265625005,1.2544326851692376,-0.66943359375,0.51611328125,-0.08837890625,44.53,457.9373010450596
-0.1890654296875,-0.0385478515625,1.2546923828125005,1.2694426529192695,-0.74951171875,0.80126953125,-0.13134765625,44.57705882352941,457.9373010450596
-0.1802763671875,-0.0605205078125,1.2932666015625005,1.307172828339552,-0.92236328125,0.98486328125,-0.044921875,44.53,457.9373010450596
-0.1709990234375,-0.0614970703125,1.3713916015625005,1.3833790082655435,-0.9541015625,1.06494140625,0.28955078125,44.48294117647059,457.9373010450596
-0.1753935546875,-0.1576884765625,1.4363330078125005,1.455568982906074,-0.83837890625,0.84619140625,0.78125,44.20058823529412,457.6027650552536
-0.1959013671875,0.0298115234375,1.4226611328125005,1.4363950610507343,-0.61279296875,0.59326171875,1.23779296875,44.53,457.6027650552536
-0.1866240234375,0.0942646484375,1.4280322265625005,1.443256869088139,-0.36376953125,0.62353515625,1.3349609375,44.57705882352941,457.6027650552536
-0.0958037109375,0.0898701171875,1.4993212890625005,1.5050645557014253,-0.23046875,0.646484375,1.26220703125,44.34176470588236,457.6027650552536
0.0086884765625,0.0537373046875,1.6028369140625005,1.603761004832532,-0.18115234375,0.3115234375,0.994140625,44.29470588235294,457.6027650552536
0.3827119140625,0.0078388671875,1.5584033203125005,1.6047276297755926,-0.16015625,-0.30859375,0.39453125,44.388823529411766,457.5052556688452
0.4671845703125,-0.0234111328125,1.3738330078125005,1.451284478395873,-0.15673828125,-0.44287109375,-0.39404296875,44.71823529411765,457.5052556688452
0.4715791015625,-0.0468486328125,1.2268603515625005,1.3152064346188992,-0.46435546875,-0.19580078125,-0.890625,44.34176470588236,457.5052556688452
0.5072236328125,-0.0541728515625,1.1780322265625005,1.2837330089819006,-0.6298828125,0.0498046875,-1.44775390625,44.48294117647059,457.5052556688452
0.5540986328125,-0.0961650390625,1.1082080078125005,1.2427381052346969,-0.73193359375,0.19140625,-2.13916015625,44.20058823529412,458.196917273964
0.5658173828125,-0.1708720703125,1.0144580078125005,1.1740833125126062,-0.7509765625,0.25048828125,-3.134765625,44.29470588235294,458.196917273964
0.4789033203125,-0.2197001953125,0.9529345703125,1.088898921536502,-1.0693359375,0.11767578125,-3.490234375,44.29470588235294,458.196917273964
0.3363251953125,-0.2382548828125,0.9490283203125,1.034666506146379,-1.1689453125,-0.01123046875,-3.24072265625,44.29470588235294,458.196917273964
0.1864228515625,-0.2572978515625,0.9602587890625,1.0114606299679445,-1.0869140625,-0.10009765625,-2.18359375,44.48294117647059,458.196917273964
0.0838837890625,-0.2519267578125,0.9675830078125,1.003354602509444,-0.91162109375,-0.0234375,-1.017578125,44.29470588235294,459.4091695203842
-0.0001005859374999,-0.2455791015625,1.0051806640625005,1.0347450278435286,-0.49560546875,0.55615234375,0.60302734375,44.53,459.4091695203842
0.0482392578125,-0.1864970703125,0.9919970703125,1.0105277684151135,-0.02099609375,0.9267578125,1.63720703125,44.20058823529412,459.4091695203842
0.0873017578125,-0.1088603515625,0.9710009765625,0.9809765897027268,0.10107421875,1.30859375,2.107421875,44.48294117647059,459.4091695203842
0.1278291015625,-0.0375712890625,0.9236376953125,0.933197981765006,0.201171875,1.291015625,2.00732421875,44.48294117647059,459.0526300363807
0.1229462890625,-0.0053447265624999,0.9265673828125,0.9347039483110542,0.28662109375,1.11669921875,2.02392578125,44.48294117647059,459.0526300363807
0.0814423828125,0.0102802734375,0.9397509765625,0.9433294459998056,0.41357421875,0.8974609375,2.26220703125,44.34176470588236,459.0526300363807
0.0658173828125,0.0224873046875,0.9114306640625,0.9140806650103728,0.7099609375,0.705078125,2.5693359375,44.57705882352941,459.0526300363807
0.0580048828125,0.0146748046875,0.8616259765625001,0.8637008971918404,0.81787109375,0.5966796875,2.5419921875,44.48294117647059,459.0526300363807
0.0575166015625,-0.0029033203124999,0.8362353515625001,0.8382160532505891,0.8154296875,0.59521484375,2.3251953125,44.29470588235294,458.5546867120674
0.0638642578125,-0.0170634765625,0.8069384765625001,0.8096415939261945,0.77197265625,0.4736328125,2.134765625,44.57705882352941,458.5546867120674
0.0619111328125,-0.0199931640625,0.7888720703125001,0.7915502879125793,0.7294921875,0.388671875,1.92626953125,44.57705882352941,458.5546867120674
0.0643525390625,-0.0243876953125,0.7708056640625001,0.773871682333239,0.681640625,0.39111328125,1.67431640625,44.57705882352941,458.5546867120674
0.0521455078125,-0.0287822265625,0.7502978515625001,0.7526582468891322,0.6669921875,0.419921875,1.3583984375,44.53,458.4894653247766
0.0223603515625,-0.0409892578125,0.7273486328125001,0.728845757504447,0.5908203125,0.58056640625,1.0546875,44.34176470588236,458.4894653247766
0.0116181640625,-0.0527080078125,0.8372119140625001,0.8389498822170134,0.49951171875,0.79541015625,0.69970703125,44.53,458.4894653247766
0.0057587890625,-0.0697978515625,0.6956103515625001,0.699127073524629,0.4169921875,1.1201171875,0.35498046875,44.67117647058824,458.4894653247766
0.0052705078125,-0.0854228515625,0.6585009765625001,0.6640394400601796,0.3193359375,1.2255859375,-0.0654296875,44.29470588235294,458.4894653247766
0.0008759765625,-0.1059306640625,0.6472705078125001,0.6558819887811465,0.1650390625,1.31982421875,-0.431640625,44.29470588235294,458.5107860750347
-0.0093779296875,-0.1191142578125,0.6394580078125001,0.6505249385957296,0.04638671875,1.28857421875,-0.5615234375,44.48294117647059,458.5107860750347
-0.0171904296875,-0.1220439453125,0.6409228515625001,0.6526655629917116,0.03759765625,1.150390625,-0.53271484375,44.57705882352941,458.5107860750347
-0.0411162109375,-0.1318095703125,0.6643603515625001,0.6785565432269234,0.1728515625,1.2109375,-0.40966796875,44.57705882352941,458.5107860750347
-0.0284208984375,-0.1283916015625,0.6575244140625001,0.6705449320575113,0.20556640625,1.1279296875,-0.17138671875,44.34176470588236,458.1652538329109
-0.0088896484375,-0.1366923828125,0.6643603515625001,0.6783351016249639,0.1474609375,1.0615234375,0.0087890625,44.20058823529412,458.1652538329109
-0.0279326171875,-0.1347392578125,0.6912158203125001,0.7047795463470042,0.15380859375,0.9052734375,0.07861328125,44.53,458.1652538329109
-0.0313505859375,-0.1474345703125,0.6785205078125001,0.6950610701830373,0.02294921875,0.52294921875,0.341796875,44.48294117647059,458.1652538329109
-0.0201201171875,-0.1215556640625,0.7400439453125001,0.7502303909966622,-0.1171875,0.1064453125,0.28564453125,44.48294117647059,458.1652538329109
-0.0684599609375,-0.1069072265625,0.7981494140625001,0.8081821629503846,-0.0048828125,-0.04931640625,0.16162109375,44.53,457.4820374915004
-0.1207060546875,-0.1225322265625,0.8494189453125001,0.8666583195472051,-0.2119140625,-0.05126953125,0.17041015625,44.48294117647059,457.4820374915004
-0.1465849609375,-0.1225322265625,0.8850634765625001,0.9054494214832276,-0.3291015625,-0.19482421875,0.251953125,44.34176470588236,457.4820374915004
-0.1451201171875,-0.1176494140625,0.9407275390625,0.9590982930817628,-0.3779296875,-0.12548828125,0.43115234375,44.48294117647059,457.4820374915004
-0.1597685546875,-0.1181376953125,0.9490283203125,0.9696067547598084,-0.28076171875,0.0283203125,0.681640625,44.67117647058824,457.7752023279892
-0.1763701171875,-0.1259501953125,0.9539111328125,0.978220997136954,-0.3203125,0.01806640625,0.79541015625,44.53,457.7752023279892
-0.1583037109375,-0.1200908203125,1.0183642578125005,1.037568133478432,-0.3701171875,-0.27197265625,0.9970703125,44.67117647058824,457.7752023279892
-0.1260771484375,-0.1137431640625,1.0569384765625005,1.0704914282549576,-0.123046875,-0.36767578125,1.158203125,44.48294117647059,457.7752023279892
-0.1016630859375,-0.1093486328125,1.0989306640625005,1.10902710109228,0.17236328125,-0.28857421875,1.0986328125,44.20058823529412,457.7752023279892
-0.1001982421875,-0.1117900390625,1.1184619140625005,1.1284918049234616,0.23291015625,-0.4697265625,0.96240234375,44.53,457.8507637219939
-0.1094755859375,-0.1069072265625,1.1804736328125005,1.190349552347203,0.32763671875,-0.82275390625,0.859375,44.388823529411766,457.8507637219939
-0.1285185546875,-0.1205791015625,1.2043994140625005,1.2172240086470023,0.4990234375,-1.23583984375,0.9775390625,44.53,457.8507637219939
-0.1666044921875,-0.1347392578125,1.2361376953125005,1.254570893248133,0.716796875,-1.748046875,1.2158203125,44.57705882352941,457.8507637219939
-0.2164091796875,-0.1288798828125,1.3123095703125005,1.3362632096935692,0.72998046875,-1.28076171875,1.35205078125,44.48294117647059,457.6892998380051
-0.2398466796875,-0.1259501953125,1.3337939453125005,1.3610276154467478,0.74365234375,-0.57763671875,1.4033203125,44.29470588235294,457.6892998380051
-0.2051787109375,-0.0937236328125,1.3889697265625005,1.4071671272726114,0.634765625,0.4130859375,1.2177734375,44.57705882352941,457.6892998380051
-0.1758818359375,-0.1039775390625,1.3918994140625005,1.4068154561667892,0.7978515625,0.763671875,0.89013671875,44.53,457.6892998380051
-0.1553740234375,-0.1420634765625,1.4680712890625005,1.4830901618923282,0.63818359375,0.75732421875,0.8310546875,44.53,457.6892998380051
-0.0679716796875,-0.1874736328125,1.6038134765625005,1.616163413718721,0.39892578125,0.50244140625,0.61083984375,45.04764705882353,456.9957687009504
0.0946259765625,-0.2363017578125,1.7131884765625005,1.731995194107716,-0.0537109375,0.53271484375,-0.73583984375,44.48294117647059,456.9957687009504
0.2591767578125,-0.2631572265625,1.6550830078125005,1.6957960020096576,-0.58154296875,0.50439453125,-2.02685546875,44.57705882352941,456.9957687009504
0.3231416015625,-0.2348369140625,1.5510791015625005,1.6016913716976529,-0.94287109375,0.32275390625,-2.4365234375,44.20058823529412,456.9957687009504
0.3915009765625,-0.1239970703125,1.4529345703125005,1.5098566666093325,-1.32763671875,-0.1884765625,-1.146484375,44.71823529411765,457.3967716870193
0.4701142578125,0.0298115234375,1.3899462890625005,1.4675990013647726,-0.70751953125,-1.94140625,1.50146484375,44.53,457.3967716870193
0.5946259765625,0.1347919921875,1.1409228515625005,1.2936204568490284,0.162109375,-5.51318359375,4.44921875,44.57705882352941,457.3967716870193
0.5999970703125,0.2778583984375,1.1301806640625005,1.3093930301428176,0.31591796875,-7.904296875,5.23046875,44.53,457.3967716870193
0.4832978515625,0.3149677734375,1.1428759765625005,1.2802136577278005,0.06884765625,-7.9013671875,3.794921875,44.57705882352941,457.3967716870193
0.2982392578125,0.2275654296875,1.1921923828125005,1.2498221302751662,-0.0517578125,-5.3056640625,1.38818359375,44.29470588235294,459.0629778038
0.0736298828125,0.0512958984375,1.2322314453125005,1.2354946230787192,-0.13134765625,-1.03369140625,0.4169921875,44.48294117647059,459.0629778038
0.0677705078125,-0.0087626953124999,1.1204150390625005,1.1224969872189985,-0.06640625,0.86181640625,0.55615234375,44.48294117647059,459.0629778038
0.1244111328125,0.0249287109375,0.9949267578125,1.002984957019789,0.13818359375,1.2373046875,0.712890625,44.48294117647059,459.0629778038
0.1654267578125,0.0429951171875,0.9270556640625,0.9426806440002284,0.3779296875,0.9189453125,0.87890625,44.48294117647059,458.8356386233864
0.1610322265625,0.0381123046875,0.9290087890625,0.9436319493932164,0.283203125,1.04443359375,0.8369140625,44.388823529411766,458.8356386233864
0.1439423828125,0.0200458984375,1.0144580078125005,1.0248152502909067,0.16259765625,1.4326171875,0.640625,44.34176470588236,458.8356386233864
0.1317353515625,0.0005146484375,1.0139697265625005,1.022491600992175,0.34716796875,1.35302734375,0.416015625,44.53,458.8356386233864
0.1585908203125,-0.0556376953125,0.9983447265625,1.012392608863889,0.37353515625,1.0537109375,0.24267578125,44.29470588235294,458.8356386233864
0.0863251953125,-0.1279033203125,1.0300830078125005,1.0415768342646408,0.38525390625,1.05126953125,0.77197265625,44.48294117647059,459.2677453342682
0.1473603515625,-0.1620830078125,0.9876025390625,1.0116050364627824,0.8173828125,1.119140625,2.0693359375,44.53,459.2677453342682
0.1937470703125,-0.1142314453125,0.8855517578125001,0.913667700051648,0.4169921875,0.748046875,2.05712890625,44.48294117647059,459.2677453342682
0.2289033203125,-0.0248759765625,0.8440478515625001,0.8748898902075033,-0.0234375,0.2919921875,1.03515625,44.53,459.2677453342682
0.2010712890625,-0.0224345703125,0.8264697265625001,0.850873188057219,-0.13671875,-0.056640625,0.033203125,44.48294117647059,458.5753784988193
0.1219697265625,-0.0688212890625,0.7961962890625001,0.8084191454578815,-0.10693359375,0.0859375,0.154296875,44.57705882352941,458.5753784988193
0.1248994140625,-0.0473369140625,0.7693408203125001,0.7808495020586405,-0.201171875,0.24072265625,0.33447265625,44.34176470588236,458.5753784988193
0.1522431640625,-0.0405009765625,0.7595751953125001,0.7757401545880553,-0.32421875,0.546875,0.119140625,44.67117647058824,458.5753784988193
0.0941376953125,-0.0107158203124999,0.7146533203125001,0.7209064451906362,-0.6162109375,0.74853515625,-0.921875,44.388823529411766,458.5753784988193
0.0819306640625,-0.0043681640624999,0.6751025390625001,0.6800699617095535,-0.51171875,0.78466796875,-1.015625,44.57705882352941,458.3706284551267
0.0599580078125,-0.0082744140624999,0.6477587890625001,0.6505804158108649,-0.45068359375,0.62841796875,-0.861328125,44.53,458.3706284551267
0.0365205078125,-0.0375712890625,0.6243212890625001,0.6265160981406325,-0.4677734375,0.5,-0.5947265625,44.388823529411766,458.3706284551267
0.0384736328125,0.0913349609375,0.5989306640625001,0.6070751484500029,-0.4072265625,0.31494140625,-0.35595703125,44.48294117647059,458.3706284551267
0.0326142578125,-0.0312236328125,0.5793994140625001,0.5811559911715944,-0.376953125,0.1708984375,-0.19677734375,44.53,458.5644034130912
0.0213837890625,-0.0199931640625,0.5593798828125001,0.5601453796464144,-0.3447265625,0.0283203125,-0.1259765625,44.53,458.5644034130912
0.0243134765625,-0.0053447265624999,0.5569384765625001,0.5574945541620488,-0.416015625,0.017578125,-0.12646484375,44.57705882352941,458.5644034130912
0.0018525390625,-0.0268291015625,0.5916064453125001,0.5922173745567764,-0.32958984375,0.17822265625,0.1103515625,44.48294117647059,458.5644034130912
0.0282197265625,-0.0121806640624999,0.6043017578125001,0.6050829166647685,-0.3486328125,0.32861328125,0.2080078125,44.53,458.5644034130912
0.0477509765625,0.0010029296875,0.6355517578125001,0.6373438620471599,-0.39111328125,0.34765625,0.1572265625,44.29470588235294,458.2724822983552
0.0453095703125,-0.0038798828124999,0.6726611328125001,0.6741965664768236,-0.361328125,0.2646484375,0.15185546875,44.53,458.2724822983552
0.0243134765625,-0.0063212890624999,0.7224658203125001,0.7229024590895928,-0.33056640625,0.06884765625,0.28125,44.48294117647059,458.2724822983552
0.0013642578125,0.0053974609375,0.7761767578125001,0.77619672322954,-0.26953125,-0.220703125,0.5751953125,44.57705882352941,458.2724822983552
-0.0108427734375,0.0185810546875,0.8362353515625001,0.8365120348996629,-0.18408203125,-0.45361328125,0.96484375,44.53,458.131697162197
-0.0186552734375,0.0288349609375,0.8821337890625001,0.8828020706846232,-0.0771484375,-0.6416015625,1.29296875,44.67117647058824,458.131697162197
-0.0596708984375,0.0327412109375,0.9280322265625,0.9305248070591904,0.01171875,-0.662109375,1.4384765625,44.53,458.131697162197
-0.0767607421875,0.0234638671875,0.9773486328125,0.9806391358012546,0.0263671875,-0.76318359375,1.525390625,44.57705882352941,458.131697162197
-0.0616240234375,0.0215107421875,1.0237353515625005,1.0258139706266818,0.080078125,-0.875,1.5205078125,44.57705882352941,458.131697162197
-0.0513701171875,0.0180927734375,1.0491259765625005,1.0505386961405745,0.07373046875,-0.69970703125,1.35400390625,44.34176470588236,457.8836893876195
-0.0762724609375,0.0283466796875,1.1038134765625005,1.1068085713382243,-0.00439453125,-0.6494140625,1.2216796875,44.48294117647059,457.8836893876195
-0.1275419921875,0.0342060546875,1.1829150390625005,1.1902625775805429,0.01806640625,-0.56298828125,1.2890625,44.48294117647059,457.8836893876195
-0.1221708984375,0.0508076171875,1.2341845703125005,1.2412569016874582,0.0966796875,-0.47705078125,1.22607421875,44.059411764705885,457.8836893876195
-0.1041044921875,0.0576435546875,1.2507861328125005,1.256434031187741,0.14599609375,-0.4033203125,1.03759765625,44.388823529411766,458.0128639061692
-0.0743193359375,0.0429951171875,1.2737353515625005,1.2766259004172695,0.1494140625,-0.34326171875,0.7392578125,44.059411764705885,458.0128639061692
-0.0533232421875,0.0205341796875,1.2898486328125005,1.291113672865833,0.080078125,-0.2783203125,0.44189453125,44.53,458.0128639061692
-0.0455107421875,0.0083271484375,1.3025439453125005,1.3033653741471771,-0.0556640625,-0.0927734375,0.083984375,44.29470588235294,458.0128639061692
-0.0626005859375,0.0014912109375,1.2966845703125005,1.2981956447147294,-0.1708984375,0.0791015625,-0.1962890625,44.48294117647059,458.0128639061692
-0.0904326171875,0.0068623046875,1.2659228515625005,1.2691673709897908,-0.28369140625,0.2919921875,-0.3984375,44.29470588235294,457.7429095317677
-0.0918974609375,0.0146748046875,1.2986376953125005,1.3019678785999054,-0.46337890625,0.68603515625,-0.42236328125,44.059411764705885,457.7429095317677
-0.0342802734375,0.0215107421875,1.3743212890625005,1.3749170355868092,-0.49169921875,0.85986328125,-0.29345703125,44.48294117647059,457.7429095317677
0.0125947265625,0.0488544921875,1.4490283203125005,1.4499063630496103,-0.39013671875,0.86767578125,-0.171875,44.48294117647059,457.7429095317677
0.0545869140625,0.0981708984375,1.4983447265625005,1.502549225850703,-0.1416015625,0.6142578125,-0.08837890625,44.34176470588236,457.5588639288202
0.0794892578125,0.1411396484375,1.5232470703125005,1.5318356895190353,0.19287109375,0.412109375,0.04443359375,44.29470588235294,457.5588639288202
0.1248994140625,0.1245380859375,1.5950244140625005,1.6047468585224134,0.58935546875,0.5009765625,0.12548828125,44.48294117647059,457.5588639288202
0.2962861328125,-0.0151103515624999,1.6438525390625005,1.6704086222848462,0.8798828125,0.97705078125,0.1064453125,44.48294117647059,457.5588639288202
0.5540986328125,-0.2070048828125,1.5750048828125005,1.682413949441729,0.7294921875,1.068359375,-0.947265625,44.48294117647059,457.5588639288202
0.6781220703125,-0.3276103515625,1.4382861328125005,1.6235285906126056,0.13671875,0.9443359375,-2.2109375,44.53,457.4290630189792
0.5877900390625,-0.3295634765625,1.3196337890625005,1.4817363302357502,-0.5693359375,1.17919921875,-3.123046875,44.388823529411766,457.4290630189792
0.4349580078125,-0.2616923828125,1.2546923828125005,1.3534859981802592,-1.19873046875,1.57861328125,-3.74609375,44.388823529411766,457.4290630189792
0.3040986328125,-0.2138408203125,1.2449267578125005,1.299248439378666,-1.4697265625,1.62646484375,-3.91455078125,44.48294117647059,457.4290630189792
0.2694306640625,-0.1938212890625,1.2317431640625005,1.2756766036287208,-1.2841796875,1.8564453125,-3.6396484375,44.48294117647059,458.6302541354803
0.3167939453125,-0.2250712890625,1.1370166015625005,1.201591545066647,-0.947265625,1.9677734375,-3.26708984375,44.67117647058824,458.6302541354803
0.3812470703125,-0.2817119140625,1.0613330078125005,1.1623849124188383,-0.85791015625,2.03466796875,-2.9580078125,44.48294117647059,458.6302541354803
0.4290986328125,-0.3051494140625,1.0335009765625005,1.1598991637810097,-0.89013671875,1.9140625,-2.7529296875,44.57705882352941,458.6302541354803
0.4383759765625,-0.2978251953125,1.0139697265625005,1.1441188531683613,-0.75537109375,1.6845703125,-2.52099609375,44.57705882352941,458.6302541354803
0.3822236328125,-0.2699931640625,0.9724658203125,1.0792038666521393,-0.52978515625,1.45166015625,-2.10302734375,44.059411764705885,459.1702219865748
0.3060517578125,-0.2260478515625,0.9436572265625,1.017474457123997,-0.263671875,1.2080078125,-1.6357421875,44.48294117647059,459.1702219865748
0.2142548828125,-0.1933330078125,0.9353564453125,0.9788638753710662,-0.07080078125,1.09765625,-1.15576171875,44.34176470588236,459.1702219865748
0.1590791015625,-0.1440166015625,0.9285205078125,0.9529938486201928,0.037109375,0.89990234375,-0.5205078125,44.388823529411766,459.1702219865748
0.1312470703125,-0.1127666015625,0.9363330078125,0.9521877973450266,0.15380859375,0.6865234375,0.17626953125,44.388823529411766,459.1275745049515
0.1219697265625,-0.1015361328125,0.9177783203125,0.9313985428912172,0.33251953125,0.54833984375,0.77587890625,44.34176470588236,459.1275745049515
0.1200166015625,-0.0863994140625,0.8962939453125001,0.9084116246530546,0.47802734375,0.365234375,1.06591796875,44.48294117647059,459.1275745049515
0.1058564453125,-0.0898173828125,0.8567431640625001,0.8679179675737273,0.61865234375,0.2119140625,1.1005859375,44.29470588235294,459.1275745049515
0.0682587890625,-0.0947001953125,0.8025439453125001,0.8109896259720327,0.701171875,0.162109375,1.0830078125,44.388823529411766,459.1275745049515
0.0487275390625,-0.0922587890625,0.7390673828125001,0.746395775416558,0.73828125,0.27099609375,1.18408203125,44.53,458.4132690125104
0.0550751953125,-0.0810283203125,0.6853564453125001,0.6923238569937924,0.76171875,0.35888671875,1.15234375,44.67117647058824,458.4132690125104
0.0550751953125,-0.0820048828125,0.6384814453125001,0.64607788536069,0.7177734375,0.36767578125,1.0244140625,44.29470588235294,458.4132690125104
0.0565400390625,-0.0829814453125,0.5989306640625001,0.607289582190974,0.73291015625,0.33837890625,0.88671875,44.48294117647059,458.4132690125104
0.0545869140625,-0.0805400390625,0.5730517578125001,0.5812527386697218,0.7080078125,0.3173828125,0.7314453125,44.53,458.5327363658095
0.0438447265625,-0.0805400390625,0.5501025390625001,0.5576933399481644,0.6796875,0.25146484375,0.5751953125,44.34176470588236,458.5327363658095
0.0467744140625,-0.0849345703125,0.5242236328125001,0.5331155074129753,0.73876953125,0.447265625,0.5009765625,44.34176470588236,458.5327363658095
0.0565400390625,-0.0820048828125,0.5071337890625001,0.5168232355759261,0.73291015625,0.49755859375,0.38037109375,44.34176470588236,458.5327363658095
0.0511689453125,-0.0868876953125,0.5042041015625001,0.5141882034756917,0.71484375,0.51123046875,0.28515625,44.388823529411766,458.5327363658095
0.0516572265625,-0.1000712890625,0.4919970703125,0.50472155605526,0.69775390625,0.48828125,0.21923828125,44.48294117647059,458.6942187497453
0.0399384765625,-0.1078837890625,0.5022509765625001,0.5152572535254601,0.57763671875,0.40576171875,0.1142578125,44.53,458.6942187497453
0.0135712890625,-0.1113017578125,0.5193408203125001,0.5313070193605867,0.548828125,0.4140625,0.12744140625,44.34176470588236,458.6942187497453
-0.0074248046875,-0.1259501953125,0.5501025390625001,0.5643858457712364,0.51904296875,0.455078125,0.17578125,44.48294117647059,458.6942187497453
-0.0289091796875,-0.1269267578125,0.5989306640625001,0.6129144172503568,0.49560546875,0.498046875,0.22021484375,44.29470588235294,458.6509467933484
-0.0533232421875,-0.1322978515625,0.6526416015625001,0.6680472661238164,0.38134765625,0.50341796875,0.408203125,44.15352941176471,458.6509467933484
-0.0743193359375,-0.1371806640625,0.6965869140625001,0.7138453804080659,0.4921875,0.62939453125,0.6337890625,44.388823529411766,458.6509467933484
-0.0523466796875,-0.1264384765625,0.7312548828125001,0.7439493039628943,0.51513671875,0.53173828125,0.427734375,44.34176470588236,458.6509467933484
-0.0352568359375,-0.1303447265625,0.7478564453125001,0.7599487186767441,0.42236328125,0.0927734375,-0.0888671875,44.48294117647059,458.6509467933484
-0.0391630859375,-0.1659892578125,0.8313525390625001,0.8486655555723693,0.31103515625,-0.09375,-0.13671875,44.29470588235294,457.98056997281896
-0.0235380859375,-0.1474345703125,0.8801806640625001,0.8927536028503813,0.32275390625,-0.34619140625,-0.12841796875,44.48294117647059,457.98056997281896
-0.0362333984375,-0.1327861328125,0.9251025390625,0.9352859049560802,0.3046875,-0.478515625,-0.03955078125,44.48294117647059,457.98056997281896
-0.0772490234375,-0.1010478515625,0.9812548828125,0.989464109996324,0.20068359375,-0.67919921875,-0.1181640625,44.48294117647059,457.98056997281896
-0.1490263671875,-0.1142314453125,1.0501025390625005,1.066758184295202,0.25634765625,-0.50732421875,-0.0341796875,44.059411764705885,457.5698391896256
-0.1749052734375,-0.1410869140625,1.1165087890625005,1.1388982606228428,0.39990234375,-0.240234375,0.15087890625,44.059411764705885,457.5698391896256
-0.1568388671875,-0.1620830078125,1.1404345703125005,1.162523264647234,0.3681640625,0.0810546875,0.1806640625,44.388823529411766,457.5698391896256
-0.1377958984375,-0.1669658203125,1.2234423828125005,1.2424478093025688,0.3583984375,0.216796875,-0.01513671875,44.34176470588236,457.5698391896256
-0.1006865234375,-0.1806376953125,1.2981494140625005,1.31451879187806,0.42236328125,0.240234375,-0.23486328125,44.48294117647059,457.5698391896256
-0.0904326171875,-0.1781962890625,1.2932666015625005,1.308613953159619,0.4541015625,0.18310546875,-0.3916015625,44.15352941176471,457.49491489194105
-0.1202177734375,-0.1786845703125,1.3093798828125005,1.3269725566989357,0.517578125,0.09521484375,-0.1435546875,44.29470588235294,457.49491489194105
-0.1558623046875,-0.1738017578125,1.3088916015625005,1.329547792928882,0.5126953125,-0.0791015625,0.37255859375,44.53,457.49491489194105
-0.1724638671875,-0.1542705078125,1.3323291015625005,1.3522736446209154,0.50830078125,0.1220703125,0.6943359375,44.48294117647059,457.49491489194105
-0.1910185546875,-0.1440166015625,1.3474658203125005,1.368536812318526,0.6513671875,0.4541015625,0.736328125,44.34176470588236,456.81237121593824
-0.1954130859375,-0.1464580078125,1.3513720703125005,1.373259878766112,0.8017578125,0.76904296875,0.6962890625,44.53,456.81237121593824
-0.1680693359375,-0.1601298828125,1.3435595703125005,1.3634666112634837,0.89404296875,0.880859375,0.88525390625,44.29470588235294,456.81237121593824
-0.1563505859375,-0.1747783203125,1.4070361328125005,1.4264444069132924,0.78759765625,1.05419921875,1.267578125,44.20058823529412,456.81237121593824
-0.1382841796875,-0.1855205078125,1.5227587890625005,1.5402385214108707,0.705078125,1.2685546875,1.48681640625,44.388823529411766,456.81237121593824
-0.0523466796875,-0.1962626953125,1.6389697265625005,1.6515086996543462,0.63525390625,1.25390625,1.1796875,44.53,456.7581317465337
0.0482392578125,-0.2553447265625,1.7244189453125005,1.7438889455267084,0.38720703125,1.12255859375,0.36083984375,44.67117647058824,456.7581317465337
0.1429658203125,-0.2568095703125,1.6946337890625005,1.7199343185755798,-0.1328125,0.77783203125,-0.45703125,44.29470588235294,456.7581317465337
0.3158173828125,-0.2299541015625,1.5925830078125005,1.6397988123196894,-0.89794921875,0.671875,-0.89404296875,44.48294117647059,456.7581317465337
0.5614228515625,-0.1088603515625,1.4680712890625005,1.5755251518679452,-1.2373046875,0.5986328125,-0.99609375,44.53,457.46198889305344
0.7264619140625,0.0386005859375,1.2595751953125005,1.45456749257798,-1.1669921875,0.40625,-0.36083984375,44.29470588235294,457.46198889305344
0.7508759765625,0.1484638671875,1.1228564453125005,1.358919735973681,-0.90869140625,0.078125,0.77197265625,44.67117647058824,457.46198889305344
0.7171845703125,0.2173115234375,1.0764697265625005,1.3116268822796355,-0.30810546875,-0.6640625,2.02197265625,44.53,457.46198889305344
0.6209931640625,0.2744404296875,1.0105517578125005,1.2174419552805584,0.451171875,-2.08349609375,2.80810546875,44.34176470588236,457.46198889305344
0.4525361328125,0.2969013671875,0.9099658203125,1.0587620920092011,0.76953125,-3.75634765625,2.17919921875,44.53,458.8136884104668
0.2201142578125,0.2793232421875,0.8870166015625001,0.9556517208512584,0.4296875,-4.392578125,0.70361328125,44.53,458.8136884104668
0.0228486328125,0.2597919921875,1.0627978515625005,1.094327744559196,0.06396484375,-2.32666015625,-0.216796875,44.57705882352941,458.8136884104668
-0.0674833984375,0.1792255859375,1.1882861328125005,1.203619438673953,0.6416015625,0.20849609375,0.62451171875,44.57705882352941,458.8136884104668
0.0819306640625,0.1274677734375,0.9915087890625,1.0030206108385915,0.67919921875,0.85107421875,1.2529296875,44.15352941176471,459.18182328324366
0.1595673828125,0.1211201171875,0.9856494140625,1.005801471408197,0.9140625,0.88232421875,0.95556640625,44.48294117647059,459.18182328324366
0.1527314453125,0.0312763671875,1.0032275390625005,1.0152687332253925,1.39111328125,0.9248046875,0.849609375,44.34176470588236,459.18182328324366
0.1170869140625,-0.0492900390625,1.0486376953125005,1.056304818424007,1.60205078125,1.11376953125,0.86474609375,44.67117647058824,459.18182328324366
0.0956025390625,-0.1235087890625,1.0779345703125005,1.0891910779682674,1.6865234375,1.3271484375,0.74755859375,44.53,459.18182328324366
0.1014619140625,-0.1825908203125,0.9861376953125,1.0080185919832367,1.5947265625,1.2421875,0.76513671875,44.71823529411765,459.1921720161874
0.1444306640625,-0.1757548828125,0.8796923828125001,0.9086301139255204,1.35888671875,1.1103515625,0.642578125,44.53,459.1921720161874
0.1776337890625,-0.1381572265625,0.8127978515625001,0.8433750824945913,1.02392578125,0.9697265625,0.498046875,44.34176470588236,459.1921720161874
0.1913056640625,-0.0995830078125,0.7527392578125001,0.7830268340226227,0.85791015625,0.81298828125,0.3212890625,44.48294117647059,459.1921720161874
0.1532197265625,-0.0912822265625,0.7659228515625001,0.7864137232015515,0.478515625,0.39208984375,0.4384765625,44.388823529411766,458.6296251886647
0.2035126953125,-0.0385478515625,0.7615283203125001,0.7891949927941894,-0.03955078125,-0.029296875,0.29296875,44.388823529411766,458.6296251886647
0.1288056640625,0.0215107421875,0.8074267578125001,0.8179190548921356,-0.3037109375,0.0341796875,-0.236328125,44.29470588235294,458.6296251886647
0.0907197265625,0.0434833984375,0.8074267578125001,0.8136699846736727,-0.30224609375,0.2080078125,-0.3583984375,44.53,458.6296251886647
0.0594697265625,0.0346943359375,0.7971728515625001,0.8001405505233754,-0.31494140625,0.19384765625,-0.71533203125,44.48294117647059,458.6296251886647
0.0033173828125,0.0083271484375,0.7835009765625001,0.7835522488667978,-0.3203125,0.49462890625,-0.71240234375,44.53,458.121352995669
0.0091767578125,0.0068623046875,0.7170947265625001,0.7171862735533358,-0.21826171875,0.55078125,-0.58740234375,44.34176470588236,458.121352995669
0.0223603515625,0.0161396484375,0.6809619140625001,0.6815200671861016,-0.2548828125,0.54443359375,-0.5751953125,44.48294117647059,458.121352995669
0.0457978515625,0.0219990234375,0.6672900390625001,0.6692214853633864,-0.15185546875,0.455078125,-0.5615234375,44.059411764705885,458.121352995669
0.0414033203125,0.0151630859375,0.6428759765625001,0.6443862780578398,-0.0751953125,0.4130859375,-0.4169921875,44.53,458.6089331078514
0.0467744140625,0.0307880859375,0.6409228515625001,0.643364479670421,0.00146484375,0.33056640625,-0.2333984375,44.388823529411766,458.6089331078514
0.0648408203125,0.0400654296875,0.6418994140625001,0.6464088709235223,0.10498046875,0.169921875,0.08837890625,44.48294117647059,458.6089331078514
0.0936494140625,0.0542255859375,0.6521533203125001,0.6610707829870665,0.15869140625,-0.0205078125,0.353515625,44.388823529411766,458.6089331078514
0.0531220703125,0.0517841796875,0.6995166015625001,0.7034394298599865,0.2421875,-0.1923828125,0.48388671875,44.29470588235294,458.6089331078514
-0.0137724609375,0.0381123046875,0.7390673828125001,0.740177563011867,0.302734375,-0.20849609375,0.56787109375,44.71823529411765,458.5424532832362
-0.0259794921875,0.0283466796875,0.8001025390625001,0.8010259304653536,0.3056640625,-0.23095703125,0.705078125,44.48294117647059,458.5424532832362
0.0189423828125,0.0224873046875,0.7136767578125001,0.7142821623003655,0.3681640625,-0.2802734375,0.9169921875,44.388823529411766,458.5424532832362
0.0262666015625,0.0254169921875,0.8704150390625001,0.871182126811424,0.30224609375,-0.3369140625,1.06640625,44.29470588235294,458.5424532832362
0.0028291015625,0.0293232421875,0.9255908203125,0.9260595137434768,0.287109375,-0.44677734375,1.21044921875,44.53,457.8946646372337
-0.0323271484375,0.0117451171875,0.9734423828125,0.974049826733482,0.30517578125,-0.6025390625,1.25048828125,44.48294117647059,457.8946646372337
-0.0435576171875,-0.0058330078124999,1.0183642578125005,1.0193120481899536,0.3046875,-0.67822265625,1.40771484375,44.53,457.8946646372337
-0.0489287109375,-0.0141337890624999,1.0574267578125005,1.058652507145345,0.31005859375,-0.70458984375,1.45703125,44.48294117647059,457.8946646372337
-0.0254912109375,-0.0175517578125,1.0969775390625005,1.0974140454928525,0.27587890625,-0.9140625,1.41259765625,44.57705882352941,457.8946646372337
-0.0557646484375,-0.0312236328125,1.1687548828125005,1.1705009984444392,0.1376953125,-0.76171875,1.3671875,44.48294117647059,457.7642271088638
-0.0235380859375,-0.0199931640625,1.2185595703125005,1.2189508581148858,0.0791015625,-0.53466796875,1.31884765625,44.29470588235294,457.7642271088638
-0.0049833984375,-0.0004619140624999,1.2009814453125005,1.2009918732487286,-0.07275390625,-0.6923828125,1.0791015625,44.1064705882353,457.7642271088638
-0.0254912109375,0.0112568359375,1.0945361328125005,1.0948908001360351,-0.34423828125,-0.69189453125,0.921875,44.67117647058824,457.7642271088638
-0.0279326171875,0.0317646484375,1.2502978515625005,1.2510131660438693,-0.537109375,-0.4931640625,0.81884765625,44.15352941176471,457.6453987560654
-0.0347685546875,0.0263935546875,1.2693408203125005,1.270091173985439,-0.67822265625,-0.2255859375,0.8310546875,44.29470588235294,457.6453987560654
-0.0186552734375,0.0371357421875,1.2918017578125005,1.2924700631203456,-0.82177734375,-0.08447265625,0.6796875,44.34176470588236,457.6453987560654
-0.0308623046875,0.0342060546875,1.3201220703125005,1.320925742255813,-0.9248046875,0.07275390625,0.5556640625,44.388823529411766,457.6453987560654
-0.0572294921875,0.0278583984375,1.3796923828125005,1.3811597939161049,-0.94677734375,0.43359375,0.77734375,44.57705882352941,457.6453987560654
-0.0147490234375,0.0815693359375,1.4402392578125005,1.4426226845582135,-0.8720703125,0.64990234375,0.98876953125,44.48294117647059,458.0128639061692
-0.0196318359375,0.1636005859375,1.5256884765625005,1.5345604869854343,-0.70703125,0.72607421875,1.2744140625,44.53,458.0128639061692
0.0257783203125,0.2339130859375,1.6282275390625005,1.6451458210543113,-0.3291015625,0.65087890625,1.818359375,44.388823529411766,458.0128639061692
0.2313447265625,0.2378193359375,1.6960986328125005,1.72824448249733,0.24658203125,0.4931640625,2.28662109375,44.388823529411766,458.0128639061692
