AccX,AccY,AccZ,Magnitude,GyroX,GyroY,GyroZ,Temperature,Altitude
0.1029267578125,-0.1611064453125,0.9534228515625,0.9724013256246578,-0.1923828125,1.80810546875,-1.57275390625,43.91823529411765,327.96347927336603
0.1371064453125,-0.1186259765625,0.8411181640625001,0.8604359741302703,-0.4375,1.1513671875,-1.54541015625,42.69470588235294,327.96347927336603
0.0980439453125,-0.0834697265625,0.7839892578125001,0.7944928991691831,-0.5888671875,0.47021484375,-1.5146484375,43.25941176470588,327.96347927336603
0.0233369140625,-0.0795634765625,0.7756884765625001,0.7801074099330965,-0.64208984375,0.4658203125,-1.15576171875,42.69470588235294,327.96347927336603
-0.0127958984375,-0.0385478515625,0.7400439453125001,0.7411576842147681,-0.7236328125,0.84912109375,-0.84033203125,42.55352941176471,327.8502924381867
-0.0396513671875,0.0127216796875,0.7234423828125001,0.7246398783556818,-0.9501953125,1.45703125,-0.8359375,42.69470588235294,327.8502924381867
-0.0425810546875,0.0473896484375,0.6887744140625001,0.6917146221271241,-1.0322265625,1.46875,-0.8193359375,43.777058823529416,327.8502924381867
-0.0464873046875,0.0425068359375,0.6594775390625001,0.6624790752366879,-0.81884765625,0.9111328125,-0.556640625,42.60058823529412,327.8502924381867
-0.0518583984375,0.0283466796875,0.6335986328125001,0.6363490042733448,-0.5009765625,0.25732421875,-0.1875,43.91823529411765,327.8502924381867
-0.0567412109375,0.0088154296875,0.6111376953125001,0.613829422112612,-0.23095703125,-0.06298828125,0.0947265625,43.118235294117646,328.14579244205026
-0.0621123046875,0.0088154296875,0.6067431640625001,0.6099778006868298,-0.03076171875,-0.087890625,0.14208984375,43.87117647058824,328.14579244205026
-0.0704130859375,0.0068623046875,0.6091845703125001,0.6132788391944493,-0.00341796875,0.1240234375,0.037109375,43.447647058823534,328.14579244205026
-0.0757841796875,-0.0004619140624999,0.6052783203125001,0.6100043444893076,-0.06396484375,0.1259765625,0.0068359375,43.353529411764704,328.14579244205026
-0.0616240234375,-0.0058330078124999,0.6126025390625001,0.61572186505807,-0.083984375,0.3076171875,0.02490234375,44.01235294117648,328.1237429205152
-0.0684599609375,-0.0092509765624999,0.6179736328125001,0.6218229311230028,-0.1162109375,0.38134765625,0.0595703125,43.777058823529416,328.1237429205152
-0.0855498046875,-0.0058330078124999,0.6248095703125001,0.6306661495722606,-0.16455078125,0.45068359375,0.10791015625,44.01235294117648,328.1237429205152
-0.1207060546875,-0.0116923828124999,0.6614306640625001,0.672456085418383,-0.16455078125,0.4423828125,0.23046875,43.16529411764706,328.1237429205152
-0.1597685546875,-0.0131572265624999,0.7087939453125001,0.7266966083513869,-0.14013671875,0.5888671875,0.46923828125,42.55352941176471,328.1237429205152
-0.1670927734375,-0.0136455078124999,0.7424853515625001,0.7611771752380558,-0.1337890625,0.767578125,0.79296875,43.777058823529416,328.2376932164571
-0.1763701171875,-0.0219462890625,0.7903369140625001,0.8100743765668575,-0.10400390625,1.044921875,0.876953125,43.87117647058824,328.2376932164571
-0.1680693359375,-0.0116923828124999,0.8254931640625001,0.8425099271891245,-0.08349609375,1.240234375,1.17041015625,43.447647058823534,328.2376932164571
-0.1670927734375,0.0073505859375,0.8640673828125001,0.8801059414008655,-0.1103515625,1.2578125,1.16064453125,43.30647058823529,328.2376932164571
-0.1885771484375,0.0102802734375,0.9153369140625,0.9346168686580772,-0.2080078125,0.95751953125,1.1865234375,43.25941176470588,327.62393557316483
-0.1885771484375,0.0234638671875,0.9793017578125,0.997568958433884,-0.27294921875,0.53369140625,1.3837890625,43.353529411764704,327.62393557316483
-0.1714873046875,0.0425068359375,1.0286181640625005,1.043681011712731,-0.30029296875,0.19287109375,1.533203125,43.25941176470588,327.62393557316483
-0.1451201171875,0.0552021484375,1.0315478515625005,1.0431673382865472,-0.36962890625,-0.283203125,1.51416015625,43.777058823529416,327.62393557316483
-0.1148466796875,0.0884052734375,1.0662158203125005,1.0760211093149894,-0.47265625,-0.83251953125,1.19775390625,43.91823529411765,327.62393557316483
-0.1382841796875,0.0815693359375,1.0930712890625005,1.1047990377846486,-0.30224609375,-0.54541015625,1.05615234375,43.118235294117646,327.72022692162466
-0.1480498046875,0.1074482421875,1.0369189453125005,1.0529315118112756,-0.029296875,-0.16064453125,0.7734375,43.16529411764706,327.72022692162466
-0.1939482421875,0.1382099609375,0.9880908203125,1.0163864339589523,-0.01025390625,0.35498046875,0.30322265625,42.97705882352941,327.72022692162466
-0.2535185546875,0.1592060546875,0.9890673828125,1.033379172019432,-0.08349609375,0.75634765625,-0.1845703125,43.49470588235295,327.72022692162466
-0.4107451171875,0.0727802734375,1.0857470703125005,1.1631230460218678,-0.314453125,1.56982421875,0.1630859375,43.16529411764706,327.5702779493352
-0.4209990234375,0.0786396484375,1.1565478515625005,1.2332993574130888,0.01123046875,2.35888671875,0.80029296875,43.30647058823529,327.5702779493352
-0.3917021484375,0.1045185546875,1.1956103515625005,1.2624732924414372,0.28173828125,2.7470703125,0.880859375,43.16529411764706,327.5702779493352
-0.3604521484375,0.1513935546875,1.3054736328125005,1.362757192489841,0.4453125,2.84130859375,0.57421875,42.55352941176471,327.5702779493352
-0.2911162109375,0.0952412109375,1.5227587890625005,1.5532591110946494,0.7373046875,2.60009765625,0.53076171875,43.353529411764704,327.5702779493352
-0.1407255859375,-0.0116923828124999,1.6345751953125005,1.6406634241928433,1.0615234375,2.11865234375,0.3173828125,42.74176470588235,326.852162450585
-0.0147490234375,-0.0751689453125,1.6682666015625005,1.670024358481231,1.27197265625,1.37353515625,-0.125,42.97705882352941,326.852162450585
0.1815400390625,-0.1142314453125,1.6375048828125005,1.6514926127947944,1.36865234375,0.5283203125,-0.66162109375,43.353529411764704,326.852162450585
0.3705048828125,-0.1650126953125,1.4890673828125005,1.5433161466006469,1.25244140625,-0.26806640625,-1.19140625,43.777058823529416,326.852162450585
0.4476533203125,-0.2055400390625,1.3958056640625005,1.4801735218120804,0.80322265625,-0.80126953125,-1.4228515625,43.353529411764704,327.5136921431599
0.5296845703125,-0.2236064453125,1.3303759765625005,1.4492983907487982,0.50390625,-1.47900390625,-1.77294921875,43.16529411764706,327.5136921431599
0.5062470703125,-0.2416728515625,1.1189501953125005,1.2516954114209344,0.31396484375,-2.3359375,-2.35791015625,43.447647058823534,327.5136921431599
0.4095673828125,-0.2470439453125,0.9299853515625,1.0457766999222506,-0.0234375,-3.84521484375,-2.73486328125,42.69470588235294,327.5136921431599
0.2069306640625,-0.3207744140625,0.9002001953125001,0.9777918572411772,-0.39794921875,-5.35888671875,-2.75048828125,43.118235294117646,327.5136921431599
0.0594697265625,-0.4047587890625,0.9651416015625,1.0482674452482952,-0.515625,-6.91162109375,-2.0615234375,43.16529411764706,328.58914504935984
-0.0665068359375,-0.4428447265625,1.0588916015625005,1.1496895384973411,-0.62841796875,-7.892578125,-0.64990234375,43.16529411764706,328.58914504935984
-0.1050810546875,-0.4423564453125,1.2122119140625005,1.294673309124282,-0.77490234375,-8.224609375,0.8017578125,43.25941176470588,328.58914504935984
-0.1172880859375,-0.4013408203125,1.3684619140625005,1.4309154270576565,-0.84912109375,-7.134765625,1.77783203125,42.60058823529412,328.58914504935984
-0.0987333984375,-0.3197978515625,1.4407275390625005,1.4790925568212752,-0.8701171875,-4.3525390625,2.203125,42.69470588235294,328.34288574505774
-0.0806669921875,-0.1850322265625,1.4334033203125005,1.4475459119413638,-0.619140625,0.40087890625,2.36962890625,43.30647058823529,328.34288574505774
-0.0459990234375,-0.0951884765625,1.3513720703125005,1.3555010987262928,-0.35693359375,5.32958984375,2.4619140625,43.87117647058824,328.34288574505774
-0.0289091796875,0.0283466796875,1.2444384765625005,1.2450969427593606,-0.11474609375,8.47900390625,2.650390625,43.73,328.34288574505774
0.0272431640625,0.1616474609375,1.0857470703125005,1.0980522721199817,0.068359375,9.17724609375,2.50927734375,44.01235294117648,328.34288574505774
0.1117158203125,0.2368427734375,0.9065478515625,0.9436121719277716,0.134765625,8.29443359375,1.93408203125,43.30647058823529,327.6717400069457
0.1649384765625,0.2441669921875,0.7405322265625001,0.7970007526359452,0.21923828125,6.38818359375,0.9033203125,43.353529411764704,327.6717400069457
0.1664033203125,0.2026630859375,0.6130908203125001,0.6668153757706771,0.349609375,4.1005859375,0.017578125,43.30647058823529,327.6717400069457
0.1395478515625,0.1108662109375,0.5339892578125001,0.5629471085834729,0.41552734375,1.484375,-0.3173828125,43.91823529411765,327.6717400069457
0.0912080078125,0.0410419921875,0.5154345703125001,0.5250487044885221,0.63623046875,-1.04833984375,-0.0439453125,42.60058823529412,327.9481356495495
0.0804658203125,-0.0204814453125,0.5378955078125001,0.5442663090487228,0.91455078125,-2.9765625,0.33349609375,42.55352941176471,327.9481356495495
0.0560517578125,-0.0644267578125,0.5696337890625001,0.5759993579144013,1.0166015625,-4.27099609375,0.3857421875,42.74176470588235,327.9481356495495
0.0130830078125,-0.0839580078125,0.6018603515625001,0.6078289191476512,0.888671875,-4.90673828125,0.109375,42.97705882352941,327.9481356495495
-0.0293974609375,-0.1025126953125,0.6697314453125001,0.6781690587531811,0.568359375,-5.02392578125,-0.4052734375,43.447647058823534,327.9481356495495
-0.0796904296875,-0.1196025390625,0.7312548828125001,0.7452442791267159,0.232421875,-4.5595703125,-0.9130859375,43.30647058823529,328.4281600732968
-0.1377958984375,-0.1205791015625,0.7859423828125001,0.8069897511497949,-0.037109375,-3.44140625,-1.25927734375,44.01235294117648,328.4281600732968
-0.1534208984375,-0.1073955078125,0.8098681640625001,0.8312389610320482,-0.2509765625,-1.99755859375,-1.3916015625,43.30647058823529,328.4281600732968
-0.1270537109375,-0.1039775390625,0.8123095703125001,0.8287344641764104,-0.255859375,-0.48486328125,-1.39013671875,43.87117647058824,328.4281600732968
-0.1055693359375,-0.1093486328125,0.7839892578125001,0.7985869799549967,-0.1953125,0.69873046875,-1.22900390625,43.777058823529416,327.7871577486552
-0.1021513671875,-0.1147197265625,0.7595751953125001,0.7749516080471559,-0.0107421875,1.134765625,-0.9921875,44.01235294117648,327.7871577486552
-0.1006865234375,-0.1210673828125,0.7498095703125001,0.7661654383455407,0.15673828125,1.115234375,-0.78515625,43.25941176470588,327.7871577486552
-0.1143583984375,-0.1235087890625,0.7307666015625001,0.7499013870023717,0.26171875,0.7373046875,-0.619140625,43.30647058823529,327.7871577486552
-0.1290068359375,-0.1308330078125,0.7322314453125001,0.7549324003884742,0.25830078125,0.26318359375,-0.5927734375,43.16529411764706,327.7871577486552
-0.1407255859375,-0.1132548828125,0.7551806640625001,0.7764845100787293,0.22216796875,-0.2392578125,-0.61865234375,43.30647058823529,327.52988878418336
-0.1534208984375,-0.0873759765625,0.7918017578125001,0.8112475312952178,0.13525390625,-0.6025390625,-0.66845703125,43.777058823529416,327.52988878418336
-0.1568388671875,-0.0531962890625,0.8440478515625001,0.8601424598041603,0.07080078125,-0.74853515625,-0.83935546875,42.83588235294118,327.52988878418336
-0.1504912109375,-0.0234111328125,0.8669970703125001,0.8802724610252542,0.02587890625,-0.67138671875,-1.03076171875,42.60058823529412,327.52988878418336
-0.1465849609375,-0.0087626953124999,0.8977587890625001,0.9096893859670754,0.09765625,-0.33984375,-1.2333984375,42.60058823529412,327.809205944073
-0.2593779296875,-0.0112041015624999,0.9456103515625,0.9806025592883956,0.31591796875,-0.158203125,-1.31591796875,43.30647058823529,327.809205944073
-0.0899443359375,-0.0229228515625,1.0051806640625005,1.0094570858120335,0.63134765625,-0.34619140625,-1.4931640625,42.55352941176471,327.809205944073
-0.0464873046875,-0.0483134765625,1.0349658203125005,1.0371352422561826,0.9033203125,-0.4453125,-1.8193359375,42.69470588235294,327.809205944073
-0.0660185546875,-0.0654033203125,1.0452197265625005,1.049342804171408,1.07763671875,-0.11669921875,-2.1552734375,43.447647058823534,327.809205944073
-0.1021513671875,-0.0956767578125,1.0647509765625005,1.0739104180026309,1.10498046875,0.1142578125,-2.23583984375,44.01235294117648,327.7761336718305
-0.1299833984375,-0.1205791015625,1.0847705078125005,1.0991642544327809,1.04736328125,-0.140625,-2.064453125,43.49470588235295,327.7761336718305
-0.1597685546875,-0.1376689453125,1.0720751953125005,1.09262251211236,0.9990234375,-0.216796875,-1.9228515625,42.60058823529412,327.7761336718305
-0.1836943359375,-0.1611064453125,1.0828173828125005,1.1100416119667142,0.912109375,-0.28955078125,-1.7080078125,42.88294117647059,327.7761336718305
-0.1963896484375,-0.1977275390625,1.1375048828125005,1.171145777492878,0.783203125,-0.51708984375,-1.57470703125,43.87117647058824,327.253502374068
-0.1778349609375,-0.2367900390625,1.2341845703125005,1.2692148555419265,0.61474609375,-1.09814453125,-1.58447265625,43.91823529411765,327.253502374068
-0.1368193359375,-0.2690166015625,1.4153369140625005,1.447158610142847,0.30517578125,-1.98291015625,-1.81884765625,43.118235294117646,327.253502374068
-0.0816435546875,-0.2685283203125,1.6228564453125005,1.646947531320955,-0.13232421875,-3.36962890625,-1.98583984375,43.25941176470588,327.253502374068
0.0272431640625,-0.2270244140625,1.7996142578125005,1.81408206856542,-0.958984375,-4.439453125,-1.8642578125,44.01235294117648,327.253502374068
0.1839814453125,-0.1352275390625,1.8738330078125005,1.887693248572929,-1.26171875,-4.27099609375,-1.4169921875,43.02411764705882,327.01975636565027
0.3832001953125,-0.0561259765625,1.8572314453125005,1.897182425701385,-1.10595703125,-3.01953125,-1.029296875,42.60058823529412,327.01975636565027
0.5736298828125,0.0068623046875,1.6897509765625005,1.7844765889400258,-0.9326171875,-1.56884765625,-1.0087890625,43.30647058823529,327.01975636565027
0.7826142578125,0.0820576171875,1.4402392578125005,1.6411909239373104,-0.64453125,-0.302734375,-1.052734375,43.87117647058824,327.01975636565027
0.7992158203125,0.1128193359375,1.3142626953125005,1.542323105671843,0.017578125,0.49951171875,-0.4541015625,43.91823529411765,328.000334668851
0.6727509765625,0.1430927734375,1.2224658203125005,1.4026731979004046,0.6845703125,1.67333984375,0.58642578125,42.69470588235294,328.000334668851
0.6854462890625,0.3667255859375,1.1609423828125005,1.3971798333718968,-0.3017578125,4.1533203125,-0.43896484375,42.69470588235294,328.000334668851
0.3846650390625,0.3921162109375,1.2532275390625005,1.3683207152643664,-0.328125,5.6533203125,-1.763671875,43.30647058823529,328.000334668851
0.0453095703125,0.2402607421875,1.2112353515625005,1.2356655122941342,-0.04345703125,6.6083984375,-2.06591796875,42.55352941176471,328.000334668851
-0.1949248046875,0.1523701171875,1.1506884765625005,1.176986109598546,0.1357421875,6.765625,-1.5986328125,43.91823529411765,328.84206132853217
-0.2232451171875,0.1006123046875,1.1199267578125005,1.1463843862627447,0.50341796875,5.923828125,-1.11962890625,43.49470588235295,328.84206132853217
-0.1636748046875,0.0610615234375,1.0564501953125005,1.0707964169298567,0.8662109375,4.5234375,-1.12451171875,43.73,328.84206132853217
-0.1094755859375,0.0439716796875,1.0339892578125005,1.0406979378294858,1.08447265625,3.3125,-1.4267578125,42.55352941176471,328.84206132853217
-0.0518583984375,0.0141865234375,1.0349658203125005,1.0363613270239642,1.06005859375,2.53466796875,-1.77880859375,42.60058823529412,328.47890488294064
0.0008759765625,-0.0341533203125,1.0222705078125005,1.022841242699244,0.72900390625,2.0625,-2.22021484375,42.55352941176471,328.47890488294064
0.0467744140625,-0.0947001953125,1.0173876953125005,1.022855657156178,0.29052734375,1.74267578125,-2.5595703125,42.69470588235294,328.47890488294064
0.0711884765625,-0.1381572265625,0.9836962890625,0.9958983921877096,-0.02197265625,1.54150390625,-2.65380859375,43.353529411764704,328.47890488294064
0.0790009765625,-0.1689189453125,0.9358447265625,0.9542432167001014,-0.19677734375,1.685546875,-2.2099609375,44.01235294117648,328.47890488294064
0.1263642578125,-0.1874736328125,0.8601611328125001,0.8893770083905382,-0.06103515625,1.8203125,-1.47216796875,42.93,328.0951708262694
0.1346650390625,-0.1767314453125,0.8020556640625001,0.8322631583595947,-0.09765625,1.74169921875,-0.96044921875,43.91823529411765,328.0951708262694
0.1009736328125,-0.1283916015625,0.7869189453125001,0.8036924190054767,-0.2197265625,1.7587890625,-0.93408203125,43.118235294117646,328.0951708262694
0.0404267578125,-0.0702861328125,0.7454150390625001,0.7498120055544026,-0.10302734375,1.6103515625,-0.94482421875,42.60058823529412,328.0951708262694
-0.0103544921875,-0.0390361328125,0.6726611328125001,0.6738724172794224,0.03076171875,1.5615234375,-0.7861328125,43.353529411764704,328.1076547556973
-0.0293974609375,-0.0126689453124999,0.6062548828125001,0.6070994118090555,0.07568359375,1.310546875,-0.53076171875,42.69470588235294,328.1076547556973
-0.0171904296875,-0.0029033203124999,0.5837939453125001,0.5840542018727476,0.32177734375,0.97998046875,-0.22705078125,42.69470588235294,328.1076547556973
-0.0162138671875,-0.0165751953125,0.5540087890625001,0.5544937916219793,0.267578125,0.03564453125,0.0576171875,43.777058823529416,328.1076547556973
-0.0303740234375,-0.0087626953124999,0.5686572265625001,0.5695352556696346,0.1083984375,-0.48583984375,-0.01806640625,43.87117647058824,328.1076547556973
-0.0523466796875,0.0039326171875,0.5877001953125001,0.5900399646825627,0.0517578125,-0.76025390625,-0.21875,43.87117647058824,327.7967206174757
-0.0811552734375,0.0107685546875,0.5979541015625001,0.6035323087890073,0.06201171875,-0.763671875,-0.32275390625,43.30647058823529,327.7967206174757
-0.0806669921875,0.0215107421875,0.6086962890625001,0.6143948632406475,-0.0302734375,-0.56982421875,-0.37158203125,43.25941176470588,327.7967206174757
-0.1060576171875,0.0132099609375,0.6101611328125001,0.6194508287398556,-0.04345703125,-0.41650390625,-0.123046875,43.02411764705882,327.7967206174757
-0.0811552734375,0.0376240234375,0.6155322265625001,0.6219981249837734,-0.26416015625,-0.375,-0.22998046875,42.69470588235294,327.7761336718305
-0.0821318359375,0.0400654296875,0.6248095703125001,0.6314569472930038,-0.34521484375,-0.19873046875,-0.40234375,43.447647058823534,327.7761336718305
-0.1143583984375,0.0268818359375,0.6502001953125001,0.6607274554466266,-0.349609375,-0.36669921875,-0.3525390625,44.01235294117648,327.7761336718305
-0.1490263671875,0.0102802734375,0.7117236328125001,0.7272310991994744,-0.2646484375,-0.42919921875,-0.0283203125,43.447647058823534,327.7761336718305
-0.1578154296875,0.0024677734375,0.7576220703125001,0.7738882355855966,-0.15478515625,-0.5380859375,0.345703125,44.01235294117648,327.7761336718305
-0.1641630859375,-0.0053447265624999,0.7961962890625001,0.8129616323071139,-0.1005859375,-0.7587890625,0.66943359375,42.69470588235294,327.30569625743505
-0.1363310546875,-0.0190166015625,0.8460009765625001,0.8571262683828426,-0.03271484375,-0.60498046875,0.70654296875,43.30647058823529,327.30569625743505
-0.1309599609375,-0.0116923828124999,0.8420947265625001,0.8522973376052264,-0.0791015625,-0.40576171875,0.52783203125,43.447647058823534,327.30569625743505
-0.2193388671875,-0.0214580078125,0.9294970703125,0.9552668676751528,-0.068359375,-0.35009765625,0.40234375,42.60058823529412,327.30569625743505
-0.2818388671875,-0.0268291015625,1.0139697265625005,1.0527523707564928,-0.119140625,-0.14794921875,0.66552734375,44.01235294117648,327.4776931536105
-0.2457060546875,-0.0165751953125,1.0325244140625005,1.0614861600816348,-0.1865234375,-0.05517578125,1.1484375,44.01235294117648,327.4776931536105
-0.1456083984375,0.0176044921875,1.0725634765625005,1.082545211571577,-0.46044921875,0.01806640625,1.26025390625,42.55352941176471,327.4776931536105
-0.0909208984375,0.0703388671875,1.0984423828125005,1.1044409601100036,-0.5322265625,-0.04150390625,1.22216796875,42.69470588235294,327.4776931536105
-0.1099638671875,0.1030537109375,1.0925830078125005,1.1029278074223308,-0.390625,-0.0107421875,1.3349609375,42.69470588235294,327.4776931536105
-0.1202177734375,0.1572529296875,1.0793994140625005,1.0973986932851891,-0.2294921875,-0.103515625,1.16650390625,43.02411764705882,326.6015376709954
-0.1797880859375,0.1743427734375,1.1169970703125005,1.144727746488945,-0.12109375,0.5107421875,0.978515625,43.353529411764704,326.6015376709954
-0.2061552734375,0.2202412109375,1.1458056640625005,1.1848530742497208,-0.037109375,0.98779296875,0.73193359375,43.02411764705882,326.6015376709954
-0.2369169921875,0.2221943359375,1.1814501953125005,1.2252854965736857,0.0771484375,1.57421875,0.51220703125,43.25941176470588,326.6015376709954
-0.2691435546875,0.1899677734375,1.1990283203125005,1.2434608642357992,0.20556640625,2.05810546875,0.3173828125,43.91823529411765,326.81615771906775
-0.3052763671875,0.1352802734375,1.2195361328125005,1.264421920080394,0.26123046875,2.521484375,0.1650390625,43.30647058823529,326.81615771906775
-0.3482451171875,0.0923115234375,1.3831103515625005,1.4292621605582478,0.283203125,3.30419921875,0.02685546875,43.777058823529416,326.81615771906775
-0.3467802734375,0.0244404296875,1.5081103515625005,1.5476597575496578,0.57373046875,2.92041015625,0.6650390625,42.88294117647059,326.81615771906775
-0.2193388671875,-0.0605205078125,1.5398486328125005,1.5565686886544727,0.734375,1.802734375,1.09228515625,43.447647058823534,326.81615771906775
-0.1124052734375,-0.0986064453125,1.4973681640625005,1.5048154688537825,0.81689453125,1.04150390625,0.7138671875,42.83588235294118,326.6030038851621
-0.0376982421875,-0.1684306640625,1.4216845703125005,1.4321232710647505,0.66162109375,0.9169921875,0.08740234375,44.01235294117648,326.6030038851621
0.2293916015625,-0.1991923828125,1.3826220703125005,1.4156065489934535,0.2412109375,0.65673828125,-0.5439453125,43.25941176470588,326.6030038851621
0.4842744140625,-0.1572001953125,1.3157275390625005,1.4108056445057655,-0.076171875,0.23486328125,-1.36767578125,42.93,326.6030038851621
0.4945283203125,-0.1088603515625,1.2078173828125005,1.309668532857628,-0.23486328125,0.2236328125,-1.97705078125,42.55352941176471,326.579489435703
0.4095673828125,-0.0942119140625,1.1550830078125005,1.2291615356625725,-0.32080078125,0.4140625,-2.126953125,43.353529411764704,326.579489435703
0.3597626953125,-0.1244853515625,1.1350634765625005,1.1972029466712415,-0.36376953125,0.408203125,-2.04931640625,43.447647058823534,326.579489435703
0.3241181640625,-0.1591533203125,1.1497119140625005,1.2050808474865895,-0.31689453125,0.28271484375,-2.02294921875,44.01235294117648,326.579489435703
0.3075166015625,-0.2372783203125,1.1575244140625005,1.2209546390745256,-0.34765625,-0.0859375,-2.052734375,42.97705882352941,326.579489435703
0.2552705078125,-0.3285869140625,1.1340869140625005,1.2080089076243492,-0.5029296875,-0.60546875,-2.06005859375,43.02411764705882,328.04151057126404
0.1234345703125,-0.3730205078125,1.1472705078125005,1.2126871032930462,-0.94482421875,-0.93017578125,-1.31201171875,42.788823529411765,328.04151057126404
0.0086884765625,-0.3373759765625,1.2141650390625005,1.2601963264777916,-0.95361328125,-0.92724609375,0.01025390625,43.02411764705882,328.04151057126404
-0.0552763671875,-0.2226298828125,1.2590869140625005,1.2798122513298522,-0.908203125,-0.51416015625,1.07958984375,43.16529411764706,328.04151057126404
-0.1128935546875,-0.1274150390625,1.3069384765625005,1.317978652478403,-0.5791015625,0.1796875,1.67578125,42.60058823529412,328.6685920825529
-0.1880888671875,-0.1010478515625,1.2898486328125005,1.3074010807068923,-0.08642578125,0.908203125,2.5751953125,43.30647058823529,328.6685920825529
-0.0713896484375,0.0234638671875,1.2654345703125005,1.2676638697657217,0.15380859375,1.6162109375,2.88916015625,43.353529411764704,328.6685920825529
0.0501923828125,0.1084248046875,1.1238330078125005,1.130166289982501,0.27880859375,1.23388671875,2.0,42.69470588235294,328.6685920825529
0.0243134765625,0.1045185546875,1.0491259765625005,1.0545997288614952,0.19384765625,0.85400390625,1.232421875,43.25941176470588,328.6685920825529
-0.0503935546875,0.0864521484375,1.0046923828125005,1.0096634431358606,0.12255859375,1.0927734375,1.14599609375,43.87117647058824,327.53652832462245
-0.0489287109375,0.0776630859375,0.9739306640625,0.9782466519608248,0.01025390625,2.0458984375,1.044921875,43.91823529411765,327.53652832462245
-0.0508818359375,0.0796162109375,0.9094775390625,0.914372515078836,-0.111328125,2.99609375,0.66552734375,43.91823529411765,327.53652832462245
-0.0577177734375,0.0674091796875,0.8396533203125001,0.8443299338460825,-0.208984375,4.01611328125,0.052734375,44.01235294117648,327.53652832462245
-0.1001982421875,0.0400654296875,0.7659228515625001,0.7734873889981273,-0.12841796875,4.78076171875,-0.3515625,43.87117647058824,328.1253241029164
-0.1089873046875,-0.0068095703124999,0.6804736328125001,0.6891799241010493,0.01611328125,4.7060546875,-0.40185546875,43.16529411764706,328.1253241029164
-0.1041044921875,-0.0385478515625,0.6047900390625001,0.6148940343692741,0.21142578125,4.0986328125,-0.27978515625,43.353529411764704,328.1253241029164
-0.0948271484375,-0.0658916015625,0.5442431640625001,0.556358259456998,0.3193359375,3.0322265625,-0.07177734375,43.777058823529416,328.1253241029164
-0.0796904296875,-0.0893291015625,0.4998095703125,0.513945385761666,0.3681640625,1.86767578125,0.10009765625,42.69470588235294,328.1253241029164
-0.0840849609375,-0.0990947265625,0.4753955078125,0.4928396639239402,0.36474609375,0.44482421875,0.0810546875,43.49470588235295,328.2105978786029
-0.0997099609375,-0.0966533203125,0.4885791015625,0.5079305849436596,0.28125,-0.59765625,-0.17236328125,44.01235294117648,328.2105978786029
-0.1153349609375,-0.0849345703125,0.5320361328125001,0.550979565017346,0.208984375,-1.185546875,-0.4541015625,43.353529411764704,328.2105978786029
-0.1246123046875,-0.0678447265625,0.5867236328125001,0.6036354485138925,0.19873046875,-1.44677734375,-0.74560546875,43.02411764705882,328.2105978786029
-0.1211943359375,-0.0683330078125,0.6282275390625001,0.6434495379255158,0.1376953125,-1.42431640625,-0.99853515625,43.87117647058824,328.03048658927554
-0.1265654296875,-0.0663798828125,0.6697314453125001,0.6848104158630716,0.10888671875,-1.28173828125,-1.11376953125,42.60058823529412,328.03048658927554
-0.1465849609375,-0.0649150390625,0.6985400390625001,0.7167002855050173,0.15234375,-1.06884765625,-1.1201171875,43.777058823529416,328.03048658927554
-0.1534208984375,-0.0688212890625,0.7048876953125001,0.7246661334080419,0.22802734375,-0.96044921875,-1.09375,43.118235294117646,328.03048658927554
-0.1568388671875,-0.0751689453125,0.7166064453125001,0.7374100609996239,0.24462890625,-1.08203125,-1.08837890625,43.30647058823529,328.03048658927554
-0.1661162109375,-0.0634501953125,0.7346728515625001,0.7558867121761048,0.2021484375,-1.12060546875,-1.15478515625,44.01235294117648,327.51740291102504
-0.1744169921875,-0.0629619140625,0.7444384765625001,0.7671858543878687,0.07177734375,-1.23046875,-1.31396484375,43.16529411764706,327.51740291102504
-0.1963896484375,-0.0673564453125,0.7815478515625001,0.8086549505323641,-0.0966796875,-1.1552734375,-1.56201171875,42.60058823529412,327.51740291102504
-0.2193388671875,-0.0693095703125,0.8191455078125001,0.8508306048593913,-0.15087890625,-1.0751953125,-1.78564453125,43.447647058823534,327.51740291102504
-0.1993193359375,-0.0522197265625,0.8596728515625001,0.8840206497782891,0.0615234375,-1.2958984375,-1.8857421875,43.16529411764706,327.6151573655551
-0.2393583984375,-0.1039775390625,0.8308642578125001,0.8708841406538388,0.02685546875,-1.5673828125,-1.837890625,43.49470588235295,327.6151573655551
-0.2515654296875,-0.1093486328125,0.8811572265625001,0.9228652918141068,0.02197265625,-2.09814453125,-1.63427734375,43.91823529411765,327.6151573655551
-0.2447294921875,-0.1039775390625,0.9988330078125,1.0336204479747926,0.25537109375,-2.37451171875,-1.4375,43.87117647058824,327.6151573655551
-0.2085966796875,-0.1015361328125,1.0803759765625005,1.105004258714211,0.55810546875,-1.99462890625,-1.376953125,43.91823529411765,327.6151573655551
-0.1792998046875,-0.1093486328125,1.1350634765625005,1.1543286530642338,0.677734375,-0.54541015625,-1.5107421875,44.01235294117648,327.5931093037363
-0.1685576171875,-0.1279033203125,1.1365283203125005,1.15605689848348,0.671875,0.6611328125,-1.53515625,44.01235294117648,327.5931093037363
-0.1661162109375,-0.1508525390625,1.1062548828125005,1.128782950714766,0.73828125,1.21484375,-1.40380859375,43.353529411764704,327.5931093037363
-0.1919951171875,-0.1869853515625,1.0769580078125005,1.1098036751219844,0.779296875,1.04150390625,-0.9287109375,42.60058823529412,327.5931093037363
-0.2193388671875,-0.2113994140625,1.0813525390625005,1.1234422836363158,0.8154296875,0.6689453125,-0.39453125,42.74176470588235,327.52988878418336
-0.2461943359375,-0.2162822265625,1.1209033203125005,1.1678244328931155,0.7275390625,0.53271484375,-0.1357421875,42.60058823529412,327.52988878418336
-0.2422880859375,-0.1952861328125,1.1711962890625005,1.2118337087941935,0.63720703125,0.27392578125,-0.23095703125,42.69470588235294,327.52988878418336
-0.2251982421875,-0.1630595703125,1.2844775390625005,1.314224189440635,0.40185546875,-0.1513671875,-0.64697265625,43.02411764705882,327.52988878418336
-0.2027373046875,-0.1108134765625,1.5007861328125005,1.5184666798261066,0.08056640625,-0.7333984375,-1.26513671875,44.01235294117648,327.52988878418336
-0.1421904296875,-0.0751689453125,1.7390673828125005,1.7464890067207492,-0.326171875,-0.94384765625,-1.72119140625,43.353529411764704,327.2520390081489
-0.0440458984375,-0.0351298828125,1.7849658203125005,1.7858547335994224,-0.90234375,-0.1806640625,-2.09228515625,43.73,327.2520390081489
0.0638642578125,-0.0390361328125,1.7117236328125005,1.7133593488289955,-0.8974609375,-0.59716796875,-1.8642578125,42.55352941176471,327.2520390081489
0.2518525390625,0.0273701171875,1.5759814453125005,1.5962131250921234,-0.55224609375,-0.56982421875,-1.14794921875,43.30647058823529,327.2520390081489
0.4564423828125,0.1133076171875,1.3450244140625005,1.4248750609665517,-0.2412109375,-0.46728515625,-0.568359375,43.63588235294118,327.6783785940352
0.5863251953125,0.1777607421875,1.2385791015625005,1.3818300571881703,-0.08740234375,-1.345703125,-0.0732421875,44.01235294117648,327.6783785940352
0.6405244140625,0.2246357421875,1.0842822265625005,1.2792187805522444,-0.20166015625,-2.724609375,-0.19384765625,44.01235294117648,327.6783785940352
0.5609345703125,0.2724873046875,1.0940478515625005,1.2593004506058314,-0.26123046875,-3.30078125,-0.89208984375,42.55352941176471,327.6783785940352
0.3324189453125,0.2837177734375,1.1907275390625005,1.2683967054706684,0.01513671875,-3.29443359375,-1.74169921875,43.25941176470588,327.6783785940352
0.0604462890625,0.2485615234375,1.2634814453125005,1.2891167315041578,0.26416015625,-2.78369140625,-2.08642578125,42.60058823529412,328.3164620804152
-0.1275419921875,0.1811787109375,1.3132861328125005,1.3318457687381609,0.31982421875,-1.365234375,-2.12255859375,42.74176470588235,328.3164620804152
-0.1885771484375,0.1098896484375,1.3469775390625005,1.3645459195224636,0.31396484375,0.49267578125,-1.93359375,43.16529411764706,328.3164620804152
-0.1734404296875,0.0190693359375,1.3435595703125005,1.3548422569441774,0.64208984375,1.9833984375,-1.50146484375,43.30647058823529,328.3164620804152
-0.1231474609375,-0.0531962890625,1.2913134765625005,1.29826254550353,1.22021484375,3.09375,-1.029296875,42.74176470588235,328.1900087545694
-0.0723662109375,-0.1054423828125,1.2058642578125005,1.2126267244491689,1.4033203125,3.6953125,-0.6650390625,43.447647058823534,328.1900087545694
0.0062470703125,-0.1405986328125,1.1384814453125005,1.1471473326286703,1.2705078125,3.56494140625,-0.634765625,43.25941176470588,328.1900087545694
0.0331025390625,-0.1757548828125,1.0852587890625005,1.0998964479269058,0.90771484375,3.09326171875,-0.80029296875,43.777058823529416,328.1900087545694
0.0619111328125,-0.1777080078125,1.0471728515625005,1.0639474166782643,0.4765625,2.5048828125,-0.94970703125,43.353529411764704,328.1900087545694
0.0887666015625,-0.1484111328125,0.9719775390625,0.9872414650619368,0.2275390625,2.1181640625,-0.97705078125,42.60058823529412,328.1459131110008
0.1283173828125,-0.1108134765625,0.8821337890625001,0.8982789094292934,-0.06103515625,1.12451171875,-1.291015625,42.55352941176471,328.1459131110008
0.0516572265625,-0.1010478515625,0.8303759765625001,0.8380951018909799,-0.2080078125,0.623046875,-1.68505859375,43.777058823529416,328.1459131110008
0.0257783203125,-0.0649150390625,0.8015673828125001,0.8046047186559999,-0.32763671875,0.501953125,-1.98291015625,43.16529411764706,328.1459131110008
-0.0113310546875,-0.0458720703125,0.7502978515625001,0.7517842148478441,-0.3642578125,0.42529296875,-2.05712890625,43.91823529411765,328.0194626212131
-0.0567412109375,-0.0351298828125,0.7249072265625001,0.7279726374030893,-0.55859375,0.44921875,-1.78369140625,42.69470588235294,328.0194626212131
-0.0718779296875,-0.0151103515624999,0.7141650390625001,0.7179320737504669,-0.55712890625,0.45458984375,-1.26171875,42.788823529411765,328.0194626212131
-0.0694365234375,-0.0146220703124999,0.6941455078125001,0.6977630125935192,-0.44921875,0.423828125,-0.73828125,43.353529411764704,328.0194626212131
-0.0455107421875,-0.0102275390624999,0.6477587890625001,0.649436123893219,-0.2880859375,0.1630859375,-0.42724609375,43.447647058823534,328.0194626212131
-0.0372099609375,-0.0234111328125,0.6389697265625001,0.6404802680769259,-0.14794921875,-0.14501953125,-0.3408203125,43.73,327.82541120713887
-0.0591826171875,-0.0307353515625,0.6018603515625001,0.6055436621712499,-0.04052734375,-0.412109375,-0.31640625,43.118235294117646,327.82541120713887
-0.0826201171875,-0.0409892578125,0.5872119140625001,0.5944106619476477,0.005859375,-0.54052734375,-0.2216796875,43.447647058823534,327.82541120713887
-0.0679716796875,-0.0312236328125,0.5613330078125001,0.5662948085100006,-0.0595703125,-0.84326171875,-0.1787109375,42.60058823529412,327.82541120713887
-0.0962919921875,-0.0068095703124999,0.5579150390625001,0.5662046527708771,-0.18212890625,-0.9736328125,-0.248046875,43.25941176470588,328.0812285484236
-0.0962919921875,-0.0068095703124999,0.5618212890625001,0.5700541016878378,-0.2216796875,-0.99560546875,-0.3232421875,43.87117647058824,328.0812285484236
-0.1041044921875,-0.0077861328124999,0.5710986328125001,0.5805618120046288,-0.2236328125,-0.8994140625,-0.2197265625,42.60058823529412,328.0812285484236
-0.1060576171875,-0.0165751953125,0.5979541015625001,0.6075130145425318,-0.16064453125,-0.638671875,-0.025390625,43.25941176470588,328.0812285484236
-0.1070341796875,-0.0312236328125,0.6292041015625001,0.6390062850163986,-0.07421875,-0.31494140625,0.166015625,42.74176470588235,328.0812285484236
-0.1060576171875,-0.0463603515625,0.6560595703125001,0.6661919094068248,-0.0390625,-0.197265625,0.55859375,43.777058823529416,327.9974147268665
-0.1226591796875,-0.0483134765625,0.7117236328125001,0.7238300877160248,0.05517578125,-0.4365234375,0.935546875,43.30647058823529,327.9974147268665
-0.1299833984375,-0.0302470703125,0.7493212890625001,0.7611129767479582,0.16455078125,-0.98779296875,1.0966796875,43.02411764705882,327.9974147268665
-0.1587919921875,-0.0082744140624999,0.7825244140625001,0.7985160119338947,0.1220703125,-1.27978515625,1.14794921875,43.25941176470588,327.9974147268665
-0.1749052734375,0.0136982421875,0.8474658203125001,0.8654350426884808,-0.11572265625,-1.25048828125,1.09423828125,43.25941176470588,327.8158473467225
-0.2061552734375,0.0259052734375,0.9138720703125,0.9371943452962236,-0.267578125,-0.40771484375,0.88232421875,43.25941176470588,327.8158473467225
-0.2159208984375,0.0361591796875,0.9622119140625,0.9868034699075344,-0.50927734375,-0.13427734375,0.83056640625,43.353529411764704,327.8158473467225
-0.2237333984375,0.0176044921875,0.9597705078125,0.9856601743949266,-0.52880859375,-0.283203125,1.16064453125,43.63588235294118,327.8158473467225
-0.1651396484375,0.0312763671875,1.0325244140625005,1.046114707030552,-0.89599609375,-0.03173828125,1.10400390625,43.30647058823529,327.8158473467225
-0.1246123046875,0.0249287109375,1.1062548828125005,1.113530211918399,-0.765625,0.4765625,1.00537109375,42.55352941176471,327.3343809138937
-0.1353544921875,0.0425068359375,1.0955126953125005,1.1046609141485964,-0.49365234375,0.5439453125,1.35302734375,43.30647058823529,327.3343809138937
-0.1290068359375,0.0488544921875,1.0935595703125005,1.102225956393499,-0.3671875,0.69921875,1.52685546875,43.49470588235295,327.3343809138937
-0.1475615234375,0.0976826171875,1.1428759765625005,1.1564954797592095,-0.4345703125,0.77392578125,1.1279296875,42.60058823529412,327.3343809138937
-0.2559599609375,0.1279560546875,1.1970751953125005,1.2308035085937876,-0.27734375,1.044921875,1.158203125,43.25941176470588,326.7140118526021
-0.3228544921875,0.1396748046875,1.2302783203125005,1.2795815017501178,-0.17138671875,1.41015625,1.48974609375,43.91823529411765,326.7140118526021
-0.3404326171875,0.1177021484375,1.2332080078125005,1.284737386832348,-0.0341796875,1.74853515625,1.56591796875,43.353529411764704,326.7140118526021
-0.3326201171875,0.0742451171875,1.2786181640625005,1.3232584363058375,0.01123046875,2.16748046875,1.37646484375,42.60058823529412,326.7140118526021
-0.3726591796875,0.0146748046875,1.4260791015625005,1.4740392864544976,0.0595703125,2.658203125,1.5126953125,43.118235294117646,326.7140118526021
-0.3379912109375,-0.0336650390625,1.6184619140625005,1.6537201579459957,0.22802734375,2.54296875,2.34814453125,42.55352941176471,326.202444600128
-0.1167998046875,-0.0551494140625,1.6389697265625005,1.6440515249939194,0.48681640625,1.4775390625,2.87255859375,42.69470588235294,326.202444600128
0.0335908203125,-0.0751689453125,1.5642626953125005,1.5664279407285189,0.7919921875,0.92626953125,2.7138671875,42.60058823529412,326.202444600128
0.1942353515625,-0.0912822265625,1.5662158203125005,1.5808516098862582,0.91552734375,0.4052734375,2.34521484375,44.01235294117648,326.202444600128
0.4388642578125,-0.1322978515625,1.4895556640625005,1.5584866488533182,0.6865234375,-0.1259765625,1.67529296875,43.777058823529416,327.0469722713567
0.6107392578125,-0.1547587890625,1.2937548828125005,1.439011612401596,0.51123046875,-0.3056640625,0.76513671875,43.353529411764704,327.0469722713567
0.6244111328125,-0.1801494140625,1.1687548828125005,1.3372849547741548,0.376953125,-0.353515625,-0.23486328125,43.16529411764706,327.0469722713567
0.5633759765625,-0.2446025390625,1.2063525390625005,1.353702087457249,0.4326171875,-0.8583984375,-1.4541015625,43.25941176470588,327.0469722713567
0.4251923828125,-0.3549541015625,1.0212939453125005,1.1618185311612934,0.36181640625,-1.67431640625,-2.10400390625,43.30647058823529,327.0469722713567
0.2694306640625,-0.4633525390625,0.9446337890625,1.0861037950543224,0.17626953125,-3.494140625,-1.310546875,42.69470588235294,328.0907938699189
0.1405244140625,-0.5058330078125,0.9719775390625,1.1046965552504648,-0.13671875,-6.1298828125,0.8203125,43.777058823529416,328.0907938699189
0.0941376953125,-0.4677470703125,1.0930712890625005,1.1926667893579632,-0.20703125,-8.607421875,2.6865234375,42.55352941176471,328.0907938699189
0.0653291015625,-0.3593486328125,1.2756884765625005,1.3269440156425325,-0.33203125,-8.97607421875,2.87548828125,43.49470588235295,328.0907938699189
0.0042939453125,-0.1825908203125,1.4631884765625005,1.4745434424166786,-0.83251953125,-6.65478515625,1.72802734375,43.91823529411765,328.7097751694873
0.0033173828125,0.0005146484375,1.5818408203125005,1.5818443825796085,-1.3046875,-2.4150390625,0.4853515625,43.49470588235295,328.7097751694873
0.0809541015625,0.1333271484375,1.6023486328125005,1.6099226180616122,-1.478515625,2.03955078125,-0.53857421875,42.69470588235294,328.7097751694873
0.0980439453125,0.1548115234375,1.5134814453125005,1.524534456254333,-1.01953125,4.41162109375,-0.2890625,42.60058823529412,328.7097751694873
0.1629853515625,0.2129169921875,1.3889697265625005,1.414614707859787,-0.3720703125,6.15478515625,0.12939453125,43.73,328.7097751694873
0.2113251953125,0.1977802734375,1.1868212890625005,1.2216055610985297,0.3427734375,7.57373046875,0.07373046875,43.118235294117646,328.4649661477779
0.2225556640625,0.1513935546875,1.0090869140625005,1.0443693944861645,0.58935546875,8.1298828125,-0.396484375,43.87117647058824,328.4649661477779
0.2332978515625,0.0893818359375,0.8508837890625001,0.886803373149084,0.626953125,7.15576171875,-1.01904296875,43.353529411764704,328.4649661477779
0.1444306640625,0.0317646484375,0.7009814453125001,0.7164106338436736,0.6201171875,4.7041015625,-1.4443359375,42.97705882352941,328.4649661477779
0.0506806640625,-0.0209697265625,0.5881884765625001,0.5907401654728047,0.8369140625,1.64599609375,-1.3349609375,43.87117647058824,327.9628838615329
-0.0494169921875,-0.0595439453125,0.5198291015625001,0.5255566718932541,0.92919921875,-0.94140625,-0.853515625,43.353529411764704,327.9628838615329
-0.0684599609375,-0.0610087890625,0.5515673828125001,0.5591381013462307,1.015625,-2.41259765625,-0.4619140625,43.447647058823534,327.9628838615329
-0.0772490234375,-0.0678447265625,0.5442431640625001,0.5538690641055422,1.18359375,-3.453125,-0.2060546875,42.55352941176471,327.9628838615329
-0.0743193359375,-0.0834697265625,0.5422900390625001,0.5536867755446371,1.0751953125,-3.7998046875,-0.2333984375,43.16529411764706,327.9628838615329
-0.0743193359375,-0.0947001953125,0.5701220703125001,0.5826925996988703,0.9990234375,-3.60498046875,-0.58251953125,43.91823529411765,328.55981045258574
-0.0782255859375,-0.0961650390625,0.5984423828125001,0.6111466620864915,0.74853515625,-3.04638671875,-1.04443359375,43.353529411764704,328.55981045258574
-0.0796904296875,-0.1010478515625,0.6350634765625001,0.6479713359036992,0.41015625,-2.32666015625,-1.41650390625,42.60058823529412,328.55981045258574
-0.0669951171875,-0.1020244140625,0.6609423828125001,0.672117668410546,0.19677734375,-1.53515625,-1.70703125,43.87117647058824,328.55981045258574
-0.0601591796875,-0.1039775390625,0.6897509765625001,0.7001334624191942,0.10546875,-0.7431640625,-1.8818359375,43.25941176470588,328.2517768758702
-0.0591826171875,-0.1078837890625,0.6936572265625001,0.7044869353522631,0.07763671875,-0.12060546875,-1.95703125,42.60058823529412,328.2517768758702
-0.0816435546875,-0.0956767578125,0.6907275390625001,0.7020856395247378,0.0966796875,0.546875,-1.888671875,42.69470588235294,328.2517768758702
-0.1070341796875,-0.0756572265625,0.6775439453125001,0.6901058827325945,0.103515625,0.97998046875,-1.658203125,42.69470588235294,328.2517768758702
-0.1324248046875,-0.0663798828125,0.6628955078125001,0.6792444861879381,0.14111328125,1.30078125,-1.48681640625,43.353529411764704,328.2517768758702
-0.1314482421875,-0.0370830078125,0.6687548828125001,0.6825590693325863,0.1044921875,1.53515625,-1.49658203125,44.01235294117648,327.61077419089645
-0.1182646484375,-0.0229228515625,0.6687548828125001,0.6795182686869887,0.06396484375,1.3916015625,-1.6328125,43.02411764705882,327.61077419089645
-0.0987333984375,-0.0209697265625,0.6702197265625001,0.6777776149096667,0.0,0.84033203125,-1.8017578125,43.25941176470588,327.61077419089645
-0.0909208984375,-0.0170634765625,0.7024462890625001,0.7085115108611564,-0.09423828125,0.02587890625,-2.06103515625,43.447647058823534,327.61077419089645
-0.0704130859375,-0.0229228515625,0.7341845703125001,0.7379095087339291,-0.14697265625,-1.0732421875,-2.251953125,43.447647058823534,327.4196489204636
-0.0909208984375,-0.0502666015625,0.7918017578125001,0.7985883574660292,-0.26611328125,-2.13916015625,-2.63037109375,43.353529411764704,327.4196489204636
-0.1236357421875,-0.0610087890625,0.8909228515625001,0.9015272577828044,-0.23095703125,-2.19775390625,-2.80322265625,43.91823529411765,327.4196489204636
-0.1167998046875,-0.0878642578125,0.9636767578125,0.9746974995987172,-0.04150390625,-1.97119140625,-2.75927734375,43.118235294117646,327.4196489204636
-0.1128935546875,-0.1039775390625,1.0593798828125005,1.0704401054833943,0.30078125,-1.67626953125,-2.48876953125,43.25941176470588,327.4196489204636
-0.0787138671875,-0.1244853515625,1.1414111328125005,1.1508743848698544,0.70263671875,-1.65283203125,-2.20703125,42.74176470588235,327.2586754302548
-0.0210966796875,-0.1391337890625,1.1604541015625005,1.1689555179671958,0.8701171875,-2.06396484375,-2.1064453125,43.353529411764704,327.2586754302548
-0.0118193359375,-0.1591533203125,1.2024462890625005,1.2129907477588917,0.9150390625,-2.12646484375,-2.24072265625,43.16529411764706,327.2586754302548
-0.0645537109375,-0.1762431640625,1.2444384765625005,1.258513391436007,0.890625,-1.6171875,-2.37353515625,42.55352941176471,327.2586754302548
-0.1392607421875,-0.1864970703125,1.2717822265625005,1.29290554308891,0.86572265625,-0.49560546875,-2.21533203125,43.91823529411765,327.0124374955062
-0.1949248046875,-0.1962626953125,1.3040087890625005,1.333024248468885,1.02490234375,0.7998046875,-1.70361328125,43.447647058823534,327.0124374955062
-0.1856474609375,-0.2040751953125,1.3054736328125005,1.3343062133794634,1.20556640625,1.3896484375,-1.37353515625,42.55352941176471,327.0124374955062
-0.1519560546875,-0.2426494140625,1.3181689453125005,1.348902794528699,1.10498046875,1.00341796875,-1.0146484375,43.353529411764704,327.0124374955062
-0.0733427734375,-0.2963603515625,1.3582080078125005,1.3920982770191743,0.75,-0.17626953125,-1.03125,43.25941176470588,327.0124374955062
0.0833955078125,-0.3656962890625,1.4368212890625005,1.484972728120154,0.26513671875,-2.2177734375,-1.2666015625,42.69470588235294,326.84483530929083
0.1825166015625,-0.4081767578125,1.5051806640625005,1.5701876979940577,-0.20751953125,-4.59375,-1.27880859375,43.777058823529416,326.84483530929083
0.2489228515625,-0.3730205078125,1.6121142578125005,1.673325809733732,-0.556640625,-6.2783203125,-0.861328125,44.01235294117648,326.84483530929083
0.3558564453125,-0.4042705078125,1.7947314453125005,1.87380079356129,-0.98046875,-6.7314453125,-0.31640625,43.16529411764706,326.84483530929083
0.5018525390625,-0.1371806640625,1.8811572265625005,1.9517753499325747,-1.48046875,-5.11572265625,-0.048828125,43.777058823529416,327.3454048487667
0.6810517578125,0.0713154296875,1.7058642578125005,1.838175795024296,-1.3076171875,-2.40185546875,0.20458984375,42.60058823529412,327.3454048487667
0.7455048828125,0.3066669921875,1.5920947265625005,1.7845413396003833,-0.5537109375,0.091796875,0.71240234375,43.353529411764704,327.3454048487667
0.6815400390625,0.5595966796875,1.6135791015625005,1.8388264697251435,0.57568359375,2.0693359375,1.6240234375,42.74176470588235,327.3454048487667
0.6082978515625,0.6548115234375,1.4651416015625005,1.71622968161934,1.29931640625,4.6279296875,1.7431640625,43.118235294117646,327.3454048487667
0.4940400390625,0.5615498046875,1.2839892578125005,1.485948235141232,0.8828125,8.15380859375,-0.05859375,42.60058823529412,328.387799815675
0.2738251953125,0.3637958984375,1.1418994140625005,1.2293339518390265,-0.05419921875,10.49609375,-2.08984375,43.02411764705882,328.387799815675
0.0663056640625,0.1777607421875,1.0178759765625005,1.035406599463652,-0.50830078125,10.04345703125,-3.27880859375,43.91823529411765,328.387799815675
0.0160126953125,0.0840107421875,0.8953173828125001,0.8993928102782957,-0.48876953125,7.69287109375,-2.92041015625,43.353529411764704,328.387799815675
-0.0411162109375,0.0957294921875,0.8313525390625001,0.8378554306573415,0.0458984375,5.455078125,-2.02587890625,42.60058823529412,327.9092237066124
0.0091767578125,0.1064716796875,0.7708056640625001,0.778178516286757,0.6923828125,2.93212890625,-1.1845703125,43.91823529411765,327.9092237066124
0.0536103515625,0.1426044921875,0.8059619140625001,0.8202345505439272,1.017578125,1.2548828125,-1.0458984375,43.16529411764706,327.9092237066124
0.0936494140625,0.1133076171875,0.8792041015625001,0.8914082572375474,1.06103515625,0.28466796875,-1.5888671875,43.447647058823534,327.9092237066124
0.1073212890625,0.0151630859375,0.9895556640625,0.9954738522630115,0.8759765625,0.3310546875,-2.2041015625,42.55352941176471,327.9092237066124
0.1009736328125,-0.0795634765625,1.0593798828125005,1.067151234565135,0.82958984375,0.943359375,-2.5673828125,43.353529411764704,328.0907938699189
0.0809541015625,-0.1435283203125,1.0515673828125005,1.064400256429249,0.5732421875,1.71923828125,-2.388671875,43.118235294117646,328.0907938699189
0.0702119140625,-0.1459697265625,0.9866259765625,0.999833831982574,0.44140625,2.28271484375,-2.08447265625,43.118235294117646,328.0907938699189
0.0755830078125,-0.1249736328125,0.8782275390625001,0.8902891723120713,0.31640625,2.140625,-1.93408203125,43.68294117647059,328.0907938699189
0.0628876953125,-0.0790751953125,0.8132861328125001,0.8195377249160282,0.18505859375,1.55712890625,-1.99462890625,43.30647058823529,328.547330796191
0.0726533203125,-0.0385478515625,0.7727587890625001,0.7771232771483921,0.201171875,0.80712890625,-2.05126953125,43.353529411764704,328.547330796191
0.0497041015625,-0.0341533203125,0.7473681640625001,0.7497973857347434,0.22607421875,0.2763671875,-1.83642578125,43.25941176470588,328.547330796191
0.0521455078125,-0.0151103515624999,0.7097705078125001,0.7118438385416987,0.2265625,0.08251953125,-1.70654296875,42.60058823529412,328.547330796191
0.0379853515625,-0.0029033203124999,0.6790087890625001,0.6800766514344441,0.12109375,0.13818359375,-1.49169921875,43.91823529411765,328.547330796191
0.0125947265625,0.0034443359375,0.6580126953125001,0.6581422321805945,0.0771484375,0.3828125,-1.28271484375,43.91823529411765,327.8651285307509
-0.0132841796875,2.6367187500001e-05,0.6453173828125001,0.6454540995959148,0.05712890625,0.64013671875,-1.162109375,42.97705882352941,327.8651285307509
-0.0567412109375,-0.0209697265625,0.6287158203125001,0.631619250151529,-0.01171875,0.9873046875,-1.076171875,43.87117647058824,327.8651285307509
-0.0831083984375,-0.0351298828125,0.6091845703125001,0.6158302974554691,-0.13818359375,1.36474609375,-0.97705078125,43.16529411764706,327.8651285307509
-0.0914091796875,-0.0502666015625,0.5974658203125001,0.6065045554696794,-0.314453125,1.61767578125,-0.9326171875,42.60058823529412,327.8033634464061
-0.0894560546875,-0.0458720703125,0.5754931640625001,0.5842080232568494,-0.46826171875,1.7041015625,-0.9580078125,43.777058823529416,327.8033634464061
-0.0962919921875,-0.0478251953125,0.5671923828125001,0.5772924702320634,-0.765625,1.69482421875,-0.95654296875,42.69470588235294,327.8033634464061
-0.0699248046875,-0.0365947265625,0.5623095703125001,0.56782101509877,-0.8232421875,1.26220703125,-1.04541015625,43.25941176470588,327.8033634464061
-0.0787138671875,-0.0263408203125,0.5437548828125001,0.5500537103636176,-0.90087890625,0.3203125,-1.18701171875,43.16529411764706,327.8033634464061
-0.1456083984375,-0.0336650390625,0.6072314453125001,0.6253520358381518,-0.84814453125,-0.39404296875,-0.96875,43.25941176470588,328.1760680671711
-0.2007841796875,-0.0468486328125,0.6965869140625001,0.7264588151108772,-0.7451171875,-0.6396484375,-0.42578125,42.55352941176471,328.1760680671711
-0.2266630859375,-0.0434306640625,0.7786181640625001,0.8121013622175981,-0.55322265625,-0.6943359375,0.2373046875,43.353529411764704,328.1760680671711
-0.2271513671875,-0.0409892578125,0.8372119140625001,0.8684478406440799,-0.419921875,-0.6904296875,0.921875,42.69470588235294,328.1760680671711
-0.1939482421875,-0.0356181640625,0.8777392578125001,0.8996170179382129,-0.4033203125,-0.76513671875,1.45654296875,43.49470588235295,327.7894210959193
-0.1563505859375,-0.0131572265624999,0.8928759765625001,0.9065572943042568,-0.380859375,-0.6142578125,1.9970703125,43.118235294117646,327.7894210959193
-0.1456083984375,0.0415302734375,0.9251025390625,0.937412010317348,-0.56591796875,0.42333984375,1.37158203125,43.73,327.7894210959193
-0.1900419921875,0.0547138671875,0.9983447265625,1.0177434642936098,-0.7880859375,0.6298828125,1.44482421875,43.353529411764704,327.7894210959193
-0.1929716796875,0.0503193359375,1.0603564453125005,1.0789466603342204,-0.59033203125,0.50830078125,1.79931640625,44.01235294117648,327.7894210959193
-0.1700224609375,0.0464130859375,1.0896533203125005,1.1038143730888548,-0.7255859375,0.50439453125,2.25439453125,43.91823529411765,327.5571153728367
-0.1275419921875,0.0581318359375,1.1091845703125005,1.1180056713362176,-0.77783203125,0.6796875,2.42236328125,43.16529411764706,327.5571153728367
-0.1133818359375,0.0469013671875,1.0935595703125005,1.1004216068337966,-0.791015625,0.92529296875,2.099609375,43.25941176470588,327.5571153728367
-0.1451201171875,0.0566669921875,1.1023486328125005,1.113302970749508,-0.8740234375,1.2333984375,1.775390625,43.02411764705882,327.5571153728367
-0.2110380859375,0.0830341796875,1.1702197265625005,1.1919924316658024,-0.67236328125,1.6806640625,1.669921875,44.01235294117648,326.533927725055
-0.2398466796875,0.1577412109375,1.2356494140625005,1.2685575248518086,-0.53369140625,1.91650390625,1.544921875,43.30647058823529,326.533927725055
-0.2437529296875,0.1860615234375,1.3289111328125005,1.3638325337621644,-0.2509765625,1.99365234375,1.650390625,43.353529411764704,326.533927725055
-0.1968779296875,0.2129169921875,1.4392626953125005,1.4681865245527936,0.11962890625,1.6015625,1.798828125,43.30647058823529,326.533927725055
-0.1138701171875,0.2177998046875,1.4880908203125005,1.5082497962899044,0.546875,0.77978515625,1.7470703125,43.25941176470588,326.533927725055
-0.0533232421875,0.2124287109375,1.4797900390625005,1.4959103867199233,0.89208984375,-0.01806640625,1.2353515625,43.447647058823534,326.7581076319538
0.0536103515625,0.1831318359375,1.4177783203125005,1.4305616745448722,0.93505859375,-0.64599609375,-0.123046875,43.91823529411765,326.7581076319538
0.1493134765625,0.0405537109375,1.3694384765625005,1.3781512467228711,0.5634765625,-1.2763671875,-1.74560546875,43.63588235294118,326.7581076319538
0.3001923828125,-0.0712626953125,1.4343798828125005,1.467187611268256,-0.09716796875,-1.7578125,-3.5966796875,43.16529411764706,326.7581076319538
0.3587861328125,-0.2797587890625,1.5134814453125005,1.5803855714544728,-0.23193359375,-1.8271484375,-4.34814453125,43.73,326.5750937959954
0.3622041015625,-0.4189189453125,1.5276416015625005,1.6249226925472104,-0.32177734375,-1.23876953125,-3.6376953125,42.69470588235294,326.5750937959954
0.3973603515625,-0.3530009765625,1.4446337890625005,1.5393088458620086,-0.603515625,-1.6337890625,-4.36181640625,42.69470588235294,326.5750937959954
0.1839814453125,-0.3407939453125,1.2546923828125005,1.3131042079243542,-0.7998046875,-1.74609375,-4.4111328125,43.447647058823534,326.5750937959954
-0.0298857421875,-0.2865947265625,1.1189501953125005,1.1554562884286943,-0.650390625,-0.90966796875,-2.796875,43.353529411764704,326.5750937959954
-0.1197294921875,-0.2533916015625,1.0408251953125005,1.0778958865489698,-0.0810546875,-0.28173828125,-0.06005859375,43.87117647058824,327.4828698303456
-0.0577177734375,-0.2651103515625,0.9670947265625,1.004433696179679,0.375,-0.64404296875,2.58251953125,42.74176470588235,327.4828698303456
0.1073212890625,-0.2612041015625,0.9158251953125,0.9583742641203844,0.41796875,-1.2216796875,3.82177734375,43.447647058823534,327.4828698303456
0.2513642578125,-0.2865947265625,0.9221728515625,0.997859356601909,0.29736328125,-1.7978515625,3.54638671875,43.30647058823529,327.4828698303456
0.2850556640625,-0.3603251953125,0.9700244140625,1.0733304905146417,0.123046875,-2.3076171875,2.8701171875,43.91823529411765,328.52528347064487
0.2401337890625,-0.3759501953125,1.0510791015625005,1.1418275105051785,-0.11181640625,-2.47021484375,2.2548828125,44.01235294117648,328.52528347064487
0.1634736328125,-0.3520244140625,1.0964892578125005,1.1631567001995775,-0.15478515625,-2.09228515625,2.408203125,42.74176470588235,328.52528347064487
0.0999970703125,-0.2358134765625,1.1555712890625005,1.1836183565259304,-0.22119140625,-0.869140625,2.81640625,43.73,328.52528347064487
0.1146455078125,-0.0668681640625,1.1848681640625005,1.1922782854835172,-0.24365234375,0.83349609375,2.6396484375,43.777058823529416,328.52528347064487
0.1097626953125,0.0395771484375,1.1438525390625005,1.1497881679163502,-0.28369140625,1.3291015625,1.833984375,43.68294117647059,328.36429623052663
0.0755830078125,0.0180927734375,1.0569384765625005,1.0597919997617005,-0.08349609375,0.90869140625,1.23388671875,43.30647058823529,328.36429623052663
0.0462861328125,-0.0165751953125,1.0071337890625005,1.0083330859699948,0.0478515625,0.56884765625,1.02587890625,43.16529411764706,328.36429623052663
0.0321259765625,-0.0234111328125,0.9719775390625,0.9727900574901313,0.0693359375,0.59619140625,0.9365234375,42.74176470588235,328.36429623052663
0.0321259765625,-0.0175517578125,0.9143603515625,0.9150928887724468,0.0419921875,0.62353515625,0.95458984375,43.30647058823529,327.6629731362337
0.0174775390625,-0.0302470703125,0.8718798828125001,0.8725794403303972,0.06103515625,0.67822265625,1.03515625,43.118235294117646,327.6629731362337
0.0282197265625,-0.0146220703124999,0.8406298828125001,0.8412305021721713,-0.0751953125,1.57666015625,0.5849609375,43.16529411764706,327.6629731362337
0.0135712890625,-0.0478251953125,0.8025439453125001,0.8040822180295059,0.00341796875,2.49462890625,0.193359375,43.30647058823529,327.6629731362337
0.0023408203125,-0.0707744140625,0.7527392578125001,0.7560627535977017,0.197265625,2.9384765625,0.0927734375,43.353529411764704,327.6629731362337
0.0130830078125,-0.0839580078125,0.6716845703125001,0.6770378676005897,0.32666015625,2.8486328125,0.1171875,43.447647058823534,328.4510294286423
0.0433564453125,-0.0990947265625,0.5969775390625001,0.6066973943637398,0.296875,2.048828125,-0.0546875,42.69470588235294,328.4510294286423
0.0394501953125,-0.1142314453125,0.5945361328125001,0.6066946136467833,0.23974609375,1.36962890625,-0.2451171875,43.118235294117646,328.4510294286423
0.0091767578125,-0.1191142578125,0.5676806640625001,0.5801152951341768,0.369140625,0.13134765625,-0.27197265625,44.01235294117648,328.4510294286423
-0.0367216796875,-0.1318095703125,0.5667041015625001,0.5829886648235947,0.53125,-0.8876953125,-0.02587890625,43.25941176470588,328.2392953968592
-0.0782255859375,-0.1401103515625,0.5842822265625001,0.6059173814861769,0.7236328125,-1.5390625,0.345703125,43.16529411764706,328.2392953968592
-0.0997099609375,-0.1410869140625,0.6145556640625001,0.638377833153014,0.88134765625,-1.89453125,0.7138671875,42.55352941176471,328.2392953968592
-0.0997099609375,-0.1435283203125,0.6472705078125001,0.6704487790470924,0.9326171875,-1.998046875,0.92138671875,43.30647058823529,328.2392953968592
-0.0933623046875,-0.1391337890625,0.6834033203125001,0.7036439649493197,0.8720703125,-1.79248046875,0.99072265625,42.60058823529412,328.2392953968592
-0.0962919921875,-0.1196025390625,0.7180712890625001,0.7343046311208413,0.7080078125,-1.45556640625,1.015625,43.353529411764704,327.7908801218261
-0.0962919921875,-0.1073955078125,0.7400439453125001,0.753970147851646,0.505859375,-0.97412109375,0.8935546875,42.55352941176471,327.7908801218261
-0.0943388671875,-0.0756572265625,0.7605517578125001,0.7701057161877413,0.2373046875,-0.50830078125,0.54736328125,42.60058823529412,327.7908801218261
-0.0347685546875,-0.0341533203125,0.7820361328125001,0.7835533260140986,0.05810546875,-0.64794921875,0.02685546875,43.353529411764704,327.7908801218261
-0.0401396484375,-0.0292705078125,0.7683642578125001,0.7699685621426642,-0.24951171875,-1.037109375,-0.61474609375,43.30647058823529,327.2778000945684
-0.0665068359375,-0.0165751953125,0.7981494140625001,0.8010870012017279,-0.4404296875,-1.216796875,-1.10498046875,43.118235294117646,327.2778000945684
-0.0977568359375,-0.0190166015625,0.8835986328125001,0.8891932152325598,-0.4716796875,-1.03955078125,-1.38916015625,43.25941176470588,327.2778000945684
-0.1143583984375,-0.0351298828125,0.9700244140625,0.9773736828035152,-0.2744140625,-0.4365234375,-1.45703125,43.30647058823529,327.2778000945684
-0.1153349609375,-0.0683330078125,1.0139697265625005,1.0227933122368318,0.0361328125,0.18212890625,-1.3544921875,42.69470588235294,327.2778000945684
-0.0933623046875,-0.0746806640625,1.0501025390625005,1.0568864953564727,0.3720703125,0.3779296875,-1.06884765625,43.353529411764704,327.19253233068935
-0.0723662109375,-0.0673564453125,1.0979541015625005,1.1023960124875742,0.73388671875,0.29541015625,-0.78564453125,43.91823529411765,327.19253233068935
-0.0733427734375,-0.0805400390625,1.1145556640625005,1.119866147627249,1.025390625,0.146484375,-0.65966796875,43.353529411764704,327.19253233068935
-0.0586943359375,-0.0917705078125,1.1702197265625005,1.1752791411453372,1.26904296875,0.17626953125,-0.859375,43.777058823529416,327.19253233068935
-0.0865263671875,-0.0981181640625,1.2087939453125005,1.2158522889569363,1.40478515625,0.2763671875,-1.076171875,43.30647058823529,327.20355614580086
-0.1246123046875,-0.0995830078125,1.2268603515625005,1.2371868590316406,1.43896484375,0.25048828125,-1.39404296875,42.69470588235294,327.20355614580086
-0.2066435546875,-0.1342509765625,1.2361376953125005,1.2604607432103432,1.44140625,0.49951171875,-1.5234375,43.87117647058824,327.20355614580086
-0.2847685546875,-0.1469462890625,1.2473681640625005,1.287871763152178,1.45068359375,1.05859375,-1.4609375,43.353529411764704,327.20355614580086
-0.2759794921875,-0.1835673828125,1.2097705078125005,1.2543549520425292,1.42236328125,1.251953125,-1.50244140625,42.69470588235294,327.20355614580086
-0.2906279296875,-0.2138408203125,1.2571337890625005,1.3078906122260394,1.32373046875,0.9765625,-1.32373046875,43.25941176470588,326.52953413845
-0.2461943359375,-0.2250712890625,1.3284228515625005,1.3696627354065696,1.2744140625,0.6279296875,-1.44091796875,43.02411764705882,326.52953413845
-0.1705107421875,-0.2187236328125,1.4500048828125005,1.476288623857856,1.09912109375,-0.4150390625,-1.84326171875,42.60058823529412,326.52953413845
-0.0474638671875,-0.2460673828125,1.5335009765625005,1.5538427271415625,0.65185546875,-1.7724609375,-2.53076171875,42.97705882352941,326.52953413845
0.0980439453125,-0.2865947265625,1.4895556640625005,1.520041193141341,-0.21533203125,-2.6220703125,-3.1640625,42.97705882352941,327.46892499776754
0.2674775390625,-0.2524150390625,1.4627001953125005,1.5082272531734338,-1.09423828125,-2.55126953125,-3.5283203125,43.30647058823529,327.46892499776754
0.4647431640625,-0.1362041015625,1.5017626953125005,1.5779191864153046,-1.24267578125,-2.3955078125,-3.25048828125,42.60058823529412,327.46892499776754
0.6444306640625,-0.0097392578124999,1.4583056640625005,1.5943779802053035,-1.15478515625,-2.83251953125,-2.3115234375,43.91823529411765,327.46892499776754
0.8084931640625,0.1216083984375,1.2576220703125005,1.5000210234004807,-1.76806640625,-4.4140625,-1.21728515625,42.60058823529412,327.46892499776754
0.8851533203125,0.2969013671875,1.1677783203125005,1.4951097042324135,-1.93310546875,-6.54931640625,-1.00439453125,43.30647058823529,328.8002597999167
0.8163056640625,0.4472919921875,1.2376025390625005,1.5485751864696558,-1.30908203125,-7.28369140625,-2.294921875,43.16529411764706,328.8002597999167
0.5926728515625,0.4927021484375,1.2532275390625005,1.4712565312408317,-0.4638671875,-6.162109375,-3.43310546875,43.777058823529416,328.8002597999167
0.2962861328125,0.4360615234375,1.2400439453125005,1.3474583893485583,-0.15869140625,-3.29541015625,-3.10888671875,44.01235294117648,328.8002597999167
0.2337861328125,0.3017841796875,1.2239306640625005,1.2820826484425856,-0.14404296875,0.12841796875,-2.00390625,43.353529411764704,329.37809833323985
0.0594697265625,0.1411396484375,1.2205126953125005,1.2300846670686794,-0.05322265625,3.36865234375,-0.95556640625,43.16529411764706,329.37809833323985
0.0736298828125,0.0039326171875,1.2083056640625005,1.2105533457582305,0.3291015625,5.46435546875,-0.2314453125,43.447647058823534,329.37809833323985
0.0736298828125,-0.0927470703125,1.1653369140625005,1.171338337958442,0.9716796875,6.6162109375,0.1923828125,43.54176470588236,329.37809833323985
0.0726533203125,-0.2011455078125,1.1165087890625005,1.1368068861153993,1.4638671875,6.97265625,0.47265625,43.16529411764706,329.37809833323985
0.1117158203125,-0.3075908203125,1.0774462890625005,1.1260475314404648,1.609375,5.96484375,0.55517578125,43.353529411764704,328.74659593332586
0.1634736328125,-0.3827861328125,1.0159228515625005,1.0978834603114065,1.40380859375,4.111328125,0.67724609375,43.87117647058824,328.74659593332586
0.1893525390625,-0.3783916015625,0.9260791015625,1.0181635873145614,1.12353515625,2.2802734375,1.00830078125,43.353529411764704,328.74659593332586
0.1927705078125,-0.2914775390625,0.8586962890625001,0.9270808709653808,0.5693359375,1.21337890625,1.4775390625,43.91823529411765,328.74659593332586
0.1864228515625,-0.1611064453125,0.8318408203125001,0.8675643587908026,0.32421875,0.56884765625,1.6875,43.91823529411765,327.94894322201253
0.1488251953125,-0.0566142578125,0.8196337890625001,0.8349572810152714,-0.123046875,0.34716796875,1.45654296875,43.25941176470588,327.94894322201253
0.0951142578125,0.0346943359375,0.8040087890625001,0.8103582861149224,-0.46875,0.30419921875,0.89306640625,44.01235294117648,327.94894322201253
0.0321259765625,0.0952412109375,0.7776416015625001,0.7841105962245541,-0.7265625,0.37060546875,0.3017578125,43.25941176470588,327.94894322201253
0.1136689453125,0.1211201171875,0.7429736328125001,0.76131500114642,-1.02685546875,0.6337890625,-0.23681640625,43.118235294117646,327.94894322201253
-0.0225615234375,0.1313740234375,0.7000048828125001,0.7125833230825147,-1.31298828125,1.01025390625,-0.5185546875,43.353529411764704,328.2349250895076
-0.0191435546875,0.1328388671875,0.6707080078125001,0.6840042924321047,-1.38916015625,1.30224609375,-0.6064453125,43.30647058823529,328.2349250895076
-0.0201201171875,0.1167255859375,0.6536181640625001,0.6642637924202437,-1.29296875,1.31396484375,-0.58056640625,43.777058823529416,328.2349250895076
-0.0191435546875,0.0913349609375,0.6414111328125001,0.6481641706167833,-1.04541015625,0.9580078125,-0.57421875,43.447647058823534,328.2349250895076
-0.0137724609375,0.0654560546875,0.6375048828125001,0.641004408241712,-0.76708984375,0.2998046875,-0.47509765625,42.69470588235294,327.8717777078008
-0.0157255859375,0.0376240234375,0.6428759765625001,0.6441679768770653,-0.43701171875,-0.3974609375,-0.19873046875,43.87117647058824,327.8717777078008
-0.0284208984375,0.0058857421875,0.6482470703125001,0.6488964891242915,-0.16552734375,-0.6845703125,0.26513671875,42.69470588235294,327.8717777078008
-0.0337919921875,-0.0053447265624999,0.6692431640625001,0.670117062521478,0.029296875,-0.51806640625,0.7197265625,42.60058823529412,327.8717777078008
-0.0269560546875,-0.0033916015624999,0.6794970703125001,0.6800399991241286,0.1884765625,-0.02734375,0.9345703125,42.74176470588235,327.8717777078008
-0.0323271484375,0.0019794921875,0.6902392578125001,0.690998694601496,0.2744140625,0.619140625,0.884765625,42.60058823529412,327.6063949690249
-0.0313505859375,0.0053974609375,0.6877978515625001,0.6885331338702497,0.30419921875,1.1181640625,0.701171875,42.55352941176471,327.6063949690249
-0.0250029296875,-0.0072978515624999,0.6863330078125001,0.6868270544637417,0.357421875,1.26318359375,0.51806640625,44.01235294117648,327.6063949690249
-0.0113310546875,-0.0170634765625,0.6926806640625001,0.6929834466989787,0.33935546875,0.8935546875,0.466796875,43.91823529411765,327.6063949690249
0.0199189453125,-0.0317119140625,0.6887744140625001,0.6897917101147346,0.26953125,-0.03955078125,0.47509765625,43.30647058823529,327.66151352830866
-0.0108427734375,-0.0170634765625,0.7620166015625001,0.762284742747143,0.28369140625,-0.6748046875,0.65673828125,43.447647058823534,327.66151352830866
-0.0318388671875,-0.0053447265624999,0.8308642578125001,0.8314912473839564,0.26025390625,-0.9482421875,0.88916015625,43.30647058823529,327.66151352830866
-0.0386748046875,0.0088154296875,0.8757861328125001,0.8766839811156957,0.12939453125,-1.0107421875,1.07275390625,42.60058823529412,327.66151352830866
-0.0611357421875,0.0210224609375,0.9348681640625,0.9371008521041236,0.04931640625,-0.80126953125,1.193359375,43.25941176470588,327.66151352830866
-0.0787138671875,0.0244404296875,0.9793017578125,0.9827640308566312,-0.0224609375,-0.30029296875,1.314453125,42.97705882352941,327.149898706203
-0.0831083984375,0.0259052734375,0.9910205078125,0.99483653732041,-0.10400390625,-0.00634765625,1.3115234375,42.60058823529412,327.149898706203
-0.0821318359375,0.0219990234375,0.9856494140625,0.9893100438934288,-0.1640625,0.07763671875,1.25341796875,43.87117647058824,327.149898706203
-0.0977568359375,0.0093037109375,0.9988330078125,1.00364851193308,-0.23291015625,0.171875,1.1572265625,42.74176470588235,327.149898706203
-0.0987333984375,-0.0043681640624999,0.9963916015625,1.0012809737973547,-0.32861328125,0.267578125,1.021484375,43.447647058823534,327.0411225881453
-0.0987333984375,-0.0229228515625,1.0066455078125005,1.0117355976191906,-0.43359375,0.38232421875,0.873046875,42.55352941176471,327.0411225881453
-0.0865263671875,-0.0307353515625,1.0115283203125005,1.0156874602202022,-0.45263671875,0.48876953125,0.8173828125,43.353529411764704,327.0411225881453
-0.0801787109375,-0.0346416015625,1.0339892578125005,1.037671649182948,-0.54150390625,0.70556640625,0.6787109375,44.01235294117648,327.0411225881453
-0.0826201171875,-0.0175517578125,1.0593798828125005,1.0627416826652711,-0.56640625,0.736328125,0.47802734375,42.55352941176471,327.0411225881453
-0.1573271484375,-0.0234111328125,1.1096728515625005,1.1210146075185152,-0.611328125,0.84765625,0.39501953125,44.01235294117648,326.8610290844512
-0.1934599609375,-0.0238994140625,1.1604541015625005,1.176712224935094,-0.67236328125,1.08642578125,0.599609375,43.87117647058824,326.8610290844512
-0.1973662109375,0.0034443359375,1.2000048828125005,1.2161319843848029,-0.64794921875,1.224609375,0.69384765625,43.87117647058824,326.8610290844512
-0.1993193359375,0.0215107421875,1.2434619140625005,1.2595191310305691,-0.6904296875,1.3623046875,0.68505859375,44.01235294117648,326.8610290844512
-0.1622099609375,0.0478779296875,1.2893603515625005,1.300405507432155,-0.67138671875,1.62255859375,0.90576171875,43.777058823529416,326.6780133426888
-0.1109404296875,0.0932880859375,1.3435595703125005,1.3513558986793377,-0.58251953125,1.8359375,1.03271484375,43.118235294117646,326.6780133426888
-0.0660185546875,0.1479755859375,1.4065478515625005,1.415850303645007,-0.30615234375,1.744140625,1.1728515625,43.87117647058824,326.6780133426888
-0.0254912109375,0.1850849609375,1.5076220703125005,1.5191545515495273,-0.0419921875,1.55712890625,1.29443359375,43.30647058823529,326.6780133426888
0.0365205078125,0.2217060546875,1.4661181640625005,1.4832362566934427,0.234375,0.7109375,1.39892578125,43.02411764705882,326.6780133426888
0.1771455078125,0.2329365234375,1.6907275390625005,1.7158670013242971,0.603515625,-0.17578125,0.97119140625,43.353529411764704,326.89117568162527
0.3475556640625,0.1909443359375,1.6838916015625005,1.7299553765520257,0.931640625,-0.8046875,-0.7314453125,42.69470588235294,326.89117568162527
0.3768525390625,-0.0033916015624999,1.5867236328125005,1.630865177163554,0.8740234375,-0.41943359375,-2.2119140625,43.447647058823534,326.89117568162527
0.5291962890625,-0.2294658203125,1.4456103515625005,1.5564358527076745,-0.0078125,-0.27392578125,-3.3203125,43.30647058823529,326.89117568162527
0.6112275390625,-0.4238017578125,1.2170947265625005,1.426368328258733,-0.6943359375,-0.900390625,-3.65771484375,43.777058823529416,327.15946096894083
0.4847626953125,-0.3398173828125,1.1663134765625005,1.3079594221685482,-0.9755859375,-0.69482421875,-3.94580078125,43.447647058823534,327.15946096894083
0.2850556640625,-0.3134501953125,1.0930712890625005,1.1723107947674598,-1.4814453125,-0.04296875,-3.97802734375,43.353529411764704,327.15946096894083
0.0721650390625,-0.2983134765625,1.0798876953125005,1.12265585004891,-1.30224609375,0.35888671875,-2.84814453125,43.63588235294118,327.15946096894083
-0.0528349609375,-0.3041728515625,1.0691455078125005,1.112827378168141,-0.642578125,0.5048828125,-0.7734375,43.447647058823534,327.15946096894083
0.0067353515625,-0.2680400390625,1.0554736328125005,1.088997436665355,0.13330078125,0.75439453125,1.11181640625,43.91823529411765,328.40547929047955
0.1248994140625,-0.2499736328125,0.9807666015625,1.019798905409831,0.52490234375,1.27587890625,1.87353515625,43.25941176470588,328.40547929047955
0.1908173828125,-0.2045634765625,0.9475634765625,0.9879949552715136,0.1455078125,1.771484375,1.77783203125,42.60058823529412,328.40547929047955
0.1878876953125,-0.1503642578125,1.0007861328125005,1.0293124305608798,-0.1826171875,2.1767578125,1.5068359375,43.447647058823534,328.40547929047955
0.1317353515625,-0.0844462890625,1.0261767578125005,1.0380385912201424,-0.3310546875,2.15625,1.58447265625,43.91823529411765,328.7451423711012
0.1195283203125,-0.0014384765624999,1.0388720703125005,1.0457266693772944,-0.25146484375,2.00634765625,1.49169921875,43.118235294117646,328.7451423711012
0.1029267578125,0.0674091796875,1.0613330078125005,1.068440765064804,-0.22119140625,1.68408203125,1.23779296875,44.01235294117648,328.7451423711012
0.0960908203125,0.2143818359375,1.0593798828125005,1.085116930766491,0.13037109375,1.2626953125,1.0830078125,43.118235294117646,328.7451423711012
0.0824189453125,0.0669208984375,1.0427783203125005,1.0481688387411,0.4228515625,1.07958984375,1.1962890625,42.74176470588235,328.7451423711012
0.0755830078125,0.0425068359375,1.0115283203125005,1.0152384768937937,0.529296875,1.1396484375,1.255859375,43.87117647058824,328.1937434923847
0.0531220703125,0.0259052734375,0.9856494140625,0.9874197714183708,0.501953125,1.28955078125,0.9443359375,44.01235294117648,328.1937434923847
0.0184541015625,0.0263935546875,0.9485400390625,0.9490866026334004,0.4560546875,1.23388671875,0.4541015625,43.16529411764706,328.1937434923847
-0.0035185546874999,0.0161396484375,0.9070361328125,0.907186537987767,0.3984375,1.17138671875,0.01806640625,43.353529411764704,328.1937434923847
-0.0157255859375,-0.0204814453125,0.8269580078125001,0.8273610640708116,0.33642578125,1.130859375,-0.158203125,43.30647058823529,328.0342171765099
-0.0191435546875,-0.0268291015625,0.8049853515625001,0.805659787135318,0.28857421875,1.40478515625,-0.5126953125,43.30647058823529,328.0342171765099
-0.0484404296875,-0.0400126953125,0.7551806640625001,0.7577897639770276,0.37744140625,2.04248046875,-0.79931640625,44.01235294117648,328.0342171765099
-0.0694365234375,-0.0522197265625,0.7234423828125001,0.7286406603249483,0.4130859375,2.86865234375,-0.87255859375,42.69470588235294,328.0342171765099
-0.0704130859375,-0.0678447265625,0.6721728515625001,0.6792475630955512,0.45166015625,3.48193359375,-0.7841796875,43.49470588235295,328.0342171765099
-0.0611357421875,-0.0746806640625,0.6243212890625001,0.6317371704548452,0.42529296875,3.640625,-0.81884765625,43.16529411764706,328.13862543557667
-0.0445341796875,-0.0746806640625,0.5740283203125001,0.5805764439469144,0.38720703125,3.21142578125,-1.01171875,42.60058823529412,328.13862543557667
-0.0484404296875,-0.0756572265625,0.5369189453125001,0.5443826273816299,0.3203125,2.15625,-1.21826171875,44.01235294117648,328.13862543557667
-0.0699248046875,-0.0678447265625,0.5344775390625001,0.5432850310796642,0.26171875,1.1328125,-1.251953125,44.01235294117648,328.13862543557667
-0.0865263671875,-0.0678447265625,0.5593798828125001,0.570083829306123,0.2890625,0.44677734375,-1.1259765625,43.30647058823529,328.2900431600695
-0.0923857421875,-0.0673564453125,0.6023486328125001,0.6131034917008376,0.39404296875,0.234375,-1.05078125,42.60058823529412,328.2900431600695
-0.0860380859375,-0.0707744140625,0.6301806640625001,0.6399525289237729,0.4599609375,0.37744140625,-1.12255859375,43.87117647058824,328.2900431600695
-0.0728544921875,-0.0619853515625,0.6687548828125001,0.6755612882083949,0.4794921875,0.8134765625,-1.16552734375,43.30647058823529,328.2900431600695
-0.0679716796875,-0.0541728515625,0.6941455078125001,0.6995661749271661,0.40380859375,1.1201171875,-1.2822265625,43.16529411764706,328.2900431600695
-0.0430693359375,-0.0395244140625,0.6960986328125001,0.6985488197746188,0.2666015625,0.681640625,-1.39208984375,42.69470588235294,328.0121698394481
-0.0606474609375,-0.0414775390625,0.6975634765625001,0.7014223439546308,0.13818359375,0.22607421875,-1.64501953125,42.60058823529412,328.0121698394481
-0.0738310546875,-0.0746806640625,0.7068408203125001,0.714599308340788,-0.04150390625,-0.484375,-1.97900390625,43.25941176470588,328.0121698394481
-0.1334013671875,-0.0458720703125,0.7502978515625001,0.7634441942025314,-0.06982421875,-0.982421875,-2.25537109375,43.91823529411765,328.0121698394481
-0.1744169921875,-0.0717509765625,0.7835009765625001,0.805880431624815,-0.1533203125,-1.01318359375,-2.62841796875,43.30647058823529,327.40278280143536
-0.2183623046875,-0.0688212890625,0.8245166015625001,0.8557137910474713,-0.1328125,-1.05322265625,-2.484375,44.01235294117648,327.40278280143536
-0.2432646484375,-0.0824931640625,0.8420947265625001,0.8804012379596219,0.00634765625,-1.0625,-2.15283203125,43.353529411764704,327.40278280143536
-0.2706083984375,-0.1083720703125,0.8611376953125001,0.909137801005354,0.10546875,-1.10107421875,-1.763671875,42.55352941176471,327.40278280143536
-0.2920927734375,-0.1254619140625,0.8835986328125001,0.939044953174637,0.27734375,-1.1884765625,-1.5615234375,42.60058823529412,327.40278280143536
-0.2979521484375,-0.1337626953125,0.9270556640625,0.9829039351259866,0.4521484375,-1.27197265625,-1.3974609375,43.353529411764704,327.72182074823013
-0.3204130859375,-0.1239970703125,1.0090869140625005,1.0659719598649182,0.62744140625,-1.1669921875,-1.24267578125,42.69470588235294,327.72182074823013
-0.2989287109375,-0.1122783203125,1.0623095703125005,1.109263908460237,0.708984375,-0.84033203125,-1.0478515625,43.447647058823534,327.72182074823013
-0.2388701171875,-0.0956767578125,1.1052783203125005,1.134836173297055,0.736328125,-0.45068359375,-0.99267578125,42.60058823529412,327.72182074823013
-0.1758818359375,-0.0815166015625,1.1785205078125005,1.1943575527779269,0.75146484375,-0.06396484375,-1.1025390625,43.118235294117646,327.9033910547378
-0.1622099609375,-0.0912822265625,1.2293017578125005,1.2433130450833596,0.83837890625,0.42919921875,-1.099609375,43.49470588235295,327.9033910547378
-0.1573271484375,-0.0776103515625,1.2341845703125005,1.2465900496564943,0.935546875,0.9599609375,-1.1142578125,43.118235294117646,327.9033910547378
-0.1871123046875,-0.1059306640625,1.1458056640625005,1.1658057042028476,0.75634765625,0.99951171875,-1.02734375,43.447647058823534,327.9033910547378
-0.2325224609375,-0.1313212890625,1.0989306640625005,1.130911393619463,0.67236328125,0.85546875,-0.96044921875,43.30647058823529,327.9033910547378
-0.2696318359375,-0.1523173828125,1.0740283203125005,1.1177829596532447,0.61083984375,1.00244140625,-1.0751953125,43.353529411764704,326.9860040834935
-0.2920927734375,-0.1572001953125,1.0818408203125005,1.1315518769350006,0.51904296875,1.46044921875,-1.26513671875,43.49470588235295,326.9860040834935
-0.3306669921875,-0.1479228515625,1.1145556640625005,1.171945458641532,0.375,1.7568359375,-1.3046875,43.30647058823529,326.9860040834935
-0.3628935546875,-0.1254619140625,1.1726611328125005,1.2339232376136906,0.505859375,1.99267578125,-1.2021484375,43.118235294117646,326.9860040834935
-0.3702177734375,-0.0883525390625,1.2190478515625005,1.2770845842492025,0.5361328125,2.1259765625,-1.205078125,43.25941176470588,326.9573182802744
-0.3721708984375,-0.0229228515625,1.3528369140625005,1.403283417851747,0.595703125,2.42431640625,-1.19287109375,43.91823529411765,326.9573182802744
-0.2925810546875,0.0893818359375,1.5872119140625005,1.616426443207223,0.65283203125,1.92529296875,-1.34130859375,43.353529411764704,326.9573182802744
-0.0669951171875,0.1001240234375,1.6751025390625005,1.6794289750298803,0.28271484375,1.5615234375,-1.9375,43.447647058823534,326.9573182802744
0.1244111328125,-0.0063212890624999,1.3293994140625005,1.3352231614126606,-0.1474609375,1.17919921875,-2.78271484375,43.777058823529416,326.9573182802744
0.2269501953125,-0.0131572265624999,1.1751025390625005,1.1968899201991523,-0.48779296875,0.82177734375,-3.0009765625,42.60058823529412,327.7659151998462
0.5663056640625,0.0683857421875,1.3269580078125005,1.4443670826287631,-0.357421875,-0.5595703125,-2.27099609375,43.777058823529416,327.7659151998462
0.9696259765625,0.1513935546875,1.2200244140625005,1.5657439489693856,-0.33447265625,-1.15869140625,-2.29638671875,42.74176470588235,327.7659151998462
0.8739228515625,0.1982685546875,1.0134814453125005,1.3528474452996229,-0.54296875,-1.0263671875,-2.52099609375,43.353529411764704,327.7659151998462
0.5194306640625,0.3081318359375,1.1155322265625005,1.2685289084550315,-0.134765625,-1.34130859375,-2.47802734375,43.91823529411765,328.7686429856677
0.3006806640625,0.4175068359375,1.1794970703125005,1.286831052885879,0.61962890625,-2.0107421875,-2.4296875,43.30647058823529,328.7686429856677
0.2811494140625,0.4761005859375,1.0857470703125005,1.2184266336755345,0.68505859375,-2.5615234375,-3.12548828125,43.91823529411765,328.7686429856677
0.1673798828125,0.3486591796875,1.1018603515625005,1.1677651660741226,0.4384765625,-2.98388671875,-4.19287109375,43.118235294117646,328.7686429856677
-0.2642607421875,-0.0282939453125,1.3772509765625005,1.4026598089505509,1.63427734375,-1.251953125,-1.77978515625,42.55352941176471,328.7686429856677
-0.1519560546875,-0.0937236328125,1.2766650390625005,1.2890881986381764,1.98974609375,-0.9482421875,-0.06982421875,42.788823529411765,328.7025019957799
-0.1031279296875,-0.0717509765625,1.4148486328125005,1.4204155118452853,1.74658203125,-1.232421875,-0.7314453125,43.16529411764706,328.7025019957799
-0.1431669921875,-0.2060283203125,1.5017626953125005,1.522575334574638,2.09326171875,-1.09423828125,-1.6943359375,44.01235294117648,328.7025019957799
-0.1060576171875,-0.3197978515625,1.3308642578125005,1.3728505223622485,1.62939453125,-0.943359375,-2.1494140625,43.777058823529416,328.7025019957799
-0.0035185546874999,-0.3061259765625,1.1384814453125005,1.1789255680806456,0.70166015625,-0.93896484375,-2.541015625,42.69470588235294,328.0011461918088
0.0350556640625,-0.2807353515625,1.0598681640625005,1.096978469430006,0.44921875,0.0888671875,-2.60888671875,43.447647058823534,328.0011461918088
0.0736298828125,-0.1972392578125,0.9480517578125,0.9711471669920988,0.3857421875,1.56494140625,-2.4267578125,43.91823529411765,328.0011461918088
0.0130830078125,-0.1542705078125,0.8684619140625001,0.8821545504339077,0.50830078125,2.681640625,-1.82666015625,43.118235294117646,328.0011461918088
-0.0606474609375,-0.1235087890625,0.7756884765625001,0.7877976568673601,0.19091796875,3.146484375,-1.3505859375,43.353529411764704,328.0011461918088
-0.0308623046875,-0.0854228515625,0.6736376953125001,0.679733249124706,-0.29150390625,2.94873046875,-1.12744140625,44.01235294117648,327.5637594285275
-0.0137724609375,-0.0009501953124999,0.5920947265625001,0.5922556447806374,-0.91796875,1.5625,-1.75732421875,42.60058823529412,327.5637594285275
-0.0425810546875,0.0449482421875,0.5457080078125001,0.5492091773493353,-1.2607421875,0.38134765625,-2.208984375,43.353529411764704,327.5637594285275
-0.0479521484375,0.0605732421875,0.6038134765625001,0.6087357724722364,-1.4150390625,-0.52294921875,-2.25341796875,43.91823529411765,327.5637594285275
-0.0953154296875,0.0678974609375,0.6687548828125001,0.6789169239486027,-0.88427734375,-0.685546875,-1.9208984375,43.87117647058824,327.5637594285275
-0.1314482421875,0.0302998046875,0.6921923828125001,0.705214161345283,-0.62939453125,-0.43994140625,-1.27392578125,43.353529411764704,327.5637594285275
-0.0992216796875,0.0122333984375,0.6980517578125001,0.7051743432247523,-0.49560546875,-0.3818359375,-0.72802734375,43.118235294117646,327.5637594285275
-0.0718779296875,-0.0219462890625,0.6834033203125001,0.6875232174944534,-0.14892578125,-0.7041015625,-0.57568359375,43.63588235294118,327.5637594285275
-0.0728544921875,-0.0312236328125,0.6751025390625001,0.6797397520570228,0.0126953125,-1.06103515625,-0.35302734375,43.777058823529416,327.5637594285275
-0.0792021484375,-0.0458720703125,0.6570361328125001,0.6633805144659255,0.17724609375,-1.4052734375,0.11181640625,43.447647058823534,327.86075411862055
-0.0723662109375,-0.0468486328125,0.6746142578125001,0.6801000365576828,0.32080078125,-1.603515625,0.4892578125,42.55352941176471,327.86075411862055
-0.0640654296875,-0.0580791015625,0.6843798828125001,0.6898212705605724,0.44189453125,-1.63720703125,0.638671875,43.30647058823529,327.86075411862055
-0.0606474609375,-0.0722392578125,0.6882861328125001,0.6947189543329395,0.44091796875,-1.45263671875,0.65625,42.69470588235294,327.86075411862055
-0.0689482421875,-0.0737041015625,0.7293017578125001,0.7362521365919992,0.3857421875,-1.2109375,0.7998046875,42.60058823529412,327.40278280143536
-0.0738310546875,-0.0732158203125,0.7532275390625001,0.7603705061234628,0.3876953125,-0.9375,1.0869140625,43.353529411764704,327.40278280143536
-0.1138701171875,-0.0790751953125,0.7869189453125001,0.7990373687092127,0.41845703125,-0.55224609375,1.3740234375,42.69470588235294,327.40278280143536
-0.1568388671875,-0.0732158203125,0.8206103515625001,0.8386658069196695,0.328125,-0.2314453125,1.720703125,43.447647058823534,327.40278280143536
-0.1895537109375,-0.0536845703125,0.8752978515625001,0.8971950575932435,0.19921875,-0.08544921875,2.00244140625,42.60058823529412,327.40278280143536
-0.1988310546875,-0.0131572265624999,0.9138720703125,0.9353443546716982,-0.14501953125,-0.03759765625,1.912109375,42.55352941176471,327.3285369074863
-0.1968779296875,0.0322529296875,0.9817431640625,1.0018087696037163,-0.52734375,0.09375,1.66650390625,43.30647058823529,327.3285369074863
-0.2007841796875,0.0444599609375,1.0305712890625005,1.0508892219350667,-0.64697265625,0.1669921875,1.7861328125,43.447647058823534,327.3285369074863
-0.1832060546875,0.0649677734375,1.0569384765625005,1.0746646980792869,-0.79296875,0.24169921875,2.01025390625,44.01235294117648,327.3285369074863
-0.1890654296875,0.0888935546875,1.1101611328125005,1.1296484150280708,-0.826171875,0.416015625,2.0458984375,42.69470588235294,326.8691282601657
-0.2002958984375,0.0937763671875,1.1482470703125005,1.1693518668283769,-0.7822265625,0.55224609375,1.96484375,42.60058823529412,326.8691282601657
-0.2242216796875,0.0918232421875,1.1775439453125005,1.2022132142801611,-0.71484375,0.6025390625,1.83740234375,44.01235294117648,326.8691282601657
-0.2574248046875,0.0781513671875,1.2107470703125005,1.240275628451989,-0.67431640625,0.81640625,1.732421875,43.73,326.8691282601657
-0.2652373046875,0.0732685546875,1.2376025390625005,1.267824575246052,-0.59228515625,1.1015625,1.6533203125,42.60058823529412,326.8691282601657
-0.2544951171875,0.0727802734375,1.2761767578125005,1.3033387318938778,-0.5166015625,1.35107421875,1.51904296875,42.69470588235294,326.53909423637145
-0.2496123046875,0.0693623046875,1.2957080078125005,1.3213541060111045,-0.439453125,1.70556640625,1.41064453125,43.87117647058824,326.53909423637145
-0.2369169921875,0.0698505859375,1.3694384765625005,1.391535305564615,-0.326171875,2.05029296875,1.4462890625,43.447647058823534,326.53909423637145
-0.2388701171875,0.0708271484375,1.4739306640625005,1.494840132022378,-0.2529296875,2.26171875,1.8095703125,43.16529411764706,326.53909423637145
-0.1578154296875,0.0654560546875,1.5432666015625005,1.552695079029032,-0.1689453125,1.83740234375,2.38671875,43.447647058823534,326.9984892734026
0.0389619140625,0.0190693359375,1.5164111328125005,1.5170314413479375,-0.0791015625,1.078125,2.49658203125,42.74176470588235,326.9984892734026
0.3460908203125,-0.0829814453125,1.4114306640625005,1.4556102828802224,-0.02099609375,0.6435546875,1.99560546875,43.353529411764704,326.9984892734026
0.6053681640625,-0.1786845703125,1.3557666015625005,1.4954938540965308,-0.154296875,0.45068359375,0.6806640625,43.777058823529416,326.9984892734026
0.6522431640625,-0.2338603515625,1.3582080078125005,1.5247428640873182,-0.37841796875,0.05419921875,-0.50048828125,42.55352941176471,326.9984892734026
0.5746064453125,-0.2455791015625,1.3059619140625005,1.4477631654040315,-0.46337890625,-0.544921875,-1.4599609375,43.91823529411765,327.8387069820532
0.4847626953125,-0.2738994140625,1.2288134765625005,1.3490731336632713,-0.3564453125,-1.3037109375,-1.7607421875,43.25941176470588,327.8387069820532
0.3714814453125,-0.3652080078125,1.1028369140625005,1.2196821767168435,-0.2158203125,-2.27294921875,-1.1943359375,42.55352941176471,327.8387069820532
0.2845673828125,-0.4550517578125,1.0564501953125005,1.1849631693959193,-0.10107421875,-3.0390625,-0.01171875,42.55352941176471,327.8387069820532
0.2621064453125,-0.5155986328125,1.0706103515625005,1.2168600016868227,0.56103515625,-4.384765625,2.15380859375,42.88294117647059,329.10831839526503
0.2381806640625,-0.3779033203125,0.9944384765625,1.0901600028915075,0.9091796875,-5.64697265625,3.78125,43.447647058823534,329.10831839526503
0.1849580078125,-0.1430400390625,1.0432666015625005,1.0691469119652075,0.453125,-7.29931640625,3.650390625,42.55352941176471,329.10831839526503
0.1087861328125,0.0908466796875,1.1682666015625005,1.1768323560426674,-0.18212890625,-7.19677734375,2.2431640625,43.16529411764706,329.10831839526503
0.0755830078125,0.2475849609375,1.2688525390625005,1.2949895249915195,-0.93359375,-6.333984375,0.73046875,43.02411764705882,329.10831839526503
0.0809541015625,0.3047138671875,1.3850634765625005,1.4204946115784998,-1.1787109375,-3.6904296875,-0.51123046875,43.30647058823529,329.37664686469094
0.1014619140625,0.3178974609375,1.4299853515625005,1.4684043793720662,-1.1171875,-1.35205078125,-0.92333984375,44.01235294117648,329.37664686469094
0.1537080078125,0.3071552734375,1.3538134765625005,1.3967037778242015,-0.26220703125,0.40771484375,-1.0380859375,42.60058823529412,329.37664686469094
0.1747041015625,0.2544208984375,1.1960986328125005,1.2352746480359893,0.0751953125,1.828125,-1.2392578125,43.353529411764704,329.37664686469094
0.1512666015625,0.1494404296875,1.2097705078125005,1.2283153944921343,0.38427734375,2.96728515625,-1.5078125,43.353529411764704,328.435639866318
0.1009736328125,0.0161396484375,0.9793017578125,0.9846258658138594,0.7431640625,3.62451171875,-1.39599609375,43.16529411764706,328.435639866318
0.0301728515625,-0.0776103515625,0.9055712890625,0.9093916247774584,1.10888671875,3.4951171875,-0.8076171875,42.55352941176471,328.435639866318
0.0018525390625,-0.1249736328125,0.8303759765625001,0.8397297799003304,1.33154296875,2.4267578125,-0.21728515625,43.02411764705882,328.435639866318
-0.0298857421875,-0.1401103515625,0.7566455078125001,0.7700886265189879,1.4931640625,1.36083984375,-0.06298828125,44.01235294117648,328.435639866318
-0.0655302734375,-0.1362041015625,0.7029345703125001,0.7190012407219201,1.39990234375,0.671875,-0.24169921875,43.118235294117646,327.7328443402438
-0.0577177734375,-0.1147197265625,0.6804736328125001,0.6924856113929,1.20654296875,0.80126953125,-0.625,43.447647058823534,327.7328443402438
-0.0376982421875,-0.1049541015625,0.6580126953125001,0.6673958556143722,0.97705078125,1.19970703125,-0.90185546875,43.30647058823529,327.7328443402438
-0.0210966796875,-0.1030009765625,0.6169970703125001,0.6258910894403864,0.68212890625,1.5673828125,-0.94189453125,43.25941176470588,327.7328443402438
-0.0015654296874999,-0.0903056640625,0.5652392578125001,0.5724098025927766,0.3984375,1.87353515625,-0.828125,43.16529411764706,328.2966993582267
0.0086884765625,-0.0766337890625,0.5305712890625001,0.5361474797371483,0.16357421875,1.8759765625,-0.671875,42.69470588235294,328.2966993582267
0.0033173828125,-0.0502666015625,0.5081103515625001,0.510601474367569,-0.03759765625,2.07080078125,-0.5888671875,43.87117647058824,328.2966993582267
-0.0108427734375,-0.0258525390625,0.4998095703125,0.5005951718582201,-0.13818359375,2.03125,-0.6201171875,42.55352941176471,328.2966993582267
-0.0235380859375,-0.0146220703124999,0.5017626953125001,0.5025272617849599,-0.1669921875,1.8662109375,-0.68310546875,43.353529411764704,328.2966993582267
-0.0289091796875,-0.0029033203124999,0.5007861328125001,0.5016282694947924,-0.0458984375,1.64794921875,-0.70751953125,43.54176470588236,328.3503616798623
-0.0323271484375,-0.0102275390624999,0.5007861328125001,0.5019326627135099,0.0771484375,1.4423828125,-0.79345703125,43.447647058823534,328.3503616798623
-0.0259794921875,-0.0195048828125,0.5076220703125001,0.5086605358549044,0.14208984375,1.17333984375,-0.92822265625,43.54176470588236,328.3503616798623
-0.0162138671875,-0.0312236328125,0.5310595703125001,0.5322237048043622,0.21533203125,0.66015625,-1.10986328125,43.353529411764704,328.3503616798623
0.0052705078125,-0.0365947265625,0.5637744140625001,0.5649854354019235,0.3623046875,-0.111328125,-1.2529296875,42.55352941176471,328.5650127107625
-0.0318388671875,-0.0595439453125,0.5979541015625001,0.6017543539207489,0.40673828125,-0.85888671875,-1.501953125,42.93,328.5650127107625
-0.0938505859375,-0.1069072265625,0.6726611328125001,0.6875391531896156,0.443359375,-1.05419921875,-1.560546875,43.30647058823529,328.5650127107625
-0.1246123046875,-0.1132548828125,0.7034228515625001,0.723297036535283,0.60888671875,-0.84375,-1.53515625,42.74176470588235,328.5650127107625
-0.1417021484375,-0.0917705078125,0.7629931640625001,0.7814473068493311,0.59130859375,-0.5107421875,-1.658203125,43.30647058823529,328.5650127107625
-0.1519560546875,-0.1161845703125,0.7747119140625001,0.7979774725675364,0.384765625,-0.4052734375,-1.83447265625,44.01235294117648,327.7850466534427
-0.1890654296875,-0.1108134765625,0.8381884765625001,0.8663632526446118,0.30224609375,-0.13671875,-1.97412109375,42.60058823529412,327.7850466534427
-0.2178740234375,-0.1425517578125,0.8176806640625001,0.8581327182469907,0.16552734375,0.111328125,-1.9853515625,43.49470588235295,327.7850466534427
-0.2315458984375,-0.1498759765625,0.8318408203125001,0.8763763242876688,0.05615234375,-0.03857421875,-1.72021484375,43.49470588235295,327.7850466534427
-0.2354521484375,-0.1445048828125,0.8406298828125001,0.8848604269814797,0.15625,-0.09765625,-1.47216796875,43.73,327.71225532775674
-0.2305693359375,-0.1532939453125,0.8430712890625001,0.8873727800567454,0.26123046875,-0.09130859375,-1.22998046875,43.353529411764704,327.71225532775674
-0.2237333984375,-0.1669658203125,0.8586962890625001,0.9029360639484548,0.2578125,-0.064453125,-0.94091796875,42.60058823529412,327.71225532775674
-0.2120146484375,-0.1669658203125,0.8826220703125001,0.9229569411990066,0.333984375,-0.03369140625,-0.654296875,43.353529411764704,327.71225532775674
-0.2076201171875,-0.1620830078125,0.9216845703125,0.958582005691029,0.48046875,0.13330078125,-0.48583984375,43.353529411764704,327.71225532775674
-0.1978544921875,-0.1738017578125,0.9636767578125,0.9990126849272236,0.634765625,0.18994140625,-0.544921875,43.16529411764706,327.3476646875013
-0.1900419921875,-0.1777080078125,1.0120166015625005,1.044927603556052,0.65625,-0.09912109375,-0.71142578125,43.447647058823534,327.3476646875013
-0.1836943359375,-0.1821025390625,1.0623095703125005,1.0933464990413868,0.60302734375,-0.43359375,-0.81201171875,44.01235294117648,327.3476646875013
-0.1729521484375,-0.1845439453125,1.1199267578125005,1.1481310274812142,0.50537109375,-0.4462890625,-0.91015625,43.353529411764704,327.3476646875013
-0.2012724609375,-0.1845439453125,1.1672900390625005,1.1988048659301789,0.35595703125,0.04248046875,-1.12841796875,43.447647058823534,327.102881498961
-0.2569365234375,-0.1874736328125,1.1829150390625005,1.2249288672067051,0.11279296875,0.8818359375,-1.3076171875,43.25941176470588,327.102881498961
-0.3003935546875,-0.1879619140625,1.1521533203125005,1.2054141372752143,-0.18359375,1.71728515625,-1.15087890625,43.777058823529416,327.102881498961
-0.3418974609375,-0.1635478515625,1.1482470703125005,1.209178691520595,-0.3154296875,2.07080078125,-0.4384765625,43.447647058823534,327.102881498961
-0.3404326171875,-0.1122783203125,1.3650439453125005,1.4113276588700596,-0.22998046875,1.6201171875,0.13525390625,44.01235294117648,327.102881498961
-0.1417021484375,-0.0131572265624999,1.8479541015625005,1.8534257398029967,-0.31591796875,-1.14892578125,-0.0576171875,44.01235294117648,326.97351946929143
0.1786103515625,-0.0110413411458333,1.706027018229167,2.21375351959134,-1.1416015625,-2.47802734375,-0.81640625,43.447647058823534,326.97351946929143
0.4989228515625,-0.0089254557291666,1.5640999348958335,1.8983059311131003,-2.4462890625,-0.35546875,-0.95458984375,44.01235294117648,326.97351946929143
0.8192353515625,-0.0068095703124999,1.4221728515625005,1.6412704077083056,-1.3173828125,-0.0439453125,-0.63134765625,43.91823529411765,326.97351946929143
0.8099580078125,0.0449482421875,1.4612353515625005,1.6713052000012816,-0.18603515625,0.1357421875,-0.42529296875,42.60058823529412,328.47682499112045
0.7381806640625,0.2544208984375,1.4309619140625005,1.630120451333248,-0.00634765625,-0.92138671875,0.4052734375,42.69470588235294,328.47682499112045
0.7484345703125,0.5405537109375,1.5017626953125005,1.76285104687816,0.06103515625,-4.14404296875,1.49853515625,43.91823529411765,328.47682499112045
0.7303681640625,0.5576435546875,1.4797900390625005,1.7418905100117898,0.0927734375,-6.775390625,-0.1943359375,43.16529411764706,328.47682499112045
0.5145478515625,0.4697529296875,1.4949267578125005,1.6493129835544762,-0.12451171875,-6.89453125,-2.6611328125,43.447647058823534,328.47682499112045
0.2152314453125,0.4560810546875,1.6140673828125005,1.6910198164880756,-0.07763671875,-4.67822265625,-3.51416015625,42.60058823529412,328.7149792768485
-0.2115263671875,-0.0663798828125,1.8396533203125005,1.852963580806312,1.69580078125,0.1953125,0.23388671875,43.353529411764704,328.7149792768485
0.0951142578125,-0.1611064453125,1.5906298828125005,1.6015946531056355,2.28271484375,2.76318359375,2.6640625,43.16529411764706,328.7149792768485
0.2650361328125,-0.1386455078125,1.5266650390625005,1.5556904801497298,1.73095703125,3.802734375,1.65234375,43.25941176470588,328.7149792768485
0.3548798828125,-0.2118876953125,1.5017626953125005,1.5576030687187676,1.4453125,4.4970703125,-0.05078125,44.01235294117648,328.1812633905419
0.1859345703125,-0.3017314453125,1.3630908203125005,1.4084140420870097,0.92236328125,5.29443359375,-0.80615234375,42.60058823529412,328.1812633905419
0.2123017578125,-0.3193095703125,1.2039111328125005,1.2635001597836495,0.357421875,5.951171875,-0.5048828125,42.55352941176471,328.1812633905419
0.2518525390625,-0.2738994140625,1.0901416015625005,1.1518937893370471,-0.13134765625,6.00439453125,0.017578125,42.60058823529412,328.1812633905419
0.2162080078125,-0.1947978515625,0.9968798828125,1.0384900607959038,-0.29248046875,5.2060546875,0.45947265625,42.60058823529412,328.1812633905419
0.1122041015625,-0.1532939453125,0.8904345703125001,0.9104737876976614,-0.109375,4.0908203125,1.01025390625,42.88294117647059,327.9555948083011
0.0130830078125,-0.1113017578125,0.7781298828125001,0.7861586105305782,-0.15625,2.904296875,1.40283203125,43.353529411764704,327.9555948083011
-0.0464873046875,-0.0590556640625,0.6965869140625001,0.7006296952014581,-0.43017578125,1.8154296875,1.49072265625,43.30647058823529,327.9555948083011
-0.0674833984375,-0.0014384765624999,0.6223681640625001,0.6260177392997919,-0.81640625,0.81298828125,1.2861328125,42.55352941176471,327.9555948083011
-0.0611357421875,0.0400654296875,0.5808642578125001,0.585445218302214,-1.06982421875,-0.103515625,1.07666015625,42.60058823529412,327.86886350649047
-0.0503935546875,0.0420185546875,0.5588916015625001,0.5627298566711783,-1.0966796875,-0.962890625,0.9892578125,43.91823529411765,327.86886350649047
-0.0420927734375,0.0312763671875,0.5442431640625001,0.5467637829528117,-0.9462890625,-1.6865234375,1.1533203125,43.87117647058824,327.86886350649047
-0.0298857421875,0.0185810546875,0.5393603515625001,0.5405071711060098,-0.69384765625,-2.2666015625,1.431640625,42.69470588235294,327.86886350649047
-0.0147490234375,0.0063740234375,0.5525439453125001,0.5527775080162405,-0.49658203125,-2.64404296875,1.66796875,42.88294117647059,327.86886350649047
0.0028291015625,2.6367187500001e-05,0.5759814453125001,0.5759883938545602,-0.29052734375,-2.7685546875,1.8017578125,43.49470588235295,327.88945391699787
0.0135712890625,-0.0121806640624999,0.5989306640625001,0.5992082182498574,-0.10107421875,-2.5888671875,1.84423828125,44.01235294117648,327.88945391699787
0.0189423828125,-0.0248759765625,0.6121142578125001,0.6129123042441725,0.04833984375,-2.3720703125,1.93310546875,43.16529411764706,327.88945391699787
0.0169892578125,-0.0229228515625,0.6155322265625001,0.6161931628489274,0.24365234375,-1.76708984375,2.0810546875,43.25941176470588,327.88945391699787
0.0057587890625,-0.0238994140625,0.6082080078125001,0.6087046298585607,0.45263671875,-1.38037109375,2.31201171875,43.73,328.0614607410121
-0.0044951171875,-0.0282939453125,0.6062548828125001,0.6069314099252685,0.56591796875,-1.20751953125,2.556640625,43.91823529411765,328.0614607410121
0.0013642578125,-0.0390361328125,0.5930712890625001,0.594356151456843,0.5791015625,-1.26904296875,2.68798828125,43.91823529411765,328.0614607410121
0.0301728515625,-0.0302470703125,0.5803759765625001,0.5819463552637628,0.5126953125,-1.7578125,2.63134765625,43.25941176470588,328.0614607410121
0.0311494140625,-0.0238994140625,0.5769580078125001,0.5782923229370565,0.45654296875,-2.40966796875,2.49365234375,43.777058823529416,328.0614607410121
-0.0001005859374999,-0.0326884765625,0.6091845703125001,0.6100609701696489,0.3447265625,-2.859375,2.494140625,42.69470588235294,327.6446559941243
-0.0127958984375,-0.0400126953125,0.6687548828125001,0.6700730139981422,0.19873046875,-3.2724609375,2.720703125,43.49470588235295,327.6446559941243
-0.0152373046875,-0.0326884765625,0.7566455078125001,0.757504545495902,-0.03515625,-3.5751953125,2.99853515625,43.777058823529416,327.6446559941243
-0.0069365234375,-0.0146220703124999,0.8586962890625001,0.8588487859613771,-0.3525390625,-3.67578125,3.24169921875,42.60058823529412,327.6446559941243
0.0204072265625,0.0278583984375,0.9597705078125,0.9603915727067476,-0.82177734375,-3.3505859375,3.2783203125,42.55352941176471,327.52777113785805
0.0155244140625,0.1181904296875,1.1814501953125005,1.187448756412522,-1.45849609375,-0.04296875,2.35546875,43.87117647058824,327.52777113785805
-0.0406279296875,0.1308857421875,1.2478564453125005,1.2553594761209297,-1.39453125,0.79296875,2.38818359375,43.777058823529416,327.52777113785805
-0.1216826171875,0.1152607421875,1.2693408203125005,1.2803584717284548,-1.01416015625,0.73876953125,3.373046875,42.60058823529412,327.52777113785805
-0.1407255859375,0.1094013671875,1.2664111328125005,1.2788938607215954,-0.642578125,0.982421875,3.89404296875,43.30647058823529,327.52777113785805
-0.0401396484375,0.1655537109375,1.2424853515625005,1.2541088754287857,-0.46826171875,0.99658203125,3.36083984375,43.30647058823529,327.02571639225096
-0.1182646484375,0.1987568359375,1.2610400390625005,1.2820736277689686,-0.45458984375,1.00830078125,2.03466796875,43.30647058823529,327.02571639225096
-0.1822294921875,0.2348896484375,1.2981494140625005,1.3317554715475433,-0.2646484375,1.65869140625,1.70361328125,43.25941176470588,327.02571639225096
-0.1729521484375,0.2124287109375,1.3406298828125005,1.368329962242139,-0.02392578125,2.23681640625,1.703125,44.01235294117648,327.02571639225096
-0.1480498046875,0.1777607421875,1.4114306640625005,1.430263662961123,0.1298828125,2.7998046875,1.8203125,43.447647058823534,326.43178401530884
-0.1334013671875,0.1303974609375,1.5779345703125005,1.5889231985133,0.3994140625,3.12939453125,2.3974609375,44.01235294117648,326.43178401530884
-0.0298857421875,0.0801044921875,1.5930712890625005,1.5953639143750151,0.625,2.9658203125,2.91064453125,43.30647058823529,326.43178401530884
0.0921845703125,0.0576435546875,1.5398486328125005,1.543682151990894,1.146484375,2.96484375,2.72998046875,43.91823529411765,326.43178401530884
0.2054658203125,0.0117451171875,1.5393603515625005,1.5530564841811327,1.23583984375,3.03076171875,1.77685546875,44.01235294117648,326.43178401530884
0.3416962890625,-0.1176494140625,1.4890673828125005,1.5322922074932062,1.443359375,3.1181640625,1.48974609375,42.55352941176471,326.8662053801494
0.5848603515625,-0.2817119140625,1.2463916015625005,1.405316782010413,1.10595703125,2.57421875,1.69921875,43.25941176470588,326.8662053801494
0.7665009765625,-0.3886455078125,1.1101611328125005,1.4039326260977183,0.80126953125,1.80224609375,1.63623046875,43.49470588235295,326.8662053801494
0.8314423828125,-0.3500712890625,1.1531298828125005,1.464088409215092,0.5361328125,1.3173828125,0.2001953125,43.353529411764704,326.8662053801494
0.7728486328125,-0.4028056640625,1.1877978515625005,1.4732315325221197,0.68505859375,0.33642578125,-0.95263671875,42.69470588235294,328.1798073671323
0.7660126953125,-0.4609111328125,1.1375048828125005,1.4467660073946662,0.720703125,-1.3056640625,-1.3916015625,43.353529411764704,328.1798073671323
0.6971650390625,-0.5380595703125,1.0735400390625005,1.3885371469162082,0.3037109375,-3.7041015625,-0.85986328125,43.30647058823529,328.1798073671323
0.4662080078125,-0.4941142578125,1.1096728515625005,1.3011043938965654,-0.1044921875,-5.37109375,0.52734375,42.55352941176471,328.1798073671323
0.2430634765625,-0.3720439453125,1.2327197265625005,1.3103795156895062,-0.08935546875,-5.61474609375,2.1865234375,43.16529411764706,328.1798073671323
0.1009736328125,-0.2309306640625,1.3626025390625005,1.3857165386857708,-0.341796875,-4.08642578125,2.3271484375,43.30647058823529,328.72164249668367
0.0311494140625,-0.0517314453125,1.4456103515625005,1.4468710091004011,-1.091796875,-1.30712890625,1.1552734375,43.16529411764706,328.72164249668367
0.0184541015625,0.0937763671875,1.4714892578125005,1.474589840180973,-1.5595703125,1.80419921875,-0.1337890625,42.60058823529412,328.72164249668367
0.0331025390625,0.1240498046875,1.4377978515625005,1.4435188928771014,-1.47900390625,4.59912109375,-0.8310546875,42.60058823529412,328.72164249668367
0.0765595703125,0.0971943359375,1.3552783203125005,1.3609141898936312,-1.17578125,6.74609375,-0.5859375,42.69470588235294,327.95413831529044
0.1170869140625,0.0649677734375,1.2385791015625005,1.2457962706066654,-0.8740234375,8.31640625,-0.27978515625,43.353529411764704,327.95413831529044
0.1161103515625,0.0190693359375,1.0823291015625005,1.088706359585611,-0.3515625,9.08837890625,-0.21337890625,43.30647058823529,327.95413831529044
0.1102509765625,-0.0273173828125,0.9382861328125,0.9451361723397036,0.02734375,8.77392578125,-0.369140625,43.54176470588236,327.95413831529044
0.0687470703125,-0.0693095703125,0.7683642578125001,0.7745409020169363,0.12646484375,7.486328125,-0.37158203125,43.30647058823529,327.95413831529044
0.0565400390625,-0.1020244140625,0.6516650390625001,0.6620219635467657,0.50927734375,5.06103515625,0.1650390625,42.60058823529412,328.0614607410121
0.0301728515625,-0.1166728515625,0.5803759765625001,0.5927556237050927,0.818359375,2.3212890625,0.73095703125,43.353529411764704,328.0614607410121
0.0003876953125,-0.1205791015625,0.5569384765625001,0.5698420278612604,1.18310546875,0.04345703125,1.20361328125,43.30647058823529,328.0614607410121
-0.0049833984375,-0.1283916015625,0.5339892578125001,0.5492301567384253,1.251953125,-1.6787109375,1.40478515625,43.447647058823534,328.0614607410121
-0.0059599609375,-0.1327861328125,0.5271533203125001,0.5436527396400838,1.29443359375,-2.73974609375,1.24365234375,43.353529411764704,327.93209141840833
-0.0254912109375,-0.1239970703125,0.5466845703125001,0.5611497970229571,1.068359375,-3.087890625,0.841796875,43.25941176470588,327.93209141840833
-0.0518583984375,-0.1196025390625,0.5588916015625001,0.5738936165665164,0.75634765625,-2.732421875,0.4453125,43.87117647058824,327.93209141840833
-0.0801787109375,-0.1059306640625,0.5984423828125001,0.613011595993603,0.47802734375,-1.82958984375,0.048828125,44.01235294117648,327.93209141840833
-0.0992216796875,-0.0810283203125,0.6257861328125001,0.6387635043058565,0.21630859375,-0.529296875,-0.2783203125,43.49470588235295,327.93209141840833
-0.0997099609375,-0.0614970703125,0.6360400390625001,0.6467386622568694,-0.0390625,0.9833984375,-0.55224609375,43.02411764705882,328.39009189841715
-0.0855498046875,-0.0243876953125,0.6453173828125001,0.6514200283416987,-0.13623046875,2.375,-0.80615234375,44.01235294117648,328.39009189841715
-0.0503935546875,0.0044208984375,0.6340869140625001,0.6361016186760895,-0.14892578125,3.85498046875,-1.01171875,43.25941176470588,328.39009189841715
-0.0303740234375,0.0210224609375,0.6082080078125001,0.6093287338792589,-0.05712890625,4.798828125,-1.1728515625,43.118235294117646,328.39009189841715
-0.0167021484375,0.0381123046875,0.5764697265625001,0.5779695971018413,0.1572265625,5.1611328125,-1.26318359375,42.60058823529412,328.2276500283251
-0.0152373046875,0.0444599609375,0.5588916015625001,0.560864231234084,0.37255859375,4.75732421875,-1.25732421875,43.353529411764704,328.2276500283251
0.0067353515625,0.0488544921875,0.5501025390625001,0.5523087269368269,0.693359375,3.2666015625,-1.2275390625,43.447647058823534,328.2276500283251
-0.0108427734375,0.0356708984375,0.5359423828125001,0.53723757912668,0.9404296875,1.271484375,-1.3251953125,44.01235294117648,328.2276500283251
-0.0699248046875,0.0122333984375,0.5657275390625001,0.5701638210213168,1.0595703125,-0.39892578125,-1.51513671875,43.16529411764706,328.2276500283251
-0.1260771484375,-0.0175517578125,0.6545947265625001,0.6668566319711264,0.828125,-1.08447265625,-1.73828125,43.118235294117646,327.53733660782785
-0.1646513671875,-0.0434306640625,0.7512744140625001,0.7703307994118991,0.8125,-0.94482421875,-2.173828125,43.777058823529416,327.53733660782785
-0.1534208984375,-0.0614970703125,0.8054736328125001,0.8222576450788137,0.75927734375,-0.68798828125,-2.568359375,42.55352941176471,327.53733660782785
-0.1739287109375,-0.1049541015625,0.8445361328125001,0.8686241071655015,0.666015625,-0.56298828125,-2.70556640625,43.58882352941177,327.53733660782785
-0.1578154296875,-0.1069072265625,0.8606494140625001,0.8815056885039714,0.69189453125,-0.98681640625,-2.68408203125,42.69470588235294,327.10952515570926
-0.1709990234375,-0.1152080078125,0.8826220703125001,0.9063858284877514,0.7041015625,-1.45849609375,-2.39306640625,42.97705882352941,327.10952515570926
-0.1963896484375,-0.1279033203125,0.9006884765625001,0.930681409061578,0.8037109375,-1.8369140625,-1.9658203125,43.447647058823534,327.10952515570926
-0.1880888671875,-0.1362041015625,0.9241259765625,0.9528577017582004,0.8671875,-2.3154296875,-1.56640625,44.01235294117648,327.10952515570926
-0.1900419921875,-0.1459697265625,0.9627001953125,0.992075998057634,0.82568359375,-2.76220703125,-1.31689453125,43.16529411764706,327.10952515570926
-0.1846708984375,-0.1630595703125,1.0208056640625005,1.0501123596940911,0.75634765625,-2.72216796875,-1.283203125,43.353529411764704,327.3902997577582
-0.1856474609375,-0.1830791015625,1.0925830078125005,1.1232633556482126,0.60693359375,-1.99462890625,-1.2197265625,44.01235294117648,327.3902997577582
-0.1949248046875,-0.2231181640625,1.1179736328125005,1.1565649304215735,0.431640625,-1.0556640625,-1.060546875,43.447647058823534,327.3902997577582
-0.2134794921875,-0.2460673828125,1.1692431640625005,1.213776020184825,0.34521484375,-0.60400390625,-0.6474609375,42.69470588235294,327.3902997577582
-0.2125029296875,-0.2519267578125,1.2141650390625005,1.2581022726747344,0.43115234375,-0.37744140625,-0.39501953125,42.60058823529412,327.2690411942157
-0.2632841796875,-0.2690166015625,1.2327197265625005,1.288909002003742,0.34423828125,0.15087890625,-0.41943359375,43.25941176470588,327.2690411942157
-0.3126005859375,-0.2475322265625,1.2395556640625005,1.3021096627492184,0.173828125,0.703125,-0.53759765625,44.01235294117648,327.2690411942157
-0.3648466796875,-0.1938212890625,1.2590869140625005,1.3251338230293093,0.0859375,1.2216796875,-0.7607421875,42.55352941176471,327.2690411942157
-0.4048857421875,-0.1401103515625,1.3513720703125005,1.417663516939892,-0.0517578125,1.48095703125,-0.77880859375,42.55352941176471,327.2690411942157
-0.3047880859375,-0.0741923828125,1.5784228515625005,1.6092914544393555,-0.2470703125,0.77197265625,-0.5859375,43.91823529411765,326.51265862063195
-0.0660185546875,0.0146748046875,1.7200244140625005,1.7213534745736248,-0.69873046875,-0.02734375,-0.69140625,42.55352941176471,326.51265862063195
0.2293916015625,-0.0248759765625,1.8816455078125005,1.8957397337578563,-1.37890625,0.43359375,-1.43115234375,43.353529411764704,326.51265862063195
0.3949189453125,-0.0717509765625,1.7112353515625005,1.7576790390858177,-1.76806640625,0.22216796875,-2.0537109375,43.353529411764704,326.51265862063195
0.6224580078125,-0.0868876953125,1.3001025390625005,1.4440464172468224,-1.27392578125,0.2392578125,-2.140625,44.01235294117648,327.1330317930923
0.8617158203125,2.6367187500001e-05,1.1658251953125005,1.4497249882986438,-0.8359375,-0.36767578125,-1.966796875,42.69470588235294,327.1330317930923
0.8460908203125,0.1606708984375,1.1887744140625005,1.4679473496523754,-0.45751953125,-1.83251953125,-0.92041015625,43.447647058823534,327.1330317930923
0.6346650390625,0.2783466796875,1.2717822265625005,1.448346166391699,0.15185546875,-3.10546875,0.78662109375,42.60058823529412,327.1330317930923
0.4818330078125,0.2212177734375,1.3855517578125005,1.4835275610111176,0.54541015625,-3.541015625,1.57958984375,42.60058823529412,327.1330317930923
0.2962861328125,0.3476826171875,1.4382861328125005,1.509084382873295,0.38525390625,-2.197265625,0.2841796875,43.49470588235295,327.9637056695232
0.0658173828125,0.2549091796875,1.4900439453125005,1.5131231201497397,0.328125,-0.3095703125,-1.28125,44.01235294117648,327.9637056695232
-0.0611357421875,0.1299091796875,1.4241259765625005,1.4313450915345296,-0.00341796875,1.1376953125,-2.54443359375,43.30647058823529,327.9637056695232
-0.1094755859375,0.0010029296875,1.3704150390625005,1.3747811786146154,-0.28271484375,2.341796875,-2.453125,43.447647058823534,327.9637056695232
-0.0689482421875,-0.0746806640625,1.3694384765625005,1.373205302485897,0.6318359375,3.08837890625,-1.4267578125,43.02411764705882,327.9085887686251
0.0252900390625,-0.1557353515625,1.3181689453125005,1.3275776640891288,1.525390625,3.31298828125,-0.57568359375,44.01235294117648,327.9085887686251
0.1170869140625,-0.2138408203125,1.2810595703125005,1.3040517108480976,1.416015625,3.1904296875,-0.5625,42.69470588235294,327.9085887686251
0.1737275390625,-0.2778056640625,1.2336962890625005,1.276465345577585,0.97216796875,3.25927734375,-0.64208984375,43.25941176470588,327.9085887686251
0.1869111328125,-0.2988017578125,1.1418994140625005,1.1950533602636215,0.47314453125,3.46923828125,-0.47021484375,43.118235294117646,327.9085887686251
0.1839814453125,-0.2616923828125,1.0339892578125005,1.0823427648915134,0.2509765625,3.34619140625,-0.04345703125,42.69470588235294,328.2702892912068
0.1556611328125,-0.2123759765625,0.9514697265625,0.9872327913183724,0.24169921875,3.21533203125,0.2734375,42.60058823529412,328.2702892912068
0.1039033203125,-0.1689189453125,0.8723681640625001,0.8946260245081329,0.16357421875,3.2109375,0.4267578125,42.55352941176471,328.2702892912068
0.0560517578125,-0.1215556640625,0.7722705078125001,0.7837852488127875,-0.140625,2.98486328125,0.44775390625,44.01235294117648,328.2702892912068
0.0204072265625,-0.0707744140625,0.7117236328125001,0.7155249835510189,-0.4384765625,2.3076171875,0.60986328125,42.60058823529412,327.85784003991006
0.0028291015625,-0.0331767578125,0.6628955078125001,0.6637312372885523,-0.67724609375,1.17578125,0.86767578125,43.91823529411765,327.85784003991006
-0.0196318359375,0.0014912109375,0.6262744140625001,0.6265838127510674,-0.767578125,0.10302734375,0.875,43.30647058823529,327.85784003991006
-0.0250029296875,0.0283466796875,0.6301806640625001,0.6313131949361722,-0.7841796875,-0.90869140625,0.935546875,43.353529411764704,327.85784003991006
-0.0474638671875,0.0449482421875,0.6306689453125001,0.6340476967434863,-0.5908203125,-1.5966796875,0.86962890625,43.353529411764704,327.85784003991006
-0.0552763671875,0.0400654296875,0.6360400390625001,0.6396934005569528,-0.41162109375,-1.796875,0.84130859375,43.68294117647059,327.2910880804184
-0.0469755859375,0.0278583984375,0.6589892578125001,0.6612485447620612,-0.27880859375,-1.6396484375,0.83984375,43.30647058823529,327.2910880804184
-0.0386748046875,0.0234638671875,0.6692431640625001,0.6707702335564655,-0.1279296875,-1.19384765625,0.84619140625,42.69470588235294,327.2910880804184
-0.0333037109375,0.0141865234375,0.6570361328125001,0.6580325785480963,-0.0478515625,-0.74365234375,0.82470703125,43.447647058823534,327.2910880804184
-0.0206083984375,0.0053974609375,0.6399462890625001,0.6403007820982225,-0.02978515625,-0.21728515625,0.81103515625,44.01235294117648,327.87697441993413
-0.0303740234375,-0.0004619140624999,0.6287158203125001,0.6294492651323083,-0.009765625,0.12353515625,0.83935546875,44.01235294117648,327.87697441993413
-0.0459990234375,-0.0185283203125,0.5896533203125001,0.591734946548167,-0.0830078125,-0.01806640625,0.96630859375,43.30647058823529,327.87697441993413
-0.0372099609375,-0.0307353515625,0.5852587890625001,0.587245343279574,-0.11669921875,-0.4345703125,1.171875,42.83588235294118,327.87697441993413
-0.0542998046875,-0.0414775390625,0.5955126953125001,0.5994199073388707,-0.08984375,-1.07958984375,1.41845703125,43.87117647058824,327.87697441993413
-0.0728544921875,-0.0483134765625,0.6409228515625001,0.6468570713105487,0.02197265625,-1.4873046875,1.64501953125,44.01235294117648,327.6101284274105
-0.0904326171875,-0.0453837890625,0.7043994140625001,0.7116293143854066,0.2216796875,-1.78564453125,2.00732421875,42.60058823529412,327.6101284274105
-0.1016630859375,-0.0678447265625,0.7532275390625001,0.7630792983477052,0.26416015625,-2.0419921875,2.58349609375,42.55352941176471,327.6101284274105
-0.1197294921875,-0.0834697265625,0.8396533203125001,0.8522441228097152,0.07666015625,-1.5322265625,3.17333984375,42.60058823529412,327.6101284274105
-0.0728544921875,-0.0468486328125,0.8811572265625001,0.8854042180561463,-0.00537109375,-1.68994140625,3.337890625,42.60058823529412,327.1631832337332
-0.0865263671875,-0.0243876953125,0.9412158203125,0.9454992291418612,-0.16552734375,-1.42041015625,3.1357421875,43.447647058823534,327.1631832337332
-0.0787138671875,0.0136982421875,0.9612353515625,0.96455011058012,-0.54541015625,-0.53076171875,2.59423828125,43.353529411764704,327.1631832337332
-0.0967802734375,0.0293232421875,0.9587939453125,0.964112080324136,-0.70751953125,-0.603515625,2.07470703125,43.87117647058824,327.1631832337332
