AccX,AccY,AccZ,Magnitude,GyroX,GyroY,GyroZ,Temperature,Altitude
-0.0621123046875,0.0351826171875,0.7634814453125001,0.7668113668186062,-0.294921875,0.609375,-1.20166015625,44.34176470588236,351.91219470816844
-0.0689482421875,0.0151630859375,0.7083056640625001,0.711815069395776,-0.29443359375,0.50732421875,-0.89404296875,44.53,351.91219470816844
-0.0640654296875,0.0029560546875,0.6526416015625001,0.655785161184991,-0.298828125,0.41552734375,-0.64453125,44.20058823529412,351.91219470816844
-0.0626005859375,-0.0063212890624999,0.6174853515625001,0.6206826495475721,-0.2412109375,0.33349609375,-0.28271484375,44.29470588235294,351.91219470816844
-0.0767607421875,-0.0195048828125,0.5837939453125001,0.5891417678099555,-0.22265625,0.26123046875,0.13818359375,44.53,352.2737382050098
-0.0943388671875,-0.0214580078125,0.5710986328125001,0.5792356311224378,-0.18017578125,0.15234375,0.49365234375,44.53,352.2737382050098
-0.1202177734375,-0.0165751953125,0.5710986328125001,0.5838498938513429,-0.193359375,0.0283203125,0.7607421875,44.48294117647059,352.2737382050098
-0.1275419921875,-0.0199931640625,0.5852587890625001,0.5993284045957528,-0.21435546875,-0.07177734375,0.9765625,44.53,352.2737382050098
-0.1236357421875,-0.0068095703124999,0.6067431640625001,0.6192490889219529,-0.21630859375,-0.07177734375,1.1875,44.34176470588236,352.2737382050098
-0.1114287109375,0.0068623046875,0.6233447265625001,0.6332630551201411,-0.22509765625,-0.1123046875,1.36181640625,44.34176470588236,352.24852711192324
-0.1021513671875,0.0176044921875,0.6458056640625001,0.6540716900299706,-0.22509765625,-0.22509765625,1.5234375,44.34176470588236,352.24852711192324
-0.1216826171875,0.0176044921875,0.6614306640625001,0.6727608050659158,-0.2568359375,-0.31640625,1.68212890625,44.67117647058824,352.24852711192324
-0.1578154296875,0.0234638671875,0.6834033203125001,0.7017808497850254,-0.27978515625,-0.2890625,1.75390625,44.34176470588236,352.24852711192324
-0.1963896484375,0.0298115234375,0.7180712890625001,0.7450395943296906,-0.30517578125,-0.23974609375,1.7294921875,44.48294117647059,351.5486418226253
-0.2237333984375,0.0239521484375,0.7634814453125001,0.7959486518159505,-0.31787109375,-0.18212890625,1.7451171875,44.29470588235294,351.5486418226253
-0.2222685546875,0.0176044921875,0.7918017578125001,0.8225954365440006,-0.34033203125,-0.076171875,1.748046875,44.48294117647059,351.5486418226253
-0.1998076171875,0.0122333984375,0.8318408203125001,0.8555886220968872,-0.40283203125,0.10009765625,1.81005859375,44.57705882352941,351.5486418226253
-0.1763701171875,0.0361591796875,0.9011767578125,0.9189850125730316,-0.43896484375,0.294921875,1.865234375,44.67117647058824,351.5486418226253
-0.1543974609375,0.0693623046875,0.9602587890625,0.975062381197884,-0.40576171875,0.37255859375,2.09765625,44.53,351.5036255980521
-0.1143583984375,0.1084248046875,0.9924853515625,1.0049183820743115,-0.32080078125,0.28564453125,2.302734375,44.57705882352941,351.5036255980521
-0.1089873046875,0.1538349609375,1.0066455078125005,1.0241477462694406,-0.2216796875,0.1572265625,2.4775390625,44.67117647058824,351.5036255980521
-0.1705107421875,0.1821552734375,1.0212939453125005,1.0513304806645696,-0.15771484375,0.10205078125,2.673828125,44.34176470588236,351.5036255980521
-0.2496123046875,0.2119404296875,1.0442431640625005,1.0943805709527146,-0.02587890625,0.337890625,2.69140625,44.34176470588236,351.32123247539545
-0.3116240234375,0.2265888671875,1.1013720703125005,1.1668215304754763,0.11865234375,0.79736328125,2.55224609375,44.57705882352941,351.32123247539545
-0.3516630859375,0.2055927734375,1.1477587890625005,1.2179021111612485,0.1572265625,1.22216796875,2.3779296875,44.388823529411766,351.32123247539545
-0.3716826171875,0.1811787109375,1.1799853515625005,1.2503356041952902,0.19091796875,1.6767578125,2.2119140625,44.53,351.32123247539545
-0.4053740234375,0.1372333984375,1.2210009765625005,1.2938332540521564,0.2939453125,2.2626953125,1.9482421875,44.29470588235294,351.32123247539545
-0.4136748046875,0.1137958984375,1.3586962890625005,1.424826991759578,0.28076171875,2.7041015625,1.7099609375,44.57705882352941,351.2432663901367
-0.3126005859375,0.1118427734375,1.4968798828125005,1.5332570938585035,0.41455078125,2.51953125,1.54296875,44.34176470588236,351.2432663901367
-0.2178740234375,0.0517841796875,1.5110400390625005,1.5275446608871224,0.5478515625,1.9599609375,1.572265625,44.57705882352941,351.2432663901367
-0.1714873046875,-0.0019267578124999,1.4670947265625005,1.4770844744875458,0.69970703125,1.6123046875,1.60498046875,44.67117647058824,351.2432663901367
-0.0523466796875,-0.0151103515624999,1.4905322265625005,1.491527678596684,0.6787109375,1.2470703125,1.23095703125,44.48294117647059,351.4157576570224
0.1034150390625,-0.0082744140624999,1.4949267578125005,1.4985223213072836,0.72509765625,0.517578125,0.64208984375,44.53,351.4157576570224
0.2669892578125,-0.0024150390624999,1.4910205078125005,1.5147380139543567,0.62646484375,0.2109375,0.22705078125,44.53,351.4157576570224
0.4393525390625,-0.0136455078124999,1.4851611328125005,1.5488448740532526,0.67236328125,0.02001953125,-0.00537109375,44.34176470588236,351.4157576570224
0.3797822265625,-0.1235087890625,1.3499072265625005,1.4077423347026672,0.609375,0.3115234375,0.21044921875,44.48294117647059,351.4157576570224
0.2552705078125,-0.1591533203125,1.3093798828125005,1.343491157038044,0.52880859375,0.4619140625,0.61669921875,44.1064705882353,352.05749109325774
0.2728486328125,-0.3871806640625,1.3201220703125005,1.4025254092449415,0.21435546875,0.09716796875,0.37255859375,44.67117647058824,352.05749109325774
0.3265595703125,-0.3437236328125,1.2961962890625005,1.380185461630394,-0.3896484375,-0.4814453125,-1.642578125,44.53,352.05749109325774
0.1732392578125,-0.2826884765625,1.3210986328125005,1.362066890004933,-0.9130859375,-0.9375,-2.76318359375,44.48294117647059,352.05749109325774
-0.0645537109375,-0.1718486328125,1.3709033203125005,1.3831395619528657,-1.24560546875,-1.11181640625,-2.11865234375,44.48294117647059,352.8597216905678
-0.2584013671875,-0.0649150390625,1.4099658203125005,1.4349177130798676,-0.9228515625,-0.88037109375,-0.15966796875,44.57705882352941,352.8597216905678
-0.3179716796875,0.0107685546875,1.3796923828125005,1.4159000748796444,-0.666015625,-0.21240234375,1.08203125,44.48294117647059,352.8597216905678
-0.3028349609375,0.0166279296875,1.2942431640625005,1.3293046563275936,-0.19921875,0.21826171875,1.93408203125,44.48294117647059,352.8597216905678
-0.1929716796875,0.0581318359375,1.1765673828125005,1.1937035585978355,-0.076171875,0.3232421875,2.5556640625,45.235882352941175,352.8597216905678
-0.1216826171875,0.0791279296875,1.0359423828125005,1.0460614270153883,-0.06787109375,0.138671875,2.51806640625,44.53,352.02346409218165
-0.1104521484375,0.1118427734375,0.9485400390625,0.9614763069204256,-0.037109375,0.150390625,2.607421875,44.71823529411765,352.02346409218165
-0.0704130859375,0.1377216796875,0.8411181640625001,0.8552222106815625,0.01025390625,0.095703125,2.90234375,44.57705882352941,352.02346409218165
-0.0577177734375,0.1264912109375,0.7874072265625001,0.7995883367445188,0.12890625,0.3232421875,3.1240234375,44.57705882352941,352.02346409218165
-0.0191435546875,0.0962177734375,0.7346728515625001,0.7411939924434888,0.263671875,0.65087890625,3.12646484375,44.57705882352941,351.9476588624974
-0.0084013671875,0.0586201171875,0.6794970703125001,0.6820727011638613,0.33544921875,0.80517578125,2.8486328125,44.48294117647059,351.9476588624974
0.0008759765625,0.0346943359375,0.6077197265625001,0.6087098901235973,0.3212890625,0.66357421875,2.46826171875,44.53,351.9476588624974
0.0067353515625,0.0239521484375,0.5237353515625001,0.5243260329716025,0.33642578125,0.41748046875,1.845703125,44.71823529411765,351.9476588624974
-0.0118193359375,0.0039326171875,0.4817431640625,0.4819041795843814,0.35546875,0.107421875,1.2548828125,44.57705882352941,351.9476588624974
-0.0425810546875,-0.0209697265625,0.4456103515625,0.4481310757692003,0.4052734375,-0.134765625,0.72607421875,44.53,352.06739696225225
-0.0660185546875,-0.0585673828125,0.4460986328125,0.4547445195818352,0.44091796875,-0.2783203125,0.521484375,44.48294117647059,352.06739696225225
-0.0538115234375,-0.0512431640625,0.4529345703125,0.4589893973742421,0.49755859375,-0.46923828125,0.22998046875,44.67117647058824,352.06739696225225
-0.0606474609375,-0.0561259765625,0.4802783203125,0.4873351051642558,0.4267578125,-0.43994140625,-0.1875,44.57705882352941,352.06739696225225
-0.0533232421875,-0.0448955078125,0.4998095703125,0.5046469868681422,0.35595703125,-0.43017578125,-0.61083984375,44.34176470588236,352.4399728492156
-0.0728544921875,-0.0365947265625,0.5212939453125001,0.5276308638276901,0.3046875,-0.38916015625,-0.95703125,44.53,352.4399728492156
-0.0933623046875,-0.0185283203125,0.5652392578125001,0.5731973806313059,0.25830078125,-0.30419921875,-1.3291015625,44.48294117647059,352.4399728492156
-0.1241240234375,-0.0146220703124999,0.6160205078125001,0.6285712721562347,0.125,-0.17529296875,-1.56494140625,44.57705882352941,352.4399728492156
-0.1548857421875,-0.0038798828124999,0.6550830078125001,0.673155549444765,0.2529296875,-0.1865234375,-1.73388671875,44.48294117647059,352.4399728492156
-0.1324248046875,0.0088154296875,0.6599658203125001,0.6731782265328022,0.32177734375,-0.3896484375,-1.921875,44.53,351.925692583062
-0.2271513671875,-0.0063212890624999,0.7161181640625001,0.7513074784738988,0.50048828125,-0.4169921875,-1.59033203125,45.47117647058823,351.925692583062
-0.2159208984375,-0.0121806640624999,0.7698291015625001,0.7996293194797116,0.47998046875,-0.34912109375,-1.2685546875,44.48294117647059,351.925692583062
-0.1954130859375,-0.0048564453124999,0.8240283203125001,0.8468958211573193,0.53173828125,-0.34423828125,-1.556640625,44.67117647058824,351.925692583062
-0.1998076171875,-0.0146220703124999,0.8699267578125001,0.8926978507784918,0.54150390625,-0.25244140625,-1.63330078125,44.29470588235294,351.0905808514788
-0.1988310546875,-0.0282939453125,0.9085009765625,0.9304345006847644,0.552734375,-0.19580078125,-1.546875,44.57705882352941,351.0905808514788
-0.1963896484375,-0.0312236328125,0.9641650390625,0.984458242796416,0.5625,-0.0576171875,-1.4228515625,44.388823529411766,351.0905808514788
-0.1929716796875,-0.0390361328125,1.0227587890625005,1.0415360912762277,0.6015625,0.05126953125,-1.421875,44.388823529411766,351.0905808514788
-0.1915068359375,-0.0497783203125,1.0593798828125005,1.0777005546494598,0.6474609375,0.0546875,-1.4580078125,45.47117647058823,351.0905808514788
-0.1954130859375,-0.0468486328125,1.0877001953125005,1.1061070397727646,0.71044921875,0.10546875,-1.4248046875,44.48294117647059,351.47517845326223
-0.2217802734375,-0.0610087890625,1.1296923828125005,1.1528718236705542,0.6845703125,0.166015625,-1.49462890625,44.57705882352941,351.47517845326223
-0.2588896484375,-0.0844462890625,1.1677783203125005,1.199108515188014,0.634765625,0.20751953125,-1.6884765625,44.53,351.47517845326223
-0.2857451171875,-0.1054423828125,1.2200244140625005,1.2574688620392247,0.5556640625,0.443359375,-1.69091796875,44.53,351.47517845326223
-0.2828154296875,-0.1108134765625,1.2727587890625005,1.3085026285770447,0.46533203125,0.6708984375,-1.728515625,44.48294117647059,351.6674840127316
-0.2823271484375,-0.0961650390625,1.2981494140625005,1.3319715592735286,0.3642578125,1.02880859375,-1.88330078125,44.48294117647059,351.6674840127316
-0.3536162109375,-0.0717509765625,1.3186572265625005,1.367131854811734,0.2412109375,1.48974609375,-1.7509765625,44.48294117647059,351.6674840127316
-0.4180693359375,-0.0155986328124999,1.4270556640625005,1.4871157168592175,0.23046875,1.76318359375,-1.30322265625,44.48294117647059,351.6674840127316
-0.3868193359375,0.0210224609375,1.5505908203125005,1.59824999125806,0.2275390625,1.67041015625,-1.1025390625,44.29470588235294,351.6674840127316
-0.2911162109375,0.0903583984375,1.6292041015625005,1.65747376841592,0.1826171875,1.27587890625,-1.45751953125,44.29470588235294,350.8532741078631
-0.2271513671875,0.1582294921875,1.6379931640625005,1.661221213844967,0.15087890625,1.06591796875,-1.85107421875,44.81235294117647,350.8532741078631
-0.1470732421875,0.1762958984375,1.5608447265625005,1.577639706273709,0.23046875,1.14697265625,-1.560546875,44.34176470588236,350.8532741078631
0.0223603515625,0.1577412109375,1.4739306640625005,1.4825160631216616,0.38330078125,1.4375,-0.654296875,44.57705882352941,350.8532741078631
0.1883759765625,0.1357685546875,1.4500048828125005,1.4684797476192517,0.37451171875,1.73583984375,-0.18896484375,44.53,350.822487694127
0.1634736328125,0.1128193359375,1.3665087890625005,1.3808686040935811,0.43115234375,1.72509765625,-0.01806640625,44.67117647058824,350.822487694127
0.1429658203125,0.1269794921875,1.2517626953125005,1.2662830894353114,0.4765625,1.88134765625,0.2587890625,44.48294117647059,350.822487694127
0.2249970703125,0.1836201171875,1.1848681640625005,1.2199395867394416,0.50341796875,1.78515625,0.48046875,44.48294117647059,350.822487694127
0.2347626953125,0.2280537109375,1.1047900390625005,1.1522512957660214,0.572265625,1.32373046875,0.48388671875,44.34176470588236,350.822487694127
0.1185517578125,0.2412373046875,1.0364306640625005,1.0707186735377126,0.58447265625,0.90380859375,0.61376953125,44.48294117647059,352.1927371689687
-0.0132841796875,0.2495380859375,1.0349658203125005,1.0647065205860475,0.654296875,0.5615234375,0.75341796875,44.57705882352941,352.1927371689687
-0.0528349609375,0.2387958984375,1.1296923828125005,1.1558632678619147,0.80322265625,0.224609375,0.5673828125,44.48294117647059,352.1927371689687
-0.0435576171875,0.1562763671875,1.1677783203125005,1.1789935429629204,0.6376953125,-0.138671875,-0.0068359375,44.53,352.1927371689687
-0.0962919921875,0.1001240234375,1.2131884765625005,1.2211155749939442,0.6015625,-0.44287109375,-0.935546875,44.388823529411766,352.7718572399062
-0.1573271484375,0.0439716796875,1.2014697265625005,1.212524162273142,0.62890625,-0.47216796875,-1.2060546875,44.53,352.7718572399062
-0.1514677734375,-0.0170634765625,1.1570361328125005,1.1670331020396203,0.396484375,-0.39404296875,-1.03857421875,44.34176470588236,352.7718572399062
-0.1353544921875,-0.0268291015625,1.1716845703125005,1.1797819169466768,0.10546875,-0.0390625,-1.1943359375,44.57705882352941,352.7718572399062
-0.1314482421875,-0.0434306640625,1.1404345703125005,1.1488062813716464,-0.1025390625,0.275390625,-1.3564453125,44.48294117647059,352.7718572399062
-0.0835966796875,-0.1142314453125,1.0686572265625005,1.0779914173300325,-0.166015625,0.31640625,-1.15625,44.71823529411765,352.6422074011928
-0.0455107421875,-0.1259501953125,0.9753955078125,0.9845461269105268,-0.22900390625,0.462890625,-1.02392578125,44.48294117647059,352.6422074011928
-0.0621123046875,-0.1069072265625,0.9158251953125,0.9241335844205952,-0.35986328125,0.62890625,-0.87158203125,44.48294117647059,352.6422074011928
-0.0699248046875,-0.0551494140625,0.8679736328125001,0.8725303223612064,-0.48974609375,0.64990234375,-1.015625,44.388823529411766,352.6422074011928
-0.1211943359375,-0.0414775390625,0.8206103515625001,0.8305478929005495,-0.54052734375,0.76708984375,-0.91796875,44.48294117647059,352.2575602420013
-0.1387724609375,-0.0214580078125,0.7585986328125001,0.7714856626787859,-0.54296875,0.8896484375,-0.56689453125,44.29470588235294,352.2575602420013
-0.1539091796875,-0.0248759765625,0.6941455078125001,0.711438567845665,-0.494140625,1.00146484375,-0.1162109375,44.48294117647059,352.2575602420013
-0.1543974609375,-0.0248759765625,0.6399462890625001,0.6587781440202383,-0.50732421875,1.0205078125,0.36669921875,44.29470588235294,352.2575602420013
-0.1368193359375,-0.0195048828125,0.5979541015625001,0.6137174257875725,-0.50634765625,0.91796875,0.6298828125,44.57705882352941,352.2575602420013
-0.1451201171875,-0.0195048828125,0.5593798828125001,0.5782267221093897,-0.4697265625,0.763671875,1.07275390625,44.34176470588236,352.54658076448663
-0.1343779296875,-0.0155986328124999,0.5354541015625001,0.5522787703803416,-0.44970703125,0.59716796875,1.34326171875,44.48294117647059,352.54658076448663
-0.1202177734375,-0.0175517578125,0.5178759765625001,0.5319359964818529,-0.45263671875,0.35205078125,1.6015625,44.57705882352941,352.54658076448663
-0.1187529296875,-0.0136455078124999,0.5100634765625001,0.5238828192600415,-0.4248046875,0.17333984375,1.80712890625,45.33,352.54658076448663
-0.1124052734375,-0.0063212890624999,0.5164111328125001,0.5285407858289277,-0.41162109375,-0.01123046875,1.88525390625,44.29470588235294,352.31140043921846
-0.1226591796875,-0.0009501953124999,0.5247119140625001,0.5388587662754265,-0.35546875,-0.07763671875,2.0380859375,44.059411764705885,352.31140043921846
-0.1255888671875,0.0161396484375,0.5461962890625001,0.5606812267222541,-0.3154296875,-0.09814453125,2.11328125,44.67117647058824,352.31140043921846
-0.1470732421875,0.0176044921875,0.5696337890625001,0.5885771915003363,-0.24853515625,-0.09814453125,2.1943359375,44.48294117647059,352.31140043921846
-0.1475615234375,0.0180927734375,0.6121142578125001,0.6299092127181538,-0.25,-0.109375,2.3310546875,44.53,352.31140043921846
-0.1421904296875,0.0244404296875,0.6545947265625001,0.6703056832083849,-0.19970703125,-0.12548828125,2.3505859375,44.48294117647059,351.7631000173302
-0.1417021484375,0.0307880859375,0.7029345703125001,0.7177356165385115,-0.23974609375,-0.216796875,2.35400390625,44.48294117647059,351.7631000173302
-0.1431669921875,0.0449482421875,0.7293017578125001,0.7445792006738868,-0.2392578125,-0.3154296875,2.23095703125,44.53,351.7631000173302
-0.1768583984375,0.0454365234375,0.7859423828125001,0.8068759507265998,-0.271484375,-0.3291015625,2.08349609375,44.48294117647059,351.7631000173302
-0.2046904296875,0.0205341796875,0.8088916015625001,0.8346409093852507,-0.36474609375,-0.33154296875,1.87744140625,44.29470588235294,351.5916800495299
-0.2251982421875,0.0400654296875,0.8435595703125001,0.8740207295059961,-0.4013671875,-0.203125,2.22021484375,44.48294117647059,351.5916800495299
-0.2369169921875,0.0566669921875,0.9016650390625,0.9339917836139298,-0.47412109375,0.0390625,2.2470703125,44.57705882352941,351.5916800495299
-0.2393583984375,0.0830341796875,0.9622119140625,0.9950069775950122,-0.466796875,0.15087890625,2.03271484375,44.388823529411766,351.5916800495299
-0.2295927734375,0.0903583984375,1.0076220703125005,1.0373908223826556,-0.45947265625,0.146484375,2.1806640625,44.53,351.5916800495299
-0.2012724609375,0.1142841796875,1.0359423828125005,1.061483913098038,-0.44140625,0.10205078125,2.37255859375,44.57705882352941,351.5927578725695
-0.1924833984375,0.1450458984375,1.0457080078125005,1.073123203053023,-0.36083984375,0.00830078125,2.396484375,44.34176470588236,351.5927578725695
-0.2603544921875,0.1909443359375,1.0657275390625005,1.1135615782456922,-0.22900390625,0.04638671875,2.37060546875,44.29470588235294,351.5927578725695
-0.3868193359375,0.2134052734375,1.1233447265625005,1.207093361791805,-0.11279296875,0.34619140625,2.6787109375,44.57705882352941,351.5927578725695
-0.4644560546875,0.2129169921875,1.2034228515625005,1.307394214443704,-0.0625,0.84130859375,3.13916015625,44.57705882352941,351.5488254915011
-0.4893583984375,0.1997333984375,1.3503955078125005,1.4501493371694134,0.060546875,1.3154296875,3.283203125,45.42411764705882,351.5488254915011
-0.4639677734375,0.1865498046875,1.5286181640625005,1.6083346716151166,0.24365234375,1.40283203125,3.34912109375,44.48294117647059,351.5488254915011
-0.3560576171875,0.1733662109375,1.6521533203125005,1.6989536378817656,0.51806640625,1.15478515625,3.29443359375,44.48294117647059,351.5488254915011
-0.2085966796875,0.0991474609375,1.6711962890625005,1.6870802679076282,0.81982421875,0.9609375,2.79345703125,44.53,351.5488254915011
-0.1119169921875,0.0151630859375,1.6169970703125005,1.6209364138406706,0.71875,0.89599609375,2.01171875,44.34176470588236,351.13235262503525
-0.0059599609375,-0.0024150390624999,1.5291064453125005,1.5291199673813305,0.4013671875,0.9580078125,1.34521484375,45.33,351.13235262503525
0.0838837890625,0.0176044921875,1.3460009765625005,1.348727191510524,0.0029296875,1.1513671875,0.8701171875,44.34176470588236,351.13235262503525
0.0536103515625,0.0429951171875,1.2830126953125005,1.2848518304573755,-0.193359375,1.478515625,0.06884765625,44.48294117647059,351.13235262503525
0.0667939453125,-0.0004619140624999,1.2825244140625005,1.2842626355856384,-0.31103515625,1.8095703125,-0.3544921875,44.48294117647059,351.5180324628017
0.1190400390625,-0.0663798828125,1.2937548828125005,1.3009144924027056,-0.41943359375,1.658203125,-0.54931640625,44.53,351.5180324628017
0.1463837890625,-0.1381572265625,1.2444384765625005,1.2606120556701546,-0.5244140625,0.94091796875,-0.52783203125,44.53,351.5180324628017
0.0887666015625,-0.1816142578125,1.2009814453125005,1.217875067557688,-0.50732421875,0.095703125,-0.5068359375,44.53,351.5180324628017
0.0077119140625,-0.2397197265625,1.2229541015625005,1.2462510804208955,-0.44384765625,-0.58056640625,-0.4755859375,44.48294117647059,351.5180324628017
-0.0518583984375,-0.2880595703125,1.2795947265625005,1.312642477517654,-0.57861328125,-1.0302734375,-0.44140625,44.48294117647059,352.44988156823854
-0.1241240234375,-0.2670634765625,1.3264697265625005,1.3587684163222062,-0.74951171875,-1.38623046875,-0.00927734375,44.57705882352941,352.44988156823854
-0.1143583984375,-0.1615947265625,1.3254931640625005,1.3401950704738537,-0.8173828125,-1.56103515625,0.5498046875,44.57705882352941,352.44988156823854
-0.1094755859375,-0.0776103515625,1.2566455078125005,1.2637904109825135,-0.81591796875,-1.26318359375,1.26220703125,44.53,352.44988156823854
-0.0752958984375,-0.0424541015625,1.2014697265625005,1.204575164490435,-0.7138671875,-0.705078125,1.80224609375,44.53,352.3850577272736
-0.0743193359375,-0.0082744140624999,1.1960986328125005,1.198433881796656,-0.7021484375,-0.37451171875,2.33447265625,44.67117647058824,352.3850577272736
-0.1070341796875,0.0620380859375,1.1794970703125005,1.1859672755198332,-0.70068359375,-0.14404296875,2.56005859375,44.29470588235294,352.3850577272736
-0.1148466796875,0.0498310546875,1.0627978515625005,1.070145862549764,-0.58642578125,-0.12939453125,2.78466796875,44.29470588235294,352.3850577272736
-0.1241240234375,0.1255146484375,1.0134814453125005,1.0287396853234625,-0.4091796875,0.005859375,2.93896484375,44.20058823529412,352.3850577272736
-0.1324248046875,0.1152607421875,0.9041064453125,0.920993937027677,-0.2509765625,-0.125,3.38623046875,44.48294117647059,351.7422108833028
-0.0816435546875,0.1074482421875,0.8293994140625001,0.8403060054637316,-0.08251953125,0.15576171875,3.60205078125,44.53,351.7422108833028
-0.0396513671875,0.0830341796875,0.7527392578125001,0.7583424662830952,0.123046875,0.2138671875,3.66650390625,45.33,351.7422108833028
-0.0074248046875,0.0698505859375,0.6819384765625001,0.6855467291854312,0.1826171875,0.20751953125,3.26318359375,44.29470588235294,351.7422108833028
-0.0328154296875,0.0449482421875,0.6375048828125001,0.6399294277583278,0.2939453125,0.171875,2.734375,44.53,352.0004211171348
-0.0513701171875,0.0205341796875,0.5686572265625001,0.5713419140908975,0.27685546875,0.0966796875,2.1357421875,44.34176470588236,352.0004211171348
-0.0684599609375,0.0014912109375,0.5364306640625001,0.5407835494060068,0.17236328125,0.0341796875,1.4462890625,44.388823529411766,352.0004211171348
-0.0889677734375,-0.0282939453125,0.5061572265625001,0.5146950068275532,0.15087890625,-0.12841796875,0.83447265625,44.1064705882353,352.0004211171348
-0.1041044921875,-0.0424541015625,0.4919970703125,0.5046793172195384,0.10888671875,-0.05859375,0.3125,44.34176470588236,352.0004211171348
-0.1172880859375,-0.0502666015625,0.4924853515625,0.5087485113876647,0.13232421875,-0.103515625,0.00927734375,44.57705882352941,352.1169312867945
-0.1021513671875,-0.0483134765625,0.4963916015625,0.5090910684127296,0.1484375,-0.0380859375,0.02392578125,44.34176470588236,352.1169312867945
-0.0914091796875,-0.0483134765625,0.5271533203125001,0.5371968477803926,0.08984375,0.07275390625,-0.01416015625,44.53,352.1169312867945
-0.1138701171875,-0.0507548828125,0.5681689453125001,0.581685836285468,0.0498046875,0.115234375,-0.111328125,44.20058823529412,352.1169312867945
-0.1509794921875,-0.0507548828125,0.5925830078125001,0.6136167259280141,-0.00048828125,0.2099609375,-0.1572265625,44.48294117647059,352.01032798074067
-0.1509794921875,-0.0419658203125,0.6238330078125001,0.6432134628349185,-0.00244140625,0.22900390625,-0.2431640625,44.57705882352941,352.01032798074067
-0.1353544921875,-0.0268291015625,0.6643603515625001,0.6785391042336733,0.00439453125,0.259765625,-0.306640625,44.67117647058824,352.01032798074067
-0.0777373046875,-0.0092509765624999,0.6560595703125001,0.6607138782453864,0.00439453125,0.10302734375,-0.50341796875,44.29470588235294,352.01032798074067
-0.1626982421875,-0.0024150390624999,0.7336962890625001,0.7515229836862339,0.068359375,0.0478515625,-0.59716796875,44.48294117647059,352.01032798074067
-0.1876005859375,-0.0019267578124999,0.7732470703125001,0.7956812954862178,0.09423828125,-0.0615234375,-0.37548828125,44.53,351.452133824493
-0.2149443359375,2.6367187500001e-05,0.8088916015625001,0.8369627777417511,0.171875,-0.154296875,-0.31787109375,44.57705882352941,351.452133824493
-0.2090849609375,-0.0038798828124999,0.8274462890625001,0.8534629081947129,0.26171875,-0.10400390625,-0.0712890625,44.53,351.452133824493
-0.1822294921875,-0.0058330078124999,0.8709033203125001,0.8897832349142076,0.34912109375,-0.0361328125,-0.05419921875,44.29470588235294,351.452133824493
-0.1724638671875,-0.0033916015624999,0.9299853515625,0.9458477903802774,0.42626953125,-0.00146484375,-0.16259765625,44.48294117647059,350.90602794819347
-0.1636748046875,-0.0087626953124999,0.9934619140625,1.006892646319039,0.48974609375,-0.01025390625,-0.4482421875,44.57705882352941,350.90602794819347
-0.1739287109375,-0.0195048828125,1.0320361328125005,1.0467713295522048,0.53857421875,-0.0546875,-0.8291015625,44.29470588235294,350.90602794819347
-0.1919951171875,-0.0243876953125,1.0510791015625005,1.0687488771680322,0.57568359375,-0.111328125,-1.078125,44.48294117647059,350.90602794819347
-0.1846708984375,-0.0282939453125,1.0710986328125005,1.087270053521142,0.572265625,-0.0791015625,-1.119140625,44.53,350.90602794819347
-0.2085966796875,-0.0492900390625,1.1003955078125005,1.121076427520159,0.52783203125,0.14306640625,-1.18115234375,44.48294117647059,351.5488254915011
-0.2427763671875,-0.0610087890625,1.1873095703125005,1.2134110814407812,0.5263671875,0.39013671875,-1.36669921875,44.67117647058824,351.5488254915011
-0.2759794921875,-0.0697978515625,1.3088916015625005,1.339490068955966,0.4462890625,0.63525390625,-1.62548828125,44.53,351.5488254915011
-0.3306669921875,-0.0771220703125,1.3606494140625005,1.4023748790677333,0.35693359375,0.9296875,-2.1220703125,44.29470588235294,351.5488254915011
-0.4302763671875,-0.0488017578125,1.4421923828125005,1.5058015250251473,0.30322265625,1.4140625,-2.111328125,44.1064705882353,351.0664536865703
-0.4292998046875,-0.0209697265625,1.6052783203125005,1.6618232569687288,0.26904296875,1.759765625,-2.02880859375,44.29470588235294,351.0664536865703
-0.2994169921875,-0.0121806640624999,1.7351611328125005,1.7608472564679685,0.142578125,1.5654296875,-2.5078125,44.34176470588236,351.0664536865703
-0.1514677734375,0.0127216796875,1.7615283203125005,1.7680741926704218,-0.142578125,0.97216796875,-3.53564453125,44.059411764705885,351.0664536865703
-0.0792021484375,0.0234638671875,1.6277392578125005,1.6298339255287633,-0.41357421875,0.6806640625,-3.755859375,44.34176470588236,351.0664536865703
-0.0381865234375,0.0327412109375,1.4314501953125005,1.4323337108111684,-0.48779296875,0.92724609375,-2.75,44.57705882352941,351.17304600222104
0.0990205078125,0.0654560546875,1.2498095703125005,1.255433597649599,-0.38623046875,1.4677734375,-0.88720703125,44.34176470588236,351.17304600222104
0.2166962890625,0.1240498046875,1.1687548828125005,1.1951291193149494,-0.28955078125,2.05419921875,0.28564453125,44.388823529411766,351.17304600222104
0.0897431640625,0.2236591796875,1.2087939453125005,1.2325826813559382,0.01904296875,2.423828125,1.33349609375,44.53,351.17304600222104
0.0218720703125,0.3032490234375,1.3181689453125005,1.3527777814784738,0.4228515625,1.97998046875,1.8916015625,44.53,351.40820167681824
0.1302705078125,0.2876240234375,1.2512744140625005,1.2904982151679076,0.6611328125,0.86572265625,1.2626953125,44.53,351.40820167681824
0.0775361328125,0.2514912109375,1.1570361328125005,1.1865885106910623,0.81201171875,0.1650390625,-0.0634765625,44.67117647058824,351.40820167681824
-0.1104521484375,0.2846943359375,1.1941455078125005,1.232572121962089,0.9345703125,-0.119140625,-0.5009765625,44.53,351.40820167681824
-0.1299833984375,0.3061787109375,1.2493212890625005,1.292843675857796,1.02490234375,-0.248046875,-0.27587890625,44.53,351.40820167681824
-0.1021513671875,0.2295185546875,1.2307666015625005,1.2561449344266848,0.96240234375,0.00537109375,0.0400390625,44.48294117647059,352.3740747445601
-0.1343779296875,0.1250263671875,1.2390673828125005,1.2525881205045102,0.82666015625,-0.04833984375,0.20068359375,44.71823529411765,352.3740747445601
-0.1001982421875,0.0254169921875,1.2732470703125005,1.277436422405706,0.82275390625,0.0556640625,-0.2197265625,44.48294117647059,352.3740747445601
-0.0245146484375,-0.0180400390625,1.2620166015625005,1.2623835841838065,0.54248046875,0.15966796875,-1.17578125,44.48294117647059,352.3740747445601
-0.0147490234375,-0.0571025390625,1.1697314453125005,1.171217267552274,0.2861328125,0.15966796875,-1.939453125,45.14176470588235,352.8345377410706
-0.0259794921875,-0.1244853515625,1.1067431640625005,1.114025119989237,0.12255859375,0.13720703125,-1.36279296875,44.53,352.8345377410706
0.0077119140625,-0.1313212890625,0.9993212890625,1.0079423561658083,-0.21484375,0.154296875,-0.70849609375,44.53,352.8345377410706
0.0135712890625,-0.1274150390625,0.9075244140625,0.916525686593453,-0.38037109375,0.041015625,-0.38232421875,44.53,352.8345377410706
-0.0225615234375,-0.0917705078125,0.8479541015625001,0.8532039655326572,-0.50927734375,-0.080078125,-0.30322265625,44.48294117647059,352.8345377410706
-0.1251005859375,-0.0795634765625,0.8069384765625001,0.8204451281844666,-0.44140625,0.0400390625,-0.0712890625,44.57705882352941,352.448807661545
-0.1802763671875,-0.0629619140625,0.7302783203125001,0.7548312369710083,-0.525390625,0.35009765625,0.04150390625,44.29470588235294,352.448807661545
-0.1841826171875,-0.0624736328125,0.6697314453125001,0.697399741978156,-0.59765625,0.5888671875,0.283203125,44.53,352.448807661545
-0.1612333984375,-0.0478251953125,0.6023486328125001,0.6253857477824966,-0.69287109375,0.73974609375,0.65576171875,44.29470588235294,352.448807661545
-0.1260771484375,-0.0356181640625,0.5613330078125001,0.576418985312891,-0.80322265625,0.73046875,0.880859375,44.67117647058824,352.34112587978456
-0.1119169921875,-0.0238994140625,0.5315478515625001,0.5437276097767497,-0.8701171875,0.52880859375,1.4091796875,44.059411764705885,352.34112587978456
-0.1045927734375,-0.0087626953124999,0.5173876953125001,0.5279265671902375,-0.8583984375,0.16015625,1.75244140625,44.67117647058824,352.34112587978456
-0.0875029296875,0.0093037109375,0.4929736328125,0.50076573803472,-0.802734375,-0.419921875,2.18408203125,44.15352941176471,352.34112587978456
-0.0704130859375,0.0356708984375,0.5027392578125001,0.5088980025628353,-0.6845703125,-0.94970703125,2.3232421875,44.48294117647059,352.34112587978456
-0.0752958984375,0.0434833984375,0.4968798828125,0.5044302689222253,-0.52099609375,-1.5146484375,2.36181640625,44.53,352.22461110213254
-0.1216826171875,0.0371357421875,0.5540087890625001,0.5684289410576434,-0.404296875,-1.32177734375,2.3525390625,44.20058823529412,352.22461110213254
-0.1734404296875,0.0342060546875,0.6126025390625001,0.6375998021433906,-0.23583984375,-0.58154296875,2.583984375,44.48294117647059,352.22461110213254
-0.1753935546875,0.0410419921875,0.6038134765625001,0.6301095608123469,-0.0078125,-0.189453125,3.01708984375,45.33,352.22461110213254
-0.1631865234375,0.0420185546875,0.5994189453125001,0.6226543763350533,0.09716796875,-0.26513671875,3.33740234375,44.388823529411766,351.84881104267936
-0.1470732421875,0.0337177734375,0.6316455078125001,0.649417796455284,0.09765625,-0.2373046875,3.42578125,44.48294117647059,351.84881104267936
-0.1387724609375,0.0381123046875,0.6726611328125001,0.6878832337539844,-0.013671875,-0.2099609375,3.2080078125,45.33,351.84881104267936
-0.1622099609375,0.0298115234375,0.7180712890625001,0.7367680602013705,-0.10986328125,-0.15283203125,3.04345703125,44.67117647058824,351.84881104267936
-0.1758818359375,0.0307880859375,0.7742236328125001,0.7945467639187925,-0.2734375,-0.119140625,2.92041015625,44.57705882352941,351.84881104267936
-0.1763701171875,0.0288349609375,0.8337939453125001,0.8527310340598517,-0.408203125,-0.13916015625,2.81201171875,44.53,351.375252711943
-0.1885771484375,0.0346943359375,0.8782275390625001,0.8989152619834297,-0.46630859375,-0.1728515625,2.734375,44.57705882352941,351.375252711943
-0.2266630859375,0.0351826171875,0.9534228515625,0.9806268938594545,-0.54443359375,-0.0869140625,2.79296875,44.34176470588236,351.375252711943
-0.2149443359375,0.0771748046875,1.0168994140625005,1.0422290709584066,-0.58251953125,-0.02197265625,2.7744140625,44.34176470588236,351.375252711943
-0.1885771484375,0.1245380859375,1.0789111328125005,1.1023249558404036,-0.58154296875,-0.0654296875,2.7216796875,44.48294117647059,351.3224937201337
-0.1856474609375,0.1587177734375,1.1057666015625005,1.132420455700346,-0.53076171875,-0.173828125,2.72998046875,44.388823529411766,351.3224937201337
-0.2115263671875,0.1748310546875,1.1082080078125005,1.141680467678429,-0.48095703125,-0.28759765625,2.68408203125,44.57705882352941,351.3224937201337
-0.2549833984375,0.1889912109375,1.0984423828125005,1.1433765257556947,-0.44873046875,-0.10498046875,2.53515625,44.57705882352941,351.3224937201337
-0.2730498046875,0.2236591796875,1.1213916015625005,1.1756269597764746,-0.38330078125,0.203125,2.31640625,44.059411764705885,351.3224937201337
-0.3101591796875,0.2246357421875,1.1624072265625005,1.2238670245485317,-0.35009765625,0.560546875,2.435546875,44.67117647058824,351.4850830811275
-0.3609404296875,0.2085224609375,1.2175830078125005,1.2869607575261042,-0.28271484375,0.865234375,2.66650390625,44.53,351.4850830811275
-0.4327177734375,0.1792255859375,1.2703173828125005,1.353910165106588,-0.17333984375,1.30029296875,2.73291015625,44.57705882352941,351.4850830811275
-0.4546904296875,0.1880146484375,1.3762744140625005,1.4615827577251856,-0.15478515625,1.810546875,2.5595703125,44.57705882352941,351.4850830811275
-0.3799833984375,0.1924091796875,1.5110400390625005,1.569920595178664,0.02001953125,1.80322265625,2.52978515625,44.48294117647059,351.1521591690046
-0.2574248046875,0.1411396484375,1.5559619140625005,1.583415740872402,0.29833984375,1.36474609375,2.39501953125,44.388823529411766,351.1521591690046
-0.2149443359375,0.0884052734375,1.4602587890625005,1.4786386613900817,0.37255859375,1.15869140625,2.00341796875,45.09470588235294,351.1521591690046
-0.2691435546875,0.0962177734375,1.4876025390625005,1.5148126706561085,0.271484375,1.51171875,1.62548828125,44.53,351.1521591690046
-0.1509794921875,0.1020771484375,1.5960009765625005,1.6063728298507731,0.173828125,1.48779296875,1.3583984375,44.53,351.1521591690046
0.0804658203125,0.0844990234375,1.5505908203125005,1.554974831062499,0.064453125,0.77099609375,0.79345703125,44.53,351.1950121705478
0.1307587890625,0.0669208984375,1.3357470703125005,1.3437992794361815,0.0107421875,0.55615234375,0.0380859375,44.57705882352941,351.1950121705478
0.1058564453125,0.0791279296875,1.1946337890625005,1.201922088257244,-0.07958984375,0.9560546875,-0.5185546875,44.48294117647059,351.1950121705478
0.1312470703125,0.0239521484375,1.1599658203125005,1.1676130365723218,-0.22412109375,1.32568359375,-0.6279296875,44.059411764705885,351.1950121705478
0.1825166015625,-0.0390361328125,1.1687548828125005,1.1835641535670725,-0.2763671875,1.345703125,-0.56396484375,44.53,351.7730064033414
0.2269501953125,-0.1371806640625,1.1589892578125005,1.188941136250984,-0.31591796875,0.78955078125,-0.59521484375,44.48294117647059,351.7730064033414
0.2386689453125,-0.1913798828125,1.1345751953125005,1.1750957402783424,-0.52490234375,0.10107421875,-1.50244140625,44.48294117647059,351.7730064033414
0.1795869140625,-0.2450908203125,1.1267626953125005,1.167011200225532,-0.72021484375,-0.48486328125,-2.5634765625,44.29470588235294,351.7730064033414
0.0838837890625,-0.2348369140625,1.1834033203125005,1.20939170031902,-0.86279296875,-0.951171875,-2.712890625,44.57705882352941,351.7730064033414
-0.0035185546874999,-0.1557353515625,1.2351611328125005,1.2449453417576386,-0.92822265625,-1.3603515625,-2.0029296875,44.48294117647059,352.3499616674226
-0.0958037109375,-0.0522197265625,1.2522509765625005,1.2569955287006371,-0.80029296875,-1.3994140625,-0.88134765625,44.388823529411766,352.3499616674226
-0.1436552734375,0.0259052734375,1.2219775390625005,1.2306652781124194,-0.4892578125,-1.07373046875,0.166015625,44.53,352.3499616674226
-0.1607451171875,0.0620380859375,1.1960986328125005,1.208445139930789,-0.283203125,-0.5205078125,0.734375,44.57705882352941,352.3499616674226
-0.1612333984375,0.0473896484375,1.1594775390625005,1.1715929972226564,-0.17919921875,-0.181640625,1.26416015625,44.29470588235294,352.1388973328117
-0.1382841796875,0.0649677734375,1.0911181640625005,1.101763211350058,-0.18310546875,-0.048828125,1.3818359375,44.29470588235294,352.1388973328117
-0.1358427734375,0.1006123046875,1.0193408203125005,1.0332626979162092,-0.185546875,0.0576171875,1.25341796875,44.57705882352941,352.1388973328117
-0.1309599609375,0.1308857421875,0.9524462890625,0.9702760032205536,-0.0869140625,0.1455078125,1.16259765625,44.53,352.1388973328117
-0.0904326171875,0.1347919921875,0.8596728515625001,0.8748624755485037,-0.04150390625,0.21240234375,1.06884765625,44.53,352.1388973328117
-0.0533232421875,0.1499287109375,0.8064501953125001,0.821999941630373,0.08056640625,0.42529296875,0.8203125,44.53,351.5257819280608
-0.0528349609375,0.1079365234375,0.7517626953125001,0.7613074124508153,0.13134765625,0.5048828125,0.60009765625,44.57705882352941,351.5257819280608
-0.0547880859375,0.0820576171875,0.6780322265625001,0.6851736182578009,0.24951171875,0.47265625,0.5546875,44.57705882352941,351.5257819280608
-0.0562529296875,0.0615498046875,0.6121142578125001,0.6177674604354327,0.37451171875,0.38720703125,0.4140625,44.34176470588236,351.5257819280608
-0.0665068359375,0.0278583984375,0.5603564453125001,0.5649766326080937,0.52685546875,0.26171875,0.3125,45.42411764705882,351.5477479129822
-0.0357451171875,0.0093037109375,0.5066455078125001,0.5079901013076364,0.5673828125,0.125,-0.08935546875,44.57705882352941,351.5477479129822
-0.0406279296875,-0.0136455078124999,0.4841845703125,0.4860776961380287,0.6005859375,-0.0703125,-0.5966796875,44.53,351.5477479129822
-0.0562529296875,-0.0273173828125,0.4788134765625,0.4828798782720391,0.6015625,-0.1904296875,-0.95751953125,44.48294117647059,351.5477479129822
-0.0655302734375,-0.0307353515625,0.5027392578125001,0.5079228680797188,0.564453125,-0.2080078125,-1.28662109375,44.388823529411766,351.5477479129822
-0.0831083984375,0.0884052734375,0.5247119140625001,0.5385583450486473,0.54052734375,-0.1357421875,-1.6591796875,44.48294117647059,351.81478599499985
-0.0953154296875,-0.0414775390625,0.5554736328125001,0.5651162483357828,0.43994140625,-0.06640625,-1.98193359375,44.57705882352941,351.81478599499985
-0.0972685546875,-0.0361064453125,0.5886767578125001,0.5977500918550633,0.380859375,-0.0869140625,-2.12744140625,44.48294117647059,351.81478599499985
-0.1163115234375,-0.0390361328125,0.6209033203125001,0.6329084636220267,0.3603515625,-0.1845703125,-2.1630859375,44.48294117647059,351.81478599499985
-0.0655302734375,-0.0243876953125,0.6218798828125001,0.6257983421728901,0.26904296875,-0.35107421875,-2.35205078125,44.53,351.4191846928982
-0.0767607421875,-0.0307353515625,0.6882861328125001,0.6932349342025637,0.24951171875,-0.4248046875,-2.7822265625,44.67117647058824,351.4191846928982
-0.1104521484375,-0.0444072265625,0.7224658203125001,0.7322079898398038,0.20556640625,-0.5556640625,-2.84814453125,44.29470588235294,351.4191846928982
-0.1343779296875,-0.0468486328125,0.7752001953125001,0.7881545312919526,0.21630859375,-0.6025390625,-2.90234375,44.48294117647059,351.4191846928982
-0.1631865234375,-0.0522197265625,0.8367236328125001,0.854086166016537,0.189453125,-0.57666015625,-2.8681640625,44.53,351.4191846928982
-0.1880888671875,-0.0517314453125,0.8845751953125001,0.905829366136992,0.21142578125,-0.537109375,-2.8447265625,44.34176470588236,351.203837426114
-0.2256865234375,-0.0663798828125,0.9080126953125,0.9379913382074364,0.224609375,-0.466796875,-2.73388671875,44.48294117647059,351.203837426114
-0.2696318359375,-0.0531962890625,0.9465869140625,0.9856763961845768,0.30712890625,-0.25439453125,-2.5048828125,44.53,351.203837426114
-0.2881865234375,-0.0400126953125,0.9939501953125,1.035658958749897,0.3681640625,0.01513671875,-2.23876953125,44.34176470588236,351.203837426114
-0.2647490234375,-0.0395244140625,1.0330126953125005,1.067131413367112,0.4287109375,0.1640625,-2.02685546875,44.67117647058824,351.72132200065346
-0.2100615234375,-0.0370830078125,1.0632861328125005,1.0844714811043523,0.5068359375,0.30859375,-1.9638671875,44.15352941176471,351.72132200065346
-0.1675810546875,-0.0468486328125,1.0994189453125005,1.1131038682884118,0.509765625,0.27685546875,-2.1396484375,44.57705882352941,351.72132200065346
-0.1724638671875,-0.0639384765625,1.1277392578125005,1.1426406906293378,0.52392578125,0.1796875,-2.34765625,44.67117647058824,351.72132200065346
-0.2032255859375,-0.0815166015625,1.1516650390625005,1.1722960194885803,0.5126953125,0.2470703125,-2.3798828125,44.67117647058824,351.72132200065346
-0.2432646484375,-0.0942119140625,1.1902392578125005,1.2184921274956158,0.45751953125,0.4970703125,-2.36279296875,44.29470588235294,351.65434674360966
-0.2793974609375,-0.1127666015625,1.2219775390625005,1.2585739364771231,0.3876953125,0.7939453125,-2.4755859375,44.388823529411766,351.65434674360966
-0.3340849609375,-0.1059306640625,1.2424853515625005,1.290970145108214,0.27783203125,1.14697265625,-2.591796875,45.235882352941175,351.65434674360966
-0.4180693359375,-0.0780986328125,1.3054736328125005,1.373005015310239,0.2216796875,1.65478515625,-2.36474609375,44.53,351.65434674360966
-0.4546904296875,-0.0243876953125,1.4563525390625005,1.5258770804248454,0.298828125,1.96240234375,-2.06201171875,45.04764705882353,351.1192099206835
-0.3980498046875,0.0166279296875,1.5989306640625005,1.6478165563972216,0.2939453125,1.8564453125,-2.103515625,44.53,351.1192099206835
-0.3765654296875,0.0664326171875,1.6716845703125005,1.7148597954593845,0.244140625,1.41259765625,-2.61181640625,44.34176470588236,351.1192099206835
-0.1597685546875,0.1108662109375,1.6189501953125005,1.6305879438708462,0.16015625,0.93798828125,-3.0185546875,44.57705882352941,351.1192099206835
-0.1373076171875,0.1250263671875,1.5383837890625005,1.5495514372488923,0.232421875,0.8828125,-2.6103515625,44.67117647058824,351.1192099206835
0.0018525390625,0.1343037109375,1.4231494140625005,1.4294737400242787,0.3134765625,0.99462890625,-1.22998046875,44.29470588235294,350.48850115915536
0.1649384765625,0.1220966796875,1.3259814453125005,1.3417671532551754,0.404296875,1.2548828125,-0.04736328125,44.57705882352941,350.48850115915536
0.2455048828125,0.1074482421875,1.3176806640625005,1.3446561287846626,0.52685546875,1.64599609375,0.326171875,44.57705882352941,350.48850115915536
0.3275361328125,0.1220966796875,1.2478564453125005,1.2958909003447894,0.54541015625,1.33447265625,0.04638671875,44.48294117647059,350.48850115915536
0.2743134765625,0.1343037109375,1.1116259765625005,1.1528216175818016,0.49609375,1.0673828125,-0.11669921875,44.48294117647059,351.90157377248136
0.1019501953125,0.1689716796875,1.0750048828125005,1.0929687868056386,0.5087890625,0.91162109375,0.1005859375,44.57705882352941,351.90157377248136
-0.0694365234375,0.2090107421875,1.1257861328125005,1.1471274288281057,0.564453125,0.5732421875,0.478515625,44.53,351.90157377248136
-0.1187529296875,0.2070576171875,1.1951220703125005,1.218725513843362,0.626953125,0.14111328125,0.30322265625,44.67117647058824,351.90157377248136
-0.1153349609375,0.1260029296875,1.2615283203125005,1.2730406884521666,0.61962890625,-0.2470703125,-0.46533203125,44.53,351.90157377248136
-0.1329130859375,0.0405537109375,1.2742236328125005,1.2817785917630693,0.58984375,-0.50537109375,-1.23779296875,44.15352941176471,352.6301517077131
-0.1636748046875,-0.0238994140625,1.2312548828125005,1.242316066921637,0.41357421875,-0.80126953125,-1.5244140625,44.15352941176471,352.6301517077131
-0.1846708984375,-0.0346416015625,1.1604541015625005,1.175566715725551,0.1875,-0.52197265625,-1.59228515625,44.48294117647059,352.6301517077131
-0.1534208984375,-0.0741923828125,1.1096728515625005,1.1226826440448865,0.0078125,-0.1611328125,-1.3017578125,44.53,352.6301517077131
-0.0997099609375,-0.0990947265625,1.2097705078125005,1.2179107203385513,-0.14599609375,0.126953125,-1.22412109375,44.57705882352941,352.50157548535066
-0.0347685546875,-0.1391337890625,1.0242236328125005,1.0342152163189156,-0.26416015625,0.0615234375,-1.03759765625,44.34176470588236,352.50157548535066
0.0091767578125,-0.1327861328125,0.9304736328125,0.9399455044365812,-0.40673828125,0.05419921875,-0.94140625,44.57705882352941,352.50157548535066
0.0311494140625,-0.1093486328125,0.8748095703125001,0.8821673275545524,-0.48095703125,0.07470703125,-0.88525390625,44.57705882352941,352.50157548535066
-0.0235380859375,-0.1113017578125,0.8235400390625001,0.8313605227101042,-0.52099609375,0.10205078125,-0.68994140625,44.48294117647059,352.50157548535066
-0.0840849609375,-0.0766337890625,0.7815478515625001,0.7897848204187621,-0.4423828125,0.26904296875,-0.3818359375,44.34176470588236,351.94442990935335
-0.1294951171875,-0.0800517578125,0.7229541015625001,0.7388097876113426,-0.478515625,0.4921875,-0.05322265625,44.53,351.94442990935335
-0.1451201171875,-0.0937236328125,0.6545947265625001,0.6770068122282967,-0.521484375,0.56005859375,0.3427734375,44.53,351.94442990935335
-0.1558623046875,-0.0893291015625,0.6062548828125001,0.632311418007346,-0.55615234375,0.63232421875,0.7314453125,44.48294117647059,351.94442990935335
-0.1607451171875,-0.0805400390625,0.5715869140625001,0.5991972053667339,-0.54443359375,0.66552734375,1.16162109375,44.57705882352941,351.9773788825321
-0.1529326171875,-0.0590556640625,0.5408251953125001,0.5651264006773044,-0.49267578125,0.5078125,1.65576171875,44.48294117647059,351.9773788825321
-0.1617216796875,-0.0405009765625,0.5208056640625001,0.5468388889819782,-0.47265625,0.32275390625,2.0576171875,45.28294117647059,351.9773788825321
-0.1558623046875,-0.0331767578125,0.5281298828125001,0.5516474675016586,-0.40283203125,0.09716796875,2.50390625,44.53,351.9773788825321
-0.1260771484375,-0.0038798828124999,0.5115283203125001,0.5268507600170069,-0.33544921875,-0.111328125,2.98291015625,44.53,351.9773788825321
-0.0899443359375,0.0122333984375,0.5193408203125001,0.5272139292995103,-0.18115234375,-0.17431640625,3.2265625,44.48294117647059,352.2763023346667
-0.0337919921875,0.0268818359375,0.5256884765625001,0.527458914257758,-0.080078125,-0.23486328125,3.2509765625,44.67117647058824,352.2763023346667
-0.0293974609375,0.0263935546875,0.5369189453125001,0.5383704897875637,-0.0439453125,-0.36328125,3.24951171875,45.235882352941175,352.2763023346667
-0.0616240234375,0.0356708984375,0.5769580078125001,0.5813350806883522,-0.02734375,-0.4462890625,3.37255859375,44.48294117647059,352.2763023346667
-0.1070341796875,0.0542255859375,0.6316455078125001,0.6429407261414946,0.05419921875,-0.46435546875,3.404296875,45.235882352941175,351.7730064033414
-0.1202177734375,0.0537373046875,0.6653369140625001,0.6782427442881773,0.05615234375,-0.53271484375,3.318359375,44.71823529411765,351.7730064033414
-0.1568388671875,0.0483662109375,0.7390673828125001,0.7570722006245029,0.12646484375,-0.4501953125,3.2392578125,44.48294117647059,351.7730064033414
-0.1519560546875,0.0527607421875,0.7761767578125001,0.7926693496286397,0.0859375,-0.5693359375,3.0810546875,44.48294117647059,351.7730064033414
-0.1700224609375,0.0547138671875,0.8005908203125001,0.8202724584273794,0.0693359375,-0.6064453125,2.85009765625,44.57705882352941,351.7730064033414
-0.2042021484375,0.0498310546875,0.8528369140625001,0.8783578162829813,-0.01708984375,-0.57861328125,2.7470703125,44.53,351.633457594205
-0.2466826171875,0.0556904296875,0.9280322265625,0.9618718995374615,-0.087890625,-0.4072265625,2.4599609375,44.71823529411765,351.633457594205
-0.2442412109375,0.0737568359375,1.0022509765625005,1.034215093676462,-0.1025390625,-0.2763671875,2.45703125,44.57705882352941,351.633457594205
-0.2173857421875,0.0991474609375,1.0569384765625005,1.0836077349091886,-0.1123046875,-0.3115234375,2.59716796875,44.53,351.633457594205
-0.1929716796875,0.1235615234375,1.0759814453125005,1.1001098081066216,-0.083984375,-0.37060546875,2.7431640625,44.48294117647059,351.4499784468416
-0.2061552734375,0.1465107421875,1.0769580078125005,1.106256726503343,-0.00537109375,-0.39892578125,2.787109375,44.34176470588236,351.4499784468416
-0.2662138671875,0.1889912109375,1.0837939453125005,1.1318996496114755,0.08349609375,-0.2060546875,2.69140625,44.34176470588236,351.4499784468416
-0.3511748046875,0.2202412109375,1.1174853515625005,1.1918907019518548,0.17626953125,0.306640625,2.67236328125,44.57705882352941,351.4499784468416
-0.4380888671875,0.2114521484375,1.1628955078125005,1.2605394990728986,0.197265625,0.9072265625,2.72802734375,44.53,351.4499784468416
-0.4859404296875,0.1601826171875,1.2546923828125005,1.3550090581031622,0.2255859375,1.4921875,2.798828125,44.48294117647059,351.2059952755511
-0.5074248046875,0.1172138671875,1.3782275390625005,1.4733398021174449,0.21240234375,1.93994140625,2.75341796875,44.48294117647059,351.2059952755511
-0.4810576171875,0.1172138671875,1.5579150390625005,1.6347032729679951,0.26708984375,2.05859375,2.56689453125,44.48294117647059,351.2059952755511
-0.3316435546875,0.0737568359375,1.6951220703125005,1.7288338125666705,0.478515625,1.419921875,2.42626953125,44.388823529411766,351.2059952755511
-0.1436552734375,-0.0092509765624999,1.6926806640625005,1.6987908195669148,0.56005859375,0.650390625,1.97314453125,44.48294117647059,351.1082268656931
-0.0752958984375,-0.0805400390625,1.5784228515625005,1.5822688989386078,0.49658203125,0.42578125,1.5302734375,44.388823529411766,351.1082268656931
0.0130830078125,-0.0497783203125,1.4959033203125005,1.4967884920684416,-0.119140625,0.60546875,0.89501953125,44.57705882352941,351.1082268656931
0.0965791015625,-0.0121806640624999,1.4241259765625005,1.4274490143454224,-0.26318359375,0.86474609375,0.599609375,44.48294117647059,351.1082268656931
0.2064423828125,0.0625263671875,1.4104541015625005,1.426852752259128,-0.21044921875,1.15673828125,0.2607421875,44.53,351.1082268656931
0.2166962890625,0.0107685546875,1.3684619140625005,1.3855544932275736,-0.296875,1.13623046875,0.0244140625,45.14176470588235,351.343381610105
0.2054658203125,-0.0737041015625,1.2224658203125005,1.241801586299574,-0.4326171875,1.1826171875,0.11767578125,44.388823529411766,351.343381610105
0.1937470703125,-0.1191142578125,1.1751025390625005,1.196909399653973,-0.513671875,1.34716796875,0.24365234375,44.53,351.343381610105
0.2054658203125,-0.1796611328125,1.1594775390625005,1.191168539523518,-0.54296875,0.650390625,0.31494140625,44.34176470588236,351.343381610105
0.2484345703125,-0.2426494140625,1.1169970703125005,1.1697354098076795,-0.69189453125,-0.46533203125,0.1201171875,44.48294117647059,352.42576844373946
0.1634736328125,-0.2387431640625,1.1301806640625005,1.1666320158611472,-0.9306640625,-1.52734375,-0.603515625,44.059411764705885,352.42576844373946
0.0165009765625,-0.1762431640625,1.1863330078125005,1.1994665233059785,-0.9736328125,-2.15576171875,-0.14306640625,44.48294117647059,352.42576844373946
-0.1670927734375,-0.0893291015625,1.2590869140625005,1.2732633429438034,-0.74560546875,-2.22705078125,1.26708984375,44.48294117647059,352.42576844373946
-0.1709990234375,0.0327412109375,1.2415087890625005,1.2536573400374076,-0.470703125,-1.82373046875,2.88818359375,44.29470588235294,352.42576844373946
-0.1128935546875,0.1308857421875,1.1848681640625005,1.197409119059477,-0.25244140625,-1.2197265625,3.1669921875,44.34176470588236,352.30710358769574
-0.1573271484375,0.1108662109375,1.1418994140625005,1.1580057945448263,-0.08837890625,-0.85302734375,3.06494140625,44.20058823529412,352.30710358769574
-0.1680693359375,0.1172138671875,1.1091845703125005,1.1279524827592902,-0.01318359375,-0.56396484375,3.55908203125,44.53,352.30710358769574
-0.1202177734375,0.1587177734375,1.0349658203125005,1.0539439709350562,-0.00244140625,-0.3232421875,3.64501953125,44.57705882352941,352.30710358769574
-0.0772490234375,0.1841083984375,0.9363330078125,0.9573833169198596,0.1669921875,-0.15673828125,3.513671875,44.57705882352941,351.6972020292683
-0.0240263671875,0.1919208984375,0.8503955078125001,0.8721143372774958,0.279296875,-0.10595703125,3.39453125,44.53,351.6972020292683
0.0106416015625,0.1865498046875,0.7932666015625001,0.8149760576037051,0.33544921875,0.0556640625,3.0498046875,44.57705882352941,351.6972020292683
-0.0108427734375,0.1650654296875,0.7322314453125001,0.7506843886202568,0.45947265625,0.22705078125,2.55029296875,44.53,351.6972020292683
-0.0538115234375,0.1289326171875,0.6755908203125001,0.6898856835157545,0.43115234375,0.3115234375,2.07177734375,44.57705882352941,351.6972020292683
-0.0894560546875,0.1069599609375,0.6321337890625001,0.6473298589116045,0.40673828125,0.40478515625,1.63134765625,44.57705882352941,351.7081849925462
-0.1045927734375,0.0556904296875,0.5618212890625001,0.5741813590303815,0.33349609375,0.4208984375,1.19677734375,44.29470588235294,351.7081849925462
-0.1177763671875,0.0010029296875,0.5300830078125001,0.5430103808468029,0.34716796875,0.3310546875,1.0849609375,44.53,351.7081849925462
-0.0958037109375,-0.0243876953125,0.5305712890625001,0.5397026991682499,0.43896484375,0.3173828125,0.85546875,44.48294117647059,351.7081849925462
-0.0821318359375,-0.0507548828125,0.5237353515625001,0.5325602454934752,0.5224609375,0.26123046875,0.5205078125,44.53,351.76094725867466
-0.0562529296875,-0.0488017578125,0.5388720703125001,0.5439936689217042,0.48095703125,0.16943359375,-0.0517578125,44.53,351.76094725867466
-0.0684599609375,-0.0595439453125,0.5632861328125001,0.5705466809068329,0.40869140625,0.1533203125,-0.4892578125,44.48294117647059,351.76094725867466
-0.0733427734375,-0.0614970703125,0.5891650390625001,0.5968890142447273,0.31982421875,0.15283203125,-0.74755859375,44.57705882352941,351.76094725867466
-0.0879912109375,-0.0683330078125,0.6121142578125001,0.6221701678610914,0.2255859375,0.1884765625,-0.8369140625,44.53,351.76094725867466
-0.1055693359375,-0.0600322265625,0.6238330078125001,0.6355441562572397,0.1337890625,0.107421875,-0.7294921875,44.53,351.7598715398476
-0.0865263671875,-0.0336650390625,0.6545947265625001,0.6611462796667467,0.10986328125,0.009765625,-0.7978515625,44.67117647058824,351.7598715398476
-0.1226591796875,-0.0229228515625,0.6731494140625001,0.6846173129114206,0.04345703125,-0.01611328125,-0.86962890625,44.388823529411766,351.7598715398476
-0.1631865234375,-0.0126689453124999,0.7190478515625001,0.7374416291772495,0.0791015625,-0.01123046875,-0.7333984375,44.53,351.7598715398476
-0.1153349609375,0.0068623046875,0.7283251953125001,0.7374325966263426,-0.02490234375,-0.037109375,-0.95458984375,44.53,351.3851581441422
-0.1714873046875,0.0132099609375,0.8049853515625001,0.8231547940497921,0.005859375,-0.0576171875,-1.08203125,44.57705882352941,351.3851581441422
-0.1949248046875,0.0263935546875,0.8513720703125001,0.8738001495305975,0.0107421875,-0.10986328125,-1.0576171875,44.53,351.3851581441422
-0.2198271484375,0.0249287109375,0.8782275390625001,0.9056649635416748,0.0205078125,-0.04345703125,-1.005859375,44.67117647058824,351.3851581441422
-0.2359404296875,0.0127216796875,0.9128955078125,0.942978226513972,0.0166015625,0.10986328125,-0.96484375,44.57705882352941,351.3851581441422
-0.2315458984375,0.0034443359375,0.9578173828125,0.985413367755414,0.02685546875,0.283203125,-0.91455078125,44.34176470588236,351.0434079360594
-0.2071318359375,-0.0014384765624999,0.9963916015625,1.0176943992859273,0.07373046875,0.42578125,-1.02197265625,44.71823529411765,351.0434079360594
-0.1846708984375,-0.0072978515624999,1.0271533203125005,1.0436477100995984,0.1103515625,0.54345703125,-1.2607421875,44.48294117647059,351.0434079360594
-0.1734404296875,-0.0097392578124999,1.0530322265625005,1.0672644030286498,0.18701171875,0.57568359375,-1.47802734375,44.57705882352941,351.0434079360594
-0.1929716796875,-0.0229228515625,1.0974658203125005,1.114537910095193,0.18017578125,0.595703125,-1.6142578125,44.57705882352941,351.50381599872566
-0.2251982421875,-0.0365947265625,1.1428759765625005,1.1654264970817392,0.16259765625,0.6455078125,-1.6728515625,44.34176470588236,351.50381599872566
-0.2520537109375,-0.0448955078125,1.2019580078125005,1.228922183201077,0.13330078125,0.7880859375,-1.68701171875,44.29470588235294,351.50381599872566
-0.2647490234375,-0.0571025390625,1.2498095703125005,1.2788184810297398,0.09765625,1.0029296875,-1.8486328125,44.388823529411766,351.50381599872566
-0.2886748046875,-0.0566142578125,1.2683642578125005,1.3020315693351223,0.02099609375,1.23681640625,-2.13232421875,44.71823529411765,351.50381599872566
-0.3648466796875,-0.0331767578125,1.2835009765625005,1.3347616093425951,-0.080078125,1.6640625,-2.21875,44.15352941176471,351.4191846928982
-0.4141630859375,0.0219990234375,1.4368212890625005,1.495483345105756,0.009765625,2.13623046875,-1.99755859375,44.34176470588236,351.4191846928982
-0.3096708984375,0.1303974609375,1.6531298828125005,1.6869315257608135,0.10791015625,2.04541015625,-2.19091796875,44.53,351.4191846928982
-0.1182646484375,0.2011982421875,1.7747119140625005,1.7899915188750948,0.07421875,1.05810546875,-3.0966796875,44.388823529411766,351.4191846928982
0.0130830078125,0.2124287109375,1.6096728515625005,1.623682176837986,-0.06591796875,0.30078125,-3.6728515625,44.57705882352941,350.5182040508526
0.0711884765625,0.1719013671875,1.3411181640625005,1.3539630014201247,-0.16796875,0.8154296875,-2.89404296875,44.48294117647059,350.5182040508526
0.1517548828125,0.1811787109375,1.3958056640625005,1.4156725333153029,-0.08740234375,1.2978515625,-1.3447265625,44.71823529411765,350.5182040508526
0.2674775390625,0.2300068359375,1.4876025390625005,1.52885862417233,0.14697265625,1.31982421875,-0.27099609375,44.388823529411766,350.5182040508526
0.4056611328125,0.2148701171875,1.3508837890625005,1.4267505505472036,0.2666015625,0.8349609375,-0.39892578125,44.48294117647059,350.5182040508526
0.3333955078125,0.1592060546875,1.2258837890625005,1.2803476858904173,0.29248046875,0.5810546875,-0.83349609375,44.34176470588236,351.54667077478564
0.1644501953125,0.1758076171875,1.1902392578125005,1.2143400165676488,0.2646484375,0.2392578125,-1.06494140625,44.48294117647059,351.54667077478564
0.0228486328125,0.2353779296875,1.1829150390625005,1.2063220214543091,0.314453125,-0.130859375,-0.72119140625,44.57705882352941,351.54667077478564
-0.0201201171875,0.2646748046875,1.2463916015625005,1.2743428093717717,0.5224609375,-0.3681640625,-0.494140625,44.29470588235294,351.54667077478564
-0.0132841796875,0.1914326171875,1.3650439453125005,1.3784657736003247,0.68798828125,-0.78564453125,-0.9697265625,44.53,352.85328941336826
-0.1221708984375,0.0630146484375,1.3992236328125005,1.4059599386055557,0.798828125,-1.2138671875,-1.28564453125,44.57705882352941,352.85328941336826
-0.1597685546875,-0.0370830078125,1.3127978515625005,1.3230039076293278,0.5400390625,-1.3291015625,-1.29736328125,44.57705882352941,352.85328941336826
-0.1607451171875,-0.0253642578125,1.2820361328125005,1.292323095866832,0.3359375,-0.97314453125,-1.671875,44.48294117647059,352.85328941336826
-0.1334013671875,-0.0478251953125,1.2063525390625005,1.2146479418237677,0.1181640625,-0.6748046875,-1.90869140625,44.48294117647059,352.85328941336826
-0.0533232421875,-0.0737041015625,1.1316455078125005,1.135296092698611,-0.13037109375,-0.390625,-2.04833984375,44.48294117647059,352.962046443061
0.0023408203125,-0.1049541015625,1.0418017578125005,1.0470777170085048,-0.23779296875,-0.23876953125,-2.015625,44.53,352.962046443061
0.0155244140625,-0.1210673828125,0.9241259765625,0.9321518863203824,-0.35302734375,-0.18212890625,-1.8955078125,44.57705882352941,352.962046443061
0.0018525390625,-0.1030009765625,0.8455126953125001,0.8517654319168014,-0.44873046875,-0.20361328125,-1.7705078125,44.53,352.962046443061
-0.0655302734375,-0.0771220703125,0.7551806640625001,0.7619316674347892,-0.443359375,-0.2158203125,-1.4716796875,44.48294117647059,352.5961310060176
-0.1084990234375,-0.0385478515625,0.6848681640625001,0.6944799328226232,-0.47265625,-0.07373046875,-1.22900390625,44.48294117647059,352.5961310060176
-0.1529326171875,-0.0160869140625,0.6223681640625001,0.641084476369846,-0.52392578125,0.15673828125,-0.98779296875,44.53,352.5961310060176
-0.1539091796875,-0.0087626953124999,0.5715869140625001,0.5920104904042754,-0.66357421875,0.36962890625,-0.689453125,44.48294117647059,352.5961310060176
-0.1368193359375,0.0112568359375,0.5457080078125001,0.5627108287854339,-0.734375,0.40625,-0.2890625,44.53,352.5961310060176
-0.1041044921875,0.0239521484375,0.5183642578125001,0.5292569834077707,-0.646484375,0.25927734375,0.0732421875,44.57705882352941,351.9433544723243
-0.0894560546875,0.0322529296875,0.4929736328125,0.5020613905111938,-0.52197265625,-0.03466796875,0.236328125,44.67117647058824,351.9433544723243
-0.1050810546875,0.0298115234375,0.4836962890625,0.4958758463937678,-0.36328125,-0.58447265625,0.27587890625,44.48294117647059,351.9433544723243
-0.1470732421875,0.0063740234375,0.5159228515625001,0.5365142640291182,-0.173828125,-0.79296875,0.5302734375,45.235882352941175,351.9433544723243
-0.1587919921875,-0.0072978515624999,0.5457080078125001,0.5683884105178351,-0.00244140625,-0.35400390625,0.97705078125,44.53,352.16862162781274
-0.0962919921875,-0.0004619140624999,0.5437548828125001,0.5522152965161997,0.1318359375,0.119140625,1.24755859375,44.53,352.16862162781274
-0.0562529296875,-0.0029033203124999,0.5212939453125001,0.5243283310929666,0.14697265625,0.05078125,1.26513671875,44.48294117647059,352.16862162781274
-0.0621123046875,-0.0092509765624999,0.5491259765625001,0.552705036250505,0.1552734375,-0.0673828125,1.2880859375,44.388823529411766,352.16862162781274
-0.0757841796875,-0.0346416015625,0.5950244140625001,0.6008305383218664,0.1484375,-0.2412109375,1.41748046875,44.57705882352941,352.16862162781274
-0.0660185546875,-0.0458720703125,0.6082080078125001,0.6134979031464015,0.05712890625,-0.30078125,1.43017578125,44.29470588235294,351.8016524704869
-0.1363310546875,-0.0395244140625,0.6941455078125001,0.7085099306258619,-0.02685546875,-0.19873046875,1.48095703125,44.34176470588236,351.8016524704869
-0.1470732421875,-0.0224345703125,0.7644580078125001,0.7788002916160894,-0.07861328125,-0.2314453125,1.33642578125,44.48294117647059,351.8016524704869
-0.1534208984375,-0.0131572265624999,0.7976611328125001,0.8123880645897671,-0.0791015625,-0.3251953125,1.53173828125,44.57705882352941,351.8016524704869
-0.1275419921875,0.0141865234375,0.8357470703125001,0.8455420644499753,-0.01416015625,-0.3837890625,1.84130859375,44.48294117647059,351.5257819280608
-0.1446318359375,0.0522724609375,0.8884814453125001,0.9016928838599668,-0.0478515625,-0.12548828125,1.72412109375,44.48294117647059,351.5257819280608
-0.2217802734375,0.0405537109375,0.9500048828125,0.9763915047379338,-0.20263671875,-0.2294921875,2.02734375,44.48294117647059,351.5257819280608
-0.2129912109375,0.0952412109375,1.0486376953125005,1.0742798332966026,-0.3251953125,-0.08349609375,2.2568359375,44.53,351.5257819280608
-0.1724638671875,0.1489521484375,1.1223681640625005,1.1452688870786818,-0.359375,-0.20703125,2.22119140625,44.29470588235294,351.5257819280608
-0.1812529296875,0.1660419921875,1.1477587890625005,1.1737856727529574,-0.28857421875,-0.3544921875,2.23193359375,44.57705882352941,351.5247049121344
-0.1988310546875,0.1826435546875,1.1389697265625005,1.1705317143943117,-0.21337890625,-0.359375,2.15966796875,44.53,351.5247049121344
-0.2471708984375,0.2026630859375,1.1228564453125005,1.1674640791972726,-0.1259765625,-0.17822265625,1.904296875,44.29470588235294,351.5247049121344
-0.3194365234375,0.2368427734375,1.1472705078125005,1.2142338365948115,-0.01513671875,0.125,1.7333984375,44.53,351.5247049121344
-0.3907255859375,0.2309833984375,1.1892626953125005,1.2729358084058648,0.00634765625,0.7685546875,1.83642578125,44.29470588235294,351.5027391050548
-0.4351591796875,0.1870380859375,1.2517626953125005,1.3383783480890137,0.03173828125,1.41943359375,1.955078125,44.57705882352941,351.5027391050548
-0.4507841796875,0.1504169921875,1.4002001953125005,1.4786454054804454,0.0927734375,2.09619140625,1.97607421875,44.48294117647059,351.5027391050548
-0.4141630859375,0.1455341796875,1.5769580078125005,1.6369202233507154,0.15576171875,2.13720703125,2.05908203125,44.57705882352941,351.5027391050548
-0.2881865234375,0.1123310546875,1.7380908203125005,1.7653978129001913,0.41845703125,1.4716796875,2.2646484375,45.09470588235294,351.5027391050548
-0.1236357421875,0.0439716796875,1.8093798828125005,1.8141319868431212,0.7158203125,0.5556640625,1.94091796875,44.57705882352941,351.07635707601673
0.0301728515625,0.0107685546875,1.7986376953125005,1.7989229893857417,0.62744140625,-0.0908203125,1.078125,44.53,351.07635707601673
0.1483369140625,-0.0419658203125,1.6545947265625005,1.6617607166245452,0.33984375,-0.31103515625,0.83642578125,44.53,351.07635707601673
0.3636689453125,0.0259052734375,1.4534228515625005,1.4984539266926586,-0.0439453125,0.09130859375,0.162109375,44.29470588235294,351.07635707601673
0.3895478515625,-0.0019267578124999,1.2786181640625005,1.33664342684322,-0.201171875,0.63818359375,-0.6796875,44.48294117647059,351.4400729188764
0.2699189453125,-0.0859111328125,1.2864306640625005,1.317247438114808,-0.33984375,1.185546875,-1.41552734375,44.57705882352941,351.4400729188764
0.2503876953125,-0.1757548828125,1.2346728515625005,1.2720066144410638,-0.5517578125,1.21044921875,-1.60693359375,44.388823529411766,351.4400729188764
0.2445283203125,-0.2475322265625,1.1345751953125005,1.1867296138717698,-0.736328125,0.46435546875,-1.232421875,44.71823529411765,351.4400729188764
0.1678681640625,-0.2670634765625,1.0828173828125005,1.127828047860256,-0.9296875,-0.02001953125,-0.61328125,44.53,351.4400729188764
0.0707001953125,-0.2040751953125,1.1301806640625005,1.1506317987870034,-0.951171875,-0.6181640625,-0.48876953125,44.29470588235294,352.3719273466439
-0.0713896484375,-0.2045634765625,1.2351611328125005,1.25401982514553,-0.71533203125,-1.06884765625,-0.2294921875,44.29470588235294,352.3719273466439
-0.2364287109375,-0.1884501953125,1.2644580078125005,1.3001023286611113,-0.53271484375,-1.04296875,0.5078125,44.53,352.3719273466439
-0.2427763671875,-0.0624736328125,1.2600634765625005,1.2847580644729677,-0.537109375,-0.54833984375,1.126953125,44.48294117647059,352.3719273466439
-0.2554716796875,0.0893818359375,1.1985400390625005,1.2287201133512264,-0.4013671875,-0.10986328125,1.30224609375,44.48294117647059,352.84444888385366
-0.0845732421875,0.0884052734375,1.1418994140625005,1.1484347597934963,0.05419921875,-0.01025390625,2.09619140625,45.47117647058823,352.84444888385366
-0.0240263671875,0.1240498046875,1.0960009765625005,1.1032605136544993,0.01123046875,0.29052734375,2.8583984375,44.388823529411766,352.84444888385366
0.0296845703125,0.1391865234375,1.0315478515625005,1.0413188906787707,0.1728515625,0.2529296875,2.8681640625,44.388823529411766,352.84444888385366
0.0145478515625,0.1040302734375,0.9285205078125,0.9344432948044245,0.240234375,0.27880859375,2.609375,44.388823529411766,352.84444888385366
0.0838837890625,0.1011005859375,0.8460009765625001,0.856139866429015,0.18798828125,0.4296875,2.04345703125,44.388823529411766,351.8038030761812
0.0291962890625,0.1113544921875,0.7986376953125001,0.8068918233564017,0.28515625,0.24267578125,1.94384765625,44.34176470588236,351.8038030761812
0.0028291015625,0.1406513671875,0.7561572265625001,0.769132343741996,0.28515625,0.30419921875,1.81396484375,44.48294117647059,351.8038030761812
-0.0298857421875,0.1196552734375,0.7068408203125001,0.717519677296413,0.43505859375,0.40673828125,1.61962890625,44.29470588235294,351.8038030761812
-0.0782255859375,0.0820576171875,0.6502001953125001,0.6600098399404124,0.43115234375,0.59619140625,1.54052734375,44.20058823529412,351.6433637886697
-0.0787138671875,0.0639912109375,0.5881884765625001,0.5968722073658429,0.333984375,0.67236328125,1.13037109375,45.47117647058823,351.6433637886697
-0.0948271484375,0.0122333984375,0.5291064453125001,0.537675994060873,0.28759765625,0.47412109375,0.77392578125,44.53,351.6433637886697
-0.0977568359375,-0.0204814453125,0.5002978515625001,0.5101703919796342,0.2607421875,0.45849609375,0.55078125,44.48294117647059,351.6433637886697
-0.0743193359375,-0.0365947265625,0.4822314453125,0.489295109882122,0.2138671875,0.3046875,0.16943359375,44.388823529411766,351.6433637886697
-0.0630888671875,-0.0590556640625,0.4793017578125,0.4870297235929418,0.25732421875,0.14892578125,-0.17138671875,44.388823529411766,351.42801258974407
-0.0411162109375,-0.0649150390625,0.4783251953125,0.4844579420022797,0.3056640625,0.0849609375,-0.43798828125,44.29470588235294,351.42801258974407
-0.0259794921875,-0.0644267578125,0.5125048828125001,0.5171914500871078,0.27294921875,-0.060546875,-0.62548828125,44.29470588235294,351.42801258974407
-0.0381865234375,-0.0712626953125,0.5413134765625001,0.5473178804165137,0.189453125,-0.10205078125,-0.93994140625,44.53,351.42801258974407
-0.0508818359375,-0.0741923828125,0.5632861328125001,0.5704250505672316,0.1484375,-0.197265625,-0.95947265625,45.235882352941175,351.9213886819353
-0.0762724609375,-0.0673564453125,0.5823291015625001,0.5911527396106583,0.107421875,-0.240234375,-0.888671875,44.57705882352941,351.9213886819353
-0.1060576171875,-0.0448955078125,0.6252978515625001,0.6358154039923152,0.1328125,-0.22607421875,-0.74560546875,44.57705882352941,351.9213886819353
-0.0733427734375,-0.0238994140625,0.6179736328125001,0.6227694238315766,0.095703125,-0.43115234375,-0.8388671875,44.48294117647059,351.9213886819353
-0.1075224609375,-0.0107158203124999,0.7004931640625001,0.7087782314019799,0.1435546875,-0.25439453125,-1.0283203125,44.71823529411765,351.9213886819353
-0.1128935546875,-0.0131572265624999,0.7590869140625001,0.7675487022995517,0.064453125,-0.203125,-1.078125,44.34176470588236,351.4499784468416
-0.1607451171875,-0.0229228515625,0.8460009765625001,0.8614418739346743,0.099609375,-0.21630859375,-1.18994140625,44.57705882352941,351.4499784468416
-0.1939482421875,-0.0312236328125,0.9002001953125001,0.9213854934468496,0.14453125,-0.3447265625,-1.1162109375,44.34176470588236,351.4499784468416
-0.1929716796875,-0.0400126953125,0.9695361328125,0.9893631273585062,0.1640625,-0.48291015625,-0.87646484375,44.53,351.4499784468416
-0.1924833984375,-0.0502666015625,1.0247119140625005,1.0438443833868751,0.1962890625,-0.5458984375,-0.77734375,44.57705882352941,350.94564026507635
-0.1915068359375,-0.0448955078125,1.1013720703125005,1.1187988702608604,0.2568359375,-0.404296875,-0.7509765625,44.67117647058824,350.94564026507635
-0.1592802734375,-0.0497783203125,1.1370166015625005,1.1491974760275956,0.31982421875,-0.349609375,-0.8779296875,44.34176470588236,350.94564026507635
-0.1866240234375,-0.0522197265625,1.1248095703125005,1.1413816169155933,0.35498046875,-0.056640625,-0.86328125,44.48294117647059,350.94564026507635
-0.2652373046875,-0.0492900390625,1.1873095703125005,1.217573140104662,0.44384765625,0.21875,-0.75,44.67117647058824,350.94564026507635
-0.2715849609375,-0.0278056640625,1.2561572265625005,1.2854814365857534,0.513671875,0.3330078125,-0.55712890625,44.29470588235294,351.23463000272443
-0.2354521484375,-0.0448955078125,1.2737353515625005,1.296092229220445,0.57177734375,0.48046875,-0.724609375,44.48294117647059,351.23463000272443
-0.2564482421875,-0.0732158203125,1.2991259765625005,1.326218142028136,0.55322265625,0.7353515625,-0.95458984375,44.53,351.23463000272443
-0.2896513671875,-0.0688212890625,1.3958056640625005,1.4272027663127511,0.5634765625,1.01416015625,-1.2431640625,44.388823529411766,351.23463000272443
-0.2383818359375,-0.0610087890625,1.4851611328125005,1.5054074406833238,0.50830078125,1.04638671875,-1.978515625,44.71823529411765,351.086260797402
-0.2149443359375,-0.0448955078125,1.5457080078125005,1.561227055744629,0.333984375,0.9580078125,-2.76416015625,44.53,351.086260797402
-0.1885771484375,0.0088154296875,1.6155322265625005,1.6265249545504623,0.15576171875,0.72119140625,-2.8857421875,44.48294117647059,351.086260797402
-0.1539091796875,0.0825458984375,1.6565478515625005,1.6657288631278706,0.0283203125,0.62841796875,-2.4736328125,44.48294117647059,351.086260797402
-0.0694365234375,0.1577412109375,1.6399462890625005,1.648977729208306,0.1005859375,0.72607421875,-1.78857421875,44.48294117647059,351.086260797402
0.1082978515625,0.2021748046875,1.5120166015625005,1.5293126821236052,0.26806640625,1.10302734375,-0.91162109375,44.48294117647059,350.60174422316294
0.2328095703125,0.2007099609375,1.4949267578125005,1.5262014269657913,0.341796875,1.69189453125,0.10791015625,44.48294117647059,350.60174422316294
0.2098603515625,0.2446552734375,1.5862353515625005,1.6186538112040272,0.4501953125,1.36669921875,0.908203125,44.48294117647059,350.60174422316294
0.2293916015625,0.2500263671875,1.4133837890625005,1.4535430596790235,0.65478515625,0.63623046875,1.08056640625,44.53,350.60174422316294
0.2616181640625,0.1841083984375,1.1677783203125005,1.2108039360418923,0.63623046875,0.181640625,1.03857421875,44.67117647058824,351.3104327119088
0.1893525390625,0.1972919921875,1.0940478515625005,1.1277052876258278,0.38916015625,-0.29443359375,1.04443359375,44.71823529411765,351.3104327119088
0.1102509765625,0.2915302734375,1.1267626953125005,1.1690762805357993,0.46923828125,-0.43896484375,0.99462890625,44.53,351.3104327119088
0.0584931640625,0.3027607421875,1.1233447265625005,1.1648986616645016,0.8291015625,-0.349609375,0.58056640625,44.57705882352941,351.3104327119088
-0.0167021484375,0.2539326171875,1.1619189453125005,1.1894605379373604,1.00634765625,-0.17333984375,-0.23046875,44.67117647058824,351.3104327119088
-0.0958037109375,0.1338154296875,1.2004931640625005,1.2117214024736211,0.900390625,0.0439453125,-0.9169921875,44.57705882352941,352.1115602197545
-0.0850615234375,0.0464130859375,1.1624072265625005,1.166439110146978,0.865234375,0.23095703125,-1.69873046875,44.48294117647059,352.1115602197545
-0.1509794921875,-0.0380595703125,1.1506884765625005,1.161174968748162,0.73974609375,0.033203125,-1.57421875,44.67117647058824,352.1115602197545
-0.0835966796875,-0.0976298828125,1.0549853515625005,1.0627860042756534,0.25634765625,0.04736328125,-1.28173828125,44.34176470588236,352.1115602197545
-0.0176787109375,-0.0839580078125,1.0710986328125005,1.0745295552515357,0.01416015625,0.18994140625,-1.80859375,44.388823529411766,352.9797315665911
-0.0103544921875,-0.1249736328125,1.0002978515625005,1.0081276785444235,-0.00146484375,-0.0703125,-2.0078125,44.57705882352941,352.9797315665911
0.0023408203125,-0.1957744140625,0.9124072265625,0.9331773934921076,-0.20556640625,-0.2275390625,-1.63525390625,44.29470588235294,352.9797315665911
0.0345673828125,-0.1830791015625,0.8191455078125001,0.8400667975541211,-0.25,-0.267578125,-1.302734375,44.29470588235294,352.9797315665911
0.0697236328125,-0.1181376953125,0.7478564453125001,0.7603335865406512,-0.42333984375,-0.40869140625,-1.265625,44.48294117647059,352.9797315665911
0.0321259765625,-0.0405009765625,0.7097705078125001,0.7116506033391841,-0.4306640625,-0.36767578125,-1.458984375,44.53,352.6368477785878
-0.0523466796875,-0.0478251953125,0.6506884765625001,0.6545402338376242,-0.40478515625,-0.17333984375,-1.03662109375,44.57705882352941,352.6368477785878
-0.0875029296875,-0.0512431640625,0.6101611328125001,0.6185298962556824,-0.55078125,-0.01123046875,-0.5263671875,44.57705882352941,352.6368477785878
-0.1006865234375,-0.0512431640625,0.5642626953125001,0.575461577506608,-0.66455078125,-0.087890625,-0.04833984375,44.48294117647059,352.6368477785878
-0.0884794921875,-0.0385478515625,0.5217822265625001,0.5306328762471871,-0.6904296875,-0.42236328125,0.35693359375,44.57705882352941,352.1345991094483
-0.0777373046875,-0.0121806640624999,0.4944384765625,0.5006604280573077,-0.6796875,-1.02587890625,0.748046875,44.67117647058824,352.1345991094483
-0.0318388671875,0.0190693359375,0.4475634765625,0.4490995642277913,-0.65673828125,-2.1845703125,0.978515625,44.34176470588236,352.1345991094483
-0.0035185546874999,0.0552021484375,0.4500048828125,0.4533917202312991,-0.67626953125,-3.26611328125,0.92578125,44.57705882352941,352.1345991094483
0.0135712890625,0.0840107421875,0.4519580078125,0.4599000168684019,-0.68115234375,-4.9248046875,0.537109375,45.28294117647059,352.1345991094483
-0.0430693359375,0.0796162109375,0.5588916015625001,0.5661744704940678,-0.5751953125,-5.11962890625,0.2802734375,44.48294117647059,352.0170102235064
-0.1373076171875,0.0600849609375,0.6790087890625001,0.6953535215217456,-0.294921875,-3.59765625,0.4814453125,44.71823529411765,352.0170102235064
-0.1832060546875,0.0561787109375,0.7756884765625001,0.7990075836364826,0.0244140625,-0.8232421875,1.033203125,44.34176470588236,352.0170102235064
-0.0835966796875,0.0796162109375,0.6726611328125001,0.6824955278208165,0.25439453125,0.17529296875,1.39404296875,44.48294117647059,352.0170102235064
-0.0704130859375,0.0615498046875,0.6013720703125001,0.6086006474530352,0.400390625,-0.38427734375,1.58642578125,44.57705882352941,352.0060274075076
-0.1211943359375,0.0473896484375,0.6726611328125001,0.6851327210394766,0.3623046875,-0.51611328125,1.87548828125,45.42411764705882,352.0060274075076
-0.0933623046875,0.0552021484375,0.7498095703125001,0.7576134824967764,0.31787109375,-0.513671875,2.13623046875,44.53,352.0060274075076
-0.0528349609375,0.0459248046875,0.8157275390625001,0.8187258630138752,0.23583984375,-0.337890625,1.6923828125,44.388823529411766,352.0060274075076
-0.0850615234375,0.0244404296875,0.8821337890625001,0.8865623605695097,0.162109375,-0.23876953125,1.37109375,44.57705882352941,352.0060274075076
-0.1182646484375,0.0088154296875,0.9324267578125,0.9399382413517132,0.130859375,-0.11376953125,1.5947265625,44.53,351.51264548717
-0.0953154296875,0.0405537109375,1.0261767578125005,1.031391474117316,-0.04248046875,0.02197265625,1.5361328125,44.48294117647059,351.51264548717
-0.0762724609375,0.0757099609375,1.1248095703125005,1.1299318811101895,-0.10009765625,0.00732421875,1.265625,44.48294117647059,351.51264548717
-0.0606474609375,0.1167255859375,1.1707080078125005,1.178074792399418,-0.197265625,-0.10400390625,1.11767578125,44.53,351.51264548717
-0.0811552734375,0.1450458984375,1.1980517578125005,1.2095257357567382,-0.16650390625,-0.19482421875,1.29931640625,44.71823529411765,351.4049700044015
-0.1177763671875,0.1772724609375,1.2219775390625005,1.2403732922180994,-0.14990234375,-0.13623046875,1.48291015625,44.29470588235294,351.4049700044015
-0.1739287109375,0.2021748046875,1.1995166015625005,1.2288067079743905,-0.197265625,0.02685546875,1.50830078125,44.67117647058824,351.4049700044015
-0.2623076171875,0.2163349609375,1.2703173828125005,1.3150332141942325,-0.2060546875,0.5439453125,1.572265625,44.48294117647059,351.4049700044015
-0.2891630859375,0.2011982421875,1.3484423828125005,1.393697557827125,-0.1953125,1.0400390625,1.7890625,44.57705882352941,351.4049700044015
-0.2901396484375,0.1968037109375,1.4539111328125005,1.4955835979143175,-0.10400390625,1.55615234375,2.10546875,44.29470588235294,351.23355243572126
-0.2305693359375,0.1811787109375,1.5701220703125005,1.5972699395074228,0.158203125,1.8828125,2.42431640625,44.48294117647059,351.23355243572126
-0.1568388671875,0.1655537109375,1.6887744140625005,1.7041025447601377,0.44189453125,1.97314453125,2.66064453125,44.388823529411766,351.23355243572126
-0.0743193359375,0.1435810546875,1.8127978515625005,1.819993113610319,0.8056640625,1.4267578125,2.8212890625,44.53,351.23355243572126
0.0321259765625,0.1260029296875,1.8108447265625005,1.8155074883842104,1.08544921875,0.68603515625,2.6767578125,44.059411764705885,350.92475368575657
0.1493134765625,0.1040302734375,1.6882861328125005,1.6980656283906252,1.32373046875,0.2763671875,2.26904296875,44.57705882352941,350.92475368575657
0.2738251953125,0.0503193359375,1.5764697265625005,1.60086510110164,1.29638671875,0.23046875,1.81787109375,44.53,350.92475368575657
0.3250947265625,-0.0043681640624999,1.4675830078125005,1.5031651761918945,1.01904296875,0.40576171875,1.40380859375,44.57705882352941,350.92475368575657
0.4159150390625,-0.0712626953125,1.3152392578125005,1.3812740483889283,0.60400390625,0.30224609375,0.6533203125,44.67117647058824,350.92475368575657
0.5833955078125,-0.1694072265625,1.1677783203125005,1.31634164727068,0.24072265625,0.1630859375,-0.59423828125,44.53,351.5654075536059
0.6209931640625,-0.2460673828125,1.0818408203125005,1.2714406109571033,-0.17919921875,-0.30908203125,-2.10791015625,44.53,351.5654075536059
0.4623017578125,-0.2875712890625,1.0486376953125005,1.1815503280012696,-0.51513671875,-1.0283203125,-3.1396484375,44.67117647058824,351.5654075536059
0.2069306640625,-0.3305400390625,1.0520556640625005,1.1220063000887182,-0.72216796875,-1.400390625,-3.02294921875,44.1064705882353,351.5654075536059
0.0184541015625,-0.3241923828125,1.0461962890625005,1.0954304771122043,-0.9228515625,-1.494140625,-2.0419921875,44.15352941176471,352.48737542497304
-0.0743193359375,-0.2685283203125,1.1003955078125005,1.135121621729572,-0.7939453125,-1.3974609375,-0.865234375,44.34176470588236,352.48737542497304
-0.1260771484375,-0.2323955078125,1.1174853515625005,1.1483364621774952,-0.50830078125,-0.89892578125,0.91943359375,45.14176470588235,352.48737542497304
-0.1075224609375,-0.1830791015625,1.1248095703125005,1.144672707153263,-0.29296875,-0.23681640625,2.322265625,44.48294117647059,352.48737542497304
-0.0601591796875,-0.1098369140625,1.0872119140625005,1.094400758712681,-0.19775390625,0.31689453125,2.826171875,44.53,352.48737542497304
0.0746064453125,0.0117451171875,1.0217822265625005,1.024569659895771,-0.54638671875,0.57421875,1.89111328125,44.388823529411766,352.5851482344928
0.1248994140625,0.0913349609375,1.0403369140625005,1.051780791554826,-0.318359375,0.71826171875,0.7783203125,44.53,352.5851482344928
-0.0005888671874999,0.0708271484375,0.9885791015625,0.9911132487089818,-0.21484375,0.49853515625,1.3359375,44.67117647058824,352.5851482344928
0.0404267578125,0.1035419921875,0.9246142578125,0.9312715998265744,-0.02294921875,0.5732421875,1.56201171875,44.15352941176471,352.5851482344928
0.0169892578125,0.0996357421875,0.8416064453125001,0.8476540124330302,0.02001953125,0.69775390625,1.79345703125,44.29470588235294,352.0917417018732
0.0116181640625,0.0898701171875,0.7654345703125001,0.770779930413967,0.2109375,0.83349609375,2.359375,44.57705882352941,352.0917417018732
0.0511689453125,0.0654560546875,0.7161181640625001,0.7209216191514112,0.32763671875,0.96142578125,2.4912109375,44.53,352.0917417018732
0.0575166015625,0.0386005859375,0.6726611328125001,0.6762182815383014,0.44677734375,0.90087890625,2.36474609375,44.57705882352941,352.0917417018732
0.0707001953125,0.0176044921875,0.6340869140625001,0.6382590777636538,0.43994140625,0.9091796875,1.998046875,44.57705882352941,352.0917417018732
0.0609345703125,0.0005146484375,0.6028369140625001,0.6059089301855365,0.51025390625,0.92236328125,1.38623046875,44.29470588235294,351.62032167533863
0.0526337890625,-0.0155986328124999,0.5564501953125001,0.5591515474001788,0.50048828125,0.8232421875,1.04638671875,44.53,351.62032167533863
0.0467744140625,-0.0361064453125,0.5042041015625001,0.507654702762067,0.55859375,0.82568359375,0.734375,44.57705882352941,351.62032167533863
0.0331025390625,-0.0483134765625,0.4871142578125,0.4906223295714967,0.37646484375,0.7890625,0.38427734375,44.53,351.62032167533863
0.0018525390625,-0.0390361328125,0.5110400390625001,0.5125321190822434,0.29541015625,0.98388671875,0.14013671875,44.57705882352941,351.5335350033705
-0.0137724609375,-0.0595439453125,0.5217822265625001,0.52534926863961,0.33935546875,1.0849609375,0.14404296875,44.57705882352941,351.5335350033705
-0.0123076171875,-0.0766337890625,0.5046923828125001,0.5106257106099035,0.376953125,0.7646484375,0.23974609375,44.48294117647059,351.5335350033705
-0.0113310546875,-0.0678447265625,0.5232470703125001,0.5277488003901912,0.29638671875,0.43505859375,0.18359375,44.57705882352941,351.5335350033705
-0.0508818359375,-0.0536845703125,0.5823291015625001,0.587007816681002,0.201171875,0.431640625,0.1650390625,44.34176470588236,351.5335350033705
-0.0684599609375,-0.0243876953125,0.6140673828125001,0.6183528738256279,0.10546875,0.328125,-0.01220703125,44.388823529411766,351.3511325275245
-0.0713896484375,-0.0131572265624999,0.6404345703125001,0.6445355175366237,0.07080078125,0.451171875,-0.5087890625,44.53,351.3511325275245
-0.1465849609375,-0.0068095703124999,0.6819384765625001,0.6975482828000316,0.12060546875,0.18701171875,-0.61572265625,44.29470588235294,351.3511325275245
-0.1636748046875,0.0068623046875,0.7434619140625001,0.761296361856926,0.208984375,0.36865234375,-0.52587890625,44.53,351.3511325275245
-0.1041044921875,0.0229755859375,0.7947314453125001,0.8018501686794635,0.2685546875,0.40478515625,-0.80908203125,44.48294117647059,350.9137706974501
-0.1270537109375,0.0078388671875,0.8464892578125001,0.8560071009598754,0.32861328125,0.4501953125,-0.8876953125,44.57705882352941,350.9137706974501
-0.1221708984375,0.0024677734375,0.9124072265625,0.9205535103481156,0.32861328125,0.484375,-0.93115234375,44.48294117647059,350.9137706974501
-0.1089873046875,-0.0204814453125,0.9919970703125,0.998176291891226,0.38525390625,0.46630859375,-1.0146484375,44.48294117647059,350.9137706974501
-0.0752958984375,-0.0365947265625,0.9670947265625,0.970711520730382,0.42626953125,0.353515625,-1.25634765625,44.67117647058824,350.9137706974501
-0.0274443359375,-0.0488017578125,1.1604541015625005,1.161803995936436,0.47900390625,0.0810546875,-1.52490234375,44.57705882352941,350.7632481610217
-0.0508818359375,-0.0834697265625,1.2102587890625005,1.2142003512533748,0.4970703125,-0.06494140625,-1.71533203125,44.53,350.7632481610217
-0.1573271484375,-0.1303447265625,1.2400439453125005,1.2567619367582388,0.47216796875,-0.0830078125,-1.6875,44.48294117647059,350.7632481610217
-0.2618193359375,-0.1669658203125,1.2893603515625005,1.3262266269400391,0.4521484375,0.001953125,-1.44287109375,44.48294117647059,350.7632481610217
-0.2906279296875,-0.1855205078125,1.2913134765625005,1.3365526353591095,0.4208984375,0.58056640625,-1.0791015625,44.67117647058824,351.4598843067603
-0.2564482421875,-0.1962626953125,1.3054736328125005,1.3448219779811204,0.388671875,1.05322265625,-0.94287109375,44.48294117647059,351.4598843067603
-0.2491240234375,-0.1967509765625,1.3362353515625005,1.3734258773582737,0.2421875,1.47314453125,-1.03076171875,44.53,351.4598843067603
-0.2110380859375,-0.1747783203125,1.4622119140625005,1.487665357731282,0.03759765625,1.62646484375,-1.2685546875,44.48294117647059,351.4598843067603
-0.1099638671875,-0.1205791015625,1.6145556640625005,1.6227819829468009,-0.220703125,1.43896484375,-1.87353515625,44.53,351.4598843067603
-0.0132841796875,-0.0966533203125,1.7366259765625005,1.7393642850849438,-0.4912109375,0.7265625,-2.46826171875,44.388823529411766,350.1941223623234
0.0199189453125,-0.0590556640625,1.7615283203125005,1.762630522572216,-0.7861328125,-0.0869140625,-2.42578125,44.48294117647059,350.1941223623234
0.0072236328125,2.6367187500001e-05,1.6824267578125005,1.68244226556804,-0.94873046875,-0.3623046875,-1.6259765625,44.48294117647059,350.1941223623234
0.0003876953125,0.0317646484375,1.6604541015625005,1.66075794942964,-0.85302734375,-0.072265625,-0.1669921875,44.388823529411766,350.1941223623234
0.0672822265625,0.0761982421875,1.7380908203125005,1.7410608173691844,-0.58447265625,0.40234375,1.22998046875,44.71823529411765,349.69091926959294
0.1576142578125,0.1025654296875,1.7703173828125005,1.780276820475082,-0.3134765625,0.53271484375,2.25634765625,44.48294117647059,349.69091926959294
0.2440400390625,0.1435810546875,1.5837939453125005,1.6089046961020832,-0.06005859375,0.34912109375,3.64990234375,44.67117647058824,349.69091926959294
0.3104462890625,0.1675068359375,1.2820361328125005,1.3296811964961002,0.22900390625,0.48095703125,5.095703125,44.57705882352941,349.69091926959294
0.3031220703125,0.2036396484375,1.1541064453125005,1.2105014593292072,0.4921875,0.9404296875,6.35302734375,44.34176470588236,349.69091926959294
0.2567353515625,0.2607685546875,1.1287158203125005,1.1865549641206885,0.6337890625,0.98291015625,7.091796875,44.53,351.0401719313978
0.2376923828125,0.3154560546875,1.0779345703125005,1.1480213975187403,0.67431640625,1.0380859375,6.82666015625,44.48294117647059,351.0401719313978
0.3036103515625,0.3525654296875,1.0212939453125005,1.1222847011870958,0.4736328125,0.97021484375,5.03466796875,44.48294117647059,351.0401719313978
0.3021455078125,0.3169208984375,1.0530322265625005,1.1404418590778236,0.40185546875,0.76953125,2.79052734375,44.57705882352941,351.0401719313978
0.1234345703125,0.3208271484375,1.1985400390625005,1.2468618117332444,0.61865234375,1.54296875,1.4248046875,45.33,352.3917472004119
0.0208955078125,0.0771748046875,0.9734423828125,0.9767203516774768,1.2841796875,0.802734375,2.60205078125,44.059411764705885,352.3917472004119
0.0340791015625,0.1430927734375,0.9602587890625,0.9714596589386106,0.8095703125,0.7509765625,2.42919921875,44.20058823529412,352.3917472004119
0.0472626953125,0.2090107421875,0.9417041015625,0.96577733852975,0.62109375,1.0087890625,1.744140625,44.53,352.3917472004119
0.0282197265625,0.0224873046875,0.8860400390625001,0.8867744824143551,0.3388671875,0.689453125,1.17138671875,44.67117647058824,352.3917472004119
0.0140595703125,-0.0024150390624999,0.9002001953125001,0.9003132208135727,0.36181640625,0.791015625,1.076171875,44.53,352.445588583595
-0.0152373046875,-0.0365947265625,0.8030322265625001,0.8040100163332857,0.26123046875,0.83544921875,1.20751953125,44.53,352.445588583595
0.0218720703125,-0.0102275390624999,0.7424853515625001,0.7428778414382268,0.07958984375,0.724609375,0.90185546875,44.48294117647059,352.445588583595
0.0028291015625,0.0058857421875,0.6794970703125001,0.6795284499857378,0.0283203125,0.9501953125,0.4208984375,44.48294117647059,352.445588583595
0.0609345703125,0.0766865234375,0.6633837890625001,0.6705757946175949,-0.0927734375,1.5595703125,-0.26708984375,44.48294117647059,352.9149052896961
-0.0054716796875,0.0586201171875,0.5994189453125001,0.6023033533172705,0.02490234375,1.8984375,-0.400390625,44.388823529411766,352.9149052896961
-0.0274443359375,0.0332294921875,0.4949267578125,0.4967996440466544,-0.18505859375,0.89697265625,0.3671875,44.53,352.9149052896961
-0.0870146484375,0.0810810546875,0.5681689453125001,0.5804839678143211,-0.31787109375,0.7314453125,1.2041015625,44.48294117647059,352.9149052896961
-0.0411162109375,0.1089130859375,0.5544970703125001,0.5665859194115505,-0.47607421875,1.18994140625,1.177734375,44.48294117647059,352.9149052896961
0.0150361328125,0.1255146484375,0.5520556640625001,0.5663439489266503,-0.6259765625,1.6982421875,0.30712890625,44.57705882352941,352.58300543710646
0.0057587890625,0.0683857421875,0.4880908203125,0.4928918971329624,-0.45263671875,1.3720703125,0.03515625,44.388823529411766,352.58300543710646
-0.0162138671875,-0.0077861328124999,0.4612353515625,0.4615859214537752,-0.38916015625,0.58642578125,-0.04736328125,44.53,352.58300543710646
0.0013642578125,-0.0527080078125,0.5242236328125001,0.5268684963879283,-0.232421875,0.4345703125,-0.10595703125,44.53,352.58300543710646
-0.1251005859375,-0.1288798828125,0.5471728515625001,0.5758978297256444,-0.0302734375,0.40380859375,0.29638671875,44.67117647058824,351.9082566213052
-0.1368193359375,-0.1982158203125,0.5964892578125001,0.6432794702104544,-0.0634765625,0.80908203125,0.693359375,44.48294117647059,351.9082566213052
-0.1036162109375,-0.1508525390625,0.6287158203125001,0.6548101941951328,0.29248046875,0.4814453125,0.57080078125,44.34176470588236,351.9082566213052
-0.1192412109375,-0.1191142578125,0.6785205078125001,0.6991400090984616,0.28076171875,0.46484375,0.48193359375,44.57705882352941,351.9082566213052
-0.1294951171875,-0.1073955078125,0.7356494140625001,0.7546408688139074,0.22021484375,0.61669921875,0.7978515625,44.48294117647059,351.9082566213052
-0.1016630859375,-0.0688212890625,0.7961962890625001,0.8056055384538117,0.1376953125,0.666015625,0.89501953125,44.48294117647059,351.5324592472859
-0.1026396484375,-0.0185283203125,0.8328173828125001,0.8393229349896489,0.0078125,0.48095703125,0.58203125,44.29470588235294,351.5324592472859
-0.1172880859375,-0.0175517578125,0.8567431640625001,0.8649123704011956,-0.3115234375,0.0078125,0.2158203125,44.1064705882353,351.5324592472859
-0.1646513671875,-0.0302470703125,0.8821337890625001,0.8978780428237265,-0.64697265625,-0.28271484375,0.30615234375,44.57705882352941,351.5324592472859
-0.1880888671875,-0.0302470703125,0.9168017578125,0.9363854817063624,-0.80517578125,-0.4697265625,0.7490234375,44.34176470588236,351.6730843638297
-0.1729521484375,-0.0121806640624999,0.9607470703125,0.9762662276962172,-0.90625,-0.56884765625,1.12890625,44.48294117647059,351.6730843638297
-0.1504912109375,0.0146748046875,1.0271533203125005,1.038222951918828,-0.99560546875,-0.619140625,1.7431640625,44.388823529411766,351.6730843638297
-0.1343779296875,0.0600849609375,1.1028369140625005,1.1126171351982936,-1.12646484375,-0.58935546875,2.26708984375,44.34176470588236,351.6730843638297
-0.0938505859375,0.1225849609375,1.1594775390625005,1.1697107201010395,-0.984375,-0.56298828125,2.4345703125,44.67117647058824,351.6730843638297
-0.1387724609375,0.1509052734375,1.1462939453125005,1.1644827205785382,-0.8994140625,-0.38671875,2.5361328125,44.57705882352941,351.73683069880366
-0.1592802734375,0.2026630859375,1.1321337890625005,1.1611069925915738,-0.7119140625,-0.23291015625,2.27685546875,44.48294117647059,351.73683069880366
-0.1646513671875,0.2646748046875,1.1199267578125005,1.162496781852534,-0.7109375,0.1787109375,1.72509765625,44.53,351.73683069880366
-0.1778349609375,0.3061787109375,1.1575244140625005,1.2104682753024658,-0.58056640625,0.50048828125,1.17919921875,44.67117647058824,351.73683069880366
-0.2471708984375,0.3125263671875,1.2170947265625005,1.2806583293947158,-0.486328125,0.90087890625,0.837890625,44.48294117647059,352.2950477124881
-0.3345732421875,0.2553974609375,1.2737353515625005,1.3414801017015583,-0.2578125,1.30029296875,0.72412109375,44.57705882352941,352.2950477124881
-0.3648466796875,0.2070576171875,1.3088916015625005,1.3744756022407985,-0.10595703125,1.615234375,0.541015625,44.48294117647059,352.2950477124881
-0.3658232421875,0.1924091796875,1.4363330078125005,1.4946238477571188,0.060546875,1.8818359375,0.4052734375,44.53,352.2950477124881
-0.3492216796875,0.1562763671875,1.5945361328125005,1.639793756345512,0.26220703125,2.064453125,0.8154296875,44.57705882352941,352.2950477124881
-0.2750029296875,0.0771748046875,1.6877978515625005,1.7117955922230474,0.921875,2.251953125,1.42236328125,44.20058823529412,351.8962000116056
-0.1084990234375,0.0156513671875,1.5544970703125005,1.558357515139538,1.02294921875,2.48046875,1.11181640625,44.57705882352941,351.8962000116056
0.0316376953125,0.0356708984375,1.5032275390625005,1.5039835075411985,0.47021484375,2.1279296875,-0.03857421875,44.67117647058824,351.8962000116056
0.1483369140625,-0.0024150390624999,1.5418017578125005,1.548922958988269,0.15234375,1.482421875,-0.4658203125,44.57705882352941,351.8962000116056
0.2835908203125,-0.0790751953125,1.5125048828125005,1.5408918392966071,-0.07861328125,0.88134765625,-0.419921875,44.1064705882353,351.6631771734796
0.3558564453125,-0.1127666015625,1.3645556640625005,1.4146951178340352,-0.3974609375,0.2099609375,-0.529296875,44.48294117647059,351.6631771734796
0.4090791015625,-0.1127666015625,1.2205126953125005,1.2921738494421415,-0.9345703125,-0.39208984375,-1.14208984375,45.235882352941175,351.6631771734796
0.3333955078125,-0.1606181640625,1.1560595703125005,1.213846979387223,-1.10888671875,-0.92724609375,-1.3125,44.57705882352941,351.6631771734796
0.2264619140625,-0.2572978515625,1.1511767578125005,1.201122437833558,-0.955078125,-1.1650390625,-0.95849609375,44.53,351.6631771734796
0.1932587890625,-0.3212626953125,1.1082080078125005,1.169907546573278,-0.888671875,-1.3525390625,-0.5810546875,44.53,352.0467372149798
0.1468720703125,-0.3549541015625,1.1238330078125005,1.1876718607017736,-0.75927734375,-1.7177734375,-0.27978515625,44.34176470588236,352.0467372149798
-0.0391630859375,-0.3857158203125,1.1931689453125005,1.2545766510650664,-0.48974609375,-2.16796875,0.55517578125,44.48294117647059,352.0467372149798
-0.0435576171875,-0.3534892578125,1.1477587890625005,1.201749624203853,-0.47900390625,-1.7998046875,1.01416015625,44.53,352.0467372149798
-0.0821318359375,-0.2001689453125,1.1985400390625005,1.2179127515458252,-0.751953125,-1.15673828125,0.5341796875,45.235882352941175,352.19834891063226
-0.1270537109375,-0.0805400390625,1.1360400390625005,1.1459565060281764,-0.88916015625,-0.2939453125,0.3251953125,44.34176470588236,352.19834891063226
-0.0933623046875,0.0464130859375,1.0457080078125005,1.0508929213226206,-0.970703125,-0.22021484375,0.23828125,44.388823529411766,352.19834891063226
-0.0601591796875,0.1426044921875,1.0110400390625005,1.022818228562744,-0.86474609375,-0.39306640625,0.220703125,44.48294117647059,352.19834891063226
-0.0254912109375,0.1753193359375,0.9749072265625,0.9908737416000144,-0.48779296875,-0.62451171875,0.49072265625,44.67117647058824,352.19834891063226
-0.0328154296875,0.1811787109375,0.9168017578125,0.9351085716913516,0.1025390625,-0.3837890625,1.3427734375,44.57705882352941,351.65219432690344
0.0262666015625,0.1938740234375,0.7727587890625001,0.7971406509486446,0.640625,-0.41162109375,2.4541015625,44.67117647058824,351.65219432690344
0.0643525390625,0.1684833984375,0.6482470703125001,0.6728686119901711,0.92431640625,-0.60205078125,2.9375,44.57705882352941,351.65219432690344
0.1297822265625,0.1133076171875,0.5627978515625001,0.5885774920667584,0.82763671875,-0.56591796875,2.66943359375,44.57705882352941,351.65219432690344
0.1078095703125,0.0449482421875,0.5994189453125001,0.6106933108576366,0.74658203125,-0.07421875,2.26416015625,44.48294117647059,351.2434581028145
0.1082978515625,0.0102802734375,0.6101611328125001,0.6197827979784825,0.48779296875,0.3583984375,1.55078125,44.57705882352941,351.2434581028145
0.0726533203125,-0.0082744140624999,0.5979541015625001,0.6024085643945686,0.33642578125,0.7509765625,0.7587890625,44.48294117647059,351.2434581028145
0.0433564453125,-0.0077861328124999,0.5544970703125001,0.5562440167763203,0.134765625,0.83642578125,0.19287109375,44.57705882352941,351.2434581028145
-0.0098662109375,-0.0112041015624999,0.5149462890625001,0.5151626487133223,0.00830078125,0.45556640625,-0.4521484375,44.57705882352941,351.2434581028145
-0.0767607421875,-0.0575908203125,0.4988330078125,0.5079796096387219,0.08251953125,0.01708984375,-0.70458984375,44.29470588235294,351.4138004681545
-0.1368193359375,-0.1103251953125,0.5173876953125001,0.5464258473643978,0.044921875,-0.38232421875,-0.4228515625,44.57705882352941,351.4138004681545
-0.1617216796875,-0.1313212890625,0.5510791015625001,0.5891412044840484,0.078125,-0.53857421875,0.04541015625,44.53,351.4138004681545
-0.1353544921875,-0.1225322265625,0.5964892578125001,0.6238063960776669,0.1083984375,-0.537109375,0.35791015625,44.388823529411766,351.4138004681545
-0.0962919921875,-0.1073955078125,0.6272509765625001,0.6436223508054644,0.1083984375,-0.47900390625,0.30712890625,44.57705882352941,351.41487643245665
-0.0738310546875,-0.0976298828125,0.6599658203125001,0.6712209044979173,0.13037109375,-0.53955078125,0.04296875,44.67117647058824,351.41487643245665
-0.0811552734375,-0.0912822265625,0.6956103515625001,0.7062523518501216,0.1923828125,-0.64453125,-0.22509765625,44.53,351.41487643245665
-0.1060576171875,-0.0878642578125,0.7302783203125001,0.7431519165573606,0.21240234375,-0.794921875,-0.37548828125,44.34176470588236,351.41487643245665
-0.1172880859375,-0.0761455078125,0.7888720703125001,0.8011702545539469,0.25390625,-0.9248046875,-0.36181640625,44.71823529411765,351.41487643245665
-0.1216826171875,-0.0488017578125,0.8508837890625001,0.8609247896190159,0.3271484375,-0.92529296875,-0.32958984375,44.29470588235294,351.0841034122238
-0.0879912109375,-0.0165751953125,0.9124072265625,0.9167901272294376,0.44140625,-0.865234375,-0.45654296875,44.059411764705885,351.0841034122238
-0.0245146484375,0.0254169921875,0.9275439453125,0.92821590266799,0.556640625,-0.78857421875,-0.953125,44.48294117647059,351.0841034122238
-0.0440458984375,0.0102802734375,0.9539111328125,0.9549828137169504,0.52783203125,-0.75439453125,-1.4931640625,44.57705882352941,351.0841034122238
-0.1099638671875,-0.0336650390625,1.0300830078125005,1.0364827012188662,0.58837890625,-0.5830078125,-1.43310546875,44.57705882352941,350.6116469896442
-0.1407255859375,-0.0541728515625,1.0881884765625005,1.0985866142035778,0.69921875,-0.376953125,-1.20947265625,44.059411764705885,350.6116469896442
-0.1475615234375,-0.0600322265625,1.1160205078125005,1.127333156295564,0.7900390625,-0.146484375,-1.3134765625,44.388823529411766,350.6116469896442
-0.1519560546875,-0.0727275390625,1.1355517578125005,1.1479798483271983,0.853515625,0.05908203125,-1.625,44.388823529411766,350.6116469896442
-0.1788115234375,-0.0761455078125,1.1604541015625005,1.1766160890907844,0.8369140625,0.2119140625,-1.89794921875,44.48294117647059,350.6116469896442
-0.2159208984375,-0.0717509765625,1.1799853515625005,1.2017218758605532,0.7978515625,0.41015625,-1.9375,44.34176470588236,351.1906984774589
-0.2437529296875,-0.0639384765625,1.1917041015625005,1.2180567659995405,0.78271484375,0.55859375,-1.6396484375,44.388823529411766,351.1906984774589
-0.2466826171875,-0.0805400390625,1.2136767578125005,1.2411084900075924,0.79296875,0.62841796875,-1.0615234375,44.53,351.1906984774589
-0.2203154296875,-0.1181376953125,1.2673876953125005,1.2918076380954202,0.84130859375,0.73046875,-0.75927734375,44.71823529411765,351.1906984774589
-0.1890654296875,-0.1694072265625,1.3303759765625005,1.3543798522309551,0.875,0.751953125,-0.9892578125,44.57705882352941,351.30720136905
-0.1729521484375,-0.2123759765625,1.3435595703125005,1.37119229871245,0.72705078125,1.16015625,-1.77099609375,44.71823529411765,351.30720136905
-0.2398466796875,-0.2289775390625,1.3127978515625005,1.3540292988777436,0.40576171875,1.40478515625,-2.45654296875,44.20058823529412,351.30720136905
-0.3472685546875,-0.1723369140625,1.2966845703125005,1.3533980700111272,0.1015625,1.88330078125,-2.435546875,44.57705882352941,351.30720136905
-0.3921904296875,-0.0629619140625,1.4153369140625005,1.4700190869743293,-0.01513671875,2.5166015625,-1.9501953125,44.20058823529412,351.30720136905
-0.2730498046875,0.0449482421875,1.6091845703125005,1.6328048020652848,0.11767578125,2.88818359375,-2.1513671875,44.57705882352941,350.58860159828487
-0.1275419921875,0.0737568359375,1.6340869140625005,1.640715415094578,0.31298828125,2.572265625,-2.82568359375,44.53,350.58860159828487
-0.0176787109375,0.0742451171875,1.6111376953125005,1.6129443721044667,0.19189453125,2.4111328125,-2.9677734375,44.53,350.58860159828487
0.0873017578125,0.0942646484375,1.7507861328125005,1.7554940910497956,0.20751953125,1.62890625,-2.470703125,44.53,350.58860159828487
0.3084931640625,0.1245380859375,1.7293017578125005,1.7610117366717557,0.3017578125,0.1533203125,-1.6123046875,44.71823529411765,350.9225954926583
0.6224580078125,0.1064716796875,1.4036181640625005,1.5391342178483227,-0.0390625,-0.037109375,-1.373046875,44.48294117647059,350.9225954926583
0.6405244140625,0.1001240234375,1.1990283203125005,1.3630719929595934,-0.1435546875,0.5859375,-0.96728515625,44.48294117647059,350.9225954926583
0.4115205078125,0.1606708984375,1.1492236328125005,1.2312104711095222,-0.1162109375,0.73486328125,-0.09375,44.53,350.9225954926583
0.3094697265625,0.2607685546875,1.1169970703125005,1.1880463820319411,-0.1142578125,0.6240234375,1.13623046875,44.48294117647059,350.9225954926583
0.2923798828125,0.3340107421875,1.0100634765625005,1.1033029495363549,-0.03466796875,0.25048828125,2.29345703125,44.67117647058824,352.40058572452483
0.2957978515625,0.3818623046875,0.9675830078125,1.0814490583183862,0.29833984375,0.09814453125,2.49462890625,44.53,352.40058572452483
0.2567353515625,0.3603779296875,0.9836962890625,1.0786304659442467,0.8720703125,0.00732421875,1.83544921875,44.48294117647059,352.40058572452483
0.1156220703125,0.2612568359375,1.0315478515625005,1.0703805713533072,1.255859375,-0.18896484375,1.06787109375,44.57705882352941,352.40058572452483
-0.0557646484375,0.1137958984375,1.0837939453125005,1.091177583353228,1.52783203125,-0.0693359375,0.7470703125,45.14176470588235,352.4863039159091
-0.1348662109375,0.0210224609375,1.0569384765625005,1.065715619644737,1.63037109375,0.126953125,0.5751953125,44.29470588235294,352.4863039159091
-0.1338896484375,-0.0390361328125,1.0339892578125005,1.0433523100541435,1.298828125,0.19921875,0.150390625,44.57705882352941,352.4863039159091
-0.1666044921875,-0.0834697265625,1.1218798828125005,1.1372505104544304,1.3193359375,0.05126953125,-0.23779296875,44.57705882352941,352.4863039159091
-0.0909208984375,-0.1596416015625,1.0359423828125005,1.0521067774847586,1.27197265625,0.0341796875,-0.41552734375,44.53,352.4863039159091
-0.0333037109375,-0.2079814453125,0.9685595703125,0.99119779055465,0.77587890625,-0.10595703125,-1.16845703125,44.53,352.658813107694
-0.0123076171875,-0.2363017578125,0.8069384765625001,0.8409159905383652,0.1865234375,-0.11083984375,-1.7109375,44.29470588235294,352.658813107694
-0.0401396484375,-0.2021220703125,0.7752001953125001,0.8021221013640227,-0.5166015625,0.009765625,-2.1103515625,44.57705882352941,352.658813107694
-0.0772490234375,-0.1366923828125,0.7454150390625001,0.7617714877845947,-0.890625,0.4541015625,-2.015625,44.53,352.658813107694
-0.0967802734375,-0.0688212890625,0.7117236328125001,0.7215631092695107,-1.06787109375,0.8125,-1.587890625,44.67117647058824,352.4544273854624
-0.1021513671875,0.0078388671875,0.6912158203125001,0.6987672430125363,-1.0810546875,1.033203125,-0.96435546875,44.48294117647059,352.4544273854624
-0.0821318359375,0.0410419921875,0.6653369140625001,0.6716422357262785,-1.0048828125,1.07861328125,-0.28955078125,44.388823529411766,352.4544273854624
-0.0518583984375,0.0483662109375,0.6502001953125001,0.6540557146248066,-0.92578125,1.140625,0.34521484375,44.29470588235294,352.4544273854624
-0.0450224609375,0.0517841796875,0.6677783203125001,0.671294650905368,-0.7392578125,1.2919921875,0.84423828125,44.48294117647059,352.4544273854624
-0.0523466796875,0.0503193359375,0.6658251953125001,0.6697726488566292,-0.55322265625,1.494140625,1.02978515625,44.67117647058824,352.1763834314676
-0.0674833984375,0.0405537109375,0.6531298828125001,0.6578580822321383,-0.35400390625,1.47607421875,1.06640625,44.059411764705885,352.1763834314676
-0.0855498046875,0.0156513671875,0.6404345703125001,0.6463127518688332,-0.19921875,1.26611328125,1.2978515625,44.48294117647059,352.1763834314676
-0.0655302734375,0.0317646484375,0.6257861328125001,0.6300091218764816,-0.150390625,1.06103515625,1.63037109375,44.34176470588236,352.1763834314676
-0.0367216796875,0.0488544921875,0.6350634765625001,0.6379975410843046,-0.02783203125,0.99072265625,1.8896484375,44.388823529411766,351.5972803024271
-0.0162138671875,0.0566669921875,0.6204150390625001,0.6232085190268788,0.103515625,0.5419921875,2.16357421875,44.67117647058824,351.5972803024271
-0.0132841796875,0.0537373046875,0.6311572265625001,0.633579996517499,0.2587890625,0.18896484375,2.35546875,44.57705882352941,351.5972803024271
-0.0196318359375,0.0381123046875,0.6409228515625001,0.6423550874756705,0.35546875,-0.1220703125,2.5166015625,44.29470588235294,351.5972803024271
-0.0323271484375,0.0288349609375,0.6755908203125001,0.6769781798469461,0.3125,-0.2978515625,2.5146484375,44.1064705882353,351.5972803024271
-0.0948271484375,-0.0024150390624999,0.7327197265625001,0.7388343645150014,0.3291015625,-0.32861328125,2.6162109375,44.29470588235294,351.5005866386897
-0.1094755859375,0.0136982421875,0.7664111328125001,0.7743116751375547,0.1142578125,-0.111328125,2.3974609375,44.34176470588236,351.5005866386897
-0.1460966796875,0.0215107421875,0.7996142578125001,0.813135851590744,0.01904296875,-0.16845703125,2.13623046875,44.67117647058824,351.5005866386897
-0.1744169921875,0.0381123046875,0.8337939453125001,0.852693484302602,-0.08740234375,-0.03662109375,1.8193359375,44.57705882352941,351.5005866386897
-0.2012724609375,0.0586201171875,0.8816455078125001,0.9062260883007478,-0.2021484375,0.06884765625,1.58203125,44.48294117647059,351.60826307954005
-0.2046904296875,0.0644794921875,0.9348681640625,0.9591841643271644,-0.3017578125,0.2822265625,1.544921875,44.57705882352941,351.60826307954005
-0.1773466796875,0.0742451171875,0.9856494140625,1.0042255472074568,-0.439453125,0.349609375,1.4697265625,44.67117647058824,351.60826307954005
-0.1343779296875,0.0674091796875,1.0266650390625005,1.037613862632167,-0.5673828125,0.3095703125,1.50732421875,44.388823529411766,351.60826307954005
-0.0962919921875,0.0781513671875,1.0452197265625005,1.0525512152613292,-0.68701171875,0.21923828125,1.537109375,44.48294117647059,351.60826307954005
-0.1041044921875,0.1118427734375,1.0452197265625005,1.0563289393267596,-0.6748046875,0.1240234375,1.4765625,44.57705882352941,351.45665568028664
-0.1641630859375,0.1601826171875,1.0476611328125005,1.0724746331916348,-0.5400390625,0.17333984375,1.521484375,44.34176470588236,351.45665568028664
-0.2354521484375,0.1904560546875,1.0461962890625005,1.0891454899227693,-0.40673828125,0.49658203125,1.8046875,44.48294117647059,351.45665568028664
-0.2842802734375,0.2280537109375,1.0901416015625005,1.1494487724102007,-0.2607421875,0.9091796875,2.28955078125,44.53,351.45665568028664
-0.3057646484375,0.2241474609375,1.1526416015625005,1.2133906074020029,-0.09423828125,1.20849609375,2.71484375,44.48294117647059,351.5873731606191
-0.3423857421875,0.1816669921875,1.0964892578125005,1.162978755180827,-0.06298828125,1.453125,2.94677734375,44.388823529411766,351.5873731606191
-0.3848662109375,0.1562763671875,1.3118212890625005,1.3760157694228328,-0.03466796875,1.85400390625,2.80810546875,44.29470588235294,351.5873731606191
-0.3794951171875,0.1777607421875,1.3499072265625005,1.4134585051418618,0.04296875,2.07861328125,2.572265625,44.48294117647059,351.5873731606191
-0.2837919921875,0.2011982421875,1.6248095703125005,1.6616331626650276,0.29541015625,1.57470703125,2.49072265625,44.48294117647059,351.5873731606191
-0.1954130859375,0.1494404296875,1.5676806640625005,1.5868652685896945,0.654296875,1.0693359375,2.4453125,44.48294117647059,350.9314218184627
-0.1817412109375,0.1054951171875,1.4553759765625005,1.4704687418162563,0.7451171875,1.40478515625,2.0517578125,44.53,350.9314218184627
-0.1114287109375,0.0952412109375,1.4871142578125005,1.494321271236965,0.74853515625,1.80126953125,1.30078125,44.71823529411765,350.9314218184627
0.0653291015625,0.0732685546875,1.4192431640625005,1.4226339414463214,0.466796875,1.54248046875,0.58203125,44.57705882352941,350.9314218184627
0.1707978515625,0.0342060546875,1.1731494140625005,1.1860107537416504,0.1328125,1.2705078125,0.03076171875,44.388823529411766,351.33907330002927
0.2479462890625,0.0210224609375,1.0764697265625005,1.1048558178917636,-0.0888671875,1.72216796875,-0.45703125,44.388823529411766,351.33907330002927
0.4305634765625,-0.0317119140625,1.1790087890625005,1.255568507700682,-0.1416015625,1.8251953125,-1.02490234375,44.57705882352941,351.33907330002927
0.5331025390625,-0.1493876953125,1.2410205078125005,1.358913868306914,-0.2021484375,0.611328125,-1.3642578125,44.53,351.33907330002927
0.4901337890625,-0.2387431640625,1.1785205078125005,1.2985145424299145,-0.43701171875,-0.6123046875,-1.61376953125,44.20058823529412,351.33907330002927
0.3758759765625,-0.2685283203125,1.1755908203125005,1.2630930232447977,-0.71044921875,-1.45654296875,-1.8369140625,44.48294117647059,352.1753106126671
0.2494111328125,-0.3193095703125,1.2151416015625005,1.2809112485694885,-1.02685546875,-2.21337890625,-2.01123046875,44.53,352.1753106126671
0.1346650390625,-0.2817119140625,1.2502978515625005,1.2886974016006496,-1.19873046875,-2.64501953125,-1.65869140625,44.29470588235294,352.1753106126671
0.0252900390625,-0.2675517578125,1.2654345703125005,1.2936569023223752,-1.33984375,-2.568359375,-0.92138671875,44.53,352.1753106126671
-0.1246123046875,-0.0351298828125,1.3001025390625005,1.3065331787684191,-1.171875,-1.8623046875,-0.01171875,44.53,352.2181687590877
-0.1861357421875,0.0630146484375,1.2844775390625005,1.2994229137557372,-0.85595703125,-1.19921875,1.06787109375,44.48294117647059,352.2181687590877
-0.1851591796875,0.0898701171875,1.2424853515625005,1.259416693804411,-0.25244140625,-0.39892578125,2.0029296875,44.57705882352941,352.2181687590877
-0.0889677734375,0.1181904296875,1.1892626953125005,1.1984281375377062,-0.1884765625,-0.00732421875,2.32958984375,44.53,352.2181687590877
-0.0528349609375,0.0664326171875,1.0725634765625005,1.075916928475189,0.060546875,-0.0546875,2.56201171875,44.34176470588236,352.2181687590877
-0.0523466796875,0.0981708984375,0.9817431640625,0.9880269937394324,0.00390625,0.046875,2.39111328125,44.57705882352941,351.5214765062942
-0.0718779296875,0.1128193359375,0.8982470703125001,0.9081533123115992,0.08154296875,0.3017578125,2.248046875,44.53,351.5214765062942
-0.0782255859375,0.1128193359375,0.8186572265625001,0.8300886094024229,0.14013671875,0.49951171875,2.1806640625,44.29470588235294,351.5214765062942
-0.0518583984375,0.1177021484375,0.7463916015625001,0.7573925746390306,0.15576171875,0.66552734375,1.93017578125,44.53,351.5214765062942
-0.0357451171875,0.1084248046875,0.6785205078125001,0.688057941743574,0.1806640625,0.806640625,1.47900390625,44.48294117647059,351.3511325275245
-0.0362333984375,0.0815693359375,0.6331103515625001,0.6393708884389465,0.326171875,0.8076171875,1.1435546875,44.53,351.3511325275245
-0.0250029296875,0.0434833984375,0.5642626953125001,0.5664877242747276,0.45361328125,0.72998046875,0.890625,44.48294117647059,351.3511325275245
-0.0103544921875,0.0141865234375,0.5369189453125001,0.5372061306344067,0.4541015625,0.720703125,0.6240234375,44.53,351.3511325275245
-0.0201201171875,-0.0278056640625,0.5183642578125001,0.5194992568301704,0.49560546875,0.5556640625,0.2919921875,44.48294117647059,351.3511325275245
-0.0376982421875,-0.0405009765625,0.4778369140625,0.481029731936932,0.3759765625,0.1669921875,0.07275390625,44.57705882352941,351.3819281594687
-0.0572294921875,-0.0317119140625,0.5120166015625001,0.5161800660090996,0.26123046875,0.11572265625,-0.40185546875,44.48294117647059,351.3819281594687
-0.0787138671875,-0.0395244140625,0.5447314453125001,0.5518064875541431,0.14794921875,0.04736328125,-0.7177734375,44.57705882352941,351.3819281594687
-0.0894560546875,-0.0356181640625,0.5686572265625001,0.5767513161261019,0.03955078125,0.10791015625,-0.853515625,44.34176470588236,351.3819281594687
-0.0889677734375,-0.0326884765625,0.5930712890625001,0.6005974984302374,-0.0244140625,0.11865234375,-0.97314453125,44.059411764705885,351.13578438346525
-0.0577177734375,-0.0282939453125,0.6213916015625001,0.6247074604999833,-0.0419921875,-0.05029296875,-1.17919921875,44.53,351.13578438346525
-0.0396513671875,-0.0317119140625,0.6428759765625001,0.644877816066372,-0.0224609375,-0.27392578125,-1.474609375,44.57705882352941,351.13578438346525
0.0008759765625,-0.0380595703125,0.6619189453125001,0.6630128116340759,-0.02099609375,-0.6025390625,-1.87646484375,44.48294117647059,351.13578438346525
