AccX,AccY,AccZ,Magnitude,GyroX,GyroY,GyroZ,Temperature,Altitude
0.1009736328125,-0.0497783203125,1.0320361328125005,1.0381580492040063,-0.513671875,-1.896484375,0.96337890625,48.15352941176471,511.78703337880535
0.1122041015625,-0.0365947265625,1.0378955078125005,1.0445841371364013,-0.61376953125,-2.27783203125,1.044921875,48.01235294117648,511.78703337880535
0.1200166015625,-0.0263408203125,1.0706103515625005,1.077638319817056,-0.5751953125,-2.7490234375,1.13232421875,48.1064705882353,511.78703337880535
0.1610322265625,-0.0190166015625,1.0383837890625005,1.0509680787323934,-0.40869140625,-3.89599609375,1.2158203125,48.1064705882353,511.78703337880535
0.1141572265625,-0.0219462890625,1.0447314453125005,1.051179007022497,-0.24755859375,-5.17236328125,1.3505859375,47.96529411764706,512.0176046145172
0.0555634765625,-0.0209697265625,1.0945361328125005,1.0961461469128837,-0.1435546875,-6.07958984375,1.71435546875,47.96529411764706,512.0176046145172
0.0575166015625,0.0058857421875,1.1321337890625005,1.1336091556411367,0.0078125,-6.3466796875,1.79248046875,48.1064705882353,512.0176046145172
0.0340791015625,0.0219990234375,1.1702197265625005,1.1709225211906735,0.19091796875,-5.8896484375,1.69921875,48.53,512.0176046145172
0.0663056640625,0.0342060546875,1.2166064453125005,1.218892012460485,0.23388671875,-4.2646484375,1.4306640625,47.91823529411765,512.0290611728743
0.0746064453125,0.0420185546875,1.2117236328125005,1.2147451761322274,0.2724609375,-2.556640625,1.1298828125,48.15352941176471,512.0290611728743
0.0926728515625,0.0361591796875,1.1897509765625005,1.1939024792351431,0.28955078125,-1.08544921875,0.8818359375,47.96529411764706,512.0290611728743
0.1058564453125,0.0420185546875,1.1331103515625005,1.1388196585809,0.28515625,-0.02099609375,0.63525390625,48.29470588235294,512.0290611728743
0.1117158203125,0.0493427734375,1.0808642578125005,1.0877420087572085,0.21728515625,0.69140625,0.39794921875,47.91823529411765,512.0290611728743
0.1004853515625,0.0498310546875,1.0168994140625005,1.023066399707548,0.1533203125,1.00634765625,0.283203125,48.48294117647059,511.920347200449
0.1004853515625,0.0571552734375,0.9827197265625,0.9894958777758648,0.119140625,1.10888671875,0.20068359375,48.48294117647059,511.920347200449
0.1082978515625,0.0537373046875,0.9680712890625,0.9755911763004322,0.04736328125,1.1455078125,0.0498046875,48.1064705882353,511.920347200449
0.1126923828125,0.0488544921875,0.9788134765625,0.9864898156855068,0.0478515625,1.27978515625,-0.08984375,47.96529411764706,511.920347200449
0.1019501953125,0.0351826171875,1.0046923828125005,1.0104644689240083,0.0654296875,1.5947265625,-0.15380859375,48.01235294117648,511.8878671827764
0.0907197265625,0.0273701171875,1.0129931640625005,1.0174155210826046,0.11279296875,1.85986328125,-0.1201171875,47.96529411764706,511.8878671827764
0.0882783203125,0.0185810546875,1.0217822265625005,1.0257569087993106,0.19580078125,1.97216796875,-0.05029296875,47.96529411764706,511.8878671827764
0.0868134765625,0.0127216796875,1.0300830078125005,1.0338130507161276,0.24072265625,1.99609375,0.0693359375,48.29470588235294,511.8878671827764
0.0848603515625,0.0044208984375,1.0447314453125005,1.048181576080715,0.31201171875,2.08642578125,0.1474609375,48.20058823529412,511.8878671827764
0.1024384765625,-0.0058330078124999,1.0378955078125005,1.0429548171411618,0.43603515625,2.09375,0.18798828125,48.29470588235294,511.5160789643024
0.1292939453125,-0.0238994140625,1.0300830078125005,1.038440710522777,0.48583984375,2.03759765625,0.2255859375,48.01235294117648,511.5160789643024
0.1473603515625,-0.0263408203125,1.0198291015625005,1.0307571529808248,0.41748046875,1.93017578125,0.25537109375,48.20058823529412,511.5160789643024
0.1576142578125,-0.0243876953125,1.0217822265625005,1.0341546946503997,0.3759765625,1.8369140625,0.3740234375,47.96529411764706,511.5160789643024
0.1737275390625,-0.0175517578125,1.0081103515625005,1.023120619945903,0.3330078125,1.66064453125,0.13427734375,48.34176470588236,511.6477116299744
0.1541962890625,-0.0282939453125,0.9998095703125,1.012025799962856,0.25830078125,1.49560546875,-0.00537109375,48.01235294117648,511.6477116299744
0.1136689453125,-0.0190166015625,1.0022509765625005,1.008855430814509,0.15185546875,1.48046875,-0.15185546875,48.1064705882353,511.6477116299744
0.0770478515625,-0.0248759765625,1.0081103515625005,1.0113563499419,0.03662109375,1.39794921875,-0.22509765625,48.1064705882353,511.6477116299744
0.0570283203125,-0.0116923828124999,1.0178759765625005,1.0195393296958009,0.005859375,1.37158203125,-0.26953125,48.29470588235294,511.6477116299744
0.0663056640625,-0.0063212890624999,1.0325244140625005,1.0346705105574867,0.03076171875,1.287109375,-0.25048828125,48.1064705882353,511.8118279031274
0.0824189453125,-0.0097392578124999,1.0266650390625005,1.0300139989933963,0.0517578125,1.18017578125,-0.2236328125,47.91823529411765,511.8118279031274
0.0941376953125,-0.0072978515624999,1.0159228515625005,1.020301134294704,0.04052734375,1.18798828125,-0.244140625,48.1064705882353,511.8118279031274
0.0809541015625,-0.0087626953124999,1.0208056640625005,1.0240481215113937,0.02880859375,1.205078125,-0.31103515625,48.1064705882353,511.8118279031274
0.0658173828125,-0.0043681640624999,1.0164111328125005,1.0185492622562515,0.02490234375,1.2451171875,-0.353515625,47.96529411764706,511.9214973862792
0.0487275390625,-0.0019267578124999,1.0129931640625005,1.0141662762565669,-0.001953125,1.29248046875,-0.3564453125,48.1064705882353,511.9214973862792
0.0467744140625,-0.0063212890624999,1.0110400390625005,1.0121411784399466,-0.00048828125,1.31884765625,-0.40576171875,48.34176470588236,511.9214973862792
0.0545869140625,-0.0068095703124999,1.0027392578125005,1.0042470416152949,0.001953125,1.32861328125,-0.46923828125,48.1064705882353,511.9214973862792
0.0638642578125,-0.0097392578124999,0.9880908203125,0.990200467458236,-0.01953125,1.3291015625,-0.55908203125,48.20058823529412,511.9214973862792
0.0746064453125,-0.0092509765624999,0.9846728515625,0.9875385191746964,-0.05224609375,1.31298828125,-0.58837890625,48.20058823529412,511.8557722236541
0.0833955078125,-0.0131572265624999,0.9724658203125,0.9761238113119592,-0.0185546875,1.2568359375,-0.59228515625,48.34176470588236,511.8557722236541
0.0814423828125,-0.0131572265624999,0.9753955078125,0.9788781185570548,-0.02880859375,1.25732421875,-0.54345703125,48.29470588235294,511.8557722236541
0.0897431640625,-0.0131572265624999,0.9841845703125,0.9883553088580878,0.0029296875,1.28759765625,-0.49169921875,48.29470588235294,511.8557722236541
0.0946259765625,-0.0112041015624999,0.9832080078125,0.9878145544376508,0.0546875,1.296875,-0.4306640625,48.20058823529412,511.9870300322515
0.0970673828125,-0.0107158203124999,0.9929736328125,0.9977642712945236,0.1015625,1.18603515625,-0.38623046875,47.96529411764706,511.9870300322515
0.0951142578125,-0.0155986328124999,0.9963916015625,1.0010425880296632,0.12841796875,1.138671875,-0.328125,48.20058823529412,511.9870300322515
0.0931611328125,-0.0243876953125,0.9963916015625,1.0010344549583934,0.16064453125,1.1083984375,-0.29833984375,48.20058823529412,511.9870300322515
0.0829072265625,-0.0190166015625,1.0022509765625005,1.0058539950568164,0.1669921875,1.13916015625,-0.29443359375,48.1064705882353,511.9870300322515
0.0731416015625,-0.0121806640624999,1.0154345703125005,1.0181382170618405,0.1435546875,1.1630859375,-0.30615234375,48.15352941176471,511.8448822751157
0.0760712890625,-0.0087626953124999,1.0173876953125005,1.0202653323631314,0.20068359375,1.07763671875,-0.25390625,48.29470588235294,511.8448822751157
0.0604462890625,-0.0102275390624999,1.0159228515625005,1.01777089599948,0.23779296875,0.931640625,-0.142578125,48.43588235294118,511.8448822751157
0.0604462890625,-0.0097392578124999,0.9988330078125,1.0007077418007375,0.1806640625,0.86376953125,-0.09033203125,47.82411764705883,511.8448822751157
0.0750947265625,-0.0058330078124999,0.9949267578125,0.9977737696236209,0.14501953125,0.86669921875,-0.21435546875,48.29470588235294,511.331138370686
0.0848603515625,-0.0043681640624999,0.9905322265625,0.994170232899503,0.08251953125,0.88330078125,-0.3232421875,48.1064705882353,511.331138370686
0.0804658203125,-0.0072978515624999,0.9822314453125,0.9855488922608936,0.0517578125,0.67431640625,-0.31298828125,48.1064705882353,511.331138370686
0.0760712890625,-0.0029033203124999,0.9836962890625,0.9866375521962464,0.0078125,0.486328125,-0.279296875,48.1064705882353,511.331138370686
0.0677705078125,-0.0043681640624999,0.9856494140625,0.987986179067395,-0.01708984375,0.3232421875,-0.259765625,48.1064705882353,511.331138370686
0.0599580078125,-0.0112041015624999,0.9719775390625,0.9738895373884352,-0.04150390625,0.25390625,-0.2470703125,48.1064705882353,511.53862037990206
0.0448212890625,-0.0087626953124999,0.9783251953125,0.9793905863166162,-0.041015625,0.298828125,-0.2392578125,48.15352941176471,511.53862037990206
0.0272431640625,-0.0131572265624999,0.9866259765625,0.9870897224806164,-0.04150390625,0.5126953125,-0.232421875,48.1064705882353,511.53862037990206
0.0130830078125,-0.0141337890624999,1.0017626953125005,1.001947816408844,-0.01318359375,1.0966796875,-0.27685546875,48.01235294117648,511.53862037990206
0.0238251953125,-0.0131572265624999,0.9773486328125,0.9777275196101206,0.00439453125,0.9853515625,-0.27294921875,48.15352941176471,512.041866425314
0.0018525390625,-0.0131572265624999,1.0388720703125005,1.0389570361603868,0.0380859375,1.470703125,-0.296875,48.15352941176471,512.041866425314
0.0052705078125,-0.0214580078125,1.0051806640625005,1.005423488763323,0.056640625,2.04736328125,-0.26171875,48.15352941176471,512.041866425314
0.0306611328125,-0.0072978515624999,0.9597705078125,0.9602878690108704,-0.0126953125,1.60546875,-0.267578125,48.01235294117648,512.041866425314
0.0379853515625,-0.0072978515624999,0.9387744140625,0.93957093722036,-0.083984375,0.59033203125,-0.287109375,47.91823529411765,512.041866425314
0.0272431640625,-0.0038798828124999,0.9949267578125,0.9953072374347872,-0.04931640625,0.55712890625,-0.30859375,48.1064705882353,511.7140108948237
0.0379853515625,-0.0121806640624999,1.0164111328125005,1.0171936130430237,-0.01513671875,0.59130859375,-0.2646484375,48.34176470588236,511.7140108948237
0.0409150390625,-0.0146220703124999,1.0183642578125005,1.0192907372049027,-0.00341796875,0.57275390625,-0.236328125,48.15352941176471,511.7140108948237
0.0472626953125,-0.0199931640625,1.0154345703125005,1.016730473411299,0.00927734375,0.55419921875,-0.244140625,48.1064705882353,511.7140108948237
0.0492158203125,-0.0238994140625,1.0139697265625005,1.0154447229400498,0.01611328125,0.53662109375,-0.27734375,48.1064705882353,511.8120199844163
0.0497041015625,-0.0180400390625,1.0193408203125005,1.0207113444440954,0.0146484375,0.49658203125,-0.30078125,48.15352941176471,511.8120199844163
0.0560517578125,-0.0146220703124999,1.0168994140625005,1.0185479973053555,0.017578125,0.48388671875,-0.32861328125,48.15352941176471,511.8120199844163
0.0531220703125,-0.0160869140625,1.0139697265625005,1.0154877397308015,0.0205078125,0.46630859375,-0.33154296875,47.96529411764706,511.8120199844163
0.0511689453125,-0.0087626953124999,1.0125048828125005,1.01383488967025,-0.00439453125,0.42333984375,-0.3447265625,48.15352941176471,511.8120199844163
0.0448212890625,-0.0102275390624999,1.0120166015625005,1.0130602905783108,-0.00244140625,0.42919921875,-0.337890625,48.34176470588236,511.757570352208
0.0384736328125,-0.0033916015624999,1.0076220703125005,1.0083620183068178,-0.01025390625,0.447265625,-0.32421875,48.29470588235294,511.757570352208
0.0350556640625,-0.0033916015624999,1.0081103515625005,1.0087253756456658,0.01513671875,0.46484375,-0.314453125,48.1064705882353,511.757570352208
0.0335908203125,-0.0068095703124999,1.0022509765625005,1.002836842899977,0.0361328125,0.46044921875,-0.2978515625,47.96529411764706,511.757570352208
0.0311494140625,-0.0063212890624999,0.9954150390625,0.995922358762794,0.05126953125,0.4677734375,-0.32666015625,47.96529411764706,511.8232953331839
0.0233369140625,-0.0063212890624999,0.9944384765625,0.9947323529077148,0.015625,0.4443359375,-0.33837890625,47.96529411764706,511.8232953331839
0.0228486328125,-0.0097392578124999,0.9949267578125,0.9952367389598477,0.04443359375,0.4482421875,-0.3330078125,48.43588235294118,511.8232953331839
0.0331025390625,-0.0116923828124999,0.9876025390625,0.9882263227980296,0.04150390625,0.431640625,-0.365234375,48.34176470588236,511.8232953331839
0.0208955078125,-0.0116923828124999,0.9910205078125,0.9913097300881908,0.06689453125,0.3955078125,-0.3505859375,48.15352941176471,511.8232953331839
0.0169892578125,-0.0053447265624999,0.9998095703125,0.9999681884297688,0.04736328125,0.41455078125,-0.306640625,48.20058823529412,511.7033141997812
0.0243134765625,-0.0077861328124999,0.9983447265625,0.9986710980407324,0.04052734375,0.36279296875,-0.26318359375,48.1064705882353,511.7033141997812
0.0370087890625,-0.0048564453124999,1.0007861328125005,1.0014819614744668,0.0703125,0.3173828125,-0.2587890625,47.96529411764706,511.7033141997812
0.0379853515625,-0.0131572265624999,0.9919970703125,0.9928112544953984,0.13818359375,0.33203125,-0.28662109375,47.91823529411765,511.7033141997812
0.0345673828125,-0.0199931640625,1.0017626953125005,1.002558291713505,0.107421875,0.388671875,-0.33642578125,48.20058823529412,511.7579564614628
0.0160126953125,-0.0253642578125,1.0144580078125005,1.0149013753072054,0.04931640625,0.34326171875,-0.34130859375,48.20058823529412,511.7579564614628
0.0145478515625,-0.0253642578125,1.0252001953125005,1.0256170952301118,0.0322265625,0.322265625,-0.298828125,48.43588235294118,511.7579564614628
0.0389619140625,-0.0224345703125,1.0222705078125005,1.0232586827560992,0.03857421875,0.302734375,-0.28466796875,48.29470588235294,511.7579564614628
0.0619111328125,-0.0273173828125,1.0042041015625005,1.0064815474537028,0.04150390625,0.3466796875,-0.2646484375,48.20058823529412,511.7579564614628
0.0687470703125,-0.0322001953125,1.0164111328125005,1.019242171007413,0.03076171875,0.38720703125,-0.220703125,48.1064705882353,512.0200866798058
0.0663056640625,-0.0356181640625,1.0076220703125005,1.0104292806915294,0.0244140625,0.3525390625,-0.2080078125,48.1064705882353,512.0200866798058
0.0594697265625,-0.0322001953125,1.0110400390625005,1.0132992951458537,0.01904296875,0.34619140625,-0.1689453125,48.1064705882353,512.0200866798058
0.0453095703125,-0.0385478515625,1.0081103515625005,1.0098640378533417,0.0419921875,0.38916015625,-0.13037109375,48.01235294117648,512.0200866798058
0.0331025390625,-0.0365947265625,1.0125048828125005,1.0137066093420342,0.0244140625,0.37939453125,-0.0859375,48.15352941176471,512.0200866798058
0.0252900390625,-0.0312236328125,1.0085986328125005,1.0093986840852514,0.03759765625,0.34619140625,-0.05615234375,47.91823529411765,512.0200866798058
0.0174775390625,-0.0307353515625,1.0090869140625005,1.009706158414185,0.02978515625,0.3046875,-0.0703125,48.01235294117648,512.0200866798058
0.0086884765625,-0.0278056640625,0.9998095703125,1.0002338833829814,0.02001953125,0.27978515625,-0.068359375,48.20058823529412,512.0200866798058
0.0086884765625,-0.0292705078125,0.9924853515625,0.9929548959135648,0.03271484375,0.25244140625,-0.08203125,48.15352941176471,512.0200866798058
0.0052705078125,-0.0219462890625,0.9841845703125,0.98444333828688,0.0078125,0.232421875,-0.0830078125,48.29470588235294,511.7031210649743
0.0062470703125,-0.0165751953125,0.9880908203125,0.9882495799002224,0.0322265625,0.20458984375,-0.06787109375,48.1064705882353,511.7031210649743
-0.0010771484374999,-0.0170634765625,0.9885791015625,0.9887269403264356,0.03369140625,0.14404296875,-0.07421875,48.20058823529412,511.7031210649743
0.0018525390625,-0.0199931640625,0.9939501953125,0.994152980819333,0.06103515625,0.107421875,-0.05859375,48.34176470588236,511.7031210649743
-0.0010771484374999,-0.0209697265625,0.9988330078125,0.9990536858330628,0.07373046875,0.09716796875,-0.08544921875,47.96529411764706,511.7579564614628
0.0003876953125,-0.0258525390625,0.9973681640625,0.9977032418354844,0.05419921875,0.11474609375,-0.0732421875,48.43588235294118,511.7579564614628
-0.0005888671874999,-0.0243876953125,0.9963916015625,0.9966901876267787,0.07861328125,0.14453125,-0.09765625,48.15352941176471,511.7579564614628
-0.0069365234375,-0.0258525390625,1.0002978515625005,1.0006559153744763,0.07958984375,0.19970703125,-0.06787109375,48.20058823529412,511.7579564614628
-0.0088896484375,-0.0263408203125,1.0129931640625005,1.0133745680159103,0.0751953125,0.275390625,-0.05126953125,48.43588235294118,511.7579564614628
-0.0127958984375,-0.0268291015625,1.0154345703125005,1.015869530152965,0.1025390625,0.3515625,-0.0068359375,48.15352941176471,511.9658319151823
-0.0132841796875,-0.0238994140625,1.0222705078125005,1.0226361242229456,0.10986328125,0.34716796875,0.0029296875,47.96529411764706,511.9658319151823
-0.0030302734374999,-0.0278056640625,1.0286181640625005,1.028998379469264,0.09716796875,0.34619140625,0.0,48.20058823529412,511.9658319151823
0.0042939453125,-0.0331767578125,1.0271533203125005,1.0276979510801263,0.09765625,0.42041015625,-0.02490234375,48.01235294117648,511.9658319151823
0.0086884765625,-0.0341533203125,1.0374072265625005,1.0380056322763591,0.111328125,0.52197265625,-0.04248046875,48.1064705882353,511.9440524842434
0.0111298828125,-0.0380595703125,1.0300830078125005,1.030845967236541,0.10302734375,0.591796875,-0.02392578125,47.96529411764706,511.9440524842434
0.0096650390625,-0.0395244140625,1.0325244140625005,1.033325823698495,0.1025390625,0.66748046875,-0.0146484375,48.1064705882353,511.9440524842434
0.0125947265625,-0.0351298828125,1.0374072265625005,1.0380782675346318,0.08740234375,0.7255859375,0.013671875,48.1064705882353,511.9440524842434
0.0174775390625,-0.0380595703125,1.0295947265625005,1.030446163673466,0.06689453125,0.7705078125,0.01611328125,47.96529411764706,511.9440524842434
0.0238251953125,-0.0414775390625,1.0261767578125005,1.0272909833406183,0.0732421875,0.81005859375,0.02490234375,48.15352941176471,511.9440524842434
0.0291962890625,-0.0409892578125,1.0198291015625005,1.021069997083852,0.041015625,0.8798828125,0.02978515625,48.1064705882353,511.9440524842434
0.0306611328125,-0.0390361328125,1.0271533203125005,1.0283520156830026,0.04345703125,0.86669921875,0.04833984375,48.01235294117648,511.9440524842434
0.0233369140625,-0.0400126953125,1.0159228515625005,1.0169783024583237,0.03857421875,0.85302734375,0.08447265625,48.29470588235294,511.9440524842434
0.0262666015625,-0.0375712890625,1.0110400390625005,1.0120787996529534,0.07373046875,0.81982421875,0.138671875,48.20058823529412,512.2281605956115
0.0311494140625,-0.0405009765625,1.0085986328125005,1.0098919829418382,0.04638671875,0.78271484375,0.1796875,48.1064705882353,512.2281605956115
0.0306611328125,-0.0409892578125,1.0066455078125005,1.007946130862385,0.07763671875,0.75244140625,0.2236328125,47.96529411764706,512.2281605956115
0.0272431640625,-0.0439189453125,1.0042041015625005,1.005533162725351,0.083984375,0.73779296875,0.27783203125,48.20058823529412,512.2281605956115
0.0223603515625,-0.0405009765625,1.0076220703125005,1.0086835732802255,0.09912109375,0.72509765625,0.33642578125,48.1064705882353,512.2281605956115
0.0130830078125,-0.0405009765625,1.0144580078125005,1.0153504536911604,0.10888671875,0.70849609375,0.3876953125,48.1064705882353,511.85654582984887
0.0038056640625,-0.0326884765625,1.0120166015625005,1.0125515401287215,0.1220703125,0.71923828125,0.4453125,48.15352941176471,511.85654582984887
0.0038056640625,-0.0292705078125,1.0085986328125005,1.009030449400712,0.1298828125,0.66796875,0.47705078125,48.48294117647059,511.85654582984887
0.0042939453125,-0.0278056640625,1.0071337890625005,1.0075267053491397,0.13916015625,0.6826171875,0.505859375,48.15352941176471,511.85654582984887
0.0018525390625,-0.0273173828125,1.0144580078125005,1.0148274340594117,0.16064453125,0.68994140625,0.53271484375,48.15352941176471,512.16262680402
0.0047822265625,-0.0297587890625,1.0095751953125005,1.010025014644506,0.16943359375,0.6787109375,0.53662109375,48.20058823529412,512.16262680402
-0.0001005859374999,-0.0229228515625,1.0081103515625005,1.00837093778468,0.173828125,0.6982421875,0.5576171875,48.1064705882353,512.16262680402
-0.0049833984375,-0.0209697265625,1.0120166015625005,1.012246099291178,0.18115234375,0.7177734375,0.5849609375,48.15352941176471,512.16262680402
-0.0127958984375,-0.0209697265625,1.0095751953125005,1.009874021568632,0.16796875,0.7216796875,0.5888671875,48.29470588235294,512.16262680402
-0.0147490234375,-0.0204814453125,1.0188525390625005,1.0191651091204763,0.15673828125,0.73046875,0.61767578125,48.43588235294118,511.867435549416
-0.0152373046875,-0.0180400390625,1.0193408203125005,1.019614302772807,0.18505859375,0.71435546875,0.5,48.01235294117648,511.867435549416
-0.0137724609375,-0.0195048828125,1.0085986328125005,1.0088812235565934,0.1904296875,0.6865234375,0.65869140625,48.15352941176471,511.867435549416
-0.0167021484375,-0.0185283203125,1.0144580078125005,1.0147646574605058,0.193359375,0.70166015625,0.671875,48.1064705882353,511.867435549416
-0.0176787109375,-0.0234111328125,1.0066455078125005,1.007072885326113,0.1904296875,0.705078125,0.69287109375,48.20058823529412,511.9878060841752
-0.0196318359375,-0.0214580078125,0.9983447265625,0.998768265483396,0.1953125,0.70947265625,0.69580078125,48.1064705882353,511.9878060841752
-0.0230498046875,-0.0204814453125,1.0120166015625005,1.012486239381224,0.18359375,0.6875,0.68896484375,48.1064705882353,511.9878060841752
-0.0313505859375,-0.0160869140625,1.0110400390625005,1.0116538976498737,0.169921875,0.6689453125,0.71484375,48.1064705882353,511.9878060841752
-0.0293974609375,-0.0126689453124999,1.0139697265625005,1.0144748982947458,0.17822265625,0.60498046875,0.74462890625,48.29470588235294,511.9878060841752
-0.0210966796875,-0.0116923828124999,1.0032275390625005,1.0035174521865933,0.18896484375,0.60791015625,0.75244140625,47.96529411764706,512.0313649792523
-0.0196318359375,-0.0195048828125,0.9988330078125,0.9992163063779396,0.16796875,0.62890625,0.69189453125,48.15352941176471,512.0313649792523
-0.0323271484375,-0.0258525390625,1.0012744140625005,1.0021296575584826,0.12744140625,0.65625,0.63916015625,48.1064705882353,512.0313649792523
-0.0474638671875,-0.0170634765625,1.0168994140625005,1.0181494974911336,0.1103515625,0.5791015625,0.59765625,48.15352941176471,512.0313649792523
-0.0508818359375,-0.0121806640624999,1.0188525390625005,1.0201949941846793,0.0771484375,0.509765625,0.6259765625,48.15352941176471,511.8019030641127
-0.0411162109375,-0.0102275390624999,1.0046923828125005,1.0055853665594938,0.0830078125,0.52978515625,0.65478515625,47.96529411764706,511.8019030641127
-0.0230498046875,-0.0092509765624999,0.9998095703125,1.0001180185117944,0.0771484375,0.57177734375,0.705078125,48.1064705882353,511.8019030641127
-0.0181669921875,-0.0102275390624999,1.0017626953125005,1.0019796105112024,0.08349609375,0.595703125,0.7109375,48.01235294117648,511.8019030641127
-0.0220732421875,-0.0043681640624999,1.0051806640625005,1.0054324822100558,0.1083984375,0.564453125,0.7216796875,48.01235294117648,511.8019030641127
-0.0289091796875,-0.0107158203124999,1.0061572265625005,1.006629491937881,0.10986328125,0.54638671875,0.7333984375,48.20058823529412,512.1517370760461
-0.0401396484375,-0.0107158203124999,1.0115283203125005,1.0123811352331116,0.10107421875,0.544921875,0.73486328125,48.34176470588236,512.1517370760461
-0.0391630859375,-0.0121806640624999,1.0076220703125005,1.0084564207034434,0.099609375,0.552734375,0.7451171875,48.15352941176471,512.1517370760461
-0.0362333984375,-0.0063212890624999,1.0066455078125005,1.0073172272213102,0.0947265625,0.54931640625,0.72802734375,48.1064705882353,512.1517370760461
-0.0396513671875,-0.0082744140624999,1.0076220703125005,1.0084358846395565,0.09765625,0.49560546875,0.72119140625,48.01235294117648,512.1408473618752
-0.0420927734375,-0.0038798828124999,1.0071337890625005,1.0080204978757563,0.0966796875,0.48681640625,0.716796875,48.34176470588236,512.1408473618752
-0.0406279296875,-0.0063212890624999,1.0056689453125005,1.006509123124108,0.095703125,0.46826171875,0.720703125,48.15352941176471,512.1408473618752
-0.0401396484375,-0.0072978515624999,1.0081103515625005,1.0089355435019534,0.06005859375,0.47607421875,0.671875,48.20058823529412,512.1408473618752
-0.0430693359375,-0.0087626953124999,0.9968798828125,0.9978483117606106,0.04736328125,0.44580078125,0.6640625,48.20058823529412,512.1408473618752
-0.0440458984375,-0.0033916015624999,1.0042041015625005,1.0051753188997796,0.05517578125,0.42431640625,0.666015625,48.20058823529412,511.8676300067296
-0.0508818359375,-0.0033916015624999,1.0056689453125005,1.0069610179920006,0.06982421875,0.41845703125,0.6572265625,48.15352941176471,511.8676300067296
-0.0508818359375,-0.0058330078124999,1.0081103515625005,1.009410454738794,0.04345703125,0.421875,0.66064453125,47.91823529411765,511.8676300067296
-0.0484404296875,-0.0033916015624999,1.0090869140625005,1.0102546106411237,0.0546875,0.4189453125,0.67041015625,48.34176470588236,511.8676300067296
-0.0494169921875,-0.0048564453124999,0.9998095703125,1.0010418577993625,0.0615234375,0.38818359375,0.67431640625,48.1064705882353,512.0642290000437
-0.0547880859375,0.0005146484375,1.0022509765625005,1.0037474877897303,0.07958984375,0.38818359375,0.67919921875,48.15352941176471,512.0642290000437
-0.0538115234375,0.0019794921875,1.0042041015625005,1.005646794873296,0.06787109375,0.39794921875,0.68212890625,48.1064705882353,512.0642290000437
-0.0533232421875,2.6367187500001e-05,1.0100634765625005,1.0114700171226727,0.07861328125,0.39208984375,0.69775390625,48.15352941176471,512.0642290000437
-0.0547880859375,0.0024677734375,1.0081103515625005,1.0096010623973717,0.0908203125,0.353515625,0.71142578125,47.96529411764706,512.0642290000437
-0.0503935546875,0.0029560546875,1.0032275390625005,1.0044967614416471,0.0830078125,0.345703125,0.70458984375,48.1064705882353,512.0860084917783
-0.0464873046875,-0.0019267578124999,1.0027392578125005,1.003818111537713,0.0791015625,0.3564453125,0.67578125,48.01235294117648,512.0860084917783
-0.0455107421875,2.6367187500001e-05,1.0051806640625005,1.0062104132609715,0.04736328125,0.34716796875,0.63525390625,48.34176470588236,512.0860084917783
-0.0450224609375,-0.0033916015624999,1.0081103515625005,1.00912090746228,0.05517578125,0.3271484375,0.6083984375,48.20058823529412,512.0860084917783
-0.0430693359375,-0.0043681640624999,1.0095751953125005,1.0105029062529445,0.02978515625,0.326171875,0.5908203125,48.29470588235294,511.94385800519706
-0.0416044921875,-0.0024150390624999,1.0081103515625005,1.008971380719652,0.017578125,0.33740234375,0.5712890625,48.29470588235294,511.94385800519706
-0.0406279296875,2.6367187500001e-05,1.0066455078125005,1.00746504046791,0.0244140625,0.3203125,0.5654296875,48.01235294117648,511.94385800519706
-0.0357451171875,0.0029560546875,1.0115283203125005,1.012164015590503,0.021484375,0.3173828125,0.57958984375,48.15352941176471,511.94385800519706
-0.0450224609375,0.0034443359375,1.0159228515625005,1.0169258211717318,0.02001953125,0.31005859375,0.57080078125,48.20058823529412,511.94385800519706
-0.0474638671875,0.0005146484375,1.0066455078125005,1.007763991195604,0.01611328125,0.28955078125,0.5595703125,48.1064705882353,511.8787145226031
-0.0464873046875,-0.0009501953124999,1.0178759765625005,1.0189374249831558,0.02978515625,0.27197265625,0.5615234375,48.1064705882353,511.8787145226031
-0.0474638671875,0.0014912109375,1.0115283203125005,1.012642377738894,0.02294921875,0.26513671875,0.5478515625,48.29470588235294,511.8787145226031
-0.0503935546875,0.0005146484375,1.0095751953125005,1.0108322562162968,0.00830078125,0.310546875,0.52587890625,48.34176470588236,511.8787145226031
-0.0484404296875,0.0049091796875,1.0115283203125005,1.0126994213821503,0.015625,0.31201171875,0.5029296875,48.15352941176471,511.7361769479511
-0.0503935546875,0.0005146484375,1.0149462890625005,1.0161967058098529,0.02734375,0.306640625,0.51513671875,48.34176470588236,511.7361769479511
-0.0538115234375,0.0058857421875,1.0149462890625005,1.0163888486684134,0.029296875,0.31640625,0.50146484375,48.1064705882353,511.7361769479511
-0.0513701171875,0.0068623046875,1.0066455078125005,1.0079787490639711,0.0234375,0.318359375,0.505859375,48.1064705882353,511.7361769479511
-0.0538115234375,0.0034443359375,1.0046923828125005,1.0061383242806003,0.0380859375,0.3232421875,0.5087890625,48.15352941176471,511.7361769479511
-0.0557646484375,-0.0004619140624999,1.0076220703125005,1.009164082773861,0.02734375,0.3154296875,0.49609375,48.29470588235294,512.0428405552519
-0.0513701171875,2.6367187500001e-05,1.0032275390625005,1.0045418780561048,0.02978515625,0.3232421875,0.49169921875,48.1064705882353,512.0428405552519
-0.0562529296875,0.0019794921875,1.0090869140625005,1.010655584568713,0.02783203125,0.32421875,0.47021484375,47.82411764705883,512.0428405552519
-0.0513701171875,0.0039326171875,1.0154345703125005,1.016740734407515,0.0,0.33203125,0.46728515625,48.1064705882353,512.0428405552519
-0.0513701171875,0.0053974609375,1.0100634765625005,1.0113833339589662,0.0244140625,0.3359375,0.45654296875,48.43588235294118,511.7361769479511
-0.0484404296875,0.0034443359375,1.0100634765625005,1.0112302237195467,0.03076171875,0.34521484375,0.42626953125,48.1064705882353,511.7361769479511
-0.0499052734375,2.6367187500001e-05,1.0066455078125005,1.007881796348752,0.01708984375,0.3408203125,0.43603515625,48.1064705882353,511.7361769479511
-0.0528349609375,0.0034443359375,1.0115283203125005,1.0129130956511252,0.04150390625,0.357421875,0.43359375,48.1064705882353,511.7361769479511
-0.0513701171875,0.0053974609375,1.0110400390625005,1.0123586232713837,0.01904296875,0.36083984375,0.4296875,47.96529411764706,511.7361769479511
-0.0489287109375,0.0058857421875,1.0144580078125005,1.0156543262006077,0.02783203125,0.38525390625,0.42578125,48.29470588235294,511.71439748962734
-0.0518583984375,0.0073505859375,1.0134814453125005,1.0148339591257487,0.041015625,0.3935546875,0.40771484375,48.1064705882353,511.71439748962734
-0.0499052734375,0.0024677734375,1.0046923828125005,1.0059340983901828,0.0419921875,0.39111328125,0.37353515625,48.29470588235294,511.71439748962734
-0.0660185546875,0.0049091796875,1.0076220703125005,1.0097944276876754,0.03271484375,0.388671875,0.3828125,48.34176470588236,511.71439748962734
-0.0699248046875,0.0044208984375,1.0154345703125005,1.0178489029513722,0.00830078125,0.36669921875,0.4169921875,48.01235294117648,511.9769163949051
-0.0635771484375,0.0107685546875,1.0120166015625005,1.014068842540591,0.00732421875,0.3115234375,0.44140625,48.1064705882353,511.9769163949051
-0.0523466796875,0.0083271484375,1.0164111328125005,1.0177922711342409,0.052734375,0.31494140625,0.43994140625,47.96529411764706,511.9769163949051
-0.0499052734375,0.0014912109375,1.0071337890625005,1.0083705812340624,0.10986328125,0.38427734375,0.40380859375,48.1064705882353,511.9769163949051
-0.0528349609375,-0.0053447265624999,0.9949267578125,0.996342989442184,0.0771484375,0.41552734375,0.34423828125,48.1064705882353,511.9769163949051
-0.0630888671875,-0.0043681640624999,1.0139697265625005,1.0159399059026624,0.064453125,0.40966796875,0.31689453125,48.01235294117648,511.8347664321142
-0.0665068359375,0.0024677734375,1.0217822265625005,1.0239473461322008,0.0556640625,0.35693359375,0.30615234375,48.01235294117648,511.8347664321142
-0.0572294921875,-0.0029033203124999,1.0120166015625005,1.013637630459223,0.07373046875,0.3515625,0.36376953125,48.29470588235294,511.8347664321142
-0.0469755859375,-0.0033916015624999,0.9924853515625,0.9936022250888276,0.06689453125,0.40283203125,0.36572265625,48.43588235294118,511.8347664321142
-0.0308623046875,-0.0038798828124999,1.0007861328125005,1.001269403792537,0.087890625,0.447265625,0.373046875,48.15352941176471,511.9111887802054
-0.0342802734375,0.0014912109375,1.0071337890625005,1.007718130197328,0.10205078125,0.4296875,0.3837890625,48.29470588235294,511.9111887802054
-0.0416044921875,-0.0009501953124999,1.0115283203125005,1.012384007892035,0.10595703125,0.4130859375,0.392578125,48.20058823529412,511.9111887802054
-0.0513701171875,-0.0029033203124999,1.0110400390625005,1.0123483979323504,0.130859375,0.40673828125,0.3662109375,48.20058823529412,511.9111887802054
-0.0538115234375,0.0014912109375,1.0134814453125005,1.014910116097696,0.1103515625,0.39208984375,0.3955078125,48.29470588235294,511.9111887802054
-0.0591826171875,0.0005146484375,1.0198291015625005,1.0215450276096267,0.1064453125,0.3662109375,0.3857421875,47.96529411764706,511.670838738568
-0.0582060546875,-0.0024150390624999,1.0212939453125005,1.022954104516879,0.10107421875,0.3310546875,0.373046875,48.48294117647059,511.670838738568
-0.0582060546875,-0.0009501953124999,1.0203173828125005,1.0219767166343694,0.09521484375,0.2939453125,0.33447265625,48.29470588235294,511.670838738568
-0.0582060546875,2.6367187500001e-05,1.0110400390625005,1.0127141285106152,0.0947265625,0.2587890625,0.27294921875,48.15352941176471,511.670838738568
-0.0577177734375,0.0010029296875,1.0173876953125005,1.0190240771502024,0.0546875,0.24560546875,0.255859375,48.1064705882353,511.9111887802054
-0.0567412109375,0.0019794921875,1.0183642578125005,1.019945706887371,0.04833984375,0.228515625,0.2294921875,48.15352941176471,511.9111887802054
-0.0552763671875,0.0049091796875,1.0188525390625005,1.0203627164732916,0.0380859375,0.2265625,0.21533203125,48.15352941176471,511.9111887802054
-0.0557646484375,0.0088154296875,1.0154345703125005,1.0170028389349095,0.048828125,0.216796875,0.2216796875,48.1064705882353,511.9111887802054
-0.0484404296875,0.0049091796875,1.0105517578125005,1.0117239892833658,0.0751953125,0.21240234375,0.24755859375,48.29470588235294,511.9111887802054
-0.0391630859375,0.0039326171875,1.0037158203125005,1.004487262599027,0.07373046875,0.19775390625,0.2578125,48.20058823529412,511.76923401311103
-0.0313505859375,0.0039326171875,0.9973681640625,0.997868518093426,0.078125,0.2080078125,0.2890625,48.20058823529412,511.76923401311103
-0.0386748046875,0.0014912109375,0.9983447265625,0.9990946688291502,0.06201171875,0.22265625,0.2958984375,48.29470588235294,511.76923401311103
-0.0372099609375,0.0093037109375,1.0002978515625005,1.0010329325605292,0.07666015625,0.23681640625,0.28857421875,48.29470588235294,511.76923401311103
-0.0411162109375,0.0073505859375,1.0042041015625005,1.0050723613304815,0.07666015625,0.24365234375,0.30810546875,48.29470588235294,511.791207802228
-0.0445341796875,0.0127216796875,1.0081103515625005,1.0091737289594778,0.08544921875,0.2548828125,0.30615234375,48.1064705882353,511.791207802228
-0.0494169921875,0.0136982421875,1.0247119140625005,1.0259942435401477,0.078125,0.23974609375,0.32763671875,48.29470588235294,511.791207802228
-0.0469755859375,0.0073505859375,1.0286181640625005,1.0297164970160986,0.10107421875,0.2509765625,0.326171875,48.15352941176471,511.791207802228
-0.0411162109375,0.0088154296875,1.0335009765625005,1.0343560910818257,0.06494140625,0.4443359375,0.31494140625,47.96529411764706,511.791207802228
-0.0357451171875,0.0141865234375,1.0789111328125005,1.0795963149977603,-0.00341796875,1.14111328125,0.16845703125,47.96529411764706,511.9006889563639
-0.0235380859375,0.0093037109375,1.0593798828125005,1.0596821866175898,0.07275390625,2.2158203125,0.05029296875,48.15352941176471,511.9006889563639
0.0145478515625,0.0122333984375,0.8953173828125001,0.8955191298842476,-0.04736328125,0.43701171875,0.1865234375,48.1064705882353,511.9006889563639
-0.0396513671875,0.0283466796875,1.0051806640625005,1.0063617304797876,0.123046875,-0.16650390625,0.12548828125,48.34176470588236,511.9006889563639
-0.0176787109375,0.0503193359375,1.0193408203125005,1.020735166605405,0.0869140625,-0.05029296875,0.169921875,48.01235294117648,511.62689264239305
-0.0230498046875,0.0552021484375,1.0457080078125005,1.0474176856877278,0.08935546875,0.0673828125,0.07470703125,48.1064705882353,511.62689264239305
-0.0372099609375,0.0659443359375,1.0837939453125005,1.086435710261423,0.12841796875,0.1611328125,0.07421875,48.1064705882353,511.62689264239305
-0.0635771484375,0.0752216796875,1.1043017578125005,1.1086851343849753,0.1708984375,0.2509765625,0.15576171875,48.20058823529412,511.62689264239305
-0.0855498046875,0.0918232421875,1.1072314453125005,1.1143212061056282,0.125,0.30078125,0.30029296875,48.1064705882353,511.62689264239305
-0.1021513671875,0.0996357421875,1.1003955078125005,1.1096091458497717,0.28466796875,0.26806640625,0.42041015625,48.1064705882353,511.8129870895722
-0.1016630859375,0.0986591796875,1.0681689453125005,1.0775221169465456,0.328125,0.28564453125,0.42431640625,48.1064705882353,511.8129870895722
-0.0909208984375,0.0898701171875,1.0452197265625005,1.053008796037035,0.31640625,0.34765625,0.3408203125,48.1064705882353,511.8129870895722
-0.0904326171875,0.0810810546875,1.0349658203125005,1.0420683494357483,0.2568359375,0.49609375,0.1826171875,48.48294117647059,511.8129870895722
-0.0909208984375,0.0698505859375,1.0095751953125005,1.016064854779835,0.16552734375,0.67529296875,0.025390625,48.15352941176471,511.8131818503527
-0.0967802734375,0.0532490234375,0.9753955078125,0.9816304174609146,0.0986328125,0.97314453125,-0.06982421875,48.1064705882353,511.8131818503527
-0.1045927734375,0.0420185546875,0.9622119140625,0.9687915022114896,0.05810546875,1.1787109375,-0.0146484375,48.1064705882353,511.8131818503527
-0.1211943359375,0.0254169921875,0.9529345703125,0.960946609261857,0.05908203125,1.37060546875,0.23388671875,47.96529411764706,511.8131818503527
-0.1294951171875,0.0151630859375,0.9387744140625,0.947784946624994,0.09130859375,1.46044921875,0.51708984375,48.1064705882353,511.8131818503527
-0.1153349609375,0.0073505859375,0.9338916015625,0.9410152537536522,0.18310546875,1.44775390625,0.779296875,48.1064705882353,512.3162590340993
-0.1060576171875,0.0083271484375,0.9192431640625,0.9253786004875124,0.2001953125,1.43212890625,1.029296875,48.20058823529412,512.3162590340993
-0.0894560546875,0.0078388671875,0.9251025390625,0.9294506664363208,0.19775390625,1.41162109375,1.2314453125,48.34176470588236,512.3162590340993
-0.0806669921875,0.0034443359375,0.9255908203125,0.9291056956694408,0.1416015625,1.38720703125,1.37158203125,48.01235294117648,512.3162590340993
-0.0577177734375,0.0005146484375,0.9304736328125,0.9322621882243686,0.08251953125,1.22021484375,1.490234375,48.29470588235294,512.1517370760461
-0.0567412109375,-0.0082744140624999,0.9407275390625,0.9424735188308048,0.01123046875,0.98876953125,1.576171875,47.96529411764706,512.1517370760461
-0.0440458984375,-0.0136455078124999,0.9519580078125,0.9530741260211462,-0.01904296875,0.76513671875,1.64990234375,48.43588235294118,512.1517370760461
-0.0523466796875,-0.0155986328124999,0.9592822265625,0.9608360330559176,-0.1083984375,0.58251953125,1.71923828125,48.43588235294118,512.1517370760461
-0.0538115234375,-0.0146220703124999,0.9705126953125,0.9721133559197824,-0.15869140625,0.4755859375,1.79931640625,48.29470588235294,512.1517370760461
-0.0723662109375,-0.0033916015624999,0.9797900390625,0.9824647027210214,-0.181640625,0.4267578125,1.9345703125,48.1064705882353,512.1412390475244
-0.0811552734375,0.0058857421875,0.9934619140625,0.9967885407951576,-0.18505859375,0.45703125,2.07080078125,48.29470588235294,512.1412390475244
-0.0967802734375,0.0073505859375,1.0027392578125005,1.0074256655449203,-0.14208984375,0.517578125,2.1640625,48.1064705882353,512.1412390475244
-0.1065458984375,0.0068623046875,1.0115283203125005,1.017147316023449,-0.1171875,0.583984375,2.1533203125,47.96529411764706,512.1412390475244
-0.1251005859375,0.0097919921875,1.0354541015625005,1.0430298347389255,-0.173828125,0.5419921875,2.0771484375,48.20058823529412,512.2285522033661
-0.1343779296875,0.0254169921875,1.0598681640625005,1.06865521880173,-0.189453125,0.46826171875,2.05126953125,48.1064705882353,512.2285522033661
-0.1197294921875,0.0405537109375,1.0603564453125005,1.067864947400204,-0.2529296875,0.39990234375,2.0634765625,48.29470588235294,512.2285522033661
-0.0992216796875,0.0498310546875,1.0520556640625005,1.057898480959901,-0.216796875,0.466796875,2.08251953125,47.58882352941177,512.2285522033661
-0.0738310546875,0.0537373046875,1.0574267578125005,1.0613623654008095,-0.21875,0.56982421875,2.162109375,48.01235294117648,512.2285522033661
-0.0699248046875,0.0566669921875,1.0535205078125005,1.0573580692914164,-0.1982421875,0.5869140625,2.19873046875,48.20058823529412,511.7583443570402
-0.0723662109375,0.0517841796875,1.0427783203125005,1.0465682467307698,-0.1650390625,0.61865234375,2.13525390625,48.29470588235294,511.7583443570402
-0.0743193359375,0.0552021484375,1.0388720703125005,1.0429888874583886,-0.15576171875,0.68603515625,2.06005859375,48.43588235294118,511.7583443570402
-0.0772490234375,0.0615498046875,1.0198291015625005,1.0246009889088012,-0.14013671875,0.7158203125,1.984375,47.82411764705883,511.7583443570402
-0.0728544921875,0.0498310546875,1.0125048828125005,1.016344945755289,-0.16259765625,0.697265625,1.8408203125,47.96529411764706,511.5286920046975
-0.0616240234375,0.0527607421875,1.0100634765625005,1.0133160626706388,-0.1865234375,0.63623046875,1.6826171875,48.43588235294118,511.5286920046975
-0.0469755859375,0.0600849609375,1.0105517578125005,1.0134257562460935,-0.18408203125,0.58154296875,1.47998046875,48.1064705882353,511.5286920046975
-0.0464873046875,0.0664326171875,1.0037158203125005,1.006985506384816,-0.1982421875,0.494140625,1.287109375,48.1064705882353,511.5286920046975
-0.0450224609375,0.0708271484375,1.0046923828125005,1.0081915944036213,-0.16943359375,0.41552734375,1.138671875,48.20058823529412,511.5286920046975
-0.0435576171875,0.0796162109375,1.0076220703125005,1.0117006689925367,-0.14453125,0.33056640625,1.03466796875,48.29470588235294,511.70370180912863
-0.0425810546875,0.0791279296875,0.9919970703125,0.9960585138351628,-0.10888671875,0.23583984375,0.87353515625,48.01235294117648,511.70370180912863
-0.0313505859375,0.0786396484375,0.9919970703125,0.9956029535179078,-0.09912109375,0.216796875,0.7255859375,48.34176470588236,511.70370180912863
-0.0259794921875,0.0713154296875,0.9851611328125,0.9880806050774612,-0.09228515625,0.24755859375,0.59814453125,48.20058823529412,511.70370180912863
-0.0230498046875,0.0654560546875,0.9685595703125,0.971042444919541,-0.09375,0.2880859375,0.47705078125,48.1064705882353,511.6601433560365
-0.0303740234375,0.0503193359375,0.9758837890625,0.9776521808004904,-0.0703125,0.31103515625,0.39404296875,47.96529411764706,511.6601433560365
-0.0376982421875,0.0371357421875,0.9724658203125,0.9739045089165096,-0.09326171875,0.2744140625,0.322265625,47.82411764705883,511.6601433560365
-0.0499052734375,0.0244404296875,0.9597705078125,0.9613778126141904,-0.11865234375,0.2177734375,0.24658203125,48.34176470588236,511.6601433560365
-0.0572294921875,0.0068623046875,0.9578173828125,0.9595501262672266,-0.12939453125,0.1552734375,0.16162109375,48.01235294117648,511.6601433560365
-0.0665068359375,-0.0024150390624999,0.9592822265625,0.9615879480519702,-0.171875,0.09033203125,0.16796875,47.96529411764706,511.63816982016186
-0.0796904296875,-0.0185283203125,0.9524462890625,0.9559538674990068,-0.173828125,0.04833984375,0.1865234375,48.43588235294118,511.63816982016186
-0.0772490234375,-0.0199931640625,0.9612353515625,0.964541621354289,-0.18798828125,-0.02880859375,0.16845703125,48.1064705882353,511.63816982016186
-0.0835966796875,-0.0331767578125,0.9661181640625,0.9702955266542352,-0.203125,-0.09814453125,0.177734375,48.29470588235294,511.63816982016186
-0.0958037109375,-0.0341533203125,0.9763720703125,0.9816553468524896,-0.2197265625,-0.1640625,0.1689453125,48.01235294117648,512.0650122843618
-0.0850615234375,-0.0439189453125,0.9851611328125,0.9898013912554776,-0.236328125,-0.24462890625,0.1640625,48.1064705882353,512.0650122843618
-0.0816435546875,-0.0512431640625,0.9939501953125,0.9986132998548056,-0.28466796875,-0.25439453125,0.103515625,48.15352941176471,512.0650122843618
-0.0933623046875,-0.0502666015625,1.0076220703125005,1.013185811068263,-0.32177734375,-0.23828125,0.06396484375,48.15352941176471,512.0650122843618
-0.1084990234375,-0.0527080078125,1.0286181640625005,1.0356666933013547,-0.33056640625,-0.22900390625,0.03515625,48.20058823529412,512.0650122843618
-0.1207060546875,-0.0590556640625,1.0364306640625005,1.0451057575695963,-0.36474609375,-0.25634765625,-0.013671875,48.1064705882353,511.7365650862981
-0.1285185546875,-0.0585673828125,1.0476611328125005,1.0571381207933244,-0.40185546875,-0.236328125,-0.0439453125,48.1064705882353,511.7365650862981
-0.1172880859375,-0.0546611328125,1.0437548828125005,1.0517454967520252,-0.4208984375,-0.18212890625,-0.03125,48.34176470588236,511.7365650862981
-0.1036162109375,-0.0488017578125,1.0437548828125005,1.0500200884409645,-0.40234375,-0.140625,-0.0146484375,47.96529411764706,511.7365650862981
-0.0953154296875,-0.0468486328125,1.0335009765625005,1.038943739616614,-0.3828125,-0.091796875,-0.0146484375,47.96529411764706,511.9006889563639
-0.0904326171875,-0.0409892578125,1.0242236328125005,1.0290248915935103,-0.390625,-0.06396484375,0.0029296875,48.29470588235294,511.9006889563639
-0.0933623046875,-0.0361064453125,1.0178759765625005,1.0227862430599708,-0.36181640625,0.0576171875,0.03564453125,48.20058823529412,511.9006889563639
-0.0865263671875,-0.0346416015625,1.0105517578125005,1.0148407303589146,-0.357421875,0.23486328125,0.10107421875,47.96529411764706,511.9006889563639
-0.0875029296875,-0.0380595703125,0.9910205078125,0.9956038069941342,-0.32177734375,0.36572265625,0.1337890625,48.01235294117648,511.9006889563639
-0.0865263671875,-0.0375712890625,0.9856494140625,0.9901531100906736,-0.33935546875,0.55224609375,0.1318359375,48.15352941176471,511.7805131221108
-0.0728544921875,-0.0448955078125,0.9929736328125,0.996654413081332,-0.34814453125,0.66064453125,0.0498046875,48.1064705882353,511.7805131221108
-0.0782255859375,-0.0424541015625,0.9910205078125,0.9950091657566223,-0.3447265625,0.69482421875,0.0029296875,48.1064705882353,511.7805131221108
-0.0806669921875,-0.0424541015625,0.9924853515625,0.9966627751823566,-0.35498046875,0.6142578125,0.01611328125,48.34176470588236,511.7805131221108
-0.0875029296875,-0.0400126953125,0.9851611328125,0.9898485925102256,-0.34228515625,0.52490234375,0.052734375,48.01235294117648,512.0976808143524
-0.0821318359375,-0.0356181640625,0.9978564453125,1.0018641512387525,-0.33935546875,0.4970703125,0.04345703125,48.01235294117648,512.0976808143524
-0.0665068359375,-0.0365947265625,0.9905322265625,0.9934366739241438,-0.35400390625,0.4501953125,0.11181640625,48.20058823529412,512.0976808143524
-0.0591826171875,-0.0375712890625,0.9846728515625,0.9871650361227372,-0.33056640625,0.333984375,0.1953125,48.20058823529412,512.0976808143524
-0.0425810546875,-0.0380595703125,0.9880908203125,0.9897399387195108,-0.2998046875,0.22021484375,0.24658203125,48.43588235294118,512.0976808143524
-0.0357451171875,-0.0468486328125,1.0007861328125005,1.0025195217196263,-0.28515625,0.24755859375,0.26123046875,48.1064705882353,512.1307430619426
-0.0420927734375,-0.0483134765625,1.0037158203125005,1.0057591369402574,-0.2880859375,0.0810546875,0.27490234375,48.15352941176471,512.1307430619426
-0.0420927734375,-0.0536845703125,1.0076220703125005,1.0099287456281991,-0.2734375,0.01416015625,0.25244140625,48.1064705882353,512.1307430619426
-0.0435576171875,-0.0614970703125,1.0105517578125005,1.0133577901659452,-0.2998046875,-0.04833984375,0.18798828125,48.15352941176471,512.1307430619426
-0.0469755859375,-0.0629619140625,1.0046923828125005,1.0077587471106588,-0.3330078125,-0.0869140625,0.1357421875,48.1064705882353,511.91197010423525
-0.0518583984375,-0.0634501953125,0.9963916015625,0.9997556923758828,-0.3486328125,-0.08154296875,0.119140625,48.20058823529412,511.91197010423525
-0.0479521484375,-0.0595439453125,0.9988330078125,1.0017545944286534,-0.36083984375,-0.11474609375,0.16162109375,47.91823529411765,511.91197010423525
-0.0450224609375,-0.0717509765625,0.9895556640625,0.9931745248971686,-0.3720703125,-0.0869140625,0.17529296875,48.01235294117648,511.91197010423525
-0.0542998046875,-0.0849345703125,0.9856494140625,0.99079115734095,-0.37548828125,-0.10009765625,0.1728515625,48.20058823529412,511.91197010423525
-0.0733427734375,-0.0951884765625,0.9900439453125,0.9973098927293036,-0.4404296875,-0.16455078125,0.1455078125,48.20058823529412,512.3277417467225
-0.1001982421875,-0.0922587890625,0.9915087890625,1.0008201889874768,-0.47412109375,-0.24365234375,0.1611328125,48.43588235294118,512.3277417467225
-0.0933623046875,-0.0849345703125,0.9876025390625,0.995635061824074,-0.48828125,-0.28125,0.24072265625,48.1064705882353,512.3277417467225
-0.0762724609375,-0.0810283203125,0.9851611328125,0.991426010650586,-0.48193359375,-0.2783203125,0.36181640625,48.15352941176471,512.3277417467225
-0.0533232421875,-0.0820048828125,0.9827197265625,0.987575936289232,-0.4609375,-0.3017578125,0.50244140625,48.1064705882353,512.4588116919402
-0.0533232421875,-0.0839580078125,0.9822314453125,0.9872542364527556,-0.4345703125,-0.33984375,0.58251953125,47.96529411764706,512.4588116919402
-0.0435576171875,-0.0795634765625,0.9885791015625,0.9927317124298408,-0.435546875,-0.36669921875,0.6630859375,48.20058823529412,512.4588116919402
-0.0376982421875,-0.0844462890625,0.9978564453125,1.0021326352595017,-0.43212890625,-0.44287109375,0.7158203125,48.1064705882353,512.4588116919402
-0.0411162109375,-0.0868876953125,1.0027392578125005,1.0073361075415388,-0.4111328125,-0.5458984375,0.79638671875,48.29470588235294,512.4588116919402
-0.0435576171875,-0.0810283203125,1.0120166015625005,1.0161891834426453,-0.3564453125,-0.60791015625,0.876953125,48.29470588235294,511.9557243321104
-0.0528349609375,-0.0839580078125,1.0090869140625005,1.0139511232329157,-0.33740234375,-0.63134765625,0.955078125,48.20058823529412,511.9557243321104
-0.0591826171875,-0.0868876953125,1.0242236328125005,1.0296048289443458,-0.318359375,-0.61669921875,1.02099609375,48.29470588235294,511.9557243321104
-0.0752958984375,-0.0893291015625,1.0281298828125005,1.0347464504116548,-0.33544921875,-0.58251953125,1.05810546875,48.29470588235294,511.9557243321104
-0.0733427734375,-0.0961650390625,1.0305712890625005,1.0376435124807268,-0.3046875,-0.55615234375,1.00830078125,48.34176470588236,511.9230559761148
-0.0835966796875,-0.1044658203125,1.0222705078125005,1.0309890899575829,-0.31298828125,-0.49267578125,0.98974609375,48.29470588235294,511.9230559761148
-0.0909208984375,-0.1083720703125,1.0188525390625005,1.028626079657036,-0.3232421875,-0.3583984375,0.98193359375,47.96529411764706,511.9230559761148
-0.0855498046875,-0.1122783203125,1.0159228515625005,1.0256824219129173,-0.30029296875,-0.25439453125,1.00439453125,48.15352941176471,511.9230559761148
-0.0801787109375,-0.1142314453125,1.0232470703125005,1.0327206861920104,-0.287109375,-0.189453125,0.99609375,48.1064705882353,511.9230559761148
-0.0894560546875,-0.1152080078125,1.0188525390625005,1.029240383554047,-0.25927734375,-0.08447265625,0.96630859375,47.82411764705883,512.2511195912726
-0.0933623046875,-0.1235087890625,1.0217822265625005,1.033445624806292,-0.22802734375,0.0478515625,0.9208984375,47.82411764705883,512.2511195912726
-0.0967802734375,-0.1200908203125,1.0256884765625005,1.0372198790049625,-0.220703125,0.16064453125,0.86328125,48.20058823529412,512.2511195912726
-0.1026396484375,-0.1239970703125,1.0208056640625005,1.033418779904613,-0.212890625,0.25927734375,0.81884765625,48.1064705882353,512.2511195912726
-0.0904326171875,-0.1196025390625,1.0237353515625005,1.0346578640499349,-0.1796875,0.3525390625,0.822265625,48.1064705882353,511.7587340389455
-0.0840849609375,-0.1191142578125,1.0217822265625005,1.0321324554479934,-0.10546875,0.455078125,0.80419921875,48.01235294117648,511.7587340389455
-0.0596708984375,-0.1171611328125,1.0369189453125005,1.0452216254509064,-0.09423828125,0.49853515625,0.7216796875,48.1064705882353,511.7587340389455
-0.0533232421875,-0.1113017578125,1.0466845703125005,1.0539355004836883,-0.1044921875,0.509765625,0.60400390625,47.91823529411765,511.7587340389455
-0.0479521484375,-0.1015361328125,1.0457080078125005,1.0517196548555503,-0.07861328125,0.5419921875,0.4716796875,48.20058823529412,511.7587340389455
-0.0577177734375,-0.0956767578125,1.0569384765625005,1.0628284558640464,-0.07763671875,0.62255859375,0.37060546875,48.01235294117648,511.8791055487723
-0.0606474609375,-0.0849345703125,1.0584033203125005,1.063536357724013,-0.0703125,0.69580078125,0.21435546875,48.29470588235294,511.8791055487723
-0.0660185546875,-0.0795634765625,1.0535205078125005,1.0585812471167464,-0.03759765625,0.7802734375,0.1298828125,48.34176470588236,511.8791055487723
-0.0645537109375,-0.0732158203125,1.0388720703125005,1.0434476107669302,-0.021484375,0.78759765625,0.01220703125,48.1064705882353,511.8791055487723
-0.0640654296875,-0.0766337890625,1.0335009765625005,1.038316611377648,0.04150390625,0.81640625,-0.04443359375,48.1064705882353,511.769819023756
-0.0630888671875,-0.0898173828125,1.0237353515625005,1.0296025628644705,0.06982421875,0.82666015625,-0.11669921875,48.29470588235294,511.769819023756
-0.0743193359375,-0.1025126953125,1.0154345703125005,1.0232983841383492,0.0712890625,0.82080078125,-0.166015625,48.29470588235294,511.769819023756
-0.0860380859375,-0.1034892578125,1.0144580078125005,1.0233462895468364,0.06884765625,0.82275390625,-0.27099609375,48.1064705882353,511.769819023756
-0.0875029296875,-0.1132548828125,1.0042041015625005,1.0143516691856511,0.08544921875,0.84716796875,-0.345703125,47.96529411764706,511.769819023756
-0.0943388671875,-0.1156962890625,0.9963916015625,1.007512618694842,0.05517578125,0.88134765625,-0.3564453125,48.15352941176471,511.7917937884719
-0.0987333984375,-0.1225322265625,0.9998095703125,1.0121173881530976,0.05810546875,0.86083984375,-0.31689453125,48.43588235294118,511.7917937884719
-0.1006865234375,-0.1279033203125,1.0002978515625005,1.0134558831983986,0.06884765625,0.8662109375,-0.25341796875,48.20058823529412,511.7917937884719
-0.0982451171875,-0.1288798828125,1.0002978515625005,1.0133399819830968,0.083984375,0.86279296875,-0.22021484375,48.1064705882353,511.7917937884719
-0.0914091796875,-0.1318095703125,1.0012744140625005,1.0140413468953378,0.078125,0.8525390625,-0.22705078125,48.15352941176471,512.0760986574284
-0.0904326171875,-0.1308330078125,1.0012744140625005,1.0138272961608648,0.05517578125,0.8359375,-0.26220703125,48.29470588235294,512.0760986574284
-0.0875029296875,-0.1347392578125,1.0071337890625005,1.019867589136525,0.0439453125,0.7744140625,-0.298828125,48.43588235294118,512.0760986574284
-0.0972685546875,-0.1313212890625,1.0046923828125005,1.0178964764520464,0.02880859375,0.75,-0.3662109375,48.1064705882353,512.0760986574284
-0.0889677734375,-0.1279033203125,1.0252001953125005,1.0369715350607156,0.0224609375,0.927734375,-0.46240234375,48.43588235294118,512.0760986574284
-0.0860380859375,-0.1191142578125,1.0256884765625005,1.0361600308828331,0.00341796875,0.9189453125,-0.46826171875,48.1064705882353,512.3057647011526
-0.0875029296875,-0.1171611328125,1.0310595703125005,1.041377612241977,0.037109375,0.85986328125,-0.49658203125,48.15352941176471,512.3057647011526
-0.0928740234375,-0.1156962890625,1.0261767578125005,1.0368461572513437,0.04541015625,0.84521484375,-0.49462890625,48.29470588235294,512.3057647011526
-0.1026396484375,-0.1127666015625,1.0208056640625005,1.0321314875738514,0.0712890625,0.908203125,-0.49951171875,48.1064705882353,512.3057647011526
-0.1036162109375,-0.1098369140625,1.0159228515625005,1.0270831062707144,0.08056640625,0.98828125,-0.490234375,48.1064705882353,511.8026832431677
-0.1104521484375,-0.1127666015625,1.0095751953125005,1.0218405249904157,0.0859375,1.0146484375,-0.49365234375,48.15352941176471,511.8026832431677
-0.1163115234375,-0.1064189453125,1.0012744140625005,1.0136093007968998,0.1015625,1.0556640625,-0.48681640625,48.48294117647059,511.8026832431677
-0.1138701171875,-0.1059306640625,0.9983447265625,1.0103860164472638,0.099609375,1.12744140625,-0.4560546875,48.29470588235294,511.8026832431677
-0.1124052734375,-0.1073955078125,0.9988330078125,1.0108590990294493,0.12255859375,1.17431640625,-0.4462890625,48.1064705882353,511.8026832431677
-0.1094755859375,-0.1073955078125,1.0017626953125005,1.013433370643788,0.09716796875,1.22265625,-0.3798828125,48.20058823529412,511.57302711219023
-0.1084990234375,-0.0966533203125,0.9915087890625,1.002099586469582,0.1171875,1.1875,-0.28515625,47.96529411764706,511.57302711219023
-0.0904326171875,-0.1015361328125,0.9876025390625,0.9969184619017724,0.134765625,1.146484375,-0.208984375,48.34176470588236,511.57302711219023
-0.0845732421875,-0.1030009765625,0.9768603515625,0.9859097225008716,0.15966796875,1.0888671875,-0.17626953125,48.15352941176471,511.57302711219023
-0.1001982421875,-0.1103251953125,0.9836962890625,0.9949219695903492,0.15380859375,0.98193359375,-0.16162109375,48.43588235294118,512.0216516178888
-0.1177763671875,-0.1064189453125,0.9890673828125,1.0017237904396992,0.15087890625,0.880859375,-0.12841796875,48.34176470588236,512.0216516178888
-0.1182646484375,-0.1054423828125,0.9905322265625,1.00312447633486,0.13916015625,0.79052734375,-0.05224609375,48.15352941176471,512.0216516178888
-0.1045927734375,-0.0995830078125,0.9890673828125,0.9995552568237042,0.126953125,0.75732421875,-0.03564453125,48.29470588235294,512.0216516178888
-0.0899443359375,-0.1010478515625,0.9783251953125,0.987633960359746,0.12158203125,0.75390625,-0.02880859375,48.34176470588236,512.0216516178888
-0.0811552734375,-0.0976298828125,0.9866259765625,0.9947605692087944,0.103515625,0.71728515625,-0.0048828125,48.29470588235294,511.89038774430304
-0.0943388671875,-0.0971416015625,0.9822314453125,0.9915215200776184,0.1083984375,0.66455078125,0.02294921875,48.15352941176471,511.89038774430304
-0.1143583984375,-0.0981181640625,0.9954150390625,1.0067552420543855,0.111328125,0.6103515625,0.087890625,48.34176470588236,511.89038774430304
-0.1202177734375,-0.0976298828125,0.9949267578125,1.006907721928651,0.09619140625,0.55078125,0.14697265625,48.20058823529412,511.89038774430304
-0.1255888671875,-0.0927470703125,0.9968798828125,1.0090312598573223,0.11474609375,0.51416015625,0.19873046875,48.29470588235294,511.9452287368821
-0.1133818359375,-0.0878642578125,1.0051806640625005,1.0153638441103905,0.1474609375,0.45263671875,0.23193359375,48.1064705882353,511.9452287368821
-0.1158232421875,-0.0780986328125,1.0027392578125005,1.0124230533904144,0.15625,0.396484375,0.29052734375,48.29470588235294,511.9452287368821
-0.1133818359375,-0.0654033203125,0.9968798828125,1.0054364901796242,0.158203125,0.35302734375,0.34033203125,48.29470588235294,511.9452287368821
-0.1158232421875,-0.0610087890625,0.9944384765625,1.0030179357527176,0.177734375,0.26416015625,0.4013671875,48.1064705882353,511.9452287368821
-0.1172880859375,-0.0610087890625,0.9939501953125,1.0027041229632558,0.20458984375,0.20458984375,0.4267578125,48.20058823529412,511.7917937884719
-0.1119169921875,-0.0614970703125,0.9910205078125,0.9992141660836594,0.224609375,0.1630859375,0.400390625,48.1064705882353,511.7917937884719
-0.1128935546875,-0.0610087890625,0.9963916015625,1.0046209487648243,0.228515625,0.1318359375,0.38037109375,48.1064705882353,511.7917937884719
-0.1153349609375,-0.0522197265625,0.9885791015625,0.9966532461708216,0.20849609375,0.1083984375,0.3759765625,48.29470588235294,511.7917937884719
-0.1124052734375,-0.0483134765625,0.9851611328125,0.9927293665035416,0.23828125,0.12939453125,0.37646484375,48.34176470588236,511.78110063018
-0.1167998046875,-0.0488017578125,0.9885791015625,0.9966506137994136,0.23388671875,0.12060546875,0.3916015625,48.29470588235294,511.78110063018
-0.1231474609375,-0.0463603515625,0.9851611328125,0.9939099742616332,0.26123046875,0.13427734375,0.359375,48.20058823529412,511.78110063018
-0.1246123046875,-0.0488017578125,0.9900439453125,0.9990479726695116,0.25341796875,0.1044921875,0.33056640625,48.29470588235294,511.78110063018
-0.1236357421875,-0.0439189453125,0.9934619140625,1.0020884418035878,0.26220703125,0.146484375,0.306640625,48.48294117647059,511.78110063018
-0.1202177734375,-0.0409892578125,0.9988330078125,1.006876263401842,0.2529296875,0.1416015625,0.31494140625,48.1064705882353,511.7484325723583
-0.1128935546875,-0.0458720703125,0.9959033203125,1.0033307654677976,0.37451171875,0.12646484375,0.322265625,48.15352941176471,511.7484325723583
-0.1163115234375,-0.0473369140625,0.9968798828125,1.004758008016645,0.267578125,0.12841796875,0.314453125,48.34176470588236,511.7484325723583
-0.1075224609375,-0.0492900390625,0.9968798828125,1.003872545850868,0.27490234375,0.10693359375,0.2958984375,48.29470588235294,511.7484325723583
-0.1138701171875,-0.0463603515625,1.0007861328125005,1.0083097586630276,0.2783203125,0.0869140625,0.28759765625,48.20058823529412,511.7591255071784
-0.1158232421875,-0.0444072265625,1.0017626953125005,1.0094134548942584,0.27294921875,0.07373046875,0.29638671875,48.1064705882353,511.7591255071784
-0.1128935546875,-0.0380595703125,1.0037158203125005,1.0107615611646237,0.2646484375,0.0859375,0.28662109375,48.1064705882353,511.7591255071784
-0.1114287109375,-0.0370830078125,0.9998095703125,1.0066830106732114,0.24951171875,0.07177734375,0.27685546875,48.48294117647059,511.7591255071784
-0.1153349609375,-0.0322001953125,1.0017626953125005,1.008894198373835,0.24462890625,0.07470703125,0.2802734375,48.34176470588236,511.7591255071784
-0.1124052734375,-0.0346416015625,1.0017626953125005,1.0086443792413358,0.23974609375,0.0869140625,0.28369140625,48.1064705882353,512.0654066060814
-0.1124052734375,-0.0356181640625,0.9988330078125,1.0057688484952734,0.23974609375,0.07861328125,0.2470703125,48.15352941176471,512.0654066060814
-0.1163115234375,-0.0317119140625,1.0037158203125005,1.010929999517007,0.24560546875,0.09912109375,0.2294921875,48.29470588235294,512.0654066060814
-0.1172880859375,-0.0336650390625,1.0027392578125005,1.010136549737869,0.22412109375,0.07421875,0.1943359375,48.29470588235294,512.0654066060814
-0.1197294921875,-0.0297587890625,0.9998095703125,1.0073926313580068,0.22802734375,0.072265625,0.18115234375,48.1064705882353,511.9885892815229
-0.1143583984375,-0.0253642578125,0.9988330078125,1.005678162417448,0.22509765625,0.0732421875,0.16015625,47.96529411764706,511.9885892815229
-0.1138701171875,-0.0258525390625,1.0007861328125005,1.007575129205794,0.2216796875,0.0673828125,0.1611328125,48.1064705882353,511.9885892815229
-0.1089873046875,-0.0278056640625,0.9983447265625,1.0046609281703731,0.2333984375,0.0791015625,0.1455078125,48.01235294117648,511.9885892815229
-0.1128935546875,-0.0238994140625,0.9988330078125,1.0054767596410552,0.21484375,0.08056640625,0.125,48.34176470588236,511.9885892815229
-0.1128935546875,-0.0238994140625,0.9993212890625,1.0059618161024042,0.23486328125,0.09326171875,0.10546875,48.1064705882353,511.95592098341086
-0.1124052734375,-0.0248759765625,0.9963916015625,1.0030204301861358,0.2333984375,0.0859375,0.0927734375,48.15352941176471,511.95592098341086
-0.1172880859375,-0.0258525390625,0.9973681640625,1.004573592906096,0.22119140625,0.08447265625,0.06787109375,47.91823529411765,511.95592098341086
-0.1109404296875,-0.0282939453125,1.0027392578125005,1.0092543512113077,0.2431640625,0.1015625,0.04296875,48.34176470588236,511.95592098341086
-0.1109404296875,-0.0282939453125,1.0032275390625005,1.0097394819526442,0.22705078125,0.0869140625,0.02099609375,48.20058823529412,512.1089641881262
-0.1084990234375,-0.0307353515625,1.0037158203125005,1.0100307658027834,0.185546875,0.10595703125,-0.00390625,48.1064705882353,512.1089641881262
-0.1045927734375,-0.0326884765625,1.0071337890625005,1.0130778123257431,0.1982421875,0.09814453125,-0.0458984375,48.01235294117648,512.1089641881262
-0.1031279296875,-0.0282939453125,1.0032275390625005,1.008911003189269,0.17431640625,0.0576171875,-0.03857421875,48.15352941176471,512.1089641881262
-0.1045927734375,-0.0307353515625,1.0100634765625005,1.0159293955667112,0.17333984375,0.08251953125,-0.03955078125,48.34176470588236,512.1089641881262
-0.0987333984375,-0.0287822265625,1.0090869140625005,1.0143141035522936,0.1708984375,0.04931640625,-0.03759765625,48.15352941176471,511.9228595893265
-0.0982451171875,-0.0292705078125,1.0056689453125005,1.0108802566302024,0.15283203125,0.06884765625,-0.03271484375,48.1064705882353,511.9228595893265
-0.0977568359375,-0.0302470703125,1.0076220703125005,1.012804779222457,0.15673828125,0.0556640625,-0.0634765625,48.43588235294118,511.9228595893265
-0.0923857421875,-0.0302470703125,0.9959033203125,1.0006365144404268,0.140625,0.07275390625,-0.12255859375,48.1064705882353,511.9228595893265
-0.0914091796875,-0.0336650390625,0.9939501953125,0.9987121525985244,0.11572265625,0.060546875,-0.15576171875,48.1064705882353,511.9232528094826
-0.1075224609375,-0.0287822265625,1.0017626953125005,1.0079275737332103,0.1064453125,0.109375,-0.1845703125,48.1064705882353,511.9232528094826
-0.0977568359375,-0.0214580078125,0.9993212890625,1.0043206080955072,0.11181640625,0.1181640625,-0.146484375,48.43588235294118,511.9232528094826
-0.0855498046875,-0.0234111328125,0.9963916015625,1.0003314820027998,0.1162109375,0.1552734375,-0.1640625,48.01235294117648,511.9232528094826
-0.0953154296875,-0.0287822265625,1.0076220703125005,1.0125293498379475,0.11767578125,0.1630859375,-0.19580078125,48.1064705882353,511.9232528094826
-0.1133818359375,-0.0336650390625,1.0110400390625005,1.0179345441447305,0.10107421875,0.181640625,-0.2333984375,48.20058823529412,512.2511195912726
-0.1231474609375,-0.0356181640625,1.0188525390625005,1.0268858004182548,0.10205078125,0.13916015625,-0.267578125,48.01235294117648,512.2511195912726
-0.1104521484375,-0.0263408203125,1.0134814453125005,1.0198226100170114,0.10009765625,0.17431640625,-0.27880859375,48.20058823529412,512.2511195912726
-0.0997099609375,-0.0253642578125,1.0100634765625005,1.015289933255551,0.06494140625,0.2470703125,-0.29150390625,48.1064705882353,512.2511195912726
-0.0904326171875,-0.0204814453125,1.0129931640625005,1.017227948048433,0.0673828125,0.2919921875,-0.2978515625,48.1064705882353,512.0325409981924
-0.0943388671875,-0.0229228515625,1.0178759765625005,1.0224953704780482,0.08154296875,0.32861328125,-0.30029296875,48.1064705882353,512.0325409981924
-0.0933623046875,-0.0234111328125,1.0129931640625005,1.0175557731709264,0.09814453125,0.35546875,-0.30615234375,48.43588235294118,512.0325409981924
-0.0958037109375,-0.0248759765625,1.0129931640625005,1.0178174274773888,0.10302734375,0.36181640625,-0.302734375,48.20058823529412,512.0325409981924
-0.0958037109375,-0.0238994140625,1.0154345703125005,1.0202239458117317,0.0849609375,0.3056640625,-0.30224609375,48.29470588235294,512.0325409981924
-0.1070341796875,-0.0229228515625,1.0125048828125005,1.0184045907517736,0.12109375,0.39404296875,-0.29833984375,48.29470588235294,511.89038774430304
-0.1041044921875,-0.0278056640625,1.0227587890625005,1.028419389574198,0.1328125,0.47119140625,-0.31884765625,47.96529411764706,511.89038774430304
-0.1060576171875,-0.0297587890625,1.0168994140625005,1.0228480933211015,0.1064453125,0.466796875,-0.3447265625,47.54176470588236,511.89038774430304
-0.1050810546875,-0.0282939453125,1.0139697265625005,1.019792715104798,0.0966796875,0.43798828125,-0.36328125,48.20058823529412,511.89038774430304
-0.1119169921875,-0.0361064453125,1.0081103515625005,1.0149460918989095,0.07763671875,0.46533203125,-0.3818359375,48.1064705882353,511.9557243321104
-0.1026396484375,-0.0356181640625,1.0046923828125005,1.0105495213615294,0.07666015625,0.484375,-0.39306640625,48.1064705882353,511.9557243321104
-0.0997099609375,-0.0351298828125,1.0042041015625005,1.0097534662339744,0.0693359375,0.4619140625,-0.39306640625,48.1064705882353,511.9557243321104
-0.0943388671875,-0.0351298828125,1.0051806640625005,1.0102089377617731,0.06982421875,0.62451171875,-0.408203125,48.20058823529412,511.9557243321104
-0.0914091796875,-0.0385478515625,1.0046923828125005,1.0095783075485951,0.06298828125,0.51025390625,-0.4033203125,48.15352941176471,511.9557243321104
-0.0977568359375,-0.0419658203125,1.0061572265625005,1.011765730597234,0.0517578125,0.5361328125,-0.4052734375,48.1064705882353,511.95592098341086
-0.0948271484375,-0.0434306640625,1.0012744140625005,1.00669203976087,0.0810546875,0.5166015625,-0.39453125,48.20058823529412,511.95592098341086
-0.0997099609375,-0.0439189453125,1.0061572265625005,1.0120391863122014,0.0458984375,0.38037109375,-0.3984375,48.20058823529412,511.95592098341086
-0.1050810546875,-0.0429423828125,1.0002978515625005,1.0067183658483672,0.0419921875,0.5224609375,-0.39208984375,48.29470588235294,511.95592098341086
-0.1060576171875,-0.0448955078125,1.0061572265625005,1.0127271050728202,0.03173828125,0.52978515625,-0.38525390625,48.15352941176471,511.8139653593034
-0.1094755859375,-0.0458720703125,1.0066455078125005,1.0136194202708433,0.04052734375,0.5224609375,-0.36328125,48.29470588235294,511.8139653593034
-0.1016630859375,-0.0478251953125,1.0061572265625005,1.0124104883459857,0.033203125,0.5390625,-0.35498046875,48.1064705882353,511.8139653593034
-0.0938505859375,-0.0483134765625,0.9963916015625,1.001967239066553,0.0361328125,0.5380859375,-0.36962890625,48.1064705882353,511.8139653593034
-0.0918974609375,-0.0522197265625,0.9968798828125,1.0024677271240632,0.02880859375,0.5751953125,-0.34912109375,48.15352941176471,511.8139653593034
-0.0967802734375,-0.0546611328125,0.9978564453125,1.0040277616772764,0.01708984375,0.56640625,-0.33935546875,48.01235294117648,511.8246582337903
-0.0977568359375,-0.0556376953125,0.9988330078125,1.0051464219744126,0.01416015625,0.57373046875,-0.3271484375,47.96529411764706,511.8246582337903
-0.0933623046875,-0.0536845703125,1.0017626953125005,1.0075351362339502,0.01416015625,0.57275390625,-0.3203125,48.20058823529412,511.8246582337903
-0.0928740234375,-0.0571025390625,0.9983447265625,1.0042800790875055,0.03125,0.54638671875,-0.296875,48.15352941176471,511.8246582337903
-0.0928740234375,-0.0546611328125,0.9978564453125,1.0036587612936547,0.0341796875,0.55419921875,-0.2880859375,48.29470588235294,511.6714227084354
-0.0943388671875,-0.0541728515625,0.9895556640625,0.9955174192282168,0.02001953125,0.5302734375,-0.25634765625,48.15352941176471,511.6714227084354
-0.0977568359375,-0.0566142578125,0.9988330078125,1.0052009503855124,0.01513671875,0.54150390625,-0.21630859375,48.1064705882353,511.6714227084354
-0.0987333984375,-0.0546611328125,0.9939501953125,1.0003365004682778,0.0478515625,0.52294921875,-0.18408203125,48.20058823529412,511.6714227084354
-0.1006865234375,-0.0561259765625,1.0042041015625005,1.0107985847051693,0.0185546875,0.50830078125,-0.1650390625,48.1064705882353,511.6714227084354
-0.0997099609375,-0.0600322265625,0.9998095703125,1.0065610371083689,0.0361328125,0.48388671875,-0.1181640625,47.96529411764706,511.9670074395124
-0.1041044921875,-0.0585673828125,1.0037158203125005,1.0107983634576772,0.05029296875,0.4814453125,-0.072265625,48.1064705882353,511.9670074395124
-0.1036162109375,-0.0541728515625,1.0027392578125005,1.0095330782960117,0.04345703125,0.4560546875,-0.0400390625,48.1064705882353,511.9670074395124
-0.0953154296875,-0.0546611328125,1.0037158203125005,1.0097119978104914,0.04248046875,0.431640625,0.00927734375,48.34176470588236,511.9670074395124
-0.0967802734375,-0.0575908203125,0.9983447265625,1.0046767226158158,0.05712890625,0.42919921875,0.04296875,48.34176470588236,512.0764937509515
-0.1021513671875,-0.0575908203125,1.0051806640625005,1.0119979109700137,0.0546875,0.4453125,0.0400390625,48.1064705882353,512.0764937509515
-0.1084990234375,-0.0629619140625,1.0100634765625005,1.017823396957856,0.037109375,0.41064453125,0.07861328125,47.35352941176471,512.0764937509515
-0.1124052734375,-0.0556376953125,1.0051806640625005,1.012975155688122,0.03076171875,0.3818359375,0.1376953125,47.96529411764706,512.0764937509515
-0.1124052734375,-0.0561259765625,1.0144580078125005,1.0222084524971218,0.02783203125,0.4052734375,0.162109375,48.43588235294118,512.0764937509515
-0.1080107421875,-0.0571025390625,1.0061572265625005,1.0135479194193149,0.0205078125,0.25048828125,0.16259765625,48.1064705882353,512.1200511454244
-0.1163115234375,-0.0600322265625,0.9978564453125,1.0064043542046617,0.02783203125,0.390625,0.16748046875,48.43588235294118,512.1200511454244
-0.1109404296875,-0.0556376953125,0.9998095703125,1.007483254931515,0.013671875,0.39599609375,0.21044921875,48.1064705882353,512.1200511454244
-0.1153349609375,-0.0546611328125,1.0022509765625005,1.0103449968576506,0.01220703125,0.38623046875,0.2451171875,48.1064705882353,512.1200511454244
-0.1167998046875,-0.0507548828125,1.0095751953125005,1.0175757109397914,0.029296875,0.39599609375,0.26708984375,47.96529411764706,511.7484325723583
-0.1192412109375,-0.0556376953125,1.0095751953125005,1.0181139889598811,0.01171875,0.3603515625,0.26123046875,48.15352941176471,511.7484325723583
-0.1138701171875,-0.0561259765625,1.0076220703125005,1.015587891526006,-0.00927734375,0.33544921875,0.21484375,47.96529411764706,511.7484325723583
-0.1177763671875,-0.0541728515625,1.0105517578125005,1.0188330705921516,-0.0048828125,0.33447265625,0.1806640625,48.34176470588236,511.7484325723583
-0.1236357421875,-0.0512431640625,0.9954150390625,1.0043718228829346,-0.0126953125,0.31689453125,0.208984375,48.15352941176471,511.7484325723583
-0.1182646484375,-0.0458720703125,0.9973681640625,1.0054024212175952,0.0126953125,0.3740234375,0.29736328125,48.15352941176471,511.8577196366701
-0.0987333984375,-0.0439189453125,0.9983447265625,1.0041759560851542,0.01318359375,0.39306640625,0.38427734375,48.29470588235294,511.8577196366701
-0.0801787109375,-0.0488017578125,0.9924853515625,0.9969139432866452,0.05859375,0.375,0.39892578125,48.29470588235294,511.8577196366701
-0.0826201171875,-0.0595439453125,0.9866259765625,0.9918681277344086,0.05322265625,0.3818359375,0.3193359375,48.15352941176471,511.8577196366701
-0.1143583984375,-0.0707744140625,0.9949267578125,1.0039751562615349,0.01123046875,0.3466796875,0.24169921875,48.1064705882353,511.8577196366701
-0.1421904296875,-0.0673564453125,0.9934619140625,1.0058437173401134,-0.02099609375,0.32666015625,0.23291015625,48.29470588235294,511.8577196366701
-0.1465849609375,-0.0590556640625,0.9968798828125,1.0093286001036408,-0.00927734375,0.31591796875,0.32421875,48.1064705882353,511.8577196366701
-0.1231474609375,-0.0541728515625,0.9880908203125,0.997207833988279,-0.00244140625,0.33056640625,0.38330078125,48.1064705882353,511.8577196366701
-0.1041044921875,-0.0580791015625,0.9856494140625,0.9928321584103096,-0.0048828125,0.35595703125,0.41650390625,48.29470588235294,511.8577196366701
-0.0982451171875,-0.0590556640625,0.9846728515625,0.9913225000539804,0.0107421875,0.32177734375,0.43603515625,48.48294117647059,511.7044823867868
-0.1089873046875,-0.0600322265625,0.9832080078125,0.9910499923998398,0.00732421875,0.29443359375,0.43701171875,48.1064705882353,511.7044823867868
-0.1109404296875,-0.0585673828125,0.9871142578125,0.9950540061953804,0.02392578125,0.322265625,0.4755859375,48.34176470588236,511.7044823867868
-0.1153349609375,-0.0610087890625,0.9851611328125,0.9937638970911228,0.02197265625,0.2958984375,0.4951171875,48.1064705882353,511.7044823867868
-0.1231474609375,-0.0619853515625,0.9876025390625,0.9971791494542878,0.02294921875,0.31982421875,0.49609375,48.20058823529412,511.6391462465575
-0.1275419921875,-0.0614970703125,0.9983447265625,1.0083357786389064,0.01025390625,0.26025390625,0.4951171875,48.1064705882353,511.6391462465575
-0.1290068359375,-0.0624736328125,1.0022509765625005,1.0124488819371975,0.001953125,0.23974609375,0.4853515625,48.29470588235294,511.6391462465575
-0.1334013671875,-0.0585673828125,1.0051806640625005,1.0156841194496098,-0.0009765625,0.220703125,0.4609375,48.1064705882353,511.6391462465575
-0.1348662109375,-0.0590556640625,1.0056689453125005,1.01638894812786,-0.01025390625,0.19580078125,0.46728515625,48.01235294117648,511.6391462465575
-0.1368193359375,-0.0580791015625,1.0042041015625005,1.0151446154709358,-0.0234375,0.19140625,0.45654296875,48.01235294117648,512.1859818201036
-0.1397490234375,-0.0566142578125,1.0061572265625005,1.0173924160830656,-0.01611328125,0.1494140625,0.46533203125,48.1064705882353,512.1859818201036
-0.1314482421875,-0.0546611328125,1.0081103515625005,1.0181124499494136,-0.02001953125,0.13916015625,0.4375,48.1064705882353,512.1859818201036
-0.1290068359375,-0.0522197265625,1.0046923828125005,1.014286176403054,-0.01318359375,0.125,0.47216796875,48.43588235294118,512.1859818201036
-0.1285185546875,-0.0453837890625,0.9973681640625,1.0066379497585194,0.009765625,0.10302734375,0.45849609375,48.01235294117648,511.82524903283
-0.1309599609375,-0.0497783203125,0.9983447265625,1.0081272665675889,0.01123046875,0.12158203125,0.4599609375,48.43588235294118,511.82524903283
-0.1260771484375,-0.0546611328125,0.9910205078125,1.0005023406786326,0.01171875,0.09912109375,0.4375,48.15352941176471,511.82524903283
-0.1255888671875,-0.0473369140625,0.9944384765625,1.0034546480346511,0.01220703125,0.09130859375,0.44091796875,47.96529411764706,511.82524903283
-0.1304716796875,-0.0502666015625,0.9939501953125,1.00373631058903,0.0107421875,0.08837890625,0.4306640625,48.29470588235294,511.82524903283
-0.1304716796875,-0.0448955078125,1.0017626953125005,1.0112205316062295,0.01708984375,0.083984375,0.4296875,48.48294117647059,511.81416235301566
-0.1280302734375,-0.0468486328125,1.0007861328125005,1.0100294198401751,0.0390625,0.0673828125,0.43701171875,48.29470588235294,511.81416235301566
-0.1290068359375,-0.0478251953125,0.9998095703125,1.0092319802274152,0.0546875,0.05126953125,0.419921875,48.34176470588236,511.81416235301566
-0.1221708984375,-0.0478251953125,1.0027392578125005,1.0112858136501612,0.0478515625,0.0283203125,0.40771484375,48.34176470588236,511.81416235301566
-0.1246123046875,-0.0444072265625,1.0071337890625005,1.015784769191728,0.033203125,0.0361328125,0.39794921875,48.1064705882353,511.9454263420537
-0.1285185546875,-0.0473369140625,1.0027392578125005,1.0120493177164285,0.03857421875,0.04052734375,0.39404296875,48.34176470588236,511.9454263420537
-0.1290068359375,-0.0419658203125,1.0105517578125005,1.0196169619082651,0.04931640625,0.0322265625,0.396484375,48.48294117647059,511.9454263420537
-0.1255888671875,-0.0380595703125,1.0125048828125005,1.020973668697174,0.06640625,0.041015625,0.38232421875,48.1064705882353,511.9454263420537
-0.1294951171875,-0.0444072265625,1.0066455078125005,1.0159114949371644,0.07421875,0.0498046875,0.384765625,48.1064705882353,511.9454263420537
-0.1280302734375,-0.0385478515625,1.0076220703125005,1.016454585486934,0.08544921875,0.08984375,0.4169921875,48.43588235294118,512.06560443683
-0.1304716796875,-0.0414775390625,1.0100634765625005,1.0192995007026555,0.07666015625,0.0869140625,0.38427734375,48.15352941176471,512.06560443683
-0.1319365234375,-0.0380595703125,1.0154345703125005,1.024677092402713,0.09765625,0.0849609375,0.37939453125,47.82411764705883,512.06560443683
-0.1338896484375,-0.0370830078125,1.0085986328125005,1.018122187921658,0.10302734375,0.10205078125,0.390625,48.1064705882353,512.06560443683
-0.1338896484375,-0.0356181640625,1.0081103515625005,1.0175861499142804,0.10693359375,0.146484375,0.36962890625,48.15352941176471,511.7375432473458
-0.1285185546875,-0.0336650390625,1.0115283203125005,1.0202156127742172,0.12158203125,0.14501953125,0.3662109375,48.1064705882353,511.7375432473458
-0.1294951171875,0.0918232421875,1.0100634765625005,1.0224620872515289,0.1201171875,0.15673828125,0.359375,48.20058823529412,511.7375432473458
-0.1294951171875,-0.0341533203125,1.0037158203125005,1.012610923607566,0.15673828125,0.1826171875,0.34375,48.15352941176471,511.7375432473458
-0.1221708984375,-0.0331767578125,1.0022509765625005,1.010214554292533,0.15673828125,0.208984375,0.34521484375,48.29470588235294,511.7375432473458
-0.1216826171875,-0.0341533203125,1.0017626953125005,1.0097037220559966,0.166015625,0.3740234375,0.330078125,48.29470588235294,511.6393428715799
-0.1216826171875,-0.0356181640625,1.0037158203125005,1.011692028673933,0.14697265625,0.26611328125,0.3046875,47.96529411764706,511.6393428715799
-0.1216826171875,-0.0390361328125,1.0002978515625005,1.0084276230008322,0.1630859375,0.28076171875,0.2734375,48.34176470588236,511.6393428715799
-0.1202177734375,-0.0375712890625,1.0032275390625005,1.011103065936153,0.14990234375,0.28955078125,0.23046875,48.15352941176471,511.6393428715799
-0.1172880859375,-0.0400126953125,1.0037158203125005,1.011337213215577,0.13232421875,0.32568359375,0.21484375,48.29470588235294,511.8688061289126
-0.1128935546875,-0.0400126953125,1.0022509765625005,1.0093824797848614,0.13916015625,0.3232421875,0.18017578125,48.15352941176471,511.8688061289126
-0.1138701171875,-0.0444072265625,1.0007861328125005,1.0082218451258969,0.111328125,0.33544921875,0.17578125,48.1064705882353,511.8688061289126
-0.1143583984375,-0.0468486328125,1.0037158203125005,1.0112952514647668,0.10546875,0.3466796875,0.16650390625,48.29470588235294,511.8688061289126
-0.1128935546875,-0.0492900390625,1.0032275390625005,1.0107620678350384,0.0908203125,0.35302734375,0.1552734375,48.20058823529412,511.8688061289126
-0.1114287109375,-0.0512431640625,0.9973681640625,1.0048808258543551,0.10107421875,0.36181640625,0.15869140625,48.34176470588236,511.8688061289126
-0.1094755859375,-0.0492900390625,0.9963916015625,1.0035988419340796,0.07421875,0.36279296875,0.123046875,48.1064705882353,511.8688061289126
-0.1094755859375,-0.0502666015625,1.0012744140625005,1.008494961517015,0.0771484375,0.3720703125,0.09814453125,48.29470588235294,511.8688061289126
-0.1167998046875,-0.0492900390625,1.0012744140625005,1.0092681281909304,0.0703125,0.3935546875,0.07763671875,48.01235294117648,511.8688061289126
-0.1182646484375,-0.0492900390625,1.0046923828125005,1.0128291164368686,0.029296875,0.38037109375,0.0556640625,47.96529411764706,511.6391462465575
-0.1221708984375,-0.0463603515625,1.0071337890625005,1.015575442639991,0.02392578125,0.365234375,0.0673828125,48.48294117647059,511.6391462465575
-0.1163115234375,-0.0385478515625,1.0105517578125005,1.0179534186603878,0.03857421875,0.3720703125,0.10009765625,48.34176470588236,511.6391462465575
-0.1104521484375,-0.0375712890625,0.9988330078125,1.0056235162087466,0.06787109375,0.38818359375,0.10009765625,48.29470588235294,511.6391462465575
-0.1128935546875,-0.0507548828125,0.9949267578125,1.0025967615300695,0.07373046875,0.43505859375,0.064453125,47.96529411764706,511.6391462465575
-0.1251005859375,-0.0512431640625,1.0012744140625005,1.0103595749639065,0.0380859375,0.44873046875,0.01708984375,47.96529411764706,511.7923837939752
-0.1382841796875,-0.0483134765625,1.0076220703125005,1.0182136037935503,0.046875,0.419921875,-0.00341796875,48.1064705882353,511.7923837939752
-0.1421904296875,-0.0370830078125,1.0046923828125005,1.0153817271571306,0.04345703125,0.42041015625,0.0458984375,48.1064705882353,511.7923837939752
-0.1319365234375,-0.0365947265625,1.0032275390625005,1.0125274886946816,0.06201171875,0.47216796875,0.076171875,48.1064705882353,511.7923837939752
-0.1182646484375,-0.0351298828125,1.0002978515625005,1.007877188737308,0.06884765625,0.52294921875,0.08642578125,48.20058823529412,511.82505165323073
-0.1163115234375,-0.0361064453125,0.9993212890625,1.0067149967349218,0.08203125,0.51220703125,0.11474609375,48.1064705882353,511.82505165323073
-0.1167998046875,-0.0365947265625,1.0061572265625005,1.0135747298305957,0.087890625,0.50439453125,0.12158203125,48.15352941176471,511.82505165323073
-0.1207060546875,-0.0390361328125,0.9963916015625,1.0044351621520728,0.1181640625,0.484375,0.12109375,48.43588235294118,511.82505165323073
-0.1241240234375,-0.0380595703125,0.9993212890625,1.0077193770391746,0.11572265625,0.501953125,0.1298828125,47.91823529411765,511.82505165323073
-0.1207060546875,-0.0424541015625,1.0051806640625005,1.0132918976202414,0.1396484375,0.51220703125,0.09521484375,48.29470588235294,511.6502321330912
-0.1241240234375,-0.0400126953125,1.0056689453125005,1.0140896491664042,0.13330078125,0.4912109375,0.10205078125,48.1064705882353,511.6502321330912
-0.1260771484375,-0.0409892578125,1.0081103515625005,1.0167900705364992,0.109375,0.45166015625,0.04638671875,47.96529411764706,511.6502321330912
-0.1290068359375,-0.0439189453125,1.0056689453125005,1.0148604165312214,0.10302734375,0.4384765625,0.00927734375,48.29470588235294,511.6502321330912
-0.1280302734375,-0.0434306640625,1.0100634765625005,1.0190712439191458,0.095703125,0.4404296875,-0.03173828125,48.48294117647059,511.8143597933073
-0.1251005859375,-0.0468486328125,1.0037158203125005,1.01256624422499,0.083984375,0.39404296875,-0.08740234375,48.20058823529412,511.8143597933073
-0.1299833984375,-0.0424541015625,1.0027392578125005,1.0120197892171896,0.0849609375,0.41015625,-0.09716796875,48.29470588235294,511.8143597933073
-0.1324248046875,-0.0444072265625,1.0051806640625005,1.0148381634884571,0.08935546875,0.4150390625,-0.12646484375,48.1064705882353,511.8143597933073
-0.1334013671875,-0.0409892578125,1.0032275390625005,1.0128877228779674,0.08837890625,0.4296875,-0.1044921875,48.1064705882353,511.8143597933073
-0.1338896484375,-0.0429423828125,1.0056689453125005,1.0154508918536087,0.08642578125,0.4072265625,-0.1005859375,48.1064705882353,511.78149453515465
-0.1246123046875,-0.0444072265625,1.0022509765625005,1.0109437413976057,0.1171875,0.41845703125,-0.0869140625,48.20058823529412,511.78149453515465
-0.1197294921875,-0.0405009765625,0.9915087890625,0.9995324703030802,0.1123046875,0.35205078125,-0.0810546875,48.1064705882353,511.78149453515465
-0.1246123046875,-0.0434306640625,0.9993212890625,1.0079967697537413,0.1298828125,0.37890625,-0.05322265625,48.01235294117648,511.78149453515465
-0.1202177734375,-0.0453837890625,0.9993212890625,1.0075490261686904,0.1279296875,0.32275390625,-0.017578125,48.1064705882353,511.81416235301566
-0.1290068359375,-0.0473369140625,1.0007861328125005,1.0101764354712324,0.11767578125,0.333984375,-0.009765625,48.29470588235294,511.81416235301566
-0.1260771484375,-0.0478251953125,1.0027392578125005,1.0117651485513692,0.1123046875,0.3359375,-0.03564453125,48.1064705882353,511.81416235301566
-0.1241240234375,-0.0580791015625,0.9959033203125,1.005287709385767,0.10693359375,0.341796875,-0.060546875,48.29470588235294,511.81416235301566
-0.1280302734375,-0.0575908203125,1.0027392578125005,1.012518875211278,0.109375,0.349609375,-0.08154296875,48.1064705882353,511.81416235301566
-0.1299833984375,-0.0575908203125,0.9939501953125,1.004066420718961,0.1044921875,0.3662109375,-0.0712890625,48.43588235294118,511.86900371233656
-0.1358427734375,-0.0551494140625,1.0022509765625005,1.012917438386325,0.09326171875,0.40234375,-0.05517578125,48.20058823529412,511.86900371233656
-0.1348662109375,-0.0649150390625,1.0134814453125005,1.0244742540160972,0.111328125,0.41845703125,-0.01806640625,48.43588235294118,511.86900371233656
-0.1270537109375,-0.0571025390625,0.9963916015625,1.0060812934821213,0.09716796875,0.39794921875,0.0322265625,48.20058823529412,511.86900371233656
-0.1285185546875,-0.0571025390625,1.0027392578125005,1.0125530791147257,0.07763671875,0.34423828125,0.01416015625,48.1064705882353,511.6280606990166
-0.1275419921875,-0.0585673828125,1.0042041015625005,1.0139639913209988,0.072265625,0.384765625,0.01318359375,48.1064705882353,511.6280606990166
-0.1334013671875,-0.0629619140625,1.0071337890625005,1.017879460673658,0.05712890625,0.375,0.001953125,48.1064705882353,511.6280606990166
-0.1343779296875,-0.0590556640625,1.0085986328125005,1.0192233325214872,0.04296875,0.3583984375,-0.02734375,48.15352941176471,511.6280606990166
-0.1241240234375,-0.0497783203125,1.0056689453125005,1.0145218982029929,0.0341796875,0.28857421875,-0.0380859375,48.1064705882353,511.6280606990166
-0.1246123046875,-0.0478251953125,0.9993212890625,1.008195672753928,0.04736328125,0.27392578125,-0.00830078125,47.96529411764706,511.7268509687885
-0.1309599609375,-0.0400126953125,1.0017626953125005,1.0110786442580455,0.052734375,0.25634765625,0.00341796875,47.96529411764706,511.7268509687885
-0.1260771484375,-0.0448955078125,0.9988330078125,1.0077591138142288,0.05615234375,0.2548828125,0.04345703125,48.34176470588236,511.7268509687885
-0.1182646484375,-0.0448955078125,1.0007861328125005,1.00874923411202,0.0654296875,0.26708984375,0.06298828125,48.15352941176471,511.7268509687885
-0.1221708984375,-0.0444072265625,1.0012744140625005,1.0096772664828115,0.09033203125,0.25830078125,0.0615234375,48.20058823529412,511.6282569381471
-0.1299833984375,-0.0409892578125,0.9944384765625,1.003734868774283,0.07958984375,0.25341796875,0.060546875,48.15352941176471,511.6282569381471
-0.1319365234375,-0.0444072265625,0.9993212890625,1.0089709048140507,0.09130859375,0.26708984375,0.06591796875,48.1064705882353,511.6282569381471
-0.1290068359375,-0.0419658203125,1.0017626953125005,1.0109067175129818,0.0927734375,0.28759765625,0.046875,48.1064705882353,511.6282569381471
-0.1377958984375,-0.0444072265625,1.0046923828125005,1.015069699813087,0.09130859375,0.29150390625,0.0712890625,48.1064705882353,511.6282569381471
-0.1324248046875,-0.0439189453125,0.9978564453125,1.007562746485589,0.09375,0.2666015625,0.07421875,48.20058823529412,511.55203216563865
-0.1338896484375,-0.0444072265625,1.0022509765625005,1.012129171474756,0.1015625,0.27392578125,0.04150390625,48.34176470588236,511.55203216563865
-0.1343779296875,-0.0468486328125,1.0007861328125005,1.0108536521244302,0.10107421875,0.2646484375,0.03857421875,48.34176470588236,511.55203216563865
-0.1231474609375,-0.0444072265625,1.0037158203125005,1.0122167489485252,0.0732421875,0.2236328125,0.01806640625,48.20058823529412,511.55203216563865
-0.1226591796875,-0.0463603515625,1.0002978515625005,1.0088559601841895,0.072265625,0.2314453125,0.0126953125,48.20058823529412,511.5953926745024
-0.1231474609375,-0.0468486328125,0.9978564453125,1.006517549267499,0.05859375,0.2373046875,0.0234375,48.29470588235294,511.5953926745024
-0.1275419921875,-0.0463603515625,0.9988330078125,1.0080097318299663,0.06884765625,0.25146484375,0.0166015625,48.48294117647059,511.5953926745024
-0.1270537109375,-0.0483134765625,1.0007861328125005,1.009975109153857,0.06201171875,0.21826171875,0.01220703125,48.29470588235294,511.5953926745024
-0.1324248046875,-0.0488017578125,0.9998095703125,1.0097213067726056,0.06201171875,0.21044921875,0.03564453125,48.20058823529412,511.5953926745024
-0.1382841796875,-0.0444072265625,1.0081103515625005,1.018519021447457,0.06787109375,0.1953125,0.08544921875,48.1064705882353,511.7923837939752
-0.1285185546875,-0.0405009765625,1.0017626953125005,1.0107847672582158,0.0693359375,0.15478515625,0.08447265625,47.82411764705883,511.7923837939752
-0.1143583984375,-0.0453837890625,1.0027392578125005,1.0102591502981912,0.09423828125,0.1923828125,0.1103515625,48.1064705882353,511.7923837939752
-0.1109404296875,-0.0590556640625,0.9856494140625,0.99362976899792,0.09814453125,0.2197265625,0.07421875,48.20058823529412,511.7923837939752
-0.1226591796875,-0.0605205078125,0.9973681640625,1.00670316425096,0.07470703125,0.24169921875,0.02099609375,48.15352941176471,511.86900371233656
-0.1373076171875,-0.0551494140625,1.0046923828125005,1.0155302180095902,0.0693359375,0.17431640625,0.00048828125,48.29470588235294,511.86900371233656
-0.1353544921875,-0.0497783203125,1.0002978515625005,1.0106406441307532,0.04833984375,0.158203125,0.0439453125,48.1064705882353,511.86900371233656
-0.1211943359375,-0.0439189453125,0.9998095703125,1.0080853722325107,0.04345703125,0.1923828125,0.087890625,48.1064705882353,511.86900371233656
-0.1104521484375,-0.0458720703125,0.9919970703125,0.9991807201091292,0.0703125,0.212890625,0.13916015625,48.34176470588236,511.86900371233656
-0.1060576171875,-0.0473369140625,0.9876025390625,0.9944082545711032,0.10205078125,0.205078125,0.177734375,48.43588235294118,511.5302537833872
-0.1109404296875,-0.0473369140625,0.9973681640625,1.0046351661462034,0.10302734375,0.18603515625,0.21142578125,48.20058823529412,511.5302537833872
-0.1182646484375,-0.0453837890625,0.9939501953125,1.0019896237693642,0.1142578125,0.1806640625,0.2333984375,48.1064705882353,511.5302537833872
-0.1187529296875,-0.0478251953125,0.9934619140625,1.0016766356009157,0.109375,0.1630859375,0.25830078125,48.29470588235294,511.5302537833872
-0.1182646484375,-0.0478251953125,0.9988330078125,1.0069464503500123,0.10107421875,0.15869140625,0.25341796875,48.34176470588236,511.7704080536605
-0.1172880859375,-0.0429423828125,1.0037158203125005,1.0114573600948746,0.09326171875,0.109375,0.21142578125,48.34176470588236,511.7704080536605
-0.1187529296875,-0.0439189453125,1.0027392578125005,1.0107013165248626,0.0791015625,0.11962890625,0.20361328125,48.15352941176471,511.7704080536605
-0.1172880859375,-0.0478251953125,1.0022509765625005,1.0102231260617858,0.06884765625,0.111328125,0.16015625,47.82411764705883,511.7704080536605
-0.1177763671875,-0.0434306640625,1.0002978515625005,1.0081434853677071,0.06005859375,0.1328125,0.13818359375,48.1064705882353,511.7704080536605
-0.1226591796875,-0.0439189453125,0.9954150390625,1.0039049995446636,0.06298828125,0.16455078125,0.140625,48.29470588235294,511.7597160589033
-0.1226591796875,-0.0385478515625,0.9998095703125,1.0080428503343304,0.0615234375,0.1689453125,0.1650390625,48.43588235294118,511.7597160589033
-0.1207060546875,-0.0390361328125,0.9988330078125,1.006857064731108,0.06005859375,0.1533203125,0.17578125,48.20058823529412,511.7597160589033
-0.1246123046875,-0.0424541015625,1.0071337890625005,1.01570125838772,0.08935546875,0.14453125,0.19482421875,48.15352941176471,511.7597160589033
-0.1246123046875,-0.0429423828125,1.0051806640625005,1.013785205122996,0.06689453125,0.1533203125,0.2041015625,48.29470588235294,511.6175643899372
-0.1226591796875,-0.0434306640625,1.0032275390625005,1.0116308576135469,0.07763671875,0.138671875,0.22509765625,48.20058823529412,511.6175643899372
-0.1236357421875,-0.0473369140625,1.0066455078125005,1.015313625722762,0.07177734375,0.13916015625,0.19140625,48.1064705882353,511.6175643899372
-0.1270537109375,-0.0439189453125,0.9988330078125,1.0078387255489432,0.06005859375,0.14599609375,0.177734375,48.1064705882353,511.6175643899372
-0.1246123046875,-0.0434306640625,1.0042041015625005,1.012837759295825,0.0439453125,0.1494140625,0.19091796875,48.15352941176471,511.6175643899372
-0.1260771484375,-0.0414775390625,1.0071337890625005,1.0158416720514083,0.048828125,0.142578125,0.20703125,48.20058823529412,511.7923837939752
-0.1216826171875,-0.0375712890625,1.0076220703125005,1.0156379756922576,0.0654296875,0.177734375,0.23779296875,48.1064705882353,511.7923837939752
-0.1216826171875,-0.0448955078125,1.0017626953125005,1.0101241328010668,0.04541015625,0.140625,0.2236328125,48.15352941176471,511.7923837939752
-0.1172880859375,-0.0463603515625,1.0002978515625005,1.0082170248217568,0.0546875,0.146484375,0.21142578125,48.20058823529412,511.7923837939752
-0.1172880859375,-0.0439189453125,0.9983447265625,1.006169748062124,0.0615234375,0.16357421875,0.197265625,48.15352941176471,512.3067605768356
-0.1167998046875,-0.0507548828125,1.0007861328125005,1.0088563505941508,0.0419921875,0.1728515625,0.18603515625,48.01235294117648,512.3067605768356
-0.1177763671875,-0.0453837890625,1.0032275390625005,1.0111362203535954,0.05224609375,0.15283203125,0.21240234375,48.20058823529412,512.3067605768356
-0.1226591796875,-0.0463603515625,1.0085986328125005,1.0170868982883683,0.03857421875,0.1689453125,0.21337890625,48.01235294117648,512.3067605768356
-0.1207060546875,-0.0419658203125,1.0032275390625005,1.0113340579878258,0.0322265625,0.1787109375,0.2451171875,48.1064705882353,512.3067605768356
-0.1207060546875,-0.0419658203125,1.0129931640625005,1.0210221506657329,0.03759765625,0.197265625,0.2236328125,48.1064705882353,511.7052701097557
-0.1226591796875,-0.0444072265625,1.0090869140625005,1.0174839931245914,0.02880859375,0.19970703125,0.23388671875,48.29470588235294,511.7052701097557
-0.1231474609375,-0.0429423828125,1.0042041015625005,1.0126377550594867,0.03564453125,0.19482421875,0.24072265625,48.15352941176471,511.7052701097557
-0.1211943359375,-0.0429423828125,1.0002978515625005,1.0085275936460545,0.03369140625,0.18798828125,0.23876953125,47.82411764705883,511.7052701097557
-0.1158232421875,-0.0429423828125,1.0002978515625005,1.0078962563245255,0.0283203125,0.1845703125,0.25341796875,48.29470588235294,511.9458228921744
-0.1197294921875,-0.0429423828125,0.9988330078125,1.0068994870575998,0.0361328125,0.20703125,0.2509765625,48.34176470588236,511.9458228921744
-0.1202177734375,-0.0439189453125,0.9973681640625,1.0055468370459102,0.0400390625,0.2314453125,0.27587890625,48.43588235294118,511.9458228921744
-0.1153349609375,-0.0429423828125,1.0002978515625005,1.0078402617957989,0.03662109375,0.23193359375,0.2734375,48.20058823529412,511.9458228921744
-0.1172880859375,-0.0439189453125,1.0046923828125005,1.0124683466369229,0.04345703125,0.2177734375,0.29833984375,48.20058823529412,511.9458228921744
-0.1202177734375,-0.0414775390625,1.0051806640625005,1.0131934004434102,0.0244140625,0.2060546875,0.30322265625,48.1064705882353,511.6726027058455
-0.1197294921875,-0.0434306640625,1.0066455078125005,1.0146706619782957,0.01708984375,0.21142578125,0.29638671875,48.1064705882353,511.6726027058455
-0.1177763671875,-0.0444072265625,1.0129931640625005,1.0207832408872188,0.01513671875,0.19677734375,0.31005859375,48.1064705882353,511.6726027058455
-0.1207060546875,-0.0478251953125,1.0056689453125005,1.014015398557072,0.0302734375,0.19580078125,0.31005859375,48.29470588235294,511.6726027058455
-0.1148466796875,-0.0483134765625,1.0120166015625005,1.0196575668776802,0.015625,0.2109375,0.31201171875,48.1064705882353,511.7490246459184
-0.1148466796875,-0.0512431640625,1.0134814453125005,1.0212542590810056,0.00634765625,0.21875,0.3193359375,48.29470588235294,511.7490246459184
-0.1167998046875,-0.0463603515625,1.0085986328125005,1.016396910012659,0.0205078125,0.22412109375,0.326171875,48.34176470588236,511.7490246459184
-0.1172880859375,-0.0463603515625,1.0061572265625005,1.0140306414817175,-0.005859375,0.23583984375,0.3369140625,48.29470588235294,511.7490246459184
-0.1211943359375,-0.0448955078125,1.0071337890625005,1.0153926052303428,0.1240234375,0.2216796875,0.35595703125,48.01235294117648,511.7490246459184
-0.1246123046875,-0.0468486328125,1.0056689453125005,1.0144422351429812,0.00927734375,0.24560546875,0.3662109375,48.15352941176471,511.9679993243784
-0.1172880859375,-0.0463603515625,1.0100634765625005,1.017906677444158,0.0126953125,0.22509765625,0.349609375,47.82411764705883,511.9679993243784
-0.1207060546875,-0.0463603515625,1.0032275390625005,1.0115259408283213,0.017578125,0.2158203125,0.31787109375,48.34176470588236,511.9679993243784
-0.1265654296875,-0.0478251953125,1.0100634765625005,1.0190850229417487,0.00048828125,0.2265625,0.34375,48.29470588235294,511.9679993243784
-0.1231474609375,-0.0395244140625,1.0022509765625005,1.010561475845395,0.0087890625,0.23388671875,0.36572265625,48.29470588235294,511.97868918347
-0.1153349609375,-0.0390361328125,1.0056689453125005,1.0130133268843833,0.03515625,0.2421875,0.4013671875,48.43588235294118,511.97868918347
-0.1001982421875,-0.0492900390625,0.9983447265625,1.0045702507756245,0.033203125,0.28759765625,0.3623046875,48.48294117647059,511.97868918347
-0.1045927734375,-0.0522197265625,0.9939501953125,1.000801448270019,0.02392578125,0.3173828125,0.3212890625,48.20058823529412,511.97868918347
-0.1246123046875,-0.0497783203125,1.0022509765625005,1.0111939120036026,0.00390625,0.2666015625,0.29345703125,48.29470588235294,511.97868918347
-0.1343779296875,-0.0434306640625,1.0007861328125005,1.010701011277721,-0.0185546875,0.23095703125,0.30517578125,48.1064705882353,511.8258438511587
-0.1285185546875,-0.0395244140625,1.0002978515625005,1.0092943029892232,-0.005859375,0.21630859375,0.31884765625,48.01235294117648,511.8258438511587
-0.1138701171875,-0.0448955078125,0.9880908203125,0.9956432490585504,-0.005859375,0.26904296875,0.33642578125,48.29470588235294,511.8258438511587
-0.1055693359375,-0.0424541015625,0.9866259765625,0.9931656725127338,0.00341796875,0.30029296875,0.33984375,48.20058823529412,511.8258438511587
-0.1031279296875,-0.0370830078125,0.9939501953125,0.9999737547114969,0.0087890625,0.30224609375,0.36083984375,48.1064705882353,511.8694002189475
-0.1099638671875,-0.0385478515625,0.9919970703125,0.9988173889432932,0.02294921875,0.29296875,0.3984375,48.1064705882353,511.8694002189475
-0.1148466796875,-0.0380595703125,1.0012744140625005,1.008557753915867,0.04833984375,0.29345703125,0.43359375,48.48294117647059,511.8694002189475
-0.1158232421875,-0.0375712890625,0.9978564453125,1.0052582308264582,0.03271484375,0.27294921875,0.44140625,48.15352941176471,511.8694002189475
-0.1177763671875,-0.0395244140625,1.0081103515625005,1.015736153192519,0.05712890625,0.24853515625,0.443359375,48.15352941176471,511.8694002189475
-0.1202177734375,-0.0463603515625,1.0134814453125005,1.0216389945768432,0.03515625,0.2138671875,0.40234375,48.1064705882353,511.9242436752203
-0.1167998046875,-0.0492900390625,1.0042041015625005,1.0121746785613486,0.01806640625,0.185546875,0.36962890625,48.34176470588236,511.9242436752203
-0.1231474609375,-0.0424541015625,1.0110400390625005,1.019396688469378,-0.0048828125,0.23291015625,0.3427734375,48.01235294117648,511.9242436752203
-0.1197294921875,-0.0448955078125,1.0100634765625005,1.018125230316361,-0.013671875,0.20703125,0.31689453125,48.01235294117648,511.9242436752203
-0.1192412109375,-0.0424541015625,1.0095751953125005,1.017478693691221,0.00537109375,0.20849609375,0.3115234375,47.96529411764706,512.0770897407052
-0.1231474609375,-0.0439189453125,1.0061572265625005,1.0146164474601511,-0.00439453125,0.20703125,0.31396484375,48.34176470588236,512.0770897407052
-0.1255888671875,-0.0414775390625,1.0115283203125005,1.020138467367224,-0.01904296875,0.203125,0.2958984375,48.1064705882353,512.0770897407052
-0.1265654296875,-0.0414775390625,1.0007861328125005,1.009609864189362,0.12451171875,0.25048828125,0.29296875,48.1064705882353,512.0770897407052
-0.1260771484375,-0.0414775390625,1.0066455078125005,1.0153575783948725,-0.001953125,0.25634765625,0.30859375,48.34176470588236,512.0770897407052
-0.1304716796875,-0.0429423828125,0.9978564453125,1.0072658005183095,0.013671875,0.263671875,0.3447265625,48.1064705882353,511.8911784856384
-0.1275419921875,-0.0414775390625,1.0100634765625005,1.0189286396521406,0.01513671875,0.26171875,0.35205078125,48.29470588235294,511.8911784856384
-0.1309599609375,-0.0414775390625,0.9963916015625,1.0058166439663427,0.00830078125,0.27001953125,0.33056640625,48.43588235294118,511.8911784856384
-0.1319365234375,-0.0395244140625,1.0051806640625005,1.0145726158973971,0.01171875,0.28271484375,0.34423828125,48.20058823529412,511.8911784856384
-0.1299833984375,-0.0409892578125,1.0085986328125005,1.017765692699762,0.0126953125,0.28369140625,0.35107421875,48.1064705882353,511.9678000542148
-0.1275419921875,-0.0409892578125,1.0032275390625005,1.012132686044955,0.0224609375,0.2822265625,0.3544921875,48.34176470588236,511.9678000542148
-0.1221708984375,-0.0444072265625,1.0017626953125005,1.0101614860584245,0.00927734375,0.30859375,0.3486328125,48.29470588235294,511.9678000542148
-0.1241240234375,-0.0429423828125,0.9973681640625,1.005979162866374,0.0009765625,0.328125,0.3486328125,48.1064705882353,511.9678000542148
-0.1265654296875,-0.0409892578125,1.0037158203125005,1.0124941358810906,0.0146484375,0.34130859375,0.35498046875,48.29470588235294,511.9678000542148
-0.1255888671875,-0.0419658203125,1.0042041015625005,1.0128966241581068,0.0185546875,0.34423828125,0.376953125,48.1064705882353,512.0662006086609
-0.1226591796875,-0.0429423828125,1.0081103515625005,1.0164525584259667,-0.1240234375,0.3505859375,0.3505859375,48.15352941176471,512.0662006086609
-0.1246123046875,-0.0370830078125,1.0129931640625005,1.0213023677566344,-0.0029296875,0.35595703125,0.357421875,48.20058823529412,512.0662006086609
-0.1221708984375,-0.0395244140625,0.9949267578125,1.0031785290481965,0.02734375,0.34326171875,0.33837890625,48.29470588235294,512.0662006086609
-0.1290068359375,-0.0419658203125,1.0129931640625005,1.0220367137390232,0.015625,0.34375,0.33203125,48.43588235294118,512.0660014381198
-0.1260771484375,-0.0395244140625,1.0051806640625005,1.0138272999235345,0.00927734375,0.3515625,0.30712890625,48.1064705882353,512.0660014381198
-0.1275419921875,-0.0400126953125,1.0022509765625005,1.0111256082098865,0.0166015625,0.33056640625,0.29248046875,48.20058823529412,512.0660014381198
-0.1236357421875,-0.0380595703125,0.9993212890625,1.0076593503819449,0.005859375,0.337890625,0.2646484375,48.15352941176471,512.0660014381198
-0.1236357421875,-0.0385478515625,0.9954150390625,1.0038041809028977,0.0126953125,0.33984375,0.2548828125,48.34176470588236,512.0660014381198
-0.1251005859375,-0.0409892578125,0.9968798828125,1.0055345725603817,0.025390625,0.3408203125,0.2529296875,48.15352941176471,511.9460218371236
-0.1211943359375,-0.0424541015625,0.9983447265625,1.0065697247870926,-0.00341796875,0.33642578125,0.22412109375,48.29470588235294,511.9460218371236
-0.1226591796875,-0.0405009765625,0.9880908203125,0.9964984057438104,-0.1240234375,0.3388671875,0.2255859375,48.34176470588236,511.9460218371236
-0.1192412109375,-0.0429423828125,0.9998095703125,1.0078103450133475,0.01513671875,0.35107421875,0.19482421875,48.15352941176471,511.9460218371236
-0.1211943359375,-0.0444072265625,1.0012744140625005,1.0095595678762637,0.0224609375,0.34912109375,0.21484375,48.20058823529412,512.0117551553875
-0.1231474609375,-0.0439189453125,1.0042041015625005,1.01267963763851,0.0146484375,0.36181640625,0.20556640625,48.1064705882353,512.0117551553875
-0.1270537109375,-0.0453837890625,1.0037158203125005,1.012742702624045,0.0146484375,0.3408203125,0.1865234375,48.20058823529412,512.0117551553875
-0.1241240234375,-0.0424541015625,1.0007861328125005,1.009347317608558,-0.00341796875,0.34521484375,0.18603515625,48.1064705882353,512.0117551553875
-0.1246123046875,-0.0390361328125,0.9954150390625,1.0039437963035005,0.0341796875,0.33935546875,0.19970703125,48.43588235294118,512.0117551553875
-0.1241240234375,-0.0444072265625,1.0012744140625005,1.0099154554820369,0.0283203125,0.35986328125,0.1806640625,48.1064705882353,511.83673292240735
-0.1226591796875,-0.0434306640625,1.0051806640625005,1.01356778971495,0.0400390625,0.36572265625,0.18701171875,48.1064705882353,511.83673292240735
-0.1207060546875,-0.0444072265625,1.0071337890625005,1.015312967749641,0.017578125,0.35986328125,0.17138671875,48.20058823529412,511.83673292240735
-0.1270537109375,-0.0414775390625,1.0017626953125005,1.0106391687587792,0.03857421875,0.36572265625,0.1533203125,48.1064705882353,511.83673292240735
-0.1275419921875,-0.0424541015625,1.0012744140625005,1.010257275532742,0.0341796875,0.38037109375,0.146484375,48.29470588235294,511.9351327492679
-0.1319365234375,-0.0395244140625,1.0042041015625005,1.013605102157002,0.0302734375,0.37646484375,0.123046875,48.43588235294118,511.9351327492679
-0.1299833984375,-0.0434306640625,1.0056689453125005,1.0149640062663443,0.03564453125,0.35107421875,0.1298828125,48.43588235294118,511.9351327492679
-0.1353544921875,-0.0409892578125,1.0002978515625005,1.0102458857386698,0.0546875,0.3251953125,0.15869140625,48.20058823529412,511.9351327492679
-0.1324248046875,-0.0395244140625,0.9983447265625,1.0078644260309315,0.0283203125,0.3408203125,0.142578125,48.15352941176471,511.9351327492679
-0.1197294921875,-0.0429423828125,0.9978564453125,1.0059307555656056,0.0498046875,0.36181640625,0.11279296875,48.29470588235294,511.8476220074542
-0.1104521484375,-0.0488017578125,0.9993212890625,1.0065904467227902,0.05859375,0.38916015625,0.095703125,48.29470588235294,511.8476220074542
-0.1285185546875,-0.0541728515625,1.0012744140625005,1.0109412292520172,0.033203125,0.3818359375,0.04248046875,48.29470588235294,511.8476220074542
-0.1500029296875,-0.0473369140625,1.0120166015625005,1.0241675957507668,0.02099609375,0.3603515625,0.03759765625,48.20058823529412,511.8476220074542
-0.1475615234375,-0.0444072265625,1.0139697265625005,1.0256125054597378,0.04736328125,0.32373046875,0.06298828125,48.15352941176471,511.793176720197
-0.1368193359375,-0.0414775390625,0.9968798828125,1.0070796481357984,0.044921875,0.3759765625,0.0830078125,48.1064705882353,511.793176720197
-0.1163115234375,-0.0419658203125,0.9910205078125,0.9987047348760286,0.0419921875,0.43505859375,0.09423828125,48.01235294117648,511.793176720197
-0.1109404296875,-0.0439189453125,0.9959033203125,1.0030254613448613,0.0390625,0.486328125,0.07421875,48.53,511.793176720197
-0.1192412109375,-0.0409892578125,1.0002978515625005,1.008213458292645,0.05078125,0.3759765625,0.07275390625,48.01235294117648,511.793176720197
-0.1216826171875,-0.0419658203125,0.9939501953125,1.0022498591478362,0.03271484375,0.3759765625,0.06884765625,48.29470588235294,512.0119550759749
-0.1314482421875,-0.0439189453125,0.9998095703125,1.0093694521928094,0.05029296875,0.49853515625,0.0888671875,48.1064705882353,512.0119550759749
-0.1314482421875,-0.0478251953125,1.0037158203125005,1.0134156785971182,0.05029296875,0.46240234375,0.1142578125,48.15352941176471,512.0119550759749
-0.1290068359375,-0.0444072265625,1.0110400390625005,1.020204257037325,0.04443359375,0.47119140625,0.099609375,48.01235294117648,512.0119550759749
-0.1402373046875,-0.0478251953125,0.9998095703125,1.010728909164648,0.0322265625,0.41943359375,0.05517578125,48.29470588235294,511.91335461496095
-0.1324248046875,-0.0507548828125,0.9983447265625,1.0083672843170717,0.02587890625,0.416015625,0.01171875,48.1064705882353,511.91335461496095
-0.1329130859375,-0.0439189453125,1.0027392578125005,1.0124627308346494,0.02001953125,0.4404296875,-0.017578125,48.15352941176471,511.91335461496095
-0.1368193359375,-0.0468486328125,0.9968798828125,1.0073151571574026,0.01953125,0.44384765625,-0.05419921875,48.01235294117648,511.91335461496095
-0.1407255859375,-0.0414775390625,1.0002978515625005,1.0109994404670497,-0.12353515625,0.4541015625,-0.0576171875,47.91823529411765,511.91335461496095
-0.1417021484375,-0.0492900390625,1.0017626953125005,1.012935093943512,0.02001953125,0.45263671875,-0.072265625,48.20058823529412,511.8476220074542
-0.1377958984375,-0.0488017578125,1.0022509765625005,1.012855538175249,0.03466796875,0.45068359375,-0.0615234375,48.34176470588236,511.8476220074542
-0.1436552734375,-0.0488017578125,1.0012744140625005,1.0127037579708076,0.0244140625,0.47119140625,-0.056640625,48.15352941176471,511.8476220074542
-0.1412138671875,-0.0473369140625,1.0007861328125005,1.011807799608606,0.01806640625,0.46240234375,-0.04541015625,48.29470588235294,511.8476220074542
-0.1368193359375,-0.0463603515625,1.0051806640625005,1.015508237430158,0.02783203125,0.45849609375,-0.04638671875,48.29470588235294,512.2412256411694
-0.1412138671875,-0.0448955078125,0.9978564453125,1.0087985172270475,0.00439453125,0.46630859375,-0.04931640625,48.43588235294118,512.2412256411694
-0.1358427734375,-0.0424541015625,1.0002978515625005,1.010371912552613,0.00244140625,0.47119140625,-0.04638671875,48.48294117647059,512.2412256411694
-0.1436552734375,-0.0478251953125,1.0046923828125005,1.01603684528394,0.015625,0.45947265625,-0.029296875,48.43588235294118,512.2412256411694
-0.1441435546875,-0.0502666015625,1.0037158203125005,1.0152583629481644,0.03515625,0.41259765625,-0.02880859375,48.29470588235294,512.2412256411694
-0.1387724609375,-0.0497783203125,0.9998095703125,1.010621023913638,0.0185546875,0.3583984375,-0.044921875,48.1064705882353,512.0883783246628
-0.1382841796875,-0.0502666015625,0.9934619140625,1.0042986708530557,0.025390625,0.3828125,-0.05029296875,47.96529411764706,512.0883783246628
-0.1334013671875,-0.0468486328125,0.9993212890625,1.0092738765753484,0.056640625,0.38232421875,-0.00390625,47.96529411764706,512.0883783246628
-0.1348662109375,-0.0468486328125,0.9934619140625,1.0036684033792065,0.06884765625,0.349609375,0.017578125,48.43588235294118,512.0883783246628
-0.1363310546875,-0.0488017578125,0.9924853515625,1.0029929915527502,0.06591796875,0.33544921875,0.00341796875,48.1064705882353,511.8917762308423
-0.1412138671875,-0.0517314453125,0.9910205078125,1.0023667720076892,0.07763671875,0.3408203125,-0.01416015625,48.34176470588236,511.8917762308423
-0.1417021484375,-0.0448955078125,0.9919970703125,1.0030719281298468,0.06884765625,0.35205078125,-0.04443359375,48.29470588235294,511.8917762308423
-0.1417021484375,-0.0488017578125,0.9910205078125,1.0022887594612335,0.07373046875,0.35595703125,-0.0517578125,48.15352941176471,511.8917762308423
-0.1460966796875,-0.0492900390625,1.0032275390625005,1.0150070161825953,0.05126953125,0.34765625,-0.07958984375,48.1064705882353,511.8917762308423
-0.1539091796875,-0.0527080078125,1.0037158203125005,1.0168144460152193,0.04345703125,0.3291015625,-0.10546875,48.15352941176471,512.0119550759749
-0.1553740234375,-0.0522197265625,1.0027392578125005,1.0160482302330844,0.05810546875,0.30322265625,-0.1259765625,48.20058823529412,512.0119550759749
-0.1548857421875,-0.0478251953125,1.0022509765625005,1.0152752643791425,0.05126953125,0.31640625,-0.09814453125,48.29470588235294,512.0119550759749
-0.1465849609375,-0.0429423828125,1.0032275390625005,1.0147889899619842,0.0703125,0.29541015625,-0.05126953125,48.29470588235294,512.0119550759749
-0.1412138671875,-0.0468486328125,0.9983447265625,1.0093702708806132,0.09130859375,0.296875,0.0107421875,48.20058823529412,511.7054681569613
-0.1290068359375,-0.0541728515625,0.9993212890625,1.0090691256492563,0.08984375,0.28759765625,-0.0126953125,48.1064705882353,511.7054681569613
-0.1343779296875,-0.0541728515625,1.0017626953125005,1.012186061726438,0.0654296875,0.2841796875,-0.0283203125,48.20058823529412,511.7054681569613
-0.1353544921875,-0.0527080078125,0.9963916015625,1.0069236298285895,0.0927734375,0.32763671875,-0.0263671875,48.1064705882353,511.7054681569613
-0.1431669921875,-0.0531962890625,0.9983447265625,1.009959813991225,0.07080078125,0.33642578125,-0.06396484375,48.20058823529412,511.7054681569613
-0.1470732421875,-0.0522197265625,0.9978564453125,1.0099875859937604,0.08251953125,0.35302734375,-0.0927734375,48.53,511.91335461496095
-0.1475615234375,-0.0478251953125,0.9954150390625,1.0074287828415829,0.083984375,0.3720703125,-0.10595703125,48.15352941176471,511.91335461496095
-0.1451201171875,-0.0497783203125,0.9959033203125,1.0076513052614529,0.0693359375,0.37890625,-0.08447265625,48.15352941176471,511.91335461496095
-0.1480498046875,-0.0492900390625,0.9905322265625,1.0027473981405557,0.07958984375,0.3857421875,-0.09619140625,48.01235294117648,511.91335461496095
-0.1470732421875,-0.0536845703125,0.9988330078125,1.0110291534634137,0.078125,0.3642578125,-0.095703125,48.29470588235294,511.8697985119254
-0.1480498046875,-0.0517314453125,1.0002978515625005,1.0125170018042566,0.07666015625,0.49755859375,-0.10693359375,48.20058823529412,511.8697985119254
-0.1431669921875,-0.0483134765625,0.9934619140625,1.0048868365951946,0.091796875,0.33154296875,-0.09326171875,48.20058823529412,511.8697985119254
-0.1397490234375,-0.0507548828125,1.0032275390625005,1.0141850633954566,0.08203125,0.33056640625,-0.13671875,48.15352941176471,511.8697985119254
-0.1417021484375,-0.0541728515625,0.9963916015625,1.007874208610628,0.09130859375,0.32958984375,-0.14599609375,48.29470588235294,511.8697985119254
-0.1495146484375,-0.0531962890625,1.0007861328125005,1.0132903625798528,0.0712890625,0.30126953125,-0.1279296875,48.1064705882353,511.880687516987
-0.1514677734375,-0.0444072265625,1.0022509765625005,1.0146041140176658,0.0703125,0.29052734375,-0.1025390625,48.29470588235294,511.880687516987
-0.1456083984375,-0.0414775390625,1.0017626953125005,1.0131390278051575,0.10546875,0.3056640625,-0.06201171875,47.96529411764706,511.880687516987
-0.1319365234375,-0.0517314453125,0.9934619140625,1.0035187907277174,0.1142578125,0.3154296875,-0.095703125,48.1064705882353,511.880687516987
-0.1319365234375,-0.0663798828125,0.9968798828125,1.0077613982561742,0.1005859375,0.34765625,-0.16552734375,48.20058823529412,511.9460218371236
-0.1470732421875,-0.0580791015625,1.0002978515625005,1.012718871378629,0.08837890625,0.32421875,-0.22607421875,48.1064705882353,511.9460218371236
-0.1709990234375,-0.0575908203125,1.0090869140625005,1.0250920781729929,0.0791015625,0.2626953125,-0.20703125,48.43588235294118,511.9460218371236
-0.1685576171875,-0.0507548828125,0.9993212890625,1.014707232266911,0.08349609375,0.2841796875,-0.1455078125,48.48294117647059,511.9460218371236
-0.1495146484375,-0.0546611328125,0.9983447265625,1.01095730008388,0.10498046875,0.33935546875,-0.130859375,48.34176470588236,511.9460218371236
-0.1373076171875,-0.0541728515625,0.9968798828125,1.0077487684638398,0.10693359375,0.36083984375,-0.1044921875,48.20058823529412,511.9353322015037
-0.1358427734375,-0.0551494140625,0.9915087890625,1.0022895767964537,0.11767578125,0.3486328125,-0.09521484375,48.1064705882353,511.9353322015037
-0.1412138671875,-0.0497783203125,0.9929736328125,1.0041991201549805,0.125,0.333984375,-0.09130859375,47.91823529411765,511.9353322015037
-0.1431669921875,-0.0541728515625,0.9944384765625,1.0061507686059652,0.10986328125,0.3544921875,-0.0927734375,48.15352941176471,511.9353322015037
