AccX,AccY,AccZ,Magnitude,GyroX,GyroY,GyroZ,Temperature,Altitude
-0.0450224609375,0.1098896484375,0.6829150390625001,0.693163550253706,-0.55224609375,-0.57763671875,-2.79638671875,41.235882352941175,452.7006556907928
-0.1241240234375,0.1172138671875,0.7639697265625001,0.7828126257025643,-0.56005859375,0.01171875,-2.15869140625,41.04764705882353,452.7006556907928
-0.1338896484375,0.1059833984375,0.7214892578125001,0.7414213834533715,-0.6884765625,0.36767578125,-1.99755859375,42.45941176470589,452.7006556907928
-0.1656279296875,0.1299091796875,0.7219775390625001,0.7520376140662051,-0.8251953125,0.87451171875,-2.1513671875,41.94176470588236,452.7006556907928
-0.1802763671875,0.1294208984375,0.7073291015625001,0.741325701318864,-0.61572265625,1.2255859375,-2.15771484375,42.224117647058826,452.5449690398462
-0.2139677734375,0.0732685546875,0.6594775390625001,0.6971808328573927,-0.244140625,0.9609375,-1.78564453125,41.89470588235295,452.5449690398462
-0.2383818359375,0.0244404296875,0.6091845703125001,0.6546213218457433,0.04443359375,0.52490234375,-0.97021484375,41.94176470588236,452.5449690398462
-0.2168974609375,0.0068623046875,0.5730517578125001,0.6127641609287824,0.19482421875,0.1162109375,-0.0927734375,42.224117647058826,452.5449690398462
-0.1617216796875,0.0141865234375,0.5388720703125001,0.5627950490996425,0.20068359375,-0.126953125,0.41015625,41.98882352941177,452.5449690398462
-0.1251005859375,-0.0058330078124999,0.5696337890625001,0.5832382311060784,0.15771484375,0.033203125,0.65869140625,41.94176470588236,452.31425661616487
-0.0914091796875,-0.0072978515624999,0.5627978515625001,0.5702195353475149,0.1982421875,0.1484375,0.78271484375,41.235882352941175,452.31425661616487
-0.0806669921875,-0.0199931640625,0.5593798828125001,0.5655198878316611,0.16259765625,0.02001953125,0.86181640625,41.80058823529412,452.31425661616487
-0.1104521484375,-0.0151103515624999,0.5842822265625001,0.5948224273643644,0.04736328125,-0.2705078125,0.9609375,41.80058823529412,452.31425661616487
-0.1485380859375,-0.0082744140624999,0.6375048828125001,0.6546331067948162,-0.03564453125,-0.4912109375,1.24658203125,42.08294117647059,452.3219264329352
-0.1690458984375,0.0141865234375,0.6990283203125001,0.7193179865850009,-0.06591796875,-0.52880859375,1.69677734375,41.94176470588236,452.3219264329352
-0.1656279296875,0.0429951171875,0.7429736328125001,0.7624244292053725,-0.0625,-0.50244140625,2.0048828125,42.08294117647059,452.3219264329352
-0.1548857421875,0.0586201171875,0.7776416015625001,0.7950801039849626,-0.06201171875,-0.4248046875,2.55712890625,41.98882352941177,452.3219264329352
-0.1529326171875,0.0927998046875,0.8069384765625001,0.8265288223086144,-0.2587890625,-0.474609375,2.73388671875,41.80058823529412,452.3219264329352
-0.1680693359375,0.1362568359375,0.8699267578125001,0.896429467933947,-0.4306640625,-0.42822265625,2.72021484375,42.45941176470589,452.0603465064826
-0.1846708984375,0.1518818359375,0.9006884765625001,0.9318858109392676,-0.43798828125,-0.318359375,2.76416015625,42.08294117647059,452.0603465064826
-0.2027373046875,0.1992451171875,0.9299853515625,0.9724576009039364,-0.3427734375,-0.041015625,2.65283203125,41.89470588235295,452.0603465064826
-0.2251982421875,0.2129169921875,0.9407275390625,0.9904626174657474,-0.24365234375,0.16259765625,2.384765625,41.89470588235295,452.0603465064826
-0.2242216796875,0.2329365234375,0.9817431640625,1.0336123188974102,-0.0791015625,0.36376953125,2.10107421875,41.04764705882353,451.801015363852
-0.1968779296875,0.2470966796875,1.0222705078125005,1.0699788219651127,0.02978515625,0.50927734375,1.96337890625,41.94176470588236,451.801015363852
-0.1524443359375,0.2690693359375,1.0398486328125005,1.0848607109962545,0.21240234375,0.5224609375,1.9365234375,42.224117647058826,451.801015363852
-0.1177763671875,0.2480732421875,0.9998095703125,1.0368369124629817,0.3212890625,0.63671875,1.73681640625,41.98882352941177,451.801015363852
-0.1812529296875,0.2187763671875,0.9866259765625,1.0267163878053027,0.3134765625,0.97607421875,1.33837890625,41.89470588235295,451.801015363852
-0.2701201171875,0.2094990234375,0.9885791015625,1.0460130776318115,0.19970703125,1.365234375,0.98291015625,41.80058823529412,451.8760449188566
-0.3169951171875,0.2392841796875,1.0525439453125005,1.1249851464723613,0.2177734375,1.76171875,0.76123046875,41.04764705882353,451.8760449188566
-0.3238310546875,0.2446552734375,1.1169970703125005,1.1884465532313624,0.28271484375,2.15576171875,0.72216796875,42.45941176470589,451.8760449188566
-0.3687529296875,0.2651630859375,1.3147509765625005,1.390992564922279,0.4169921875,2.44580078125,1.177734375,42.45941176470589,451.8760449188566
-0.3345732421875,0.3242451171875,1.7332080078125005,1.7947379053090642,1.02197265625,1.783203125,2.41162109375,42.13,451.5736827813715
0.0238251953125,0.2827412109375,1.9451220703125005,1.9657085492795896,2.11767578125,-0.01611328125,3.7685546875,41.89470588235295,451.5736827813715
0.4500947265625,0.2104755859375,1.6858447265625005,1.757543079766097,2.7021484375,-1.5888671875,3.4736328125,41.235882352941175,451.5736827813715
0.6336884765625,-0.1039775390625,1.2957080078125005,1.4461091436911095,1.83154296875,-1.3037109375,1.27099609375,41.33,451.5736827813715
0.6102509765625,-0.1357158203125,1.3162158203125005,1.4571373044155749,0.90625,-0.30810546875,-1.42041015625,42.506470588235295,451.5736827813715
0.5599580078125,-0.1825908203125,1.2507861328125005,1.3825188346680075,0.93359375,0.19482421875,-4.5576171875,42.08294117647059,452.5204646763315
0.4574189453125,-0.2216533203125,1.0852587890625005,1.1983943112238808,-0.04052734375,-0.853515625,-6.9755859375,41.14176470588235,452.5204646763315
0.2396455078125,-0.1825908203125,1.0818408203125005,1.1230088768890147,-0.767578125,-3.83154296875,-6.87939453125,41.89470588235295,452.5204646763315
-0.0674833984375,-0.1869853515625,1.1008837890625005,1.1186879134880443,-0.18408203125,-8.17578125,-4.19189453125,41.98882352941177,452.5204646763315
-0.3897490234375,-0.2431376953125,1.1350634765625005,1.2244955434702522,0.216796875,-9.73046875,-0.16015625,42.08294117647059,452.7466934175304
-0.4605498046875,-0.1752666015625,1.3162158203125005,1.4054353737763507,0.0419921875,-7.75244140625,3.0703125,41.94176470588236,452.7466934175304
-0.2154326171875,-0.0546611328125,1.3030322265625005,1.3218517448825449,-0.50146484375,-5.1767578125,3.89013671875,42.506470588235295,452.7466934175304
0.1024384765625,0.1875263671875,1.3811572265625005,1.3975890184016204,-1.1669921875,-4.2548828125,2.798828125,41.04764705882353,452.7466934175304
0.3465791015625,0.2309833984375,1.3206103515625005,1.3847317807603166,-0.00537109375,-2.466796875,0.9296875,42.08294117647059,452.7466934175304
0.3807587890625,0.1816669921875,1.2356494140625005,1.3056835857020623,-0.1357421875,-0.39111328125,-0.361328125,41.47117647058823,453.3161301323706
0.2577119140625,0.1714130859375,1.2146533203125005,1.2534674168986426,-0.10009765625,1.37890625,-0.89599609375,41.18882352941176,453.3161301323706
0.1068330078125,0.1299091796875,1.1653369140625005,1.177412336355474,0.2744140625,2.70654296875,-0.83056640625,41.94176470588236,453.3161301323706
0.0384736328125,0.0713154296875,1.0764697265625005,1.0795152537777537,0.61279296875,2.98876953125,-0.49365234375,42.224117647058826,453.3161301323706
0.0755830078125,0.0395771484375,0.9514697265625,0.9552872773743756,0.8125,2.83642578125,0.12841796875,41.47117647058823,452.6583802820584
0.1356416015625,0.0029560546875,0.8723681640625001,0.8828553652799153,0.7509765625,2.203125,0.7041015625,41.47117647058823,452.6583802820584
0.1351533203125,-0.0131572265624999,0.8445361328125001,0.8553834299471804,0.5732421875,0.9736328125,0.93603515625,42.224117647058826,452.6583802820584
0.0570283203125,-0.0302470703125,0.8547900390625001,0.8572240812416697,0.51123046875,-0.38232421875,1.20703125,41.94176470588236,452.6583802820584
-0.0245146484375,-0.0639384765625,0.9006884765625001,0.9032877883518768,0.5263671875,-1.65625,1.58544921875,41.80058823529412,452.6583802820584
-0.0738310546875,-0.1010478515625,0.9197314453125,0.9282066711882035,0.65771484375,-2.25146484375,2.04736328125,42.13,452.45422965635385
-0.0626005859375,-0.1117900390625,0.9334033203125,0.942155828174784,0.63427734375,-1.8232421875,2.12890625,41.98882352941177,452.45422965635385
-0.0245146484375,-0.0893291015625,0.9085009765625,0.9132111917782184,0.35205078125,-0.75,1.48046875,42.08294117647059,452.45422965635385
0.0038056640625,-0.0634501953125,0.8674853515625001,0.8698110401343877,-0.14599609375,0.841796875,0.513671875,41.98882352941177,452.45422965635385
0.0111298828125,-0.0453837890625,0.8259814453125001,0.8273021882006695,-0.6015625,2.0947265625,-0.287109375,42.08294117647059,452.7014187580437
-0.0137724609375,-0.0160869140625,0.7698291015625001,0.770120325077098,-0.921875,2.888671875,-0.5478515625,42.224117647058826,452.7014187580437
-0.0420927734375,0.0073505859375,0.7200244140625001,0.7212911960750192,-1.103515625,3.2197265625,-0.36669921875,41.80058823529412,452.7014187580437
-0.0655302734375,0.0361591796875,0.6868212890625001,0.6908872455921738,-1.0263671875,3.18896484375,-0.0009765625,41.98882352941177,452.7014187580437
-0.0850615234375,0.0630146484375,0.6585009765625001,0.6669556543136704,-0.681640625,2.75341796875,0.39306640625,41.98882352941177,452.7014187580437
-0.0826201171875,0.0688740234375,0.6257861328125001,0.6349629901726316,-0.23681640625,2.08544921875,0.64404296875,42.13,452.269922379808
-0.0669951171875,0.0776630859375,0.6184619140625001,0.6269091160528403,0.1240234375,1.24609375,0.693359375,41.235882352941175,452.269922379808
-0.0782255859375,0.0869404296875,0.6140673828125001,0.6251052961251454,0.41357421875,0.20654296875,0.66015625,41.94176470588236,452.269922379808
-0.0899443359375,0.0820576171875,0.6135791015625001,0.6255419650031266,0.51318359375,-0.20654296875,0.419921875,41.98882352941177,452.269922379808
-0.1148466796875,0.0859638671875,0.6545947265625001,0.670129690687189,0.48681640625,-0.2119140625,0.1484375,41.89470588235295,451.89363556280034
-0.1421904296875,0.0561787109375,0.6838916015625001,0.7007723514416335,0.51025390625,0.21826171875,-0.08447265625,41.04764705882353,451.89363556280034
-0.1304716796875,0.0381123046875,0.7087939453125001,0.7217092654807266,0.322265625,0.79052734375,-0.53759765625,41.89470588235295,451.89363556280034
-0.1382841796875,0.0161396484375,0.7229541015625001,0.7362374858492147,0.11767578125,1.2216796875,-0.88525390625,41.18882352941176,451.89363556280034
-0.1314482421875,0.0029560546875,0.7400439453125001,0.7516331682590849,0.0673828125,1.3642578125,-1.08251953125,41.94176470588236,451.89363556280034
-0.1304716796875,-0.0058330078124999,0.7483447265625001,0.7596556541976905,0.17529296875,1.46923828125,-1.189453125,42.506470588235295,452.151851249512
-0.1226591796875,-0.0146220703124999,0.7664111328125001,0.7763021987607492,0.310546875,1.453125,-1.203125,41.98882352941177,452.151851249512
-0.1084990234375,-0.0170634765625,0.8064501953125001,0.8138950287591513,0.431640625,1.240234375,-1.10595703125,41.98882352941177,452.151851249512
-0.1153349609375,-0.0043681640624999,0.8660205078125001,0.8736777174814246,0.56201171875,1.0380859375,-0.98046875,41.18882352941176,452.151851249512
-0.1265654296875,0.0093037109375,0.9114306640625,0.9202234633080162,0.64404296875,0.9033203125,-0.92822265625,41.18882352941176,451.7744476804208
-0.0123076171875,0.0049091796875,0.9358447265625,0.9359385288152628,0.61474609375,0.8330078125,-0.89208984375,42.13,451.7744476804208
-0.1485380859375,-0.0141337890624999,0.9460986328125,0.9577922269349032,0.51513671875,1.02294921875,-0.8447265625,41.14176470588235,451.7744476804208
-0.1607451171875,-0.0322001953125,0.9753955078125,0.9890764590963588,0.44482421875,1.6572265625,-0.6806640625,41.80058823529412,451.7744476804208
-0.2056669921875,-0.0585673828125,0.9959033203125,1.0186031972335554,0.46728515625,2.15673828125,-0.41748046875,42.506470588235295,451.7744476804208
-0.2168974609375,-0.0751689453125,1.0291064453125005,1.054397910982499,0.55322265625,2.37939453125,-0.28466796875,41.80058823529412,451.7413304148149
-0.2339873046875,-0.0575908203125,1.0730517578125005,1.0997758118287948,0.490234375,2.482421875,-0.3271484375,41.235882352941175,451.7413304148149
-0.3003935546875,-0.0136455078124999,1.1682666015625005,1.2063454479988918,0.384765625,2.53759765625,-0.4609375,41.94176470588236,451.7413304148149
-0.3257841796875,0.0571552734375,1.3044970703125005,1.3457766023639544,0.21435546875,2.15478515625,-0.69189453125,41.98882352941177,451.7413304148149
-0.2613310546875,0.0981708984375,1.5510791015625005,1.576000578917419,0.080078125,1.02197265625,-0.87451171875,41.14176470588235,451.2470001009193
-0.0411162109375,0.1406513671875,1.8235400390625005,1.8294183840657208,0.154296875,-0.16650390625,-0.56298828125,42.31823529411765,451.2470001009193
0.2464814453125,0.2168232421875,1.8811572265625005,1.9095858012365812,0.52099609375,-0.94921875,-0.18994140625,41.80058823529412,451.2470001009193
0.5736298828125,0.0693623046875,1.6252978515625005,1.7249508625061536,0.50341796875,-0.904296875,-0.38427734375,41.89470588235295,451.2470001009193
0.5623994140625,0.0757099609375,1.3586962890625005,1.472440390995578,-0.068359375,-0.17578125,-1.48046875,41.94176470588236,451.2470001009193
0.2772431640625,0.2090107421875,1.2263720703125005,1.2745735432730918,-0.2392578125,0.95654296875,-1.267578125,41.98882352941177,451.4180108008388
0.1922822265625,0.3662373046875,1.1726611328125005,1.2434775230802098,-0.19970703125,1.58544921875,-0.02099609375,42.45941176470589,451.4180108008388
0.1976533203125,0.4394794921875,1.1467822265625005,1.2439125910784825,-0.02587890625,1.4921875,0.908203125,41.94176470588236,451.4180108008388
0.1024384765625,0.3984638671875,1.1638720703125005,1.2344493877790086,0.2607421875,1.42578125,1.26513671875,41.89470588235295,451.4180108008388
-0.0513701171875,0.2461201171875,1.2278369140625005,1.2533146007921434,0.81884765625,1.51806640625,1.318359375,41.98882352941177,453.0324625152383
-0.1773466796875,0.0635029296875,1.2249072265625005,1.2393071372989477,0.95556640625,1.18603515625,0.78857421875,41.89470588235295,453.0324625152383
-0.2212919921875,0.0078388671875,1.2717822265625005,1.290915034169703,0.72265625,0.58251953125,0.10302734375,42.08294117647059,453.0324625152383
-0.1685576171875,-0.0048564453124999,1.2600634765625005,1.271296668893526,0.408203125,0.27099609375,-1.4140625,42.224117647058826,453.0324625152383
-0.1783232421875,-0.0141337890624999,1.2698291015625005,1.2823669092239365,-0.00830078125,0.63671875,-2.16015625,41.89470588235295,453.0324625152383
-0.1490263671875,-0.0141337890624999,1.2532275390625005,1.2621362393874194,-0.11279296875,1.52099609375,-1.6904296875,42.506470588235295,452.408954713313
-0.0679716796875,0.0049091796875,1.2419970703125005,1.2438653351346272,0.2431640625,2.5517578125,-0.4326171875,41.94176470588236,452.408954713313
0.0052705078125,-0.0141337890624999,1.1853564453125005,1.185452421942674,0.33544921875,2.93505859375,0.3447265625,41.94176470588236,452.408954713313
0.0189423828125,-0.0365947265625,1.1121142578125005,1.112877401292994,0.009765625,2.48974609375,0.494140625,41.80058823529412,452.408954713313
0.0291962890625,-0.0141337890624999,1.0989306640625005,1.0994092921679042,-0.18408203125,1.9541015625,0.55126953125,41.33,452.9574210444708
0.0301728515625,-0.0102275390624999,1.0286181640625005,1.0291114278667768,-0.3857421875,1.9775390625,0.4765625,41.89470588235295,452.9574210444708
0.0169892578125,-0.0317119140625,0.9402392578125,0.9409272779053268,-0.505859375,1.65576171875,0.94580078125,41.94176470588236,452.9574210444708
-0.0347685546875,-0.0019267578124999,0.8821337890625001,0.8828208122810025,-0.67822265625,1.5673828125,1.15087890625,41.98882352941177,452.9574210444708
-0.0826201171875,0.0459248046875,0.8567431640625001,0.861942005367812,-0.67578125,1.83984375,1.09814453125,41.94176470588236,452.9574210444708
-0.1128935546875,0.0713154296875,0.8264697265625001,0.837187585984041,-0.62939453125,2.05859375,1.1162109375,42.224117647058826,452.6660673147416
-0.1397490234375,0.0698505859375,0.7971728515625001,0.812338260317606,-0.5146484375,2.08154296875,1.2998046875,41.18882352941176,452.6660673147416
-0.1426787109375,0.0615498046875,0.7498095703125001,0.7657414607712397,-0.42529296875,1.990234375,1.52587890625,41.89470588235295,452.6660673147416
-0.1563505859375,0.0434833984375,0.8367236328125001,0.8523161088291253,-0.359375,1.5439453125,1.791015625,41.80058823529412,452.6660673147416
-0.1666044921875,0.0405537109375,0.6741259765625001,0.695591469588437,-0.16064453125,1.11669921875,2.1201171875,41.98882352941177,452.5259122487444
-0.1646513671875,0.0293232421875,0.6428759765625001,0.6642736232083041,-0.029296875,0.7939453125,2.4580078125,42.506470588235295,452.5259122487444
-0.1646513671875,0.0278583984375,0.6155322265625001,0.6377821610998573,-0.0966796875,0.673828125,2.6552734375,41.94176470588236,452.5259122487444
-0.1495146484375,0.0434833984375,0.5969775390625001,0.6169502558409247,-0.22265625,0.7080078125,2.59423828125,41.94176470588236,452.5259122487444
-0.1412138671875,0.0576435546875,0.5818408203125001,0.6015005202532935,-0.39794921875,0.767578125,2.37109375,41.98882352941177,452.5259122487444
-0.1402373046875,0.0595966796875,0.5564501953125001,0.5769359459412359,-0.5390625,0.74462890625,2.251953125,41.89470588235295,452.589911722658
-0.1514677734375,0.0571552734375,0.5588916015625001,0.5818668524404235,-0.68798828125,0.716796875,2.29150390625,41.98882352941177,452.589911722658
-0.1456083984375,0.0664326171875,0.5955126953125001,0.6166445236927619,-0.6826171875,0.77197265625,2.46044921875,42.224117647058826,452.589911722658
-0.1338896484375,0.0498310546875,0.6145556640625001,0.6309423398388211,-0.59326171875,0.87060546875,2.8134765625,41.89470588235295,452.589911722658
-0.1075224609375,0.0630146484375,0.6189501953125001,0.6313725285448678,-0.6064453125,0.7333984375,2.87255859375,41.89470588235295,452.4276794304196
-0.1485380859375,0.0395771484375,0.6585009765625001,0.6762051831997343,-0.5732421875,0.69677734375,2.8251953125,41.75352941176471,452.4276794304196
-0.1617216796875,0.0464130859375,0.6775439453125001,0.6981216756818371,-0.53564453125,0.6748046875,2.93408203125,42.08294117647059,452.4276794304196
-0.1685576171875,0.0449482421875,0.7219775390625001,0.7427540519569165,-0.58642578125,0.50927734375,2.8662109375,41.18882352941176,452.4276794304196
-0.1734404296875,0.0400654296875,0.7473681640625001,0.7682746865284452,-0.61279296875,0.54931640625,2.83251953125,41.98882352941177,452.4276794304196
-0.1709990234375,0.0532490234375,0.7678759765625001,0.7884856624539468,-0.6708984375,0.60546875,2.68212890625,41.80058823529412,452.6991841264532
-0.1744169921875,0.0708271484375,0.8079150390625001,0.829556798816623,-0.6259765625,0.5390625,2.6513671875,41.94176470588236,452.6991841264532
-0.1817412109375,0.0981708984375,0.8474658203125001,0.8722761659308326,-0.76904296875,0.3876953125,2.814453125,41.80058823529412,452.6991841264532
-0.1817412109375,0.1235615234375,0.8967822265625001,0.9233177566285724,-0.697265625,0.24755859375,3.015625,42.45941176470589,452.6991841264532
-0.1905302734375,0.1499287109375,0.9241259765625,0.9554000335027958,-0.61181640625,0.23388671875,3.13720703125,42.08294117647059,452.3967976719281
-0.2090849609375,0.1684833984375,0.9285205078125,0.9665679023574434,-0.43994140625,0.349609375,3.13720703125,41.75352941176471,452.3967976719281
-0.2330107421875,0.1904560546875,0.9045947265625,0.9533410376494772,-0.36474609375,0.51513671875,3.06396484375,42.36529411764706,452.3967976719281
-0.2896513671875,0.2192646484375,0.9304736328125,0.9988774108604616,-0.39453125,0.85791015625,2.96484375,42.08294117647059,452.3967976719281
-0.3355498046875,0.2431904296875,0.9773486328125,1.0615769433149316,-0.34130859375,1.00146484375,2.90869140625,41.18882352941176,452.3967976719281
-0.3711943359375,0.2422138671875,1.0237353515625005,1.1155657141239157,-0.2119140625,1.1865234375,2.69140625,41.89470588235295,452.01938297635047
-0.3829130859375,0.2261005859375,1.0413134765625005,1.1322886835141208,-0.10693359375,1.21728515625,2.26904296875,41.80058823529412,452.01938297635047
-0.4083037109375,0.1972919921875,1.0608447265625005,1.1537016877954682,-0.2041015625,1.37841796875,1.71728515625,41.98882352941177,452.01938297635047
-0.5074248046875,0.1523701171875,1.1262744140625005,1.2446648708771804,-0.2158203125,1.6845703125,1.58642578125,41.80058823529412,452.01938297635047
-0.6045927734375,0.1177021484375,1.2742236328125005,1.4152851599086091,-0.142578125,2.26171875,2.11669921875,42.506470588235295,451.8152414362143
-0.6207060546875,0.1133076171875,1.4514697265625005,1.5826809500230454,0.13720703125,3.05419921875,2.9091796875,41.33,451.8152414362143
-0.4297880859375,0.1352802734375,1.5325244140625005,1.5973883782263958,0.6611328125,2.85546875,3.42626953125,41.98882352941177,451.8152414362143
-0.3028349609375,0.0991474609375,1.4895556640625005,1.523258122879063,1.07373046875,2.5361328125,3.46044921875,41.80058823529412,451.8152414362143
-0.2383818359375,0.0932880859375,1.5066455078125005,1.5282373025464344,1.20361328125,2.19189453125,3.30615234375,41.98882352941177,451.8152414362143
-0.1456083984375,0.1084248046875,1.5833056640625005,1.593679569367522,1.00830078125,1.60693359375,3.1318359375,41.80058823529412,451.686135250462
0.0453095703125,0.0976826171875,1.6926806640625005,1.6961022025083188,0.67138671875,0.50830078125,2.95947265625,41.98882352941177,451.686135250462
0.4676728515625,-0.0155986328124999,1.4963916015625005,1.5678485381761225,0.2041015625,-0.23974609375,2.1787109375,41.94176470588236,451.686135250462
0.6859345703125,-0.0849345703125,1.0847705078125005,1.286253151834332,-0.0458984375,-0.06494140625,0.9111328125,41.94176470588236,451.686135250462
0.5521455078125,-0.1088603515625,0.9622119140625,1.1147048961512884,-0.58984375,0.310546875,-0.984375,41.89470588235295,452.4166405820631
0.2767548828125,-0.1742900390625,0.9670947265625,1.0209027833353992,-1.12841796875,-0.560546875,-1.9423828125,41.98882352941177,452.4166405820631
0.0633759765625,-0.2773173828125,0.9773486328125,1.0179055925161666,-1.54052734375,-2.98388671875,-1.21142578125,42.506470588235295,452.4166405820631
-0.1363310546875,-0.4032939453125,1.0037158203125005,1.0902649268611384,-1.4833984375,-6.19677734375,0.9404296875,41.80058823529412,452.4166405820631
-0.1983427734375,-0.3588603515625,1.1140673828125005,1.187125410874999,-1.22265625,-8.45068359375,2.99365234375,42.08294117647059,452.4166405820631
-0.2085966796875,-0.2255595703125,1.2805712890625005,1.3169102174815877,-0.990234375,-9.22314453125,4.02783203125,41.98882352941177,453.041271730124
-0.2369169921875,-0.0463603515625,1.4509814453125005,1.4709269519678136,-1.287109375,-7.57568359375,3.51708984375,41.235882352941175,453.041271730124
-0.2369169921875,0.1235615234375,1.5994189453125005,1.6215850498465747,-1.6552734375,-3.95849609375,2.333984375,41.80058823529412,453.041271730124
-0.1929716796875,0.2627216796875,1.6619189453125005,1.6935865289166212,-1.36279296875,0.865234375,1.7802734375,41.98882352941177,453.041271730124
-0.1075224609375,0.3066669921875,1.5603564453125005,1.5938374948945222,-0.744140625,4.943359375,1.9619140625,41.98882352941177,452.2985652960014
0.0008759765625,0.3178974609375,1.3508837890625005,1.3877847724187296,-0.35888671875,8.0009765625,2.07568359375,42.08294117647059,452.2985652960014
0.0697236328125,0.2944599609375,1.0974658203125005,1.138419641574264,-0.291015625,9.857421875,1.66650390625,42.08294117647059,452.2985652960014
0.0956025390625,0.2427021484375,0.8460009765625001,0.8853032422148237,-0.48193359375,9.673828125,1.001953125,41.89470588235295,452.2985652960014
0.1029267578125,0.1797138671875,0.6555712890625001,0.6875061502098344,-0.623046875,7.72119140625,0.46435546875,41.94176470588236,452.2985652960014
0.0746064453125,0.1157490234375,0.5447314453125001,0.5618685839421415,-0.53076171875,4.00634765625,0.18603515625,41.80058823529412,452.3305643057023
-0.0137724609375,0.0425068359375,0.4939501953125,0.4959670424846287,-0.1650390625,0.0439453125,0.46923828125,41.235882352941175,452.3305643057023
-0.0918974609375,-0.0151103515624999,0.5183642578125001,0.5266640008853897,0.30419921875,-3.2431640625,0.99462890625,41.89470588235295,452.3305643057023
-0.1270537109375,-0.0585673828125,0.5603564453125001,0.5775570357945236,0.4365234375,-5.4111328125,1.328125,41.94176470588236,452.3305643057023
-0.1519560546875,-0.0932353515625,0.6184619140625001,0.643644787505519,0.36279296875,-6.25244140625,1.41162109375,41.80058823529412,452.6318343447608
-0.1929716796875,-0.1010478515625,0.7034228515625001,0.7363779230579439,0.27734375,-6.314453125,1.28369140625,42.45941176470589,452.6318343447608
-0.2320341796875,-0.1064189453125,0.7791064453125001,0.8198607842750838,0.251953125,-5.357421875,1.123046875,41.94176470588236,452.6318343447608
-0.2193388671875,-0.0912822265625,0.8337939453125001,0.8669800036823732,0.07666015625,-3.8720703125,0.955078125,41.89470588235295,452.6318343447608
-0.1880888671875,-0.0590556640625,0.8660205078125001,0.888175947304114,-0.1748046875,-2.1162109375,0.685546875,41.89470588235295,452.6318343447608
-0.1456083984375,-0.0356181640625,0.8645556640625001,0.8774548168249277,-0.3828125,-0.26171875,0.16259765625,41.518235294117645,452.61087290688897
-0.1187529296875,-0.0063212890624999,0.8206103515625001,0.8291824685172172,-0.62158203125,1.15576171875,-0.4736328125,42.08294117647059,452.61087290688897
-0.0118193359375,0.0268818359375,0.7795947265625001,0.7801475934010393,-0.61572265625,1.9697265625,-0.89013671875,41.89470588235295,452.61087290688897
-0.1548857421875,0.0493427734375,0.7327197265625001,0.7505348093974735,-0.51953125,2.21826171875,-1.060546875,41.18882352941176,452.61087290688897
-0.1583037109375,0.0566669921875,0.6819384765625001,0.7023612309321644,-0.4462890625,1.9609375,-1.06884765625,41.89470588235295,451.6088626048301
-0.1768583984375,0.0688740234375,0.6555712890625001,0.682492666074453,-0.3544921875,1.34716796875,-0.9345703125,42.08294117647059,451.6088626048301
-0.1700224609375,0.0600849609375,0.6428759765625001,0.6676880716287305,-0.23388671875,0.6943359375,-0.80419921875,41.89470588235295,451.6088626048301
-0.1661162109375,0.0630146484375,0.6570361328125001,0.6806334705810014,-0.08447265625,0.0419921875,-0.71337890625,42.506470588235295,451.6088626048301
-0.1661162109375,0.0493427734375,0.6970751953125001,0.7182918158706088,0.12451171875,-0.26806640625,-0.63330078125,41.80058823529412,451.6088626048301
-0.1729521484375,0.0346943359375,0.7166064453125001,0.7379979268661317,0.26220703125,-0.291015625,-0.51708984375,41.94176470588236,452.502717560543
-0.1612333984375,0.0312763671875,0.7493212890625001,0.7671093886522571,0.4814453125,-0.302734375,-0.48486328125,41.89470588235295,452.502717560543
-0.1402373046875,0.0210224609375,0.8001025390625001,0.8125715466985926,0.67138671875,-0.251953125,-0.5556640625,41.98882352941177,452.502717560543
-0.1475615234375,0.0234638671875,0.8621142578125001,0.8749662563700307,0.853515625,-0.47216796875,-0.6298828125,41.89470588235295,452.502717560543
-0.1695341796875,0.0312763671875,0.9172900390625,0.9333493799162476,0.96923828125,-0.38232421875,-0.74462890625,41.04764705882353,452.2224110315797
-0.2017607421875,0.0434833984375,0.9631884765625,0.9850534221099456,1.0205078125,-0.23046875,-0.90966796875,41.94176470588236,452.2224110315797
-0.2222685546875,0.0454365234375,0.9905322265625,1.0161800430651158,0.9755859375,0.0419921875,-1.107421875,41.94176470588236,452.2224110315797
-0.2496123046875,0.0273701171875,1.0022509765625005,1.0332291352777216,0.8505859375,0.46728515625,-1.3134765625,42.224117647058826,452.2224110315797
-0.2515654296875,-0.0072978515624999,1.0217822265625005,1.0523199810752932,0.6953125,0.7177734375,-1.41796875,42.31823529411765,452.2224110315797
-0.2374052734375,-0.0448955078125,1.0618212890625005,1.0889634155397627,0.58837890625,0.57080078125,-1.51220703125,41.235882352941175,451.8681962567893
-0.2232451171875,-0.0800517578125,1.1252978515625005,1.1500182263808305,0.58447265625,0.1962890625,-1.79150390625,41.98882352941177,451.8681962567893
-0.2471708984375,-0.1000712890625,1.2092822265625005,1.2383340500079087,0.55078125,-0.19091796875,-2.08935546875,41.89470588235295,451.8681962567893
-0.2593779296875,-0.0893291015625,1.3547900390625005,1.3822852993278587,0.39501953125,-0.7431640625,-2.265625,41.89470588235295,451.8681962567893
-0.2388701171875,-0.0531962890625,1.4788134765625005,1.4989256407567586,0.04296875,-1.3037109375,-2.26708984375,41.98882352941177,451.4907968051878
-0.1724638671875,0.0132099609375,1.6204150390625005,1.6296205654609182,-0.4873046875,-0.3740234375,-1.9873046875,41.80058823529412,451.4907968051878
-0.0855498046875,0.0801044921875,1.6394580078125005,1.6436417061303898,-0.51513671875,1.5537109375,-1.6357421875,41.04764705882353,451.4907968051878
0.0204072265625,0.1211201171875,1.5505908203125005,1.555447983611435,-0.28076171875,2.3837890625,-1.27783203125,41.14176470588235,451.4907968051878
0.1903291015625,0.1435810546875,1.4192431640625005,1.4391288493060308,-0.177734375,2.28271484375,-1.09228515625,41.98882352941177,451.4907968051878
0.3558564453125,0.1411396484375,1.2263720703125005,1.2847344725172114,-0.25537109375,2.017578125,-1.18994140625,42.45941176470589,451.7600467039392
0.3260712890625,0.1679951171875,1.1282275390625005,1.1863567021974242,-0.34375,1.72998046875,-1.2880859375,41.94176470588236,451.7600467039392
0.1502900390625,0.2075458984375,1.1082080078125005,1.1374477501755356,0.0205078125,0.8251953125,-0.79150390625,41.98882352941177,451.7600467039392
-0.0342802734375,0.2153583984375,1.0945361328125005,1.1160482619298586,0.39111328125,-0.20556640625,0.037109375,41.98882352941177,451.7600467039392
-0.1451201171875,0.2285419921875,1.1072314453125005,1.1398476933758972,0.64794921875,-0.55908203125,0.6689453125,41.94176470588236,452.6859124385893
-0.1080107421875,0.2353779296875,1.1257861328125005,1.1551898142923491,0.72265625,-0.37841796875,0.55419921875,41.80058823529412,452.6859124385893
-0.0621123046875,0.2124287109375,1.1726611328125005,1.1933641640476964,0.67236328125,-0.27783203125,-0.23779296875,41.89470588235295,452.6859124385893
-0.0411162109375,0.1841083984375,1.2268603515625005,1.2412786824130753,0.64599609375,-0.2138671875,-1.09033203125,41.89470588235295,452.6859124385893
-0.0372099609375,0.1621357421875,1.2595751953125005,1.2705125944807414,0.60693359375,-0.029296875,-1.53564453125,41.33,452.6859124385893
-0.0464873046875,0.1455341796875,1.2996142578125005,1.3085635200722805,0.74267578125,0.57861328125,-1.3486328125,41.94176470588236,452.4585623511668
-0.0494169921875,0.1133076171875,1.2937548828125005,1.2996470105496931,0.9638671875,1.98828125,-0.98779296875,41.94176470588236,452.4585623511668
-0.0210966796875,0.0805927734375,1.2561572265625005,1.2589166941737555,0.79736328125,3.33837890625,-0.7353515625,42.08294117647059,452.4585623511668
0.0125947265625,0.0302998046875,1.2278369140625005,1.2282752919585285,0.78369140625,3.9765625,-0.51708984375,41.89470588235295,452.4585623511668
0.0355439453125,-0.0160869140625,1.1624072265625005,1.1630617873600508,0.47705078125,3.66259765625,-0.68603515625,42.45941176470589,453.07327379986623
0.0287080078125,-0.0248759765625,1.0935595703125005,1.0942191269323347,0.13623046875,3.09423828125,-0.96240234375,42.506470588235295,453.07327379986623
0.0121064453125,-0.0312236328125,1.0266650390625005,1.0272110706652844,-0.26708984375,2.69873046875,-1.03955078125,42.506470588235295,453.07327379986623
0.1151337890625,0.0073505859375,0.9978564453125,1.0045035121637014,-0.314453125,2.34033203125,-1.0009765625,41.94176470588236,453.07327379986623
-0.0699248046875,0.0259052734375,0.9382861328125,0.941244616733978,-0.29638671875,1.9677734375,-0.59521484375,41.94176470588236,453.07327379986623
-0.1324248046875,0.0410419921875,0.8855517578125001,0.8963384906295446,-0.1669921875,1.63916015625,-0.10693359375,42.506470588235295,452.5016011261524
-0.1836943359375,0.0469013671875,0.8318408203125001,0.853172021129238,-0.03955078125,1.2490234375,0.32958984375,42.506470588235295,452.5016011261524
-0.2222685546875,0.0630146484375,0.7952197265625001,0.8280993719564755,-0.048828125,0.443359375,0.64111328125,41.04764705882353,452.5016011261524
-0.2364287109375,0.0708271484375,0.7800830078125001,0.8181958930409958,-0.01708984375,-0.04248046875,0.77587890625,42.506470588235295,452.5016011261524
-0.2310576171875,0.0757099609375,0.7556689453125001,0.7938231387124146,-0.09033203125,-0.26123046875,0.88720703125,41.04764705882353,452.6307185043222
-0.2149443359375,0.0698505859375,0.7415087890625001,0.7751873684241508,-0.1064453125,-0.1728515625,0.9189453125,42.08294117647059,452.6307185043222
-0.1963896484375,0.0517841796875,0.7224658203125001,0.750471423039629,-0.1455078125,0.17626953125,0.8779296875,41.80058823529412,452.6307185043222
-0.1758818359375,0.0415302734375,0.6931689453125001,0.7163395637336967,-0.1767578125,0.55712890625,0.861328125,42.506470588235295,452.6307185043222
-0.1500029296875,0.0298115234375,0.6614306640625001,0.6788815281082977,-0.2734375,0.8740234375,0.82080078125,41.98882352941177,452.6307185043222
-0.1246123046875,0.0278583984375,0.6355517578125001,0.6482517672182557,-0.2841796875,0.9130859375,0.716796875,41.98882352941177,452.2444887314458
-0.1104521484375,0.0283466796875,0.6072314453125001,0.617845643765555,-0.3330078125,0.61474609375,0.64306640625,42.08294117647059,452.2444887314458
-0.1124052734375,0.0346943359375,0.5989306640625001,0.6103741334600038,-0.36669921875,0.1298828125,0.6240234375,41.94176470588236,452.2444887314458
-0.1265654296875,0.0224873046875,0.6209033203125001,0.6340705166140254,-0.34619140625,-0.17529296875,1.06689453125,41.80058823529412,452.2444887314458
-0.1417021484375,0.0249287109375,0.6921923828125001,0.7069874357613828,-0.36572265625,-0.06201171875,1.61279296875,41.94176470588236,452.3073695245242
-0.1446318359375,0.0527607421875,0.7361376953125001,0.7520643392309111,-0.380859375,-0.15087890625,1.80810546875,41.94176470588236,452.3073695245242
-0.1451201171875,0.0669208984375,0.7444384765625001,0.7613979908345516,-0.34228515625,-0.220703125,1.87890625,41.89470588235295,452.3073695245242
-0.1495146484375,0.0581318359375,0.7595751953125001,0.7763300958876168,-0.326171875,-0.265625,2.072265625,41.04764705882353,452.3073695245242
-0.1436552734375,0.0693623046875,0.7961962890625001,0.8120200106000225,-0.369140625,-0.365234375,2.17236328125,41.98882352941177,452.3073695245242
-0.1558623046875,0.0840107421875,0.8313525390625001,0.849998768840908,-0.4189453125,-0.4091796875,2.0,42.13,452.43536876322514
-0.1724638671875,0.0942646484375,0.8440478515625001,0.8666293239658956,-0.43359375,-0.32958984375,1.83251953125,41.89470588235295,452.43536876322514
-0.1802763671875,0.0957294921875,0.8367236328125001,0.8612607862591599,-0.43310546875,-0.28466796875,1.7705078125,41.98882352941177,452.43536876322514
-0.2256865234375,0.1079365234375,0.8723681640625001,0.9075301171987936,-0.4921875,-0.16162109375,1.8740234375,41.89470588235295,452.43536876322514
-0.1929716796875,0.1123310546875,0.8977587890625001,0.9251092791381932,-0.4580078125,-0.19189453125,1.9814453125,41.94176470588236,451.9520309649926
-0.2115263671875,0.0937763671875,0.8377001953125001,0.8690679077523382,-0.419921875,-0.20849609375,1.9814453125,42.13,451.9520309649926
-0.2862333984375,0.1079365234375,0.8342822265625001,0.8885981572290915,-0.48974609375,0.2138671875,1.990234375,42.224117647058826,451.9520309649926
-0.2999052734375,0.1162373046875,0.8811572265625001,0.9380257682814228,-0.46923828125,0.447265625,2.0283203125,42.13,451.9520309649926
-0.3140654296875,0.1050068359375,0.8992236328125001,0.9582623187451904,-0.47314453125,0.71630859375,2.07861328125,41.98882352941177,451.9520309649926
-0.3169951171875,0.1118427734375,0.8826220703125001,0.94446621395031,-0.44287109375,0.95654296875,2.13330078125,41.80058823529412,451.5205518447728
-0.3199248046875,0.1279560546875,0.8787158203125001,0.943857047149088,-0.443359375,1.11474609375,2.18408203125,41.94176470588236,451.5205518447728
-0.3121123046875,0.1479755859375,0.8972705078125001,0.9614599466233584,-0.38427734375,1.3427734375,2.21923828125,41.80058823529412,451.5205518447728
-0.3140654296875,0.1509052734375,0.8870166015625001,0.9529994475987524,-0.318359375,1.48095703125,2.25830078125,41.94176470588236,451.5205518447728
-0.3096708984375,0.1528583984375,0.8958056640625001,0.9600674679825488,-0.2294921875,1.6640625,2.26025390625,41.61235294117647,451.8317230196166
-0.3145537109375,0.1631123046875,0.9441455078125,1.0084445452911843,-0.134765625,1.8955078125,2.16845703125,41.89470588235295,451.8317230196166
-0.3248076171875,0.1684833984375,1.0212939453125005,1.0848631095507135,0.03955078125,2.08251953125,2.2373046875,41.94176470588236,451.8317230196166
-0.3096708984375,0.1787373046875,1.1204150390625005,1.1760837339167074,0.3359375,2.1953125,2.3330078125,41.94176470588236,451.8317230196166
-0.2754912109375,0.1938740234375,1.2078173828125005,1.2539160157250135,0.6494140625,2.0322265625,2.4736328125,41.89470588235295,451.8317230196166
-0.2193388671875,0.1919208984375,1.2708056640625005,1.303798376179954,0.939453125,1.82421875,2.4677734375,42.31823529411765,451.769965822714
-0.1700224609375,0.1743427734375,1.2400439453125005,1.2637294117726765,1.12158203125,1.650390625,2.27880859375,41.235882352941175,451.769965822714
-0.1216826171875,0.1562763671875,1.2063525390625005,1.222503746730235,1.0390625,1.5595703125,1.98486328125,41.37705882352941,451.769965822714
-0.0796904296875,0.1186787109375,1.1633837890625005,1.1721335425910246,0.80810546875,1.53515625,1.60986328125,41.89470588235295,451.769965822714
-0.0538115234375,0.0766865234375,1.1311572265625005,1.1350300322617737,0.52490234375,1.494140625,1.09326171875,41.98882352941177,452.0061066218925
-0.0459990234375,0.0879169921875,1.1790087890625005,1.183176669969081,0.2861328125,1.64208984375,0.44140625,41.80058823529412,452.0061066218925
-0.0337919921875,0.0727802734375,1.2644580078125005,1.2670015471414369,0.25390625,1.6005859375,-0.052734375,41.235882352941175,452.0061066218925
-0.0040068359375,-0.0004619140624999,1.2009814453125005,1.2009882181286098,0.18359375,0.9580078125,-0.38916015625,41.94176470588236,452.0061066218925
-0.0630888671875,-0.0527080078125,1.0867236328125005,1.0898286990916335,0.125,0.6923828125,-0.501953125,41.98882352941177,452.0061066218925
-0.1226591796875,-0.0844462890625,1.0569384765625005,1.0673778118999366,-0.04052734375,0.802734375,-0.78369140625,41.94176470588236,452.4254460902418
-0.1465849609375,-0.1103251953125,1.1140673828125005,1.1290725986137842,-0.13232421875,0.568359375,-0.806640625,42.13,452.4254460902418
-0.1568388671875,-0.1606181640625,1.1277392578125005,1.149866278529358,-0.18212890625,0.2958984375,-0.57373046875,41.89470588235295,452.4254460902418
-0.1353544921875,-0.1791728515625,1.1169970703125005,1.1393446381052057,-0.32080078125,-0.01806640625,-0.177734375,41.89470588235295,452.4254460902418
-0.1373076171875,-0.1669658203125,1.1301806640625005,1.150669066374468,-0.4521484375,-0.30126953125,0.43115234375,41.04764705882353,452.2422539300072
-0.1631865234375,-0.1288798828125,1.1765673828125005,1.194801519886729,-0.57958984375,-0.56689453125,1.03662109375,41.98882352941177,452.2422539300072
-0.1880888671875,-0.0854228515625,1.1755908203125005,1.193603058948813,-0.6884765625,-0.560546875,1.48046875,42.224117647058826,452.2422539300072
-0.2051787109375,-0.0175517578125,1.1848681640625005,1.2026300070400384,-0.7353515625,-0.279296875,1.6494140625,41.98882352941177,452.2422539300072
-0.2227568359375,0.0327412109375,1.1873095703125005,1.208468704851803,-0.64111328125,0.0126953125,1.78271484375,41.94176470588236,452.2422539300072
-0.2125029296875,0.0635029296875,1.1731494140625005,1.193930343411982,-0.5400390625,0.369140625,1.92236328125,42.45941176470589,451.8019629376397
-0.1773466796875,0.0786396484375,1.1233447265625005,1.1399734267948236,-0.45947265625,0.77001953125,1.96484375,41.80058823529412,451.8019629376397
-0.1519560546875,0.0869404296875,1.0452197265625005,1.0597799571919757,-0.51806640625,1.18017578125,1.95458984375,41.04764705882353,451.8019629376397
-0.1221708984375,0.1011005859375,0.9529345703125,0.9660390013858658,-0.36962890625,1.3447265625,1.5595703125,42.224117647058826,451.8019629376397
-0.1368193359375,0.0884052734375,0.9216845703125,0.935968733564362,-0.41162109375,2.06884765625,1.37451171875,41.94176470588236,452.1451395203906
-0.1504912109375,0.0600849609375,0.8191455078125001,0.8350192632925869,-0.23828125,2.037109375,1.28515625,41.94176470588236,452.1451395203906
-0.1597685546875,0.0356708984375,0.7283251953125001,0.7464958098939755,-0.0869140625,1.58447265625,1.51025390625,41.80058823529412,452.1451395203906
-0.1578154296875,0.0112568359375,0.6653369140625001,0.683890075536255,0.01953125,0.8125,1.7451171875,41.80058823529412,452.1451395203906
-0.1509794921875,-0.0004619140624999,0.6272509765625001,0.645165721364989,0.12646484375,-0.02734375,1.7109375,41.80058823529412,452.1451395203906
-0.1392607421875,-0.0014384765624999,0.6248095703125001,0.640142658072031,0.19677734375,-0.71875,1.4931640625,42.08294117647059,452.7145680744712
-0.1451201171875,-0.0141337890624999,0.6306689453125001,0.6473043573060189,0.19287109375,-1.146484375,1.15966796875,42.08294117647059,452.7145680744712
-0.1670927734375,-0.0024150390624999,0.6580126953125001,0.678900975504624,0.1259765625,-1.31494140625,0.763671875,41.89470588235295,452.7145680744712
-0.2046904296875,0.0132099609375,0.6863330078125001,0.7163279086330344,0.08251953125,-1.18603515625,0.4619140625,41.235882352941175,452.7145680744712
-0.2408232421875,0.0259052734375,0.7058642578125001,0.7462648776585713,0.119140625,-0.85693359375,0.3369140625,41.94176470588236,452.5953723267658
-0.2574248046875,0.0454365234375,0.7229541015625001,0.7687617580866817,0.2451171875,-0.462890625,0.2236328125,41.94176470588236,452.5953723267658
-0.2374052734375,0.0713154296875,0.7249072265625001,0.7661185557666532,0.22412109375,-0.2421875,-0.0634765625,41.94176470588236,452.5953723267658
-0.2432646484375,0.1054951171875,0.7366259765625001,0.7828951004294775,0.287109375,-0.24951171875,-0.40576171875,41.80058823529412,452.5953723267658
-0.2520537109375,0.1152607421875,0.7517626953125001,0.8012260991446128,0.43408203125,-0.32861328125,-0.55615234375,41.80058823529412,452.5953723267658
-0.2750029296875,0.0981708984375,0.7742236328125001,0.827457775504055,0.59228515625,-0.3408203125,-0.57568359375,42.36529411764706,451.9939498408434
-0.2901396484375,0.0722919921875,0.7698291015625001,0.8258595481935168,0.5693359375,-0.1396484375,-0.63232421875,41.89470588235295,451.9939498408434
-0.2920927734375,0.0581318359375,0.7698291015625001,0.8254297936568568,0.45068359375,0.14111328125,-0.84912109375,41.98882352941177,451.9939498408434
-0.2891630859375,0.0473896484375,0.7693408203125001,0.8232535252563686,0.40576171875,0.3681640625,-1.1181640625,41.80058823529412,451.9939498408434
-0.2974638671875,0.0366474609375,0.7752001953125001,0.8311216105287159,0.39794921875,0.3359375,-1.30078125,42.224117647058826,451.68165535356985
-0.3047880859375,0.0283466796875,0.7878955078125001,0.8452683850765199,0.412109375,0.0400390625,-1.29443359375,41.94176470588236,451.68165535356985
-0.3077177734375,0.0161396484375,0.8049853515625001,0.8619467109811491,0.47900390625,-0.208984375,-1.064453125,42.08294117647059,451.68165535356985
-0.3018583984375,-0.0068095703124999,0.8206103515625001,0.8743947689954598,0.56884765625,-0.4892578125,-0.71923828125,41.80058823529412,451.68165535356985
-0.3218779296875,-0.0097392578124999,0.8806689453125001,0.937698270234344,0.6767578125,-0.4208984375,-0.4248046875,42.08294117647059,451.68165535356985
-0.3277373046875,0.0063740234375,0.9441455078125,0.9994313928335116,0.8203125,-0.0498046875,-0.27587890625,41.80058823529412,451.85380045285046
-0.3135771484375,0.0019794921875,1.0061572265625005,1.0538913183888825,0.82763671875,0.75830078125,-0.32958984375,41.94176470588236,451.85380045285046
-0.3003935546875,-0.0175517578125,1.0188525390625005,1.0623581544160163,0.83642578125,1.068359375,-0.5751953125,41.94176470588236,451.85380045285046
-0.3111357421875,-0.0424541015625,1.0310595703125005,1.077817998708058,0.77099609375,1.033203125,-0.6875,42.08294117647059,451.85380045285046
-0.3213896484375,-0.0439189453125,1.0569384765625005,1.105594465940564,0.73779296875,1.005859375,-0.8125,41.94176470588236,451.659577875439
-0.3697294921875,-0.0258525390625,1.1038134765625005,1.1643764177490876,0.6455078125,1.09716796875,-0.884765625,41.98882352941177,451.659577875439
-0.4400419921875,0.0068623046875,1.1506884765625005,1.2319772790955583,0.53515625,1.3603515625,-0.81591796875,42.08294117647059,451.659577875439
-0.5206083984375,0.0649677734375,1.2293017578125005,1.3365764953305097,0.447265625,1.880859375,-0.650390625,42.08294117647059,451.659577875439
-0.5787138671875,0.1323505859375,1.3767626953125005,1.4993004825175145,0.53955078125,2.251953125,-0.29248046875,41.18882352941176,451.659577875439
-0.5308623046875,0.1963154296875,1.4944384765625005,1.5980303172036376,1.0166015625,2.017578125,0.19677734375,42.08294117647059,451.2711410424285
-0.3501982421875,0.2212177734375,1.4026416015625005,1.462525068007272,1.20751953125,1.44970703125,0.505859375,42.506470588235295,451.2711410424285
-0.0806669921875,0.2261005859375,1.2087939453125005,1.232400681926953,0.79296875,0.708984375,0.22802734375,41.94176470588236,451.2711410424285
0.0423798828125,0.2309833984375,1.1218798828125005,1.1461953831176983,0.1806640625,0.39306640625,-0.7919921875,42.224117647058826,451.2711410424285
0.0506806640625,0.2109638671875,1.1741259765625005,1.194004226042507,-0.0146484375,0.35546875,-1.251953125,41.98882352941177,450.8959983084836
0.0155244140625,0.2134052734375,1.2034228515625005,1.222296763403118,-0.10888671875,-0.36181640625,-1.5654296875,41.98882352941177,450.8959983084836
-0.0455107421875,0.1787373046875,1.2805712890625005,1.2937855611006803,-0.0537109375,-1.0712890625,-1.54443359375,42.506470588235295,450.8959983084836
-0.0347685546875,0.0844990234375,1.2542041015625005,1.2575280775128432,-0.21240234375,-1.81787109375,-1.26416015625,41.98882352941177,450.8959983084836
0.0257783203125,0.0752216796875,1.2576220703125005,1.2601333638271155,-0.19384765625,-2.921875,-1.15966796875,41.80058823529412,450.8959983084836
0.0282197265625,0.1323505859375,1.2708056640625005,1.2779906362640512,-0.08056640625,-3.9208984375,-1.2177734375,41.14176470588235,451.6055033043612
0.0448212890625,0.2168232421875,1.3118212890625005,1.33037451897709,0.158203125,-4.8203125,-1.07763671875,42.08294117647059,451.6055033043612
-0.0093779296875,0.2651630859375,1.3543017578125005,1.3800480639902184,0.3154296875,-4.79248046875,-0.6728515625,42.506470588235295,451.6055033043612
-0.0845732421875,0.2510029296875,1.4617236328125005,1.485527206997027,0.7119140625,-3.44140625,-0.16845703125,41.80058823529412,451.6055033043612
-0.0782255859375,0.2070576171875,1.4055712890625005,1.4228923879786022,0.71630859375,-2.1240234375,-0.18115234375,41.94176470588236,452.4132914202379
-0.0650419921875,0.1982685546875,1.3494189453125005,1.3654568358223154,0.4013671875,-0.9140625,-0.6953125,41.18882352941176,452.4132914202379
-0.0713896484375,0.2036396484375,1.2703173828125005,1.2885153632748734,0.162109375,-0.283203125,-1.20947265625,41.98882352941177,452.4132914202379
-0.1133818359375,0.1992451171875,1.2356494140625005,1.2567352672367471,0.08056640625,0.14990234375,-1.3583984375,42.08294117647059,452.4132914202379
-0.1309599609375,0.1728779296875,1.2224658203125005,1.241555464638653,0.21826171875,0.25537109375,-1.1767578125,41.14176470588235,452.4132914202379
-0.1246123046875,0.1343037109375,1.2043994140625005,1.2182543502262604,0.31201171875,0.27294921875,-0.859375,42.13,452.7796855518688
-0.1089873046875,0.1206318359375,1.1951220703125005,1.2061289464119227,0.33251953125,0.47607421875,-0.77880859375,41.89470588235295,452.7796855518688
-0.0904326171875,0.1108662109375,1.1414111328125005,1.150342883268869,0.2587890625,0.92529296875,-0.94775390625,41.80058823529412,452.7796855518688
-0.0938505859375,0.0986591796875,1.0793994140625005,1.0879543470642008,0.14892578125,1.5185546875,-1.27294921875,41.80058823529412,452.7796855518688
-0.1148466796875,0.0898701171875,1.0100634765625005,1.0205364395669871,0.0087890625,2.0576171875,-1.41845703125,41.235882352941175,452.4761773391271
-0.1363310546875,0.0908466796875,0.9597705078125,0.9736522497016652,-0.07666015625,2.3505859375,-1.34619140625,41.98882352941177,452.4761773391271
-0.1617216796875,0.0610615234375,0.8752978515625001,0.8922044274018052,-0.140625,2.3349609375,-1.01123046875,42.506470588235295,452.4761773391271
-0.1675810546875,0.0576435546875,0.8108447265625001,0.829985156422331,-0.19287109375,2.04150390625,-0.68408203125,42.45941176470589,452.4761773391271
-0.1612333984375,0.0405537109375,0.7507861328125001,0.7689737508303238,-0.20361328125,1.48828125,-0.47119140625,42.506470588235295,452.4761773391271
-0.1431669921875,0.0483662109375,0.7053759765625001,0.7213815539116364,-0.291015625,0.99951171875,-0.45751953125,42.08294117647059,452.89776862737847
-0.1431669921875,0.0512958984375,0.6941455078125001,0.71060962761899,-0.3896484375,0.361328125,-0.42919921875,41.47117647058823,452.89776862737847
-0.1680693359375,0.0493427734375,0.7043994140625001,0.7258516001942615,-0.4306640625,0.41357421875,-0.2001953125,41.18882352941176,452.89776862737847
-0.1402373046875,0.0342060546875,0.7239306640625001,0.7381816593314082,-0.26806640625,0.67333984375,0.40283203125,42.08294117647059,452.89776862737847
-0.1197294921875,0.0185810546875,0.6804736328125001,0.6911763681187442,-0.23291015625,0.6865234375,0.72998046875,41.14176470588235,452.5313702993153
-0.0982451171875,0.0239521484375,0.6643603515625001,0.6720122656575596,-0.36328125,0.6240234375,0.6767578125,41.80058823529412,452.5313702993153
-0.0977568359375,0.0439716796875,0.6863330078125001,0.6946530826247046,-0.45166015625,0.33935546875,0.3525390625,41.94176470588236,452.5313702993153
-0.1084990234375,0.0444599609375,0.7087939453125001,0.7184271592340553,-0.4404296875,0.3564453125,0.17333984375,41.80058823529412,452.5313702993153
-0.1016630859375,0.0371357421875,0.6946337890625001,0.7030153250800993,-0.4033203125,0.15869140625,0.17333984375,41.98882352941177,452.5313702993153
-0.1094755859375,0.0307880859375,0.6956103515625001,0.7048450690420972,-0.4091796875,-0.01513671875,0.4697265625,42.506470588235295,452.50817835015664
-0.1124052734375,0.0381123046875,0.7268603515625001,0.7364872462838126,-0.44921875,-0.03369140625,0.72021484375,41.94176470588236,452.50817835015664
-0.1280302734375,0.0415302734375,0.7644580078125001,0.7762168255306832,-0.50732421875,-0.11181640625,0.87451171875,41.98882352941177,452.50817835015664
-0.1651396484375,0.0483662109375,0.7927783203125001,0.8112384723396818,-0.5400390625,-0.16357421875,1.1494140625,41.94176470588236,452.50817835015664
-0.1895537109375,0.0503193359375,0.8186572265625001,0.841820823870717,-0.55322265625,-0.23681640625,1.4912109375,41.80058823529412,452.11090648023327
-0.2027373046875,0.0605732421875,0.8377001953125001,0.8640099244844693,-0.53076171875,-0.4287109375,1.69873046875,41.94176470588236,452.11090648023327
-0.2276396484375,0.0576435546875,0.8391650390625001,0.8714014871013972,-0.587890625,-0.4560546875,1.92529296875,41.94176470588236,452.11090648023327
-0.2393583984375,0.0703388671875,0.8523486328125001,0.8881093350467181,-0.60498046875,-0.48681640625,2.09765625,41.94176470588236,452.11090648023327
-0.2544951171875,0.0766865234375,0.8577197265625001,0.8979597523740468,-0.576171875,-0.55419921875,2.18896484375,41.80058823529412,452.11090648023327
-0.2745146484375,0.0893818359375,0.8630908203125001,0.910095142779054,-0.6962890625,-0.4501953125,2.1298828125,41.98882352941177,451.9486777446827
-0.2891630859375,0.0962177734375,0.8772509765625001,0.9286777837732676,-0.75732421875,-0.2197265625,2.09716796875,41.98882352941177,451.9486777446827
-0.2925810546875,0.1064716796875,0.8870166015625001,0.940073584133186,-0.7568359375,-0.00439453125,2.1083984375,41.80058823529412,451.9486777446827
-0.2857451171875,0.1089130859375,0.8914111328125001,0.9424044460776868,-0.78515625,0.16748046875,2.1875,42.224117647058826,451.9486777446827
-0.2837919921875,0.1235615234375,0.9031298828125,0.9546983450980032,-0.787109375,0.3203125,2.2294921875,41.98882352941177,452.08882923688816
-0.2862333984375,0.1382099609375,0.9119189453125,0.965726521590501,-0.791015625,0.4736328125,2.32275390625,41.14176470588235,452.08882923688816
-0.2999052734375,0.1572529296875,0.9348681640625,0.9943088761086832,-0.78076171875,0.58349609375,2.40234375,41.94176470588236,452.08882923688816
-0.3052763671875,0.1645771484375,0.9465869140625,1.0081200742101029,-0.72802734375,0.69775390625,2.5263671875,42.506470588235295,452.08882923688816
-0.3018583984375,0.1762958984375,0.9558642578125,1.0177795517088066,-0.701171875,0.7763671875,2.60791015625,41.18882352941176,452.08882923688816
-0.2901396484375,0.1777607421875,0.9490283203125,1.0081838373102656,-0.59619140625,0.8720703125,2.6103515625,41.14176470588235,451.7445317483786
-0.2623076171875,0.1831318359375,0.9465869140625,0.9991843379691208,-0.51171875,0.9541015625,2.5009765625,41.94176470588236,451.7445317483786
-0.2378935546875,0.1919208984375,0.9324267578125,0.981247488304374,-0.44580078125,0.95849609375,2.265625,41.94176470588236,451.7445317483786
-0.2579130859375,0.2016865234375,0.9172900390625,0.9739700351640148,-0.43017578125,0.96484375,2.064453125,41.33,451.7445317483786
-0.2872099609375,0.2090107421875,0.9085009765625,0.9754737702401364,-0.39599609375,0.96240234375,1.89404296875,42.224117647058826,451.862603361336
-0.3331083984375,0.2177998046875,0.9045947265625,0.9882760643444694,-0.39453125,1.13623046875,1.78515625,41.89470588235295,451.862603361336
-0.4029326171875,0.2143818359375,0.9314501953125,1.0372626147322557,-0.3837890625,1.49169921875,1.7685546875,41.7064705882353,451.862603361336
-0.4273466796875,0.2143818359375,1.0154345703125005,1.1223600682515376,-0.31884765625,1.79345703125,1.86474609375,41.89470588235295,451.862603361336
-0.4273466796875,0.2153583984375,1.1140673828125005,1.212497652725229,-0.19091796875,1.857421875,2.22509765625,42.36529411764706,451.862603361336
-0.3467802734375,0.2099873046875,1.1770556640625005,1.2449141586779875,0.06884765625,1.69970703125,2.66943359375,41.14176470588235,452.17378943884125
-0.2408232421875,0.2109638671875,1.1497119140625005,1.1934567744889897,0.302734375,1.39892578125,2.763671875,41.18882352941176,452.17378943884125
-0.1959013671875,0.2021748046875,1.1272509765625005,1.1618720934240012,0.4638671875,1.38232421875,2.4453125,42.08294117647059,452.17378943884125
-0.1949248046875,0.1733662109375,1.1335986328125005,1.1632271415728124,0.4853515625,1.517578125,2.07080078125,41.94176470588236,452.17378943884125
-0.1656279296875,0.1435810546875,1.1160205078125005,1.137343353704506,0.482421875,1.62744140625,1.89501953125,42.08294117647059,451.8934848652471
-0.1202177734375,0.1015888671875,1.0984423828125005,1.1096613354287483,0.41015625,1.6455078125,1.71728515625,42.08294117647059,451.8934848652471
-0.1236357421875,0.0576435546875,1.0857470703125005,1.094282996685703,0.1689453125,1.6201171875,1.53564453125,41.98882352941177,451.8934848652471
-0.1109404296875,0.0200458984375,1.1907275390625005,1.1960525445252193,-0.10986328125,1.62353515625,1.40185546875,42.08294117647059,451.8934848652471
0.0282197265625,-0.0395244140625,1.3171923828125005,1.318087366456988,-0.21923828125,1.0751953125,1.18115234375,41.98882352941177,451.8934848652471
0.1327119140625,-0.0956767578125,1.2937548828125005,1.3040583541087534,-0.24267578125,0.3984375,0.91845703125,41.94176470588236,452.1517123961529
0.1283173828125,-0.1269267578125,1.1873095703125005,1.200949527805518,-0.25,0.05224609375,0.66162109375,41.14176470588235,452.1517123961529
0.0614228515625,-0.1933330078125,1.1433642578125005,1.1612201533934152,-0.3720703125,-0.181640625,0.685546875,42.506470588235295,452.1517123961529
-0.0147490234375,-0.2553447265625,1.1628955078125005,1.1906907344756366,-0.26220703125,-0.6591796875,1.17919921875,42.506470588235295,452.1517123961529
-0.0416044921875,-0.3080791015625,1.1165087890625005,1.1589803892402786,0.107421875,-1.671875,2.17578125,41.89470588235295,452.79842170310974
-0.0494169921875,-0.3022197265625,1.0691455078125005,1.1121379946373655,0.18798828125,-2.43896484375,2.53466796875,41.89470588235295,452.79842170310974
-0.0308623046875,-0.2709697265625,1.0886767578125005,1.1223164248843185,-0.18896484375,-2.6142578125,2.49365234375,41.94176470588236,452.79842170310974
-0.0250029296875,-0.2489970703125,0.9880908203125,1.0192880636517805,-0.7900390625,-3.44873046875,2.7587890625,41.94176470588236,452.79842170310974
-0.0098662109375,-0.0937236328125,1.1209033203125005,1.1248580865840023,-1.4052734375,-3.4794921875,3.13671875,41.94176470588236,452.79842170310974
0.0140595703125,0.0591083984375,1.2009814453125005,1.2025173205688642,-1.3271484375,-2.9921875,2.60595703125,41.94176470588236,452.593144115129
-0.0293974609375,0.1411396484375,1.2551806640625005,1.2634330653054051,-1.423828125,-1.5107421875,1.845703125,41.80058823529412,452.593144115129
-0.0835966796875,0.1645771484375,1.2888720703125005,1.302023523702327,-1.07958984375,-0.4130859375,1.44384765625,41.94176470588236,452.593144115129
-0.1036162109375,0.1582294921875,1.1711962890625005,1.1863699418312696,-0.95751953125,0.09521484375,1.2802734375,42.13,452.593144115129
-0.1021513671875,0.1421162109375,1.1155322265625005,1.1291784924133992,-1.05712890625,0.779296875,1.09375,41.98882352941177,451.8835632605097
-0.1026396484375,0.1157490234375,1.0632861328125005,1.074481332592368,-0.97802734375,1.625,1.01953125,41.61235294117647,451.8835632605097
-0.0967802734375,0.0644794921875,0.9822314453125,0.9890918250597758,-0.759765625,2.26025390625,1.1396484375,41.94176470588236,451.8835632605097
-0.0972685546875,0.0176044921875,0.9104541015625,0.9158044337783882,-0.61181640625,2.0146484375,1.34228515625,41.7064705882353,451.8835632605097
-0.1221708984375,-0.0317119140625,0.8279345703125001,0.8375004636637985,-0.4287109375,1.18017578125,1.7392578125,41.98882352941177,451.8835632605097
-0.1172880859375,-0.0624736328125,0.7722705078125001,0.7836205632426003,-0.22509765625,0.0908203125,2.18798828125,41.94176470588236,452.0877129155542
-0.1143583984375,-0.0629619140625,0.7136767578125001,0.725518132480068,0.00634765625,-0.779296875,2.373046875,41.89470588235295,452.0877129155542
-0.1153349609375,-0.0624736328125,0.7043994140625001,0.7165079500904642,0.09375,-1.41943359375,2.2099609375,41.98882352941177,452.0877129155542
-0.1485380859375,-0.0649150390625,0.6868212890625001,0.7056918650373805,0.17919921875,-1.791015625,1.8974609375,42.08294117647059,452.0877129155542
-0.1924833984375,-0.0663798828125,0.7190478515625001,0.7473191823798568,0.17919921875,-2.06103515625,1.62548828125,42.08294117647059,452.5489903655528
-0.2217802734375,-0.0595439453125,0.7566455078125001,0.7907239692852535,0.14208984375,-2.0927734375,1.51708984375,41.98882352941177,452.5489903655528
-0.2261748046875,-0.0439189453125,0.7893603515625001,0.8222978053306873,0.04638671875,-1.78271484375,1.517578125,41.98882352941177,452.5489903655528
-0.2017607421875,-0.0199931640625,0.8333056640625001,0.8576161457528217,-0.08203125,-1.07861328125,1.443359375,42.224117647058826,452.5489903655528
-0.1836943359375,0.0132099609375,0.8606494140625001,0.8801338114455177,-0.11572265625,-0.09521484375,1.23583984375,41.89470588235295,452.5489903655528
-0.1480498046875,0.0464130859375,0.8699267578125001,0.8836546175811095,-0.072265625,0.701171875,0.89453125,42.506470588235295,452.40002233301175
-0.1280302734375,0.0654560546875,0.8562548828125001,0.8682445913174365,-0.01171875,1.10400390625,0.52197265625,41.80058823529412,452.40002233301175
-0.1236357421875,0.0722919921875,0.8333056640625001,0.8455236594202056,0.060546875,1.10595703125,0.24072265625,41.94176470588236,452.40002233301175
-0.1177763671875,0.0532490234375,0.8064501953125001,0.8167427065389086,0.09619140625,0.818359375,-0.0322265625,41.80058823529412,452.40002233301175
-0.1309599609375,0.0317646484375,0.8035205078125001,0.814742113023727,0.09521484375,0.36669921875,-0.2421875,42.506470588235295,451.7963718804209
-0.1270537109375,0.0156513671875,0.8069384765625001,0.8170295684458648,0.162109375,-0.134765625,-0.353515625,41.80058823529412,451.7963718804209
-0.1138701171875,-0.0009501953124999,0.8113330078125001,0.8192853935140704,0.21044921875,-0.5185546875,-0.42236328125,41.18882352941176,451.7963718804209
-0.1001982421875,-0.0029033203124999,0.8132861328125001,0.8194403278039307,0.23828125,-0.67626953125,-0.32861328125,41.89470588235295,451.7963718804209
-0.0865263671875,-0.0112041015624999,0.8074267578125001,0.8121270302988902,0.23388671875,-0.544921875,-0.18212890625,41.94176470588236,451.7963718804209
-0.0733427734375,-0.0253642578125,0.7957080078125001,0.7994834217710967,0.26611328125,-0.20849609375,-0.01806640625,41.94176470588236,452.4419473743047
-0.0757841796875,-0.0361064453125,0.7981494140625001,0.802551807955302,0.302734375,0.03369140625,0.15380859375,41.94176470588236,452.4419473743047
-0.0909208984375,-0.0375712890625,0.8137744140625001,0.8196993403176956,0.376953125,0.0537109375,0.26513671875,41.98882352941177,452.4419473743047
-0.1334013671875,-0.0317119140625,0.8455126953125001,0.8565589811540185,0.46435546875,-0.09375,0.2470703125,41.18882352941176,452.4419473743047
-0.1934599609375,-0.0038798828124999,0.8772509765625001,0.8983379574839514,0.47314453125,-0.171875,0.1337890625,42.08294117647059,452.4541002524665
-0.2325224609375,0.0141865234375,0.9060595703125,0.9355276036774895,0.46240234375,-0.1376953125,-0.16357421875,41.80058823529412,452.4541002524665
-0.2632841796875,0.0263935546875,0.9470751953125,0.9833446011337896,0.36865234375,0.03271484375,-0.5693359375,41.235882352941175,452.4541002524665
-0.2730498046875,0.0263935546875,0.9861376953125,1.0235821264975142,0.2236328125,0.15966796875,-0.97900390625,41.94176470588236,452.4541002524665
-0.2691435546875,0.0083271484375,1.0320361328125005,1.066586224297644,0.18310546875,0.1943359375,-1.150390625,41.98882352941177,452.4541002524665
-0.2540068359375,-0.0180400390625,1.0886767578125005,1.1180617150736778,0.19140625,0.19287109375,-1.08935546875,41.94176470588236,451.8184489850658
-0.2310576171875,-0.0356181640625,1.1223681640625005,1.1464582730185064,0.224609375,0.349609375,-0.9365234375,42.13,451.8184489850658
-0.2208037109375,-0.0209697265625,1.1257861328125005,1.1474268713206963,0.26953125,0.9013671875,-0.68603515625,41.98882352941177,451.8184489850658
-0.2251982421875,0.0176044921875,1.1311572265625005,1.15349071848632,0.396484375,1.611328125,-0.4072265625,42.506470588235295,451.8184489850658
-0.2437529296875,0.0781513671875,1.1458056640625005,1.1740501465960569,0.494140625,1.92919921875,-0.12841796875,41.89470588235295,451.36489129588045
-0.2422880859375,0.1308857421875,1.1960986328125005,1.22739013093277,0.5390625,1.31591796875,0.06396484375,41.98882352941177,451.36489129588045
-0.2032255859375,0.1792255859375,1.2175830078125005,1.24736956446276,0.58984375,0.33349609375,0.0849609375,41.94176470588236,451.36489129588045
-0.1465849609375,0.2026630859375,1.1619189453125005,1.1885348596700358,0.52490234375,0.11962890625,-0.150390625,41.80058823529412,451.36489129588045
-0.1226591796875,0.2148701171875,1.1277392578125005,1.1545606416439411,0.34375,0.42919921875,-0.72119140625,41.94176470588236,451.36489129588045
-0.0357451171875,0.2651630859375,1.1682666015625005,1.1985140916455843,0.21875,-0.6083984375,-1.24560546875,41.98882352941177,451.51719401490624
0.0638642578125,0.2944599609375,1.2087939453125005,1.2457801227525729,0.17529296875,-2.26318359375,-1.72265625,42.13,451.51719401490624
0.0082001953125,0.2397724609375,1.2083056640625005,1.2318931179419377,0.2705078125,-1.69287109375,-2.0859375,42.08294117647059,451.51719401490624
-0.0752958984375,0.1924091796875,1.2561572265625005,1.2730364262638834,0.728515625,0.38134765625,-1.93359375,42.506470588235295,451.51719401490624
-0.0948271484375,0.1650654296875,1.1550830078125005,1.1706645715557806,1.02099609375,1.0791015625,-1.58837890625,41.98882352941177,452.0325203570878
-0.0748076171875,0.1426044921875,1.0857470703125005,1.097624216876388,0.91015625,0.83056640625,-1.33837890625,41.18882352941176,452.0325203570878
-0.0547880859375,0.0923115234375,1.0491259765625005,1.054603464065175,0.80908203125,0.64501953125,-1.29052734375,41.98882352941177,452.0325203570878
-0.0376982421875,0.0439716796875,1.0252001953125005,1.0268349948007012,0.6435546875,0.82177734375,-1.09814453125,41.80058823529412,452.0325203570878
-0.0127958984375,0.0244404296875,1.0793994140625005,1.0797518996040716,0.478515625,1.0419921875,-0.939453125,42.45941176470589,452.0325203570878
0.0194306640625,0.0049091796875,1.0847705078125005,1.0849556236873947,0.39892578125,0.708984375,-0.947265625,41.80058823529412,452.3006762065592
0.0282197265625,-0.0131572265624999,1.0974658203125005,1.0979074151914032,0.3017578125,0.09521484375,-1.08935546875,41.89470588235295,452.3006762065592
-0.0201201171875,0.0024677734375,1.0960009765625005,1.0961884188620732,0.22412109375,-0.31201171875,-1.1396484375,41.94176470588236,452.3006762065592
-0.0958037109375,0.0327412109375,1.0999072265625005,1.1045570356334982,0.197265625,-0.54638671875,-0.93701171875,41.98882352941177,452.3006762065592
-0.1343779296875,0.0737568359375,1.1335986328125005,1.1439158007252892,0.2666015625,-0.69287109375,-0.5224609375,42.506470588235295,451.7952549981571
-0.1583037109375,0.1020771484375,1.1194384765625005,1.1351750137922727,0.34765625,-0.64990234375,-0.04833984375,42.08294117647059,451.7952549981571
-0.1519560546875,0.1274677734375,1.0911181640625005,1.1089984327168485,0.40625,-0.45947265625,0.25830078125,42.08294117647059,451.7952549981571
-0.1456083984375,0.1362568359375,1.0413134765625005,1.0602365243217728,0.29345703125,-0.03662109375,0.29150390625,41.94176470588236,451.7952549981571
-0.1529326171875,0.1328388671875,1.0178759765625005,1.0378371999974467,0.1318359375,0.6708984375,0.1904296875,41.94176470588236,451.7952549981571
-0.1636748046875,0.1118427734375,0.9661181640625,0.98624670067442,0.0693359375,1.01904296875,0.2431640625,41.98882352941177,451.7422963812927
-0.1758818359375,0.0874287109375,0.9065478515625,0.9275813748030538,-0.0400390625,1.04736328125,0.40869140625,42.08294117647059,451.7422963812927
-0.1836943359375,0.0747333984375,0.8630908203125001,0.8855814214431339,-0.12841796875,0.86962890625,0.55615234375,41.98882352941177,451.7422963812927
-0.1851591796875,0.0669208984375,0.8196337890625001,0.8429483238272563,-0.20361328125,0.5048828125,0.5458984375,41.89470588235295,451.7422963812927
-0.1807646484375,0.0630146484375,0.7703173828125001,0.7937478027091063,-0.2265625,0.00830078125,0.45751953125,41.94176470588236,451.827253869143
-0.1871123046875,0.0615498046875,0.7429736328125001,0.7686411464897913,-0.28759765625,-0.52783203125,0.4013671875,41.14176470588235,451.827253869143
-0.1851591796875,0.0727802734375,0.7542041015625001,0.7800030236081672,-0.27197265625,-0.9208984375,0.423828125,42.224117647058826,451.827253869143
-0.1802763671875,0.0781513671875,0.7581103515625001,0.7831593132344243,-0.35498046875,-1.1123046875,0.634765625,41.04764705882353,451.827253869143
-0.1592802734375,0.0874287109375,0.7810595703125001,0.8019152307939194,-0.48046875,-1.20654296875,0.947265625,41.235882352941175,451.827253869143
-0.1597685546875,0.0932880859375,0.7986376953125001,0.8197870616317854,-0.517578125,-1.1884765625,1.26611328125,42.08294117647059,452.2675610815528
-0.1763701171875,0.0937763671875,0.8069384765625001,0.8312942500923639,-0.4619140625,-0.98681640625,1.59521484375,41.47117647058823,452.2675610815528
-0.1709990234375,0.0825458984375,0.8025439453125001,0.8247007187599547,-0.3681640625,-0.85498046875,1.8603515625,41.89470588235295,452.2675610815528
-0.1656279296875,0.0791279296875,0.7786181640625001,0.7999625527218481,-0.337890625,-0.59423828125,2.07275390625,42.08294117647059,452.2675610815528
-0.1260771484375,0.0869404296875,0.7683642578125001,0.7834779629039559,-0.287109375,-0.2890625,2.234375,42.506470588235295,451.6208733920644
-0.1177763671875,0.1064716796875,0.7376025390625001,0.7544965187956862,-0.35546875,-0.21044921875,2.13671875,42.08294117647059,451.6208733920644
-0.1246123046875,0.1284443359375,0.7229541015625001,0.7447743328552598,-0.388671875,-0.24853515625,2.0361328125,41.98882352941177,451.6208733920644
-0.1441435546875,0.1382099609375,0.7302783203125001,0.7570903399058397,-0.373046875,-0.1259765625,2.0634765625,41.98882352941177,451.6208733920644
-0.1539091796875,0.1357685546875,0.7395556640625001,0.7675048640112564,-0.3916015625,-0.1494140625,2.13916015625,41.80058823529412,451.6208733920644
-0.1675810546875,0.1323505859375,0.7717822265625001,0.8007795531392798,-0.38232421875,0.0712890625,2.2958984375,42.08294117647059,452.0865970372727
-0.1661162109375,0.1240498046875,0.7976611328125001,0.824163959645749,-0.3759765625,0.2431640625,2.44482421875,41.94176470588236,452.0865970372727
-0.1622099609375,0.1260029296875,0.8137744140625001,0.8392958993703851,-0.3837890625,0.3740234375,2.52587890625,41.94176470588236,452.0865970372727
-0.1602568359375,0.1328388671875,0.8298876953125001,0.8555945330186782,-0.39013671875,0.56884765625,2.5771484375,41.94176470588236,452.0865970372727
-0.1417021484375,0.1460224609375,0.8567431640625001,0.8805741917282558,-0.412109375,0.74072265625,2.6083984375,42.13,452.3547540512823
-0.1138701171875,0.1611591796875,0.8767626953125001,0.8986943355098455,-0.3974609375,0.84814453125,2.556640625,41.98882352941177,452.3547540512823
-0.1011748046875,0.1753193359375,0.9002001953125001,0.9226774096604854,-0.40869140625,0.8828125,2.427734375,42.36529411764706,452.3547540512823
-0.1031279296875,0.1860615234375,0.9163134765625,0.9406830750659696,-0.43896484375,0.8955078125,2.1650390625,42.506470588235295,452.3547540512823
-0.1407255859375,0.1982685546875,0.9519580078125,0.9825162385190724,-0.4716796875,0.9306640625,1.8173828125,41.80058823529412,452.3547540512823
-0.1807646484375,0.2177998046875,0.9700244140625,1.0104751243469297,-0.45947265625,1.080078125,1.4912109375,41.94176470588236,451.7301409004713
-0.2110380859375,0.2480732421875,0.9587939453125,1.0126022105316042,-0.3974609375,1.18603515625,1.193359375,42.224117647058826,451.7301409004713
-0.2339873046875,0.2695576171875,0.9168017578125,0.9838378071952784,-0.53515625,1.42919921875,0.849609375,41.98882352941177,451.7301409004713
-0.2715849609375,0.2636982421875,0.8918994140625001,0.9689064551055648,-0.46533203125,1.8212890625,0.7783203125,42.506470588235295,451.7301409004713
-0.3165068359375,0.2348896484375,0.9075244140625,0.989419166105925,-0.35302734375,2.47119140625,1.09326171875,42.506470588235295,451.7091808536101
-0.3287138671875,0.1841083984375,1.0085986328125005,1.076670753279677,-0.02001953125,3.2490234375,1.732421875,42.27117647058824,451.7091808536101
-0.3794951171875,0.1137958984375,1.1086962890625005,1.1773587014378035,0.37646484375,3.97607421875,2.59375,41.89470588235295,451.7091808536101
-0.1880888671875,0.0796162109375,1.2415087890625005,1.2581972167841404,0.7890625,4.57861328125,3.095703125,41.94176470588236,451.7091808536101
-0.2466826171875,0.0815693359375,1.6057666015625005,1.6266506228693798,1.4658203125,4.71533203125,3.61083984375,41.80058823529412,451.7091808536101
0.2513642578125,-0.0155986328124999,1.9045947265625005,1.9211736985241428,2.38671875,2.10986328125,3.37060546875,41.94176470588236,452.3205252196731
0.5599580078125,-0.2826884765625,1.5701220703125005,1.6907835642024034,2.2001953125,-0.5849609375,1.84375,41.98882352941177,452.3205252196731
0.6122041015625,-0.3832744140625,0.8577197265625001,1.1213279037727326,0.55224609375,-1.7666015625,0.46435546875,41.04764705882353,452.3205252196731
0.4105439453125,-0.2929423828125,0.9085009765625,1.0391032648854657,-1.37744140625,-1.5703125,-0.25830078125,41.98882352941177,452.3205252196731
0.2450166015625,-0.2167705078125,1.1414111328125005,1.187367660923457,-1.90869140625,-1.3154296875,-0.35107421875,42.224117647058826,452.04132801766207
0.1996064453125,-0.2299541015625,1.2463916015625005,1.2830485751838248,-1.33154296875,-2.32763671875,0.494140625,41.18882352941176,452.04132801766207
0.2064423828125,-0.2582744140625,1.1516650390625005,1.1981888384472044,-0.95751953125,-4.96923828125,1.28369140625,41.98882352941177,452.04132801766207
0.1180634765625,-0.1733134765625,1.1301806640625005,1.1494715651450271,-1.1943359375,-7.50439453125,1.068359375,41.94176470588236,452.04132801766207
-0.0777373046875,-0.0668681640625,1.2976611328125005,1.3017061325496582,-1.9267578125,-8.36669921875,0.162109375,41.80058823529412,452.04132801766207
-0.3150419921875,0.0556904296875,1.5789111328125005,1.6109975934555272,-2.53271484375,-6.68310546875,-0.9716796875,41.80058823529412,451.5778365381714
-0.5088896484375,0.1401630859375,1.7795947265625005,1.856225136063895,-2.4970703125,-2.26904296875,-1.11474609375,41.33,451.5778365381714
-0.3482451171875,0.1665302734375,1.5549853515625005,1.602181774078727,-3.4619140625,1.73388671875,-0.3212890625,41.94176470588236,451.5778365381714
-0.2237333984375,0.2055927734375,1.6086962890625005,1.6371404254093709,-2.2333984375,5.123046875,0.2685546875,41.89470588235295,451.5778365381714
-0.2549833984375,0.1206318359375,1.4158251953125005,1.4436514665950602,-0.7783203125,7.74609375,0.4921875,41.89470588235295,451.5568766641296
-0.0938505859375,0.0488544921875,1.1829150390625005,1.1876374377426586,-0.1943359375,9.328125,0.31884765625,41.98882352941177,451.5568766641296
-0.0699248046875,0.0083271484375,0.9978564453125,1.0003380954274328,0.01611328125,9.3466796875,0.07080078125,41.98882352941177,451.5568766641296
-0.0640654296875,2.6367187500001e-05,0.8420947265625001,0.844528216509457,0.0966796875,7.88037109375,0.078125,42.08294117647059,451.5568766641296
-0.0372099609375,0.0405537109375,0.7424853515625001,0.7445224522797562,0.23095703125,5.306640625,0.361328125,41.98882352941177,451.5568766641296
-0.0494169921875,0.0552021484375,0.6960986328125001,0.7000304442753951,0.45166015625,2.0673828125,1.1337890625,42.08294117647059,451.53703467068175
-0.0464873046875,0.0630146484375,0.7156298828125001,0.7199014131039352,0.61572265625,-1.119140625,1.63916015625,41.98882352941177,451.53703467068175
-0.1348662109375,0.0449482421875,0.7966845703125001,0.8092685239785353,0.87744140625,-2.7392578125,1.82080078125,41.98882352941177,451.53703467068175
-0.1919951171875,0.0034443359375,0.8484423828125001,0.8699014113257002,0.9560546875,-3.46044921875,1.87158203125,41.80058823529412,451.53703467068175
-0.1988310546875,-0.0121806640624999,0.8948291015625001,0.9167340278882956,0.8623046875,-3.5888671875,1.44775390625,41.80058823529412,451.7522178381261
-0.2085966796875,-0.0219462890625,0.9309619140625,0.954297804574221,0.6474609375,-3.20361328125,0.8896484375,41.94176470588236,451.7522178381261
-0.2027373046875,-0.0160869140625,0.9622119140625,0.9834698628223574,0.3466796875,-2.21044921875,0.279296875,42.13,451.7522178381261
-0.1705107421875,-0.0092509765624999,0.9778369140625,0.9926351415661068,0.0400390625,-0.92138671875,-0.2529296875,41.98882352941177,451.7522178381261
-0.2588896484375,-0.0019267578124999,0.9866259765625,1.0200286172905482,-0.27685546875,0.37060546875,-1.04443359375,42.13,451.7522178381261
-0.1011748046875,0.0019794921875,0.9592822265625,0.9646049189650556,-0.4580078125,1.3984375,-1.50927734375,42.224117647058826,451.8051769817668
-0.0806669921875,0.0029560546875,0.9050830078125,0.9086754937373492,-0.5390625,2.0263671875,-2.064453125,41.98882352941177,451.8051769817668
-0.0806669921875,-0.0019267578124999,0.8547900390625001,0.8585900575389378,-0.52734375,2.2451171875,-2.2421875,41.94176470588236,451.8051769817668
-0.1026396484375,-0.0102275390624999,0.7810595703125001,0.7878410704979754,-0.4716796875,2.142578125,-2.17578125,41.98882352941177,451.8051769817668
-0.1348662109375,-0.0287822265625,0.7141650390625001,0.727357556115062,-0.3671875,1.7666015625,-1.85791015625,41.98882352941177,452.06340478204
-0.1641630859375,-0.0517314453125,0.6780322265625001,0.699537962855444,-0.0166015625,1.0283203125,-1.283203125,41.94176470588236,452.06340478204
-0.1729521484375,-0.0849345703125,0.6585009765625001,0.6861121358911255,0.15087890625,0.11376953125,-0.6953125,41.94176470588236,452.06340478204
-0.1578154296875,-0.1020244140625,0.6995166015625001,0.7243191056252736,0.31494140625,-0.97265625,-0.130859375,41.89470588235295,452.06340478204
-0.1548857421875,-0.1127666015625,0.7708056640625001,0.794258944747719,0.400390625,-1.63232421875,0.25244140625,41.89470588235295,452.06340478204
-0.1602568359375,-0.1088603515625,0.8396533203125001,0.8617137157541451,0.5419921875,-1.828125,0.7158203125,41.94176470588236,451.92213628381984
-0.1724638671875,-0.0986064453125,0.9187548828125,0.9399880590913086,0.6025390625,-1.58154296875,0.8759765625,41.98882352941177,451.92213628381984
-0.1954130859375,-0.0810283203125,0.9944384765625,1.016690585436999,0.60302734375,-0.8271484375,1.1103515625,41.89470588235295,451.92213628381984
-0.2125029296875,-0.0702861328125,1.0335009765625005,1.0574601194121451,0.59521484375,0.1328125,1.06640625,41.94176470588236,451.92213628381984
-0.2042021484375,-0.0693095703125,1.0559619140625005,1.0777559547104962,0.5927734375,1.40625,0.849609375,41.80058823529412,451.9232516860611
-0.2149443359375,-0.0702861328125,1.0178759765625005,1.0426949274262405,0.6083984375,2.41650390625,0.65771484375,42.08294117647059,451.9232516860611
-0.2061552734375,-0.0761455078125,0.9670947265625,0.9917511508796502,0.62548828125,2.7041015625,0.59765625,42.08294117647059,451.9232516860611
-0.2208037109375,-0.0561259765625,0.9285205078125,0.9560620991532132,0.3984375,2.33642578125,0.3046875,41.94176470588236,451.9232516860611
-0.2662138671875,-0.0214580078125,0.9441455078125,0.9811936654426224,0.10302734375,2.0205078125,0.0,41.98882352941177,451.9232516860611
-0.2491240234375,0.0229755859375,1.0007861328125005,1.031583026339935,0.01806640625,1.533203125,-0.04052734375,41.80058823529412,451.4277677157178
-0.2442412109375,0.0307880859375,1.1477587890625005,1.1738619651501314,-0.1240234375,1.32763671875,0.0888671875,42.506470588235295,451.4277677157178
-0.1973662109375,0.0498310546875,1.3503955078125005,1.3656517062381883,-0.04638671875,1.109375,0.396484375,42.506470588235295,451.4277677157178
-0.0591826171875,0.0635029296875,1.4758837890625005,1.4784343621120082,0.1826171875,0.43798828125,0.61181640625,42.506470588235295,451.4277677157178
0.1170869140625,0.0713154296875,1.4246142578125005,1.4311956608091196,0.4775390625,0.037109375,0.380859375,41.89470588235295,451.5877583235889
0.2157197265625,0.1103779296875,1.1628955078125005,1.1878738358431804,0.79736328125,-0.4228515625,0.02880859375,41.94176470588236,451.5877583235889
0.2079072265625,0.1758076171875,0.9861376953125,1.0230353303939734,0.5732421875,-0.2998046875,0.2265625,42.08294117647059,451.5877583235889
0.1937470703125,0.2817646484375,0.9343798828125,0.9949849294177708,0.3505859375,-0.2265625,0.9052734375,41.80058823529412,451.5877583235889
0.1883759765625,0.4023701171875,0.9436572265625,1.043013030117547,0.25439453125,-0.83544921875,1.07763671875,41.235882352941175,451.5877583235889
0.0965791015625,0.3999287109375,0.9651416015625,1.0491752988692489,0.837890625,-1.51611328125,0.63232421875,41.98882352941177,451.9651745418773
-0.0416044921875,0.2934833984375,1.0051806640625005,1.0479750027236974,0.8974609375,-1.8232421875,-0.2275390625,41.94176470588236,451.9651745418773
-0.1846708984375,0.1870380859375,1.1086962890625005,1.1394270699355165,0.88330078125,-1.9736328125,-0.95751953125,41.04764705882353,451.9651745418773
-0.2637724609375,0.1377216796875,1.1956103515625005,1.2320824992541597,0.91015625,-1.84228515625,-1.24169921875,42.41235294117647,451.9651745418773
-0.2457060546875,0.1118427734375,1.2561572265625005,1.284838997355498,0.87060546875,-1.00830078125,-1.5263671875,42.27117647058824,452.0291749705768
-0.1998076171875,0.0844990234375,1.2815478515625005,1.299780006267406,0.55224609375,0.24365234375,-1.89208984375,41.94176470588236,452.0291749705768
-0.1480498046875,0.0376240234375,1.2112353515625005,1.220829795132133,0.27880859375,1.240234375,-2.1484375,41.94176470588236,452.0291749705768
-0.1656279296875,0.0107685546875,1.1936572265625005,1.205141546619112,0.43798828125,1.927734375,-1.9384765625,42.13,452.0291749705768
-0.1978544921875,-0.0292705078125,1.1404345703125005,1.1578403049947052,0.7578125,2.4296875,-1.09521484375,41.94176470588236,452.0291749705768
-0.1841826171875,-0.0351298828125,1.1121142578125005,1.1278100316854367,0.68359375,2.54638671875,-0.63671875,41.98882352941177,451.2865039142018
-0.1670927734375,-0.0507548828125,1.0769580078125005,1.0910245660184814,0.4853515625,2.5712890625,-0.5625,41.89470588235295,451.2865039142018
-0.1060576171875,-0.0580791015625,1.0305712890625005,1.0376408733476823,0.49609375,2.6728515625,-0.6689453125,42.506470588235295,451.2865039142018
-0.0484404296875,-0.0517314453125,0.9783251953125,0.9808887834233152,0.2314453125,2.4375,-0.7275390625,42.506470588235295,451.2865039142018
-0.0489287109375,-0.0385478515625,0.9485400390625,0.9505830638712112,0.107421875,2.16259765625,-0.6748046875,41.18882352941176,451.80406092434487
-0.0835966796875,-0.0243876953125,0.9241259765625,0.928219793526848,0.0126953125,1.6650390625,-0.40087890625,42.08294117647059,451.80406092434487
-0.1246123046875,-0.0009501953124999,0.9060595703125,0.9145890193445,-0.03955078125,1.2265625,-0.0654296875,41.89470588235295,451.80406092434487
-0.1460966796875,0.0200458984375,0.8870166015625001,0.8991910416076028,-0.00634765625,0.8662109375,0.30126953125,41.80058823529412,451.80406092434487
-0.1470732421875,0.0415302734375,0.8704150390625001,0.8837293943314944,0.02978515625,0.47607421875,0.5576171875,42.45941176470589,451.80406092434487
-0.1607451171875,0.0522724609375,0.8669970703125001,0.8833206228785467,0.08447265625,0.24560546875,0.74267578125,41.98882352941177,451.91221329399946
-0.1773466796875,0.0639912109375,0.8772509765625001,0.8972825618239153,0.1767578125,0.2998046875,0.85595703125,41.98882352941177,451.91221329399946
-0.2017607421875,0.0669208984375,0.8660205078125001,0.891727157648321,0.21484375,0.37548828125,0.9833984375,41.98882352941177,451.91221329399946
-0.2139677734375,0.0659443359375,0.8474658203125001,0.8765438837331408,0.17822265625,0.7529296875,1.03759765625,41.94176470588236,451.91221329399946
-0.2100615234375,0.0674091796875,0.8313525390625001,0.8601260868853419,0.0791015625,1.26025390625,0.9677734375,41.89470588235295,451.9442129871513
-0.2056669921875,0.0600849609375,0.7835009765625001,0.8122702102630044,-0.0185546875,1.4736328125,0.86474609375,41.80058823529412,451.9442129871513
-0.1690458984375,0.0625263671875,0.7385791015625001,0.7602533470081387,-0.1044921875,1.20947265625,0.708984375,41.94176470588236,451.9442129871513
-0.1534208984375,0.0537373046875,0.7117236328125001,0.7300521895702179,-0.24169921875,0.92578125,0.5859375,41.98882352941177,451.9442129871513
-0.1602568359375,0.0434833984375,0.6921923828125001,0.7118309871226595,-0.2724609375,0.45166015625,0.57080078125,41.04764705882353,451.9442129871513
-0.1856474609375,0.0420185546875,0.7127001953125001,0.7376802200744187,-0.27392578125,0.427734375,0.67431640625,42.27117647058824,452.2024451010996
-0.1934599609375,0.0395771484375,0.7302783203125001,0.7565048131260167,-0.2958984375,0.45361328125,0.81982421875,42.13,452.2024451010996
-0.1968779296875,0.0400654296875,0.7439501953125001,0.7706023948571579,-0.30029296875,0.466796875,0.9921875,41.98882352941177,452.2024451010996
-0.2061552734375,0.0405537109375,0.7556689453125001,0.7843342113835141,-0.314453125,0.47998046875,1.1796875,41.89470588235295,452.2024451010996
-0.2100615234375,0.0512958984375,0.7815478515625001,0.8109094629533886,-0.30615234375,0.52734375,1.4365234375,41.98882352941177,452.15829188478295
-0.2032255859375,0.0644794921875,0.7976611328125001,0.8256642940639488,-0.2939453125,0.54443359375,1.69287109375,41.89470588235295,452.15829188478295
-0.2007841796875,0.0820576171875,0.8235400390625001,0.8516254665581208,-0.2939453125,0.5830078125,1.8837890625,41.98882352941177,452.15829188478295
-0.2046904296875,0.1064716796875,0.8406298828125001,0.8717184123663378,-0.2998046875,0.54736328125,1.9453125,41.98882352941177,452.15829188478295
-0.2164091796875,0.1201435546875,0.8630908203125001,0.8978826041825676,-0.27685546875,0.56591796875,1.9140625,41.80058823529412,452.15829188478295
-0.2388701171875,0.1299091796875,0.8694384765625001,0.9109657470945712,-0.26025390625,0.60302734375,1.904296875,41.80058823529412,451.7709458814636
-0.2613310546875,0.1401630859375,0.8884814453125001,0.936663701372159,-0.2392578125,0.70556640625,1.94677734375,42.506470588235295,451.7709458814636
-0.2564482421875,0.1318623046875,0.8992236328125001,0.944328602832228,-0.1572265625,0.7421875,2.01953125,41.89470588235295,451.7709458814636
-0.2544951171875,0.1264912109375,0.8938525390625001,0.9379446426656494,-0.0478515625,0.83935546875,2.06884765625,41.89470588235295,451.7709458814636
-0.2715849609375,0.1230732421875,0.9006884765625001,0.948759793500148,0.0400390625,1.03564453125,2.07373046875,41.98882352941177,451.5336831189254
-0.2706083984375,0.1352802734375,0.9421923828125,0.9895737182828424,0.09912109375,1.1884765625,2.04150390625,42.506470588235295,451.5336831189254
-0.2784208984375,0.1562763671875,0.9636767578125,1.015191308658658,0.15283203125,1.1728515625,2.0400390625,41.98882352941177,451.5336831189254
-0.2720732421875,0.1748310546875,1.0095751953125005,1.0601093442602203,0.2744140625,1.17333984375,2.00927734375,41.89470588235295,451.5336831189254
-0.2671904296875,0.1748310546875,1.0442431640625005,1.0919708828952337,0.421875,1.1318359375,1.85107421875,41.98882352941177,451.5336831189254
-0.3077177734375,0.1679951171875,1.1121142578125005,1.166066340273152,0.5341796875,1.16455078125,1.69921875,41.89470588235295,451.46856978074055
-0.3555693359375,0.1504169921875,1.2439501953125005,1.3024848991891524,0.669921875,1.212890625,1.79150390625,42.506470588235295,451.46856978074055
-0.3257841796875,0.1284443359375,1.3884814453125005,1.4319615927622404,0.93994140625,1.01611328125,2.22021484375,41.94176470588236,451.46856978074055
-0.1983427734375,0.0967060546875,1.4246142578125005,1.4416024765346245,1.1904296875,0.39697265625,2.60693359375,41.94176470588236,451.46856978074055
0.0091767578125,0.0176044921875,1.3528369140625005,1.3529825745660131,1.03271484375,-0.3798828125,2.4970703125,41.94176470588236,451.3284223830132
0.2049775390625,-0.1264384765625,1.1995166015625005,1.2234551717572717,0.4091796875,-1.36279296875,1.59375,42.08294117647059,451.3284223830132
0.2347626953125,-0.2030986328125,1.1003955078125005,1.143342840697674,-0.24951171875,-1.53759765625,0.759765625,41.80058823529412,451.3284223830132
0.1375947265625,-0.2343486328125,1.1072314453125005,1.1400934452788092,-0.607421875,-1.42529296875,0.19580078125,41.94176470588236,451.3284223830132
0.0091767578125,-0.2470439453125,1.0823291015625005,1.1102032281922998,-0.78466796875,-2.01708984375,0.146484375,42.506470588235295,451.3284223830132
-0.1998076171875,-0.2704814453125,1.0647509765625005,1.1165921091586146,-0.6826171875,-2.66552734375,1.23046875,41.94176470588236,450.9841391720305
-0.2969755859375,-0.2577861328125,1.1331103515625005,1.1994112129421828,-0.72314453125,-2.8935546875,2.55029296875,41.89470588235295,450.9841391720305
-0.3121123046875,-0.1752666015625,1.2112353515625005,1.263021594920429,-0.88818359375,-3.1015625,3.07763671875,42.506470588235295,450.9841391720305
-0.3179716796875,-0.0693095703125,1.2913134765625005,1.3316907675478284,-1.1982421875,-2.7568359375,2.7578125,41.98882352941177,450.9841391720305
-0.3277373046875,0.0381123046875,1.3826220703125005,1.4214457703224717,-1.3603515625,-1.38720703125,2.0771484375,41.98882352941177,451.7819842151745
-0.3316435546875,0.0967060546875,1.4031298828125005,1.4450304413473107,-1.10595703125,0.994140625,1.7919921875,41.89470588235295,451.7819842151745
-0.3028349609375,0.1177021484375,1.3206103515625005,1.3599906286319958,-0.77880859375,3.41357421875,2.05419921875,42.224117647058826,451.7819842151745
-0.2471708984375,0.1064716796875,1.2014697265625005,1.231242939251246,-0.51904296875,4.88525390625,2.48486328125,41.89470588235295,451.7819842151745
-0.1626982421875,0.0991474609375,1.0623095703125005,1.0792601911489113,-0.388671875,5.32275390625,2.701171875,41.80058823529412,451.7819842151745
-0.0674833984375,0.0840107421875,0.9275439453125,0.933782407391276,-0.36767578125,4.64208984375,2.62353515625,41.94176470588236,451.5987966658344
-0.0020537109374999,0.0561787109375,0.8064501953125001,0.8084071887426432,-0.4833984375,3.306640625,2.185546875,42.31823529411765,451.5987966658344
0.0262666015625,0.0259052734375,0.7449267578125001,0.7458397227652587,-0.4453125,1.587890625,2.0732421875,42.506470588235295,451.5987966658344
-0.0015654296874999,-0.0185283203125,0.7210009765625001,0.7212407069957906,-0.30224609375,-0.42041015625,2.49755859375,41.80058823529412,451.5987966658344
-0.0586943359375,-0.0566142578125,0.7385791015625001,0.743067485847466,-0.03955078125,-1.49072265625,3.09033203125,41.80058823529412,452.05013721933
-0.0855498046875,-0.0785869140625,0.7400439453125001,0.7491059425325812,0.0810546875,-2.02880859375,3.38037109375,42.45941176470589,452.05013721933
-0.1133818359375,-0.0863994140625,0.7488330078125001,0.7622802457498274,0.12646484375,-2.2021484375,3.3125,42.45941176470589,452.05013721933
-0.1470732421875,-0.0898173828125,0.7688525390625001,0.7879288848910689,0.037109375,-2.23046875,3.00732421875,41.89470588235295,452.05013721933
-0.1636748046875,-0.0859111328125,0.7918017578125001,0.8130929762982726,-0.15966796875,-2.11328125,2.7451171875,41.94176470588236,452.05013721933
-0.1763701171875,-0.0751689453125,0.8259814453125001,0.8479399368921436,-0.3349609375,-1.7890625,2.2041015625,41.98882352941177,452.5346138877309
-0.1744169921875,-0.0556376953125,0.8528369140625001,0.8722658094245521,-0.48486328125,-1.18408203125,1.787109375,41.80058823529412,452.5346138877309
-0.1783232421875,-0.0317119140625,0.8723681640625001,0.8909719624474983,-0.5498046875,-0.2646484375,1.4345703125,42.13,452.5346138877309
-0.1910185546875,-0.0063212890624999,0.8586962890625001,0.8797086812007835,-0.5361328125,0.8203125,1.24755859375,41.98882352941177,452.5346138877309
-0.2027373046875,0.0063740234375,0.8308642578125001,0.8552651388879653,-0.51123046875,1.70556640625,0.9453125,41.80058823529412,452.01590876466975
-0.2203154296875,0.0122333984375,0.7932666015625001,0.8233835350249825,-0.44091796875,2.158203125,0.9267578125,42.506470588235295,452.01590876466975
-0.2325224609375,0.0053974609375,0.7429736328125001,0.7785278713569648,-0.349609375,2.1923828125,1.02392578125,41.80058823529412,452.01590876466975
-0.2398466796875,-0.0019267578124999,0.6917041015625001,0.7321097638135772,-0.2333984375,1.87890625,1.2216796875,41.33,452.01590876466975
-0.2266630859375,-0.0092509765624999,0.6565478515625001,0.6946343041380875,-0.14306640625,1.16259765625,1.37744140625,42.17705882352941,452.01590876466975
-0.1998076171875,-0.0204814453125,0.6658251953125001,0.6954608286605108,-0.04833984375,0.158203125,1.44384765625,42.224117647058826,451.8128683915969
-0.2022490234375,-0.0395244140625,0.6995166015625001,0.729239550936423,0.04541015625,-0.8154296875,1.50146484375,41.80058823529412,451.8128683915969
-0.1988310546875,-0.0448955078125,0.7576220703125001,0.7845639530047788,0.14794921875,-1.443359375,1.529296875,42.224117647058826,451.8128683915969
-0.1973662109375,-0.0453837890625,0.8103564453125001,0.835278802549787,0.2587890625,-1.5029296875,1.5546875,42.08294117647059,451.8128683915969
-0.1856474609375,-0.0287822265625,0.8489306640625001,0.8694691878980146,0.3466796875,-1.06396484375,1.58544921875,41.94176470588236,451.5756038954101
-0.1651396484375,-0.0126689453124999,0.8645556640625001,0.8802772869522096,0.30419921875,-0.44580078125,1.60009765625,42.36529411764706,451.5756038954101
-0.1475615234375,0.0097919921875,0.8918994140625001,0.9040767949213312,0.2314453125,-0.06005859375,1.62158203125,41.89470588235295,451.5756038954101
-0.1436552734375,0.0268818359375,0.9177783203125,0.929341980072679,0.14794921875,0.076171875,1.201171875,41.80058823529412,451.5756038954101
-0.1563505859375,0.0293232421875,0.9392626953125,0.9526383201725032,0.0498046875,0.19189453125,0.73291015625,41.89470588235295,451.5756038954101
-0.1910185546875,0.0107685546875,0.9563525390625,0.9753021218967228,-0.08154296875,0.451171875,0.25341796875,42.08294117647059,451.4144949407873
-0.2149443359375,-0.0170634765625,0.9636767578125,0.9875044928161206,-0.21923828125,0.75390625,-0.13818359375,42.45941176470589,451.4144949407873
-0.2286162109375,-0.0444072265625,0.9695361328125,0.9971146807180258,-0.35400390625,0.8974609375,-0.34326171875,41.47117647058823,451.4144949407873
-0.2393583984375,-0.0634501953125,0.9753955078125,1.0063373027213909,-0.43359375,0.8037109375,-0.3017578125,41.89470588235295,451.4144949407873
-0.2427763671875,-0.0717509765625,0.9836962890625,1.0157494554356237,-0.40625,0.525390625,-0.1298828125,41.94176470588236,451.210353194116
-0.2535185546875,-0.0776103515625,0.9807666015625,1.0159715305956902,-0.49853515625,0.287109375,0.14794921875,41.80058823529412,451.210353194116
-0.2642607421875,-0.0610087890625,0.9719775390625,1.0091066091579992,-0.35888671875,0.27099609375,0.4892578125,41.98882352941177,451.210353194116
-0.3028349609375,-0.0409892578125,1.0051806640625005,1.050608062136954,-0.34423828125,0.24951171875,0.89990234375,41.94176470588236,451.210353194116
-0.2867216796875,-0.0019267578124999,1.1023486328125005,1.1390283325106878,-0.25244140625,-0.68505859375,1.19873046875,41.33,451.210353194116
-0.2217802734375,0.0381123046875,1.1453173828125005,1.167215037954481,-0.265625,-1.4033203125,1.15234375,41.94176470588236,451.3284223830132
-0.1504912109375,0.0576435546875,1.1013720703125005,1.113099645688062,-0.60302734375,-0.92919921875,0.60986328125,41.18882352941176,451.3284223830132
-0.1065458984375,0.0737568359375,1.0916064453125005,1.0992709996944148,-1.013671875,0.01806640625,-0.08349609375,41.80058823529412,451.3284223830132
-0.1255888671875,0.1128193359375,1.1306689453125005,1.143202969737614,-1.1044921875,-0.11181640625,-0.37353515625,41.235882352941175,451.3284223830132
-0.1006865234375,0.1562763671875,1.1951220703125005,1.2094944571560835,-0.9462890625,-1.51171875,-0.2978515625,41.80058823529412,451.413378430878
-0.0250029296875,0.2007099609375,1.2546923828125005,1.2708904793097635,-0.77734375,-3.6787109375,-0.279296875,41.94176470588236,451.413378430878
0.0003876953125,0.2490498046875,1.2825244140625005,1.3064818514579133,-0.82666015625,-4.6181640625,-0.6845703125,42.506470588235295,451.413378430878
-0.0030302734374999,0.2793232421875,1.3323291015625005,1.3612977231500765,-1.07861328125,-4.029296875,-1.341796875,41.98882352941177,451.413378430878
0.0067353515625,0.3095966796875,1.4182666015625005,1.4516802754538751,-0.9462890625,-3.009765625,-1.84033203125,42.08294117647059,451.413378430878
-0.0210966796875,0.3154560546875,1.4128955078125005,1.4478367685376632,-0.61572265625,-2.1533203125,-1.763671875,41.94176470588236,451.2941908005897
-0.0635771484375,0.2661396484375,1.4153369140625005,1.4415446391221611,0.04248046875,-0.869140625,-1.2333984375,42.506470588235295,451.2941908005897
-0.0894560546875,0.1841083984375,1.3665087890625005,1.381754160001169,0.427734375,0.7666015625,-0.4072265625,41.80058823529412,451.2941908005897
-0.1026396484375,0.1303974609375,1.3240283203125005,1.334387270712615,0.60595703125,2.02783203125,-0.11181640625,41.94176470588236,451.2941908005897
-0.1309599609375,0.0898701171875,1.2546923828125005,1.264705548663307,0.72802734375,3.1123046875,-0.3505859375,41.94176470588236,451.81175360209386
-0.1832060546875,0.0503193359375,1.1692431640625005,1.184578435879295,0.7412109375,3.75537109375,-0.50244140625,41.89470588235295,451.81175360209386
-0.1880888671875,0.0185810546875,1.1008837890625005,1.1169905078261788,0.68359375,3.69287109375,-0.74267578125,41.94176470588236,451.81175360209386
-0.1622099609375,0.0083271484375,1.0510791015625005,1.0635547426295828,0.5078125,2.7314453125,-0.6630859375,41.98882352941177,451.81175360209386
-0.1421904296875,0.0425068359375,1.0227587890625005,1.0334701205166628,0.3984375,1.654296875,-0.4482421875,42.224117647058826,451.81175360209386
-0.1485380859375,0.0610615234375,0.9885791015625,1.0015391718073758,0.32470703125,1.04345703125,-0.390625,41.61235294117647,451.5325668211099
-0.1568388671875,0.0737568359375,0.9763720703125,0.9916354777812696,0.10302734375,0.61669921875,-0.6240234375,41.98882352941177,451.5325668211099
-0.1832060546875,0.0576435546875,0.9714892578125,0.9902921871428918,-0.125,0.35498046875,-0.93994140625,41.98882352941177,451.5325668211099
-0.2178740234375,0.0351826171875,0.9793017578125,1.003861962371151,-0.25732421875,0.326171875,-0.99169921875,41.37705882352941,451.5325668211099
-0.2203154296875,0.0176044921875,0.9553759765625,0.980608006950952,-0.416015625,0.5498046875,-0.8271484375,41.80058823529412,451.3162672377414
-0.2017607421875,0.0063740234375,0.9402392578125,0.9616641238991052,-0.52783203125,0.95263671875,-0.609375,41.518235294117645,451.3162672377414
-0.1954130859375,-0.0112041015624999,0.9065478515625,0.927437767842147,-0.4892578125,1.52783203125,-0.279296875,42.31823529411765,451.3162672377414
-0.1768583984375,-0.0243876953125,0.8640673828125001,0.8823185903181324,-0.39013671875,2.01123046875,0.06787109375,42.224117647058826,451.3162672377414
-0.1548857421875,-0.0282939453125,0.8206103515625001,0.8355785358455837,-0.24169921875,2.33203125,0.41796875,41.98882352941177,451.3162672377414
-0.1387724609375,-0.0248759765625,0.7717822265625001,0.7845536408444984,-0.11767578125,2.3505859375,0.70556640625,41.89470588235295,451.6815247723743
-0.1270537109375,-0.0155986328124999,0.7258837890625001,0.7370842814986228,-0.001953125,2.1337890625,0.95068359375,41.94176470588236,451.6815247723743
-0.1338896484375,0.0073505859375,0.6843798828125001,0.6973924957086886,0.04052734375,1.64892578125,1.16455078125,41.80058823529412,451.6815247723743
-0.1592802734375,0.0439716796875,0.6751025390625001,0.6950303247841055,0.01220703125,1.01318359375,1.31884765625,41.80058823529412,451.6815247723743
-0.1871123046875,0.0674091796875,0.6804736328125001,0.7089424356212927,-0.05126953125,0.3330078125,1.37451171875,42.506470588235295,451.83271555812354
-0.2339873046875,0.0703388671875,0.7092822265625001,0.7501859048993119,-0.09130859375,-0.0068359375,1.44921875,42.31823529411765,451.83271555812354
-0.2569365234375,0.0439716796875,0.7366259765625001,0.7813883253781989,-0.20947265625,-0.03955078125,1.58544921875,41.80058823529412,451.83271555812354
-0.2745146484375,0.0195576171875,0.7830126953125001,0.829969682348315,-0.25244140625,0.369140625,1.87744140625,41.7064705882353,451.83271555812354
-0.2398466796875,-0.0014384765624999,0.7918017578125001,0.8273321718916195,-0.27783203125,0.81591796875,2.22998046875,42.506470588235295,451.83271555812354
-0.1978544921875,-0.0126689453124999,0.7966845703125001,0.8209830734114544,-0.27392578125,1.45458984375,2.43408203125,41.94176470588236,451.6815247723743
-0.1460966796875,-0.0336650390625,0.7532275390625001,0.7680034506907776,-0.3154296875,1.35302734375,2.1396484375,41.80058823529412,451.6815247723743
-0.1251005859375,-0.0463603515625,0.7073291015625001,0.7198012897432999,-0.5166015625,1.0654296875,1.873046875,41.94176470588236,451.6815247723743
-0.1519560546875,-0.0531962890625,0.6892626953125001,0.7078160431041839,-0.7265625,0.98583984375,1.525390625,41.89470588235295,451.6815247723743
-0.1817412109375,-0.0219462890625,0.6853564453125001,0.70938351016078,-0.88134765625,0.9541015625,1.3408203125,41.89470588235295,451.7356009134408
-0.2422880859375,0.0132099609375,0.6951220703125001,0.7362558741977981,-0.89794921875,1.0517578125,1.36474609375,42.224117647058826,451.7356009134408
-0.2945341796875,0.0425068359375,0.6912158203125001,0.7525533365522263,-0.9375,1.21728515625,1.53759765625,41.94176470588236,451.7356009134408
-0.3365263671875,0.0742451171875,0.7297900390625001,0.8070661895739699,-0.97216796875,1.3583984375,1.8369140625,41.98882352941177,451.7356009134408
-0.3775419921875,0.0840107421875,0.7805712890625001,0.8711413765724217,-0.89501953125,1.50244140625,2.1396484375,41.80058823529412,451.7356009134408
-0.3970732421875,0.0947529296875,0.8269580078125001,0.9222281843615908,-0.82177734375,1.767578125,2.30224609375,41.94176470588236,451.6594484918825
-0.3956083984375,0.1230732421875,0.8835986328125001,0.9759096124974618,-0.669921875,2.01025390625,2.20947265625,41.98882352941177,451.6594484918825
-0.3736357421875,0.1621357421875,0.9148486328125,1.00141883729716,-0.59228515625,2.19140625,1.9140625,41.98882352941177,451.6594484918825
-0.3462919921875,0.2002216796875,0.9475634765625,1.0285345920217186,-0.47509765625,2.1953125,1.65380859375,42.08294117647059,451.6594484918825
-0.3375029296875,0.2339130859375,0.9900439453125,1.0718258127934737,-0.32177734375,2.2998046875,1.47900390625,41.94176470588236,451.3372272065112
-0.3638701171875,0.2261005859375,1.0447314453125005,1.1291531029794284,-0.0029296875,2.599609375,1.78564453125,41.80058823529412,451.3372272065112
-0.3501982421875,0.2236591796875,1.1580126953125005,1.23030713238387,0.3388671875,2.75927734375,2.287109375,41.04764705882353,451.3372272065112
-0.3013701171875,0.2016865234375,1.3040087890625005,1.3534918999470078,0.82861328125,2.578125,2.92333984375,42.08294117647059,451.3372272065112
-0.2330107421875,0.1504169921875,1.3313525390625005,1.3599334030685732,1.39892578125,2.283203125,3.125,41.80058823529412,451.3372272065112
-0.2061552734375,0.0976826171875,1.2009814453125005,1.2224558570564388,1.61865234375,2.154296875,2.71875,41.98882352941177,451.04701429595406
-0.1968779296875,0.0527607421875,1.1238330078125005,1.1421669074890517,1.4296875,2.0927734375,1.97900390625,41.89470588235295,451.04701429595406
-0.1773466796875,0.0195576171875,1.0486376953125005,1.063708306452735,1.0830078125,2.07080078125,1.353515625,42.08294117647059,451.04701429595406
-0.1763701171875,-0.0121806640624999,1.0300830078125005,1.045143908654585,0.5009765625,1.94384765625,0.8203125,41.94176470588236,451.04701429595406
-0.2115263671875,-0.0395244140625,1.1355517578125005,1.1557609519245684,-0.05810546875,2.06396484375,0.5205078125,41.98882352941177,450.8539167803867
-0.2095732421875,-0.0776103515625,1.3411181640625005,1.359611062211913,-0.18896484375,1.97412109375,0.36083984375,41.98882352941177,450.8539167803867
-0.1167998046875,-0.1596416015625,1.4412158203125005,1.4547270108317611,-0.19580078125,1.02197265625,0.41064453125,42.45941176470589,450.8539167803867
-0.0523466796875,-0.2094462890625,1.3577197265625005,1.374776628683114,-0.3154296875,0.357421875,0.16943359375,41.94176470588236,450.8539167803867
-0.0196318359375,-0.2328837890625,1.2913134765625005,1.31229217895342,-0.48876953125,0.10400390625,0.06591796875,41.98882352941177,450.8539167803867
-0.1109404296875,-0.2382548828125,1.2878955078125005,1.314438285796204,-0.74560546875,-0.42578125,0.78662109375,41.94176470588236,451.17388743919577
-0.2247099609375,-0.1747783203125,1.3098681640625005,1.3404464312385844,-0.8173828125,-0.81005859375,2.076171875,42.45941176470589,451.17388743919577
-0.2154326171875,-0.0400126953125,1.2898486328125005,1.308327835025573,-0.61669921875,-1.05029296875,2.71435546875,41.235882352941175,451.17388743919577
-0.1939482421875,0.0478779296875,1.2351611328125005,1.2512119088345672,-0.6787109375,-0.85400390625,2.3486328125,42.224117647058826,451.17388743919577
-0.2081083984375,0.0654560546875,1.1721728515625005,1.192301469652553,-0.677734375,-0.66455078125,1.7333984375,41.18882352941176,450.9918232086704
-0.2417998046875,0.0703388671875,1.1082080078125005,1.1364592779171123,-0.91455078125,-0.3271484375,1.34375,41.80058823529412,450.9918232086704
-0.2696318359375,0.0654560546875,1.1360400390625005,1.1694326797209864,-1.0029296875,-0.103515625,1.4189453125,41.98882352941177,450.9918232086704
-0.2549833984375,0.0722919921875,1.1082080078125005,1.1394593692593542,-0.93896484375,-0.19287109375,1.60595703125,42.224117647058826,450.9918232086704
-0.2359404296875,0.0757099609375,1.0784228515625005,1.1065241666219832,-0.83837890625,-0.41845703125,1.73095703125,41.89470588235295,450.9918232086704
-0.2471708984375,0.0620380859375,1.0427783203125005,1.0734657900720213,-0.77197265625,-0.416015625,1.7685546875,42.08294117647059,451.38026378794274
-0.2549833984375,0.0351826171875,0.9924853515625,1.025320205153999,-0.54052734375,-0.1640625,1.7607421875,41.94176470588236,451.38026378794274
-0.2540068359375,0.0019794921875,0.9392626953125,0.9730045230614308,-0.33984375,0.22607421875,1.724609375,41.94176470588236,451.38026378794274
-0.2510771484375,-0.0214580078125,0.9011767578125,0.935745547351542,-0.1630859375,0.6611328125,1.63525390625,41.98882352941177,451.38026378794274
-0.2154326171875,-0.0263408203125,0.8533251953125001,0.8804935776699951,-0.01220703125,0.83544921875,1.60107421875,41.94176470588236,451.6594484918825
-0.1812529296875,-0.0278056640625,0.7893603515625001,0.8103798764117555,-0.0107421875,0.5966796875,1.69677734375,41.98882352941177,451.6594484918825
-0.1626982421875,-0.0185283203125,0.7493212890625001,0.7670048310843888,-0.05810546875,0.29541015625,1.7265625,41.98882352941177,451.6594484918825
-0.1661162109375,-0.0009501953124999,0.7122119140625001,0.7313284548955646,-0.13134765625,-0.076171875,1.71826171875,41.89470588235295,451.6594484918825
-0.1866240234375,0.0161396484375,0.6951220703125001,0.7199192364503277,-0.1708984375,-0.357421875,1.61376953125,41.98882352941177,451.6594484918825
-0.2183623046875,0.0288349609375,0.6790087890625001,0.7138392583101789,-0.17578125,-0.4755859375,1.40087890625,41.98882352941177,451.7664868176728
-0.2598662109375,0.0415302734375,0.6746142578125001,0.7241267900324618,-0.1767578125,-0.55078125,1.19921875,41.98882352941177,451.7664868176728
-0.2876982421875,0.0561787109375,0.6814501953125001,0.741822549409103,-0.12939453125,-0.59423828125,0.98876953125,41.89470588235295,451.7664868176728
-0.3028349609375,0.0625263671875,0.6829150390625001,0.7496609305128681,-0.0927734375,-0.68212890625,0.74072265625,41.89470588235295,451.7664868176728
-0.3218779296875,0.0742451171875,0.7014697265625001,0.7753563802083306,-0.068359375,-0.7568359375,0.61572265625,41.98882352941177,451.9176791055266
-0.3389677734375,0.0937763671875,0.7214892578125001,0.8026455678634832,-0.04833984375,-0.6220703125,0.27197265625,41.94176470588236,451.9176791055266
-0.3511748046875,0.1050068359375,0.7366259765625001,0.8227806563037112,0.02294921875,-0.2080078125,0.04345703125,41.98882352941177,451.9176791055266
-0.3550810546875,0.0932880859375,0.7405322265625001,0.8265429214224048,0.03759765625,0.39599609375,-0.18408203125,41.94176470588236,451.9176791055266
-0.3301787109375,0.0620380859375,0.7229541015625001,0.7972009396815708,0.09423828125,0.75048828125,-0.25,41.80058823529412,451.9176791055266
-0.3165068359375,0.0185810546875,0.6834033203125001,0.7533670625947334,0.13525390625,1.13671875,-0.0234375,41.18882352941176,450.90351819261264
-0.2798857421875,-0.0331767578125,0.6379931640625001,0.697475449983207,0.28173828125,0.931640625,0.279296875,41.89470588235295,450.90351819261264
-0.2457060546875,-0.0683330078125,0.5964892578125001,0.6487220513844948,0.1826171875,0.44384765625,0.31201171875,41.89470588235295,450.90351819261264
-0.2247099609375,-0.0932353515625,0.6184619140625001,0.6645920075289553,-0.02294921875,0.02294921875,0.1396484375,41.94176470588236,450.90351819261264
-0.2042021484375,-0.1161845703125,0.6936572265625001,0.7323644719451993,-0.1767578125,0.234375,-0.01806640625,41.94176470588236,451.54025867483847
-0.1451201171875,-0.1147197265625,0.7551806640625001,0.777507748803166,-0.111328125,0.29443359375,-0.04541015625,41.89470588235295,451.54025867483847
-0.1255888671875,-0.1186259765625,0.8020556640625001,0.8204498608273294,-0.11865234375,-0.05126953125,0.1748046875,41.94176470588236,451.54025867483847
-0.1431669921875,-0.1054423828125,0.8757861328125001,0.8936533075929767,-0.09228515625,-0.7958984375,0.70849609375,41.04764705882353,451.54025867483847
-0.2110380859375,-0.0971416015625,0.9158251953125,0.9448329761600566,0.05712890625,-1.43701171875,1.197265625,41.14176470588235,451.54025867483847
-0.2906279296875,-0.0873759765625,0.9280322265625,0.9763928350480888,0.1044921875,-1.75634765625,1.150390625,41.18882352941176,451.32507299469097
-0.3658232421875,-0.0697978515625,0.9338916015625,1.005411312884576,-0.00732421875,-1.7060546875,0.55322265625,42.45941176470589,451.32507299469097
-0.4117216796875,-0.0800517578125,0.9651416015625,1.0523408841816395,-0.06005859375,-1.50048828125,-0.162109375,41.80058823529412,451.32507299469097
-0.4249052734375,-0.1064189453125,1.0286181640625005,1.1180003625919492,0.02392578125,-1.087890625,-0.4140625,41.98882352941177,451.32507299469097
-0.4229521484375,-0.1108134765625,1.1096728515625005,1.1927036446454815,0.13916015625,-0.41845703125,-0.26708984375,42.224117647058826,450.9278294000845
-0.4190458984375,-0.0820048828125,1.2136767578125005,1.2865984370644346,0.15283203125,0.16748046875,-0.02734375,42.506470588235295,450.9278294000845
-0.3091826171875,-0.0048564453124999,1.3289111328125005,1.3644127948480211,-0.15185546875,0.306640625,-0.18017578125,41.98882352941177,450.9278294000845
-0.1885771484375,0.0659443359375,1.3001025390625005,1.3153617785354024,-0.62451171875,0.56298828125,-0.3564453125,41.80058823529412,450.9278294000845
-0.0821318359375,0.1035419921875,1.1887744140625005,1.196098319600133,-0.87109375,0.55908203125,-0.35498046875,41.98882352941177,450.9278294000845
-0.0235380859375,0.1347919921875,1.1370166015625005,1.1452203608372555,-1.00341796875,0.125,-0.05908203125,42.08294117647059,451.25003809326665
0.0594697265625,0.2290302734375,1.1404345703125005,1.1647242264554007,-0.83349609375,-1.375,0.30615234375,42.08294117647059,451.25003809326665
0.1136689453125,0.3354755859375,1.1741259765625005,1.2263915796870957,-0.40673828125,-3.01708984375,-0.0439453125,41.80058823529412,451.25003809326665
0.0760712890625,0.4375263671875,1.3064501953125005,1.3798653107589856,-0.04833984375,-4.15869140625,-1.14453125,41.94176470588236,451.25003809326665
-0.0040068359375,0.5400654296875,1.6384814453125005,1.7251980088416268,0.51318359375,-6.08837890625,-2.27734375,42.08294117647059,451.4420308546333
0.0863251953125,0.4072529296875,1.6956103515625005,1.745967196831229,1.140625,-6.69189453125,-2.310546875,42.08294117647059,451.4420308546333
0.0941376953125,0.3525654296875,1.5515673828125005,1.5939026417247424,1.18115234375,-4.18798828125,-1.67431640625,42.08294117647059,451.4420308546333
0.0785126953125,0.3594013671875,1.3894580078125005,1.4373333439170468,1.12255859375,-1.15869140625,-0.7802734375,41.98882352941177,451.4420308546333
-0.0542998046875,0.2949482421875,1.3328173828125005,1.3661424194738114,0.900390625,1.4013671875,-0.107421875,41.94176470588236,451.4420308546333
-0.2378935546875,0.1904560546875,1.3157275390625005,1.3505575919509858,1.0869140625,3.69140625,0.2529296875,41.94176470588236,451.0337415603964
-0.2691435546875,0.0820576171875,1.3225634765625005,1.3521633980793153,1.3544921875,4.1689453125,0.2294921875,41.18882352941176,451.0337415603964
-0.2422880859375,-0.0258525390625,1.3206103515625005,1.3429011769364363,1.5927734375,3.3671875,-0.48974609375,41.04764705882353,451.0337415603964
-0.1929716796875,-0.0815166015625,1.2786181640625005,1.2956648621315132,1.451171875,1.94873046875,-1.318359375,41.89470588235295,451.0337415603964
-0.1690458984375,-0.0751689453125,1.2107470703125005,1.2248001283426768,0.943359375,1.0673828125,-1.80810546875,41.98882352941177,451.3890705427601
-0.1651396484375,-0.0072978515624999,1.1287158203125005,1.14075578681294,0.42041015625,0.68505859375,-1.88330078125,41.94176470588236,451.3890705427601
-0.1690458984375,0.0703388671875,1.0608447265625005,1.0765294263935512,0.029296875,0.548828125,-1.861328125,42.08294117647059,451.3890705427601
-0.1866240234375,0.1147724609375,0.9919970703125,1.0159032588894643,-0.271484375,0.48095703125,-1.87646484375,41.94176470588236,451.3890705427601
-0.1929716796875,0.1235615234375,0.9358447265625,0.9634889057329366,-0.44873046875,0.5751953125,-1.85693359375,41.94176470588236,451.3890705427601
-0.1988310546875,0.1211201171875,0.8987353515625001,0.92840136969084,-0.43798828125,0.73828125,-1.64794921875,42.506470588235295,451.4321076900112
-0.1724638671875,0.1064716796875,0.8655322265625001,0.888946589666097,-0.3095703125,0.8564453125,-1.15234375,42.506470588235295,451.4321076900112
-0.1441435546875,0.0874287109375,0.8381884765625001,0.8549743072726255,-0.18798828125,0.82470703125,-0.640625,42.224117647058826,451.4321076900112
-0.1216826171875,0.0649677734375,0.8113330078125001,0.8229755284801026,-0.041015625,0.61572265625,-0.201171875,41.98882352941177,451.4321076900112
-0.1197294921875,0.0293232421875,0.8010791015625001,0.8105076994033097,0.052734375,0.2197265625,0.10546875,41.89470588235295,451.52922058599273
-0.1407255859375,-0.0077861328124999,0.8171923828125001,0.8292573212992443,0.236328125,0.0576171875,0.4619140625,42.45941176470589,451.52922058599273
-0.1753935546875,-0.0268291015625,0.8284228515625001,0.847211379000254,0.4013671875,0.3115234375,0.91064453125,41.89470588235295,451.52922058599273
-0.1661162109375,-0.0097392578124999,0.8035205078125001,0.8205697137685672,0.43359375,0.529296875,0.884765625,41.98882352941177,451.52922058599273
-0.1744169921875,0.0049091796875,0.7644580078125001,0.7841182518712309,0.32080078125,0.66357421875,0.74853515625,41.94176470588236,451.52922058599273
-0.1602568359375,0.0014912109375,0.7034228515625001,0.7214486712684957,0.2333984375,0.6640625,0.54248046875,42.08294117647059,451.5071444500402
-0.1490263671875,-0.0024150390624999,0.6668017578125001,0.6832563755667538,0.10986328125,0.49365234375,0.5908203125,41.98882352941177,451.5071444500402
-0.1929716796875,-0.0273173828125,0.6238330078125001,0.6535686117015799,0.06494140625,0.35888671875,0.8681640625,42.45941176470589,451.5071444500402
-0.2461943359375,-0.0605205078125,0.5881884765625001,0.6404998570448741,-0.01904296875,0.66748046875,1.12548828125,41.89470588235295,451.5071444500402
-0.2208037109375,-0.0463603515625,0.5916064453125001,0.6331680243790441,-0.20654296875,0.98583984375,1.60986328125,41.94176470588236,451.4420308546333
-0.2144560546875,-0.0551494140625,0.5627978515625001,0.604792757055614,-0.4033203125,1.12353515625,1.61328125,42.31823529411765,451.4420308546333
-0.2144560546875,-0.0600322265625,0.5623095703125001,0.6048035387489129,-0.58837890625,0.79150390625,1.58740234375,41.94176470588236,451.4420308546333
-0.2227568359375,-0.0531962890625,0.5779345703125001,0.6216581220326824,-0.69140625,0.5029296875,1.67333984375,41.94176470588236,451.4420308546333
-0.2496123046875,-0.0356181640625,0.6218798828125001,0.6710510747398273,-0.7421875,0.3955078125,1.68896484375,41.14176470588235,451.4420308546333
-0.2754912109375,-0.0112041015624999,0.6628955078125001,0.7179494365717026,-0.75341796875,0.58544921875,1.76171875,41.98882352941177,451.398993515034
-0.3018583984375,0.0161396484375,0.7278369140625001,0.7881151910926231,-0.6845703125,0.9501953125,1.96240234375,42.506470588235295,451.398993515034
-0.2930693359375,0.0512958984375,0.7937548828125001,0.8476837375177391,-0.44384765625,1.22900390625,2.32373046875,41.94176470588236,451.398993515034
-0.2764677734375,0.0844990234375,0.8362353515625001,0.884796065720366,-0.1142578125,1.21630859375,2.79150390625,41.80058823529412,451.398993515034
-0.2471708984375,0.1313740234375,0.8455126953125001,0.8906426359675166,0.17919921875,1.1279296875,3.00146484375,41.89470588235295,451.36810977969145
-0.2115263671875,0.1928974609375,0.8440478515625001,0.8912741498433283,0.3291015625,1.02099609375,3.1025390625,42.08294117647059,451.36810977969145
-0.2002958984375,0.2480732421875,0.8303759765625001,0.8894847063735435,0.34326171875,0.8125,2.693359375,41.04764705882353,451.36810977969145
-0.2266630859375,0.2886005859375,0.8357470703125001,0.9127648208964376,0.25,0.94921875,2.14501953125,41.98882352941177,451.36810977969145
-0.2701201171875,0.2925068359375,0.8757861328125001,0.9620428666157398,0.1708984375,1.10595703125,1.7138671875,41.94176470588236,451.36810977969145
-0.3042998046875,0.2612568359375,0.9500048828125,1.0311948326211282,0.23583984375,1.69384765625,1.55810546875,41.98882352941177,450.90351819261264
-0.2999052734375,0.2456318359375,0.9929736328125,1.0659619164503495,0.3408203125,2.29541015625,1.193359375,41.94176470588236,450.90351819261264
-0.2906279296875,0.2632099609375,1.1858447265625005,1.2489883076183117,0.57177734375,2.59619140625,0.6357421875,41.80058823529412,450.90351819261264
-0.2559599609375,0.2002216796875,1.4338916015625005,1.4702548580608337,1.2001953125,2.07666015625,0.9404296875,41.80058823529412,450.90351819261264
-0.1500029296875,0.0503193359375,1.4724658203125005,1.4809417633629582,1.78271484375,1.32373046875,1.6650390625,41.98882352941177,450.5371649438699
-0.0884794921875,0.0259052734375,1.2620166015625005,1.2653796293401407,1.568359375,0.84033203125,1.47021484375,41.98882352941177,450.5371649438699
-0.1138701171875,0.0737568359375,1.2522509765625005,1.259578891033643,0.9697265625,0.69677734375,0.5615234375,42.36529411764706,450.5371649438699
-0.1172880859375,0.0112568359375,1.2415087890625005,1.2470875208972472,0.568359375,0.57275390625,-0.0625,41.94176470588236,450.5371649438699
