AccX,AccY,AccZ,Magnitude,GyroX,GyroY,GyroZ,Temperature,Altitude
0.1468720703125,0.1977802734375,1.4861376953125005,1.5064175022309196,0.2861328125,0.4716796875,-0.7724609375,42.60058823529412,455.2441255193162
0.3036103515625,0.2090107421875,1.3108447265625005,1.361682280520089,0.58984375,0.74072265625,0.13525390625,42.31823529411765,455.2441255193162
0.3944306640625,0.2319599609375,1.1672900390625005,1.253773108471164,0.7802734375,0.6513671875,0.63525390625,43.16529411764706,455.2441255193162
0.3573212890625,0.2085224609375,1.0662158203125005,1.1436679132586416,1.04443359375,0.2646484375,1.83837890625,42.41235294117647,455.2441255193162
0.3021455078125,0.2275654296875,1.0515673828125005,1.1175293702070033,1.1103515625,0.1826171875,2.25830078125,42.45941176470589,456.1305721829942
0.2547822265625,0.1899677734375,1.0647509765625005,1.111168925054937,0.98046875,0.07568359375,1.59130859375,42.45941176470589,456.1305721829942
0.1659150390625,0.1504169921875,1.0530322265625005,1.0765825290729096,0.6787109375,-0.1796875,0.42333984375,41.89470588235295,456.1305721829942
0.0956025390625,0.1723896484375,1.0613330078125005,1.079484038712908,0.46142578125,-0.20263671875,-0.34130859375,42.224117647058826,456.1305721829942
0.1058564453125,0.1806904296875,1.0281298828125005,1.049240522629057,0.318359375,0.15673828125,-0.783203125,42.224117647058826,457.3094870914703
0.1341767578125,0.1572529296875,1.0227587890625005,1.0434401884329394,0.23876953125,0.60400390625,-1.12158203125,43.07117647058824,457.3094870914703
0.0755830078125,0.0620380859375,1.0252001953125005,1.0298528805832228,0.3173828125,0.85888671875,-0.873046875,42.60058823529412,457.3094870914703
0.0360322265625,-0.0458720703125,1.0237353515625005,1.0253958446495686,0.29736328125,0.712890625,-0.31787109375,42.45941176470589,457.3094870914703
0.0038056640625,-0.1152080078125,1.0593798828125005,1.0656327248404622,0.31494140625,0.482421875,-0.14794921875,42.31823529411765,457.3094870914703
0.0057587890625,-0.1659892578125,1.0120166015625005,1.0255550688279609,0.53564453125,0.49072265625,0.37744140625,42.31823529411765,457.2406225491706
0.1307587890625,-0.1567119140625,0.9202197265625,0.9425820017807396,0.1455078125,-0.025390625,-0.6689453125,41.84764705882353,457.2406225491706
0.0218720703125,-0.1142314453125,0.8879931640625001,0.8955775064055973,-0.10107421875,-0.13671875,-1.29345703125,42.31823529411765,457.2406225491706
0.0409150390625,-0.0209697265625,0.8152392578125001,0.8165346393952113,-0.2734375,0.00390625,-1.56396484375,43.21235294117647,457.2406225491706
0.0160126953125,0.0068623046875,0.7678759765625001,0.7680735726599427,-0.203125,0.400390625,-1.0810546875,41.84764705882353,457.4223803822688
0.0116181640625,0.0488544921875,0.7634814453125001,0.7651311394000022,-0.21337890625,0.6650390625,-0.8984375,43.25941176470588,457.4223803822688
-0.0289091796875,0.0444599609375,0.7395556640625001,0.7414546574428498,-0.26025390625,0.81787109375,-0.91357421875,43.21235294117647,457.4223803822688
-0.0406279296875,0.0307880859375,0.6868212890625001,0.6887104021400153,-0.29052734375,0.916015625,-0.85498046875,42.31823529411765,457.4223803822688
-0.0611357421875,0.0366474609375,0.6487353515625001,0.6526393887384538,-0.26611328125,0.97265625,-0.630859375,42.31823529411765,457.4223803822688
-0.0748076171875,0.0376240234375,0.6096728515625001,0.6153964028666785,-0.24169921875,0.865234375,-0.28564453125,42.31823529411765,456.9789462160181
-0.0967802734375,0.0249287109375,0.6018603515625001,0.6101014216821485,-0.16357421875,0.8671875,0.1748046875,42.45941176470589,456.9789462160181
-0.0796904296875,0.0171162109375,0.5642626953125001,0.5701192143595607,-0.1865234375,0.74169921875,0.56982421875,42.41235294117647,456.9789462160181
-0.0469755859375,0.0190693359375,0.5466845703125001,0.5490303859214274,-0.15283203125,0.58740234375,0.7880859375,41.84764705882353,456.9789462160181
-0.0372099609375,0.0176044921875,0.5584033203125001,0.5599185364623809,-0.08056640625,0.57666015625,0.90478515625,42.31823529411765,457.3240943438455
-0.0333037109375,0.0249287109375,0.5764697265625001,0.5779687910555877,0.0205078125,0.57373046875,0.8759765625,42.506470588235295,457.3240943438455
-0.0079130859375,0.0278583984375,0.5505908203125001,0.5513519372460284,0.0703125,0.33837890625,0.96484375,43.21235294117647,457.3240943438455
0.0003876953125,0.0317646484375,0.5647509765625001,0.5656437118242461,-0.01220703125,0.06591796875,0.833984375,42.31823529411765,457.3240943438455
-0.0069365234375,0.0210224609375,0.6213916015625001,0.621785800508243,-0.07373046875,-0.08447265625,0.74853515625,43.16529411764706,457.3240943438455
-0.0372099609375,-0.0126689453124999,0.6638720703125001,0.6650347427836432,-0.025390625,-0.25732421875,1.052734375,42.60058823529412,457.43093904517735
-0.0254912109375,-0.0033916015624999,0.7009814453125001,0.7014529859289362,-0.0791015625,-0.5341796875,1.17626953125,42.41235294117647,457.43093904517735
-0.0586943359375,-0.0282939453125,0.7688525390625001,0.7716085790317161,-0.15087890625,-0.60693359375,1.27734375,41.98882352941177,457.43093904517735
-0.0669951171875,-0.0214580078125,0.8264697265625001,0.8294582573888465,-0.29931640625,-0.66455078125,1.3251953125,41.89470588235295,457.43093904517735
-0.0738310546875,0.0058857421875,0.8611376953125001,0.8643169539500487,-0.41455078125,-0.748046875,1.1484375,42.506470588235295,457.4271908239127
-0.1294951171875,0.0244404296875,0.9016650390625,0.911244293615216,-0.546875,-0.51513671875,1.15185546875,42.41235294117647,457.4271908239127
-0.1783232421875,0.0591083984375,0.9465869140625,0.965049101001848,-0.61376953125,-0.38525390625,1.3564453125,43.07117647058824,457.4271908239127
-0.2081083984375,0.1035419921875,0.9856494140625,1.012686929454571,-0.63037109375,-0.1728515625,1.6474609375,41.84764705882353,457.4271908239127
-0.2007841796875,0.1377216796875,1.0193408203125005,1.0480158662081838,-0.62060546875,-0.0830078125,1.83447265625,42.45941176470589,457.4271908239127
-0.1773466796875,0.1577412109375,1.0979541015625005,1.1233153357637946,-0.55078125,-0.02001953125,1.875,43.16529411764706,456.6657323794392
-0.1592802734375,0.1665302734375,1.1043017578125005,1.128089052240678,-0.52783203125,-0.162109375,2.08740234375,41.84764705882353,456.6657323794392
-0.1783232421875,0.1533466796875,1.1780322265625005,1.2012802794082835,-0.517578125,-0.203125,2.0771484375,42.60058823529412,456.6657323794392
-0.1871123046875,0.1406513671875,1.2317431640625005,1.2537882771313027,-0.3125,-0.17431640625,2.08447265625,42.45941176470589,456.6657323794392
-0.2125029296875,0.1440693359375,1.2493212890625005,1.2754282229855314,-0.1357421875,0.09521484375,1.98681640625,42.45941176470589,456.560149692111
-0.2374052734375,0.1552998046875,1.2537158203125005,1.28541147158945,-0.13037109375,0.31396484375,1.79296875,43.21235294117647,456.560149692111
-0.2681669921875,0.1518818359375,1.2922900390625005,1.3285312088343255,-0.0615234375,0.6279296875,1.66015625,41.84764705882353,456.560149692111
-0.2686552734375,0.1426044921875,1.3513720703125005,1.3851780281099342,0.01904296875,1.255859375,1.63525390625,43.07117647058824,456.560149692111
-0.2164091796875,0.1455341796875,1.4460986328125005,1.4694265501659185,0.13330078125,1.603515625,1.71630859375,42.45941176470589,456.560149692111
-0.1138701171875,0.1753193359375,1.5432666015625005,1.557361575434597,0.31689453125,1.4365234375,1.69580078125,42.45941176470589,456.51591110248097
0.0042939453125,0.1611591796875,1.5725634765625005,1.5808056828662505,0.576171875,0.94580078125,1.61767578125,41.84764705882353,456.51591110248097
0.0780244140625,0.1162373046875,1.5593798828125005,1.565651474342594,0.7802734375,0.41845703125,1.5986328125,41.84764705882353,456.51591110248097
0.1839814453125,0.0420185546875,1.4836962890625005,1.4956501627503465,0.82568359375,-0.0146484375,1.48583984375,41.84764705882353,456.51591110248097
0.3290009765625,-0.0004619140624999,1.4568408203125005,1.4935283832831832,0.7734375,0.08056640625,1.17724609375,41.84764705882353,456.4508072069549
0.4559541015625,-0.0385478515625,1.2146533203125005,1.2979841170591928,0.6005859375,0.44873046875,0.2978515625,43.02411764705882,456.4508072069549
0.4842744140625,-0.1181376953125,1.1760791015625005,1.2773567537306814,0.30126953125,0.6572265625,-0.93212890625,42.45941176470589,456.4508072069549
0.4432587890625,-0.2309306640625,1.1726611328125005,1.274731916166924,0.052734375,0.59716796875,-2.11083984375,43.25941176470588,456.4508072069549
0.4066376953125,-0.3227275390625,1.1755908203125005,1.2851151919269403,-0.15234375,0.09130859375,-2.77734375,42.45941176470589,456.4508072069549
0.3456025390625,-0.3920634765625,1.1589892578125005,1.2713815258943677,-0.369140625,-0.68212890625,-2.74755859375,42.45941176470589,457.3645818362881
0.2088837890625,-0.3993876953125,1.2014697265625005,1.2832273658032338,-0.328125,-1.50732421875,-1.51806640625,43.21235294117647,457.3645818362881
0.0838837890625,-0.3710673828125,1.2302783203125005,1.2877547274561827,-0.4541015625,-1.93359375,-0.16796875,41.84764705882353,457.3645818362881
0.0614228515625,-0.2353251953125,1.2903369140625005,1.313057525790577,-0.521484375,-1.7041015625,0.5166015625,43.07117647058824,457.3645818362881
0.0599580078125,-0.1249736328125,1.2810595703125005,1.2885367648183133,-0.529296875,-1.17431640625,0.5361328125,42.45941176470589,457.8902659296878
0.0540986328125,-0.0302470703125,1.2400439453125005,1.2415919352351088,-0.6650390625,-0.783203125,0.3173828125,41.84764705882353,457.8902659296878
0.0374970703125,0.0342060546875,1.2341845703125005,1.2352277676836592,-0.666015625,-0.5673828125,-0.0146484375,41.84764705882353,457.8902659296878
0.0013642578125,0.0493427734375,1.2073291015625005,1.2083377549218586,-0.53076171875,-0.27294921875,0.20263671875,41.84764705882353,457.8902659296878
-0.0118193359375,0.0727802734375,1.1404345703125005,1.1428156780808958,-0.31201171875,-0.13671875,0.9580078125,42.506470588235295,457.8902659296878
0.0277314453125,0.0859638671875,1.0530322265625005,1.0568990915409695,0.08251953125,0.06201171875,1.65625,42.41235294117647,456.8057491434345
0.0721650390625,0.0771748046875,0.9495166015625,0.95537716111714,0.4326171875,0.24462890625,2.1708984375,42.788823529411765,456.8057491434345
0.1151337890625,0.0595966796875,0.8567431640625001,0.8664966259492801,0.5888671875,0.28369140625,2.2578125,42.45941176470589,456.8057491434345
0.1229462890625,0.0346943359375,0.7942431640625001,0.8044511735341029,0.75048828125,0.1904296875,1.9375,42.27117647058824,456.8057491434345
0.0716767578125,-0.0053447265624999,0.7341845703125001,0.7376944536849183,0.83837890625,0.01123046875,1.423828125,42.506470588235295,457.137332759598
-0.0137724609375,-0.0527080078125,0.6912158203125001,0.6933593044144716,0.84716796875,-0.09521484375,0.86181640625,42.03588235294118,457.137332759598
-0.0469755859375,-0.0712626953125,0.6311572265625001,0.6369022861157281,0.72265625,-0.07568359375,0.44921875,42.506470588235295,457.137332759598
-0.0191435546875,-0.0815166015625,0.5789111328125001,0.5849354936320967,0.60009765625,-0.1728515625,0.17724609375,41.84764705882353,457.137332759598
0.0018525390625,-0.0932353515625,0.5569384765625001,0.5646917117841552,0.416015625,-0.14453125,-0.13623046875,42.41235294117647,457.137332759598
0.0121064453125,-0.1254619140625,0.5071337890625001,0.5225628554606795,0.2861328125,-0.4150390625,-0.2666015625,42.60058823529412,457.7072456881593
0.0277314453125,-0.1308330078125,0.4670947265625,0.4858639650919613,0.0947265625,-0.67919921875,-0.19287109375,42.45941176470589,457.7072456881593
0.0389619140625,-0.1044658203125,0.4797900390625,0.4925744816213813,-0.04345703125,-0.88134765625,-0.04736328125,42.41235294117647,457.7072456881593
0.0096650390625,-0.0834697265625,0.5310595703125001,0.5376661375361065,-0.09033203125,-0.826171875,0.1640625,42.45941176470589,457.7072456881593
0.0135712890625,-0.0439189453125,0.5535205078125001,0.5554259682560658,-0.1806640625,-0.41796875,0.01318359375,41.84764705882353,457.524228217879
0.0140595703125,-0.0258525390625,0.5774462890625001,0.5781956779892103,-0.201171875,-0.16064453125,-0.234375,43.21235294117647,457.524228217879
0.0213837890625,-0.0107158203124999,0.6277392578125001,0.6281947715785509,-0.24169921875,0.06689453125,-0.708984375,42.31823529411765,457.524228217879
-0.0230498046875,-0.0165751953125,0.6585009765625001,0.6591127117038069,-0.10888671875,0.0380859375,-0.81103515625,43.02411764705882,457.524228217879
-0.0220732421875,-0.0053447265624999,0.7058642578125001,0.7062295268394599,-0.078125,0.25634765625,-0.97705078125,43.25941176470588,457.524228217879
-0.0313505859375,-0.0068095703124999,0.7273486328125001,0.7280558104573293,-0.0068359375,0.12939453125,-1.17578125,42.506470588235295,457.0943452509946
-0.0425810546875,-0.0282939453125,0.7747119140625001,0.7763969624811968,0.154296875,-0.07470703125,-1.2041015625,42.45941176470589,457.0943452509946
-0.0660185546875,-0.0697978515625,0.8176806640625001,0.8233054463730082,0.2724609375,-0.271484375,-0.96630859375,41.84764705882353,457.0943452509946
-0.0611357421875,-0.0746806640625,0.8557666015625001,0.8611917654665906,0.33544921875,-0.37841796875,-0.841796875,41.84764705882353,457.0943452509946
-0.0826201171875,-0.0898173828125,0.9036181640625,0.911821820556542,0.38720703125,-0.337890625,-0.8486328125,42.41235294117647,456.4827323065242
-0.1011748046875,-0.0971416015625,0.9607470703125,0.9709313904554396,0.455078125,-0.37451171875,-0.87255859375,43.25941176470588,456.4827323065242
-0.0943388671875,-0.0878642578125,1.0295947265625005,1.0376344494225662,0.52197265625,-0.15576171875,-0.75927734375,42.97705882352941,456.4827323065242
-0.0894560546875,-0.0688212890625,1.1126025390625005,1.118312642098264,0.63037109375,0.06884765625,-0.86865234375,41.89470588235295,456.4827323065242
-0.0992216796875,-0.0502666015625,1.2009814453125005,1.2061210987863342,0.7451171875,0.33447265625,-1.025390625,43.07117647058824,456.4827323065242
-0.1041044921875,-0.0370830078125,1.2742236328125005,1.2790069433665812,0.89501953125,0.54345703125,-1.1787109375,42.64764705882353,456.5465831065413
-0.1128935546875,-0.0541728515625,1.3020556640625005,1.308062920831269,1.0556640625,0.505859375,-1.1923828125,42.45941176470589,456.5465831065413
-0.1075224609375,-0.0663798828125,1.3005908203125005,1.3067149078239677,1.1318359375,0.40087890625,-1.22216796875,43.16529411764706,456.5465831065413
-0.1226591796875,-0.1093486328125,1.2971728515625005,1.307539599664332,1.09765625,0.33447265625,-1.0908203125,41.89470588235295,456.5465831065413
-0.1465849609375,-0.1357158203125,1.3381884765625005,1.3530167528381931,1.04833984375,0.4990234375,-0.98974609375,43.07117647058824,455.7937418048338
-0.1343779296875,-0.1391337890625,1.3884814453125005,1.4018902821630077,0.9970703125,0.38671875,-1.068359375,42.60058823529412,455.7937418048338
-0.1104521484375,-0.1420634765625,1.4519580078125005,1.463066562025914,0.9267578125,0.65771484375,-1.0791015625,42.45941176470589,455.7937418048338
-0.0372099609375,-0.1420634765625,1.5662158203125005,1.5730856964460496,0.845703125,0.7412109375,-1.44091796875,42.64764705882353,455.7937418048338
0.0555634765625,-0.1576884765625,1.6687548828125005,1.67710936270682,0.66357421875,0.48828125,-2.013671875,42.60058823529412,455.7937418048338
0.1297822265625,-0.1459697265625,1.6897509765625005,1.7010023369173173,0.150390625,0.115234375,-2.31640625,42.45941176470589,456.2346318528354
0.1395478515625,-0.0868876953125,1.6819384765625005,1.6899526956142328,-0.1953125,-0.12744140625,-2.1318359375,41.89470588235295,456.2346318528354
0.1244111328125,-0.0331767578125,1.5960009765625005,1.6011864177587485,-0.462890625,-0.419921875,-1.1796875,42.506470588235295,456.2346318528354
0.1668916015625,0.0483662109375,1.5471728515625005,1.556899460352076,-0.6298828125,-0.10595703125,-0.1689453125,43.16529411764706,456.2346318528354
0.2245087890625,0.1118427734375,1.5110400390625005,1.531716358202949,-0.43408203125,0.00244140625,0.5400390625,42.45941176470589,456.538030369434
0.3177705078125,0.1723896484375,1.4099658203125005,1.4555754535486372,-0.16650390625,0.349609375,0.95751953125,42.41235294117647,456.538030369434
0.3807587890625,0.1645771484375,1.2366259765625005,1.3043414810337506,-0.0283203125,-0.0576171875,1.26123046875,42.60058823529412,456.538030369434
0.3265595703125,0.1426044921875,1.1580126953125005,1.2115983644177062,0.36572265625,0.4326171875,2.06689453125,42.74176470588235,456.538030369434
0.3050751953125,0.1264912109375,1.1121142578125005,1.1601159526828528,0.609375,1.08544921875,2.671875,42.45941176470589,456.538030369434
0.2855439453125,0.1504169921875,1.0789111328125005,1.1261482356910724,0.6650390625,1.4345703125,2.55078125,43.16529411764706,457.58808817281937
0.2318330078125,0.1841083984375,1.0608447265625005,1.1013782183074432,0.68798828125,1.69140625,1.9501953125,43.07117647058824,457.58808817281937
0.2074189453125,0.2246357421875,1.0129931640625005,1.0581299475867951,0.57275390625,2.17431640625,1.08642578125,43.16529411764706,457.58808817281937
0.1903291015625,0.1748310546875,0.9534228515625,0.9878290330144692,0.08740234375,2.44482421875,0.46728515625,41.89470588235295,457.58808817281937
0.1375947265625,0.1557880859375,1.0066455078125005,1.027880058614314,0.11865234375,2.71435546875,0.25537109375,41.84764705882353,457.8779598915581
0.1493134765625,0.1318623046875,0.9143603515625,0.9358082251135528,-0.4013671875,2.77197265625,0.08984375,42.224117647058826,457.8779598915581
0.0902314453125,0.1069599609375,1.0076220703125005,1.0172926734955794,0.26416015625,2.67138671875,0.24169921875,43.07117647058824,457.8779598915581
0.0916962890625,0.0317646484375,0.9290087890625,0.9340634520596364,-0.1845703125,1.900390625,0.89794921875,42.60058823529412,457.8779598915581
0.1439423828125,0.0078388671875,0.9407275390625,0.9517085479069268,0.19287109375,1.0498046875,1.4921875,41.98882352941177,457.8779598915581
0.1268525390625,-0.0199931640625,0.9299853515625,0.9388099101504308,-0.10302734375,0.9833984375,1.1103515625,42.45941176470589,457.7809194036231
0.1351533203125,-0.1576884765625,0.8718798828125001,0.8962737336803049,-0.08935546875,0.48876953125,0.8310546875,42.41235294117647,457.7809194036231
0.0638642578125,-0.0527080078125,0.8616259765625001,0.8655958069450117,0.0166015625,0.1923828125,0.654296875,41.89470588235295,457.7809194036231
0.0457978515625,-0.0019267578124999,0.7927783203125001,0.7941023994176808,-0.1953125,-0.01806640625,0.63427734375,43.25941176470588,457.7809194036231
0.0755830078125,0.0932880859375,0.7449267578125001,0.7545404777431823,-0.2490234375,0.06982421875,-0.24560546875,42.45941176470589,457.8558413138705
-0.0186552734375,0.0449482421875,0.7205126953125001,0.7221543517900155,-0.35302734375,0.0390625,-0.6962890625,42.60058823529412,457.8558413138705
-0.0450224609375,0.0263935546875,0.7000048828125001,0.701947631721379,-0.42431640625,0.1435546875,-0.43505859375,42.506470588235295,457.8558413138705
-0.0445341796875,0.0195576171875,0.6755908203125001,0.6773394644054103,-0.404296875,0.185546875,-0.1875,43.07117647058824,457.8558413138705
-0.0420927734375,0.0298115234375,0.6262744140625001,0.628394915809042,-0.4072265625,0.2802734375,0.06689453125,42.08294117647059,457.8558413138705
-0.0396513671875,0.0293232421875,0.6106494140625001,0.6126375685077592,-0.326171875,0.359375,0.20703125,41.84764705882353,457.5659694884552
-0.0450224609375,0.0068623046875,0.5950244140625001,0.5967647497506151,-0.30419921875,0.5244140625,0.39306640625,41.84764705882353,457.5659694884552
-0.0250029296875,0.0112568359375,0.5833056640625001,0.5839497928552385,-0.29052734375,0.5751953125,0.52587890625,42.97705882352941,457.5659694884552
-0.0040068359375,0.0058857421875,0.5837939453125001,0.5838373637228625,-0.279296875,0.66015625,0.7197265625,42.31823529411765,457.5659694884552
0.0003876953125,0.0161396484375,0.5950244140625001,0.5952433887829104,-0.25439453125,0.849609375,0.90234375,42.31823529411765,457.6285832946755
-0.0020537109374999,0.0166279296875,0.6023486328125001,0.6025815971512865,-0.2197265625,1.0263671875,1.0947265625,42.97705882352941,457.6285832946755
-0.0289091796875,0.0239521484375,0.6335986328125001,0.6347099129420033,-0.16064453125,1.1513671875,1.205078125,42.27117647058824,457.6285832946755
-0.0357451171875,0.0161396484375,0.6467822265625001,0.647970254141021,-0.185546875,1.068359375,1.15283203125,41.89470588235295,457.6285832946755
-0.0694365234375,0.0005146484375,0.6829150390625001,0.6864361923936096,-0.265625,0.80517578125,1.17236328125,43.07117647058824,457.6285832946755
-0.0894560546875,0.0107685546875,0.7312548828125001,0.7367849422507452,-0.3359375,0.62255859375,1.3798828125,43.16529411764706,457.5327915663892
-0.1021513671875,0.0342060546875,0.7810595703125001,0.7884535549874241,-0.3701171875,0.17236328125,1.6533203125,42.31823529411765,457.5327915663892
-0.1182646484375,0.0581318359375,0.8186572265625001,0.8291956898238886,-0.3408203125,-0.03857421875,2.01171875,42.224117647058826,457.5327915663892
-0.1314482421875,0.0771748046875,0.8508837890625001,0.8644291835321702,-0.265625,-0.0771484375,2.33837890625,41.84764705882353,457.5327915663892
-0.1143583984375,0.0781513671875,0.8835986328125001,0.8943891901150106,-0.2275390625,-0.0068359375,2.49169921875,41.89470588235295,457.3940127089179
-0.1089873046875,0.0840107421875,0.9099658203125,0.9203118121174702,-0.1875,0.10888671875,2.4052734375,42.506470588235295,457.3940127089179
-0.1021513671875,0.0903583984375,0.9377978515625,0.9476625730615864,-0.23046875,0.24951171875,2.126953125,42.506470588235295,457.3940127089179
-0.1065458984375,0.1103779296875,0.9827197265625,0.9946222281906972,-0.25341796875,0.455078125,1.7109375,42.60058823529412,457.3940127089179
-0.1299833984375,0.1357685546875,1.0335009765625005,1.0504537366618942,-0.23876953125,0.6357421875,1.423828125,41.89470588235295,457.3940127089179
-0.1319365234375,0.1504169921875,1.0593798828125005,1.0781086465952006,-0.2197265625,0.69580078125,1.330078125,42.31823529411765,457.1139640524821
-0.1211943359375,0.1616474609375,1.0686572265625005,1.0875873466416972,-0.11669921875,0.59130859375,1.34814453125,42.31823529411765,457.1139640524821
-0.1109404296875,0.1665302734375,1.0647509765625005,1.083390397318166,-0.0634765625,0.42431640625,1.17578125,42.41235294117647,457.1139640524821
-0.1397490234375,0.1616474609375,1.0735400390625005,1.0945994274845892,-0.0146484375,0.546875,0.7587890625,42.31823529411765,457.1139640524821
-0.1548857421875,0.1772724609375,1.1130908203125005,1.1377109882583385,-0.0263671875,0.794921875,0.2255859375,42.41235294117647,457.0096217610152
-0.2085966796875,0.1904560546875,1.1755908203125005,1.2090491554716851,-0.02001953125,1.025390625,-0.09228515625,43.21235294117647,457.0096217610152
-0.2837919921875,0.1909443359375,1.2297900390625005,1.2764721596782709,0.068359375,1.3388671875,0.03173828125,41.89470588235295,457.0096217610152
-0.3550810546875,0.1421162109375,1.2581103515625005,1.3149605429509803,0.23486328125,1.5234375,0.4853515625,42.45941176470589,457.0096217610152
-0.3838896484375,0.0859638671875,1.2903369140625005,1.348973832374681,0.357421875,1.7294921875,1.01513671875,41.89470588235295,457.0096217610152
-0.3135771484375,0.0537373046875,1.4143603515625005,1.4497011864550815,0.55517578125,2.021484375,1.20166015625,42.45941176470589,456.7393919969151
-0.1358427734375,0.0498310546875,1.5496142578125005,1.5563549534480388,0.53369140625,1.51513671875,1.0419921875,43.16529411764706,456.7393919969151
0.0052705078125,0.0342060546875,1.5554736328125005,1.5558586230132874,0.59228515625,0.626953125,0.79833984375,42.506470588235295,456.7393919969151
0.0248017578125,0.0605732421875,1.5027392578125005,1.5041640608093785,0.6142578125,0.3876953125,0.67333984375,42.41235294117647,456.7393919969151
0.0726533203125,0.0674091796875,1.4446337890625005,1.4480294496175306,0.5029296875,0.53125,0.58251953125,42.60058823529412,456.36233087418594
0.2162080078125,0.0591083984375,1.3699267578125005,1.3881422935631509,0.384765625,0.35888671875,0.17822265625,41.84764705882353,456.36233087418594
0.3436494140625,0.0342060546875,1.2585986328125005,1.3051189572143524,0.31494140625,0.51708984375,-0.51318359375,42.31823529411765,456.36233087418594
0.4168916015625,0.0127216796875,1.2327197265625005,1.301367885282153,0.19384765625,1.16162109375,-1.21435546875,42.506470588235295,456.36233087418594
0.4618134765625,-0.0522197265625,1.2434619140625005,1.3274773514832492,0.130859375,1.14208984375,-1.86767578125,42.45941176470589,456.36233087418594
0.3993134765625,-0.1611064453125,1.1721728515625005,1.248757675942704,-0.021484375,0.66064453125,-2.17822265625,43.25941176470588,457.36333235424365
0.3402314453125,-0.2148173828125,1.1204150390625005,1.190476292958104,-0.18798828125,0.46435546875,-2.52197265625,42.60058823529412,457.36333235424365
0.2655244140625,-0.2485087890625,1.1360400390625005,1.192831422732345,-0.29443359375,0.115234375,-2.81689453125,42.45941176470589,457.36333235424365
0.1771455078125,-0.2690166015625,1.1433642578125005,1.1878688012139702,-0.52392578125,-0.3095703125,-2.82080078125,42.45941176470589,457.36333235424365
0.1068330078125,-0.2270244140625,1.1858447265625005,1.212097806142218,-0.70849609375,-0.62939453125,-2.3046875,43.16529411764706,457.6212663038309
0.0238251953125,-0.1484111328125,1.2024462890625005,1.2118046799524032,-0.6943359375,-0.7802734375,-1.3779296875,42.224117647058826,457.6212663038309
-0.0821318359375,-0.0888408203125,1.1614306640625005,1.167715512123104,-0.6640625,-0.79248046875,-0.21044921875,41.84764705882353,457.6212663038309
-0.1314482421875,-0.0263408203125,1.1502001953125005,1.1579866011685251,-0.55224609375,-0.52001953125,0.53564453125,42.45941176470589,457.6212663038309
-0.1236357421875,0.0537373046875,1.1252978515625005,1.1333440560538135,-0.33203125,-0.298828125,0.74365234375,42.41235294117647,457.6212663038309
-0.1080107421875,0.0698505859375,1.0491259765625005,1.0569819012083066,-0.1875,-0.15869140625,1.00732421875,41.84764705882353,456.8585428753917
-0.0674833984375,0.0932880859375,0.9670947265625,0.9739244766343812,-0.025390625,-0.08056640625,1.478515625,42.31823529411765,456.8585428753917
-0.0108427734375,0.1191669921875,0.8704150390625001,0.8786015467713485,0.17724609375,0.01025390625,1.931640625,43.07117647058824,456.8585428753917
0.0287080078125,0.1206318359375,0.8152392578125001,0.8246158117771515,0.34130859375,0.17333984375,1.98388671875,43.07117647058824,456.8585428753917
0.0414033203125,0.1045185546875,0.7654345703125001,0.773646201203331,0.46142578125,0.19921875,1.77490234375,43.16529411764706,457.19263016319496
0.0223603515625,0.0698505859375,0.7219775390625001,0.7256932248468043,0.55810546875,0.17431640625,1.47021484375,42.506470588235295,457.19263016319496
0.0042939453125,0.0288349609375,0.6760791015625001,0.6767073551456132,0.6025390625,0.06787109375,1.271484375,42.45941176470589,457.19263016319496
-0.0049833984375,0.0019794921875,0.6370166015625001,0.6370391693730804,0.62255859375,0.04296875,0.91455078125,42.41235294117647,457.19263016319496
-0.0201201171875,-0.0297587890625,0.6174853515625001,0.6185293558404237,0.6455078125,0.1083984375,0.5849609375,42.41235294117647,457.19263016319496
-0.0054716796875,-0.0673564453125,0.5793994140625001,0.583327104650304,0.544921875,0.0322265625,0.15234375,42.45941176470589,457.4493096368879
-0.0005888671874999,-0.0883525390625,0.5715869140625001,0.5783754129031135,0.4375,-0.0234375,-0.39892578125,41.84764705882353,457.4493096368879
-0.0191435546875,-0.1039775390625,0.5667041015625001,0.5764818670550943,0.34814453125,-0.10498046875,-0.67626953125,42.08294117647059,457.4493096368879
-0.0030302734374999,-0.0971416015625,0.5745166015625001,0.5826791559530493,0.17724609375,-0.0087890625,-0.81103515625,42.506470588235295,457.4493096368879
0.0399384765625,-0.0751689453125,0.6140673828125001,0.6199388702797402,0.04443359375,0.15576171875,-1.23291015625,42.506470588235295,457.4812391330888
0.0213837890625,-0.0820048828125,0.6091845703125001,0.6150511425455502,-0.0087890625,0.322265625,-1.53662109375,42.41235294117647,457.4812391330888
0.0047822265625,-0.0751689453125,0.6194384765625001,0.624001014643694,-0.02099609375,0.31689453125,-1.60400390625,42.45941176470589,457.4812391330888
-0.0318388671875,-0.0629619140625,0.6492236328125001,0.6530461250849413,-0.0087890625,0.27294921875,-1.58154296875,42.60058823529412,457.4812391330888
-0.0840849609375,-0.0424541015625,0.6794970703125001,0.6859948250231999,-0.12646484375,0.2880859375,-1.677734375,43.07117647058824,457.4812391330888
-0.1055693359375,2.6367187500001e-05,0.7078173828125001,0.7156467933254858,-0.0654296875,0.1962890625,-1.8388671875,42.45941176470589,457.3314034198974
-0.1475615234375,0.0083271484375,0.7473681640625001,0.7618417927985102,0.0302734375,0.0693359375,-1.8779296875,42.41235294117647,457.3314034198974
-0.1778349609375,-0.0185283203125,0.8001025390625001,0.8198369624501595,0.15283203125,0.10546875,-1.60107421875,41.84764705882353,457.3314034198974
-0.1592802734375,-0.0439189453125,0.8440478515625001,0.860067354915276,0.20556640625,0.0361328125,-1.38916015625,42.60058823529412,457.3314034198974
-0.1480498046875,-0.0517314453125,0.8889697265625001,0.9026971041532886,0.2412109375,-0.0888671875,-1.2998046875,42.60058823529412,456.9568270337973
-0.1666044921875,-0.0746806640625,0.9241259765625,0.941988895348276,0.2138671875,-0.17138671875,-1.11474609375,41.84764705882353,456.9568270337973
-0.2007841796875,-0.0805400390625,0.9622119140625,0.9862315915994536,0.26416015625,-0.17822265625,-0.7880859375,41.89470588235295,456.9568270337973
-0.2134794921875,-0.0737041015625,1.0237353515625005,1.048351018605202,0.30224609375,-0.05615234375,-0.68017578125,43.25941176470588,456.9568270337973
-0.1885771484375,-0.0712626953125,1.0862353515625005,1.1047836673485585,0.37158203125,0.0888671875,-0.6923828125,41.84764705882353,456.9568270337973
-0.1314482421875,-0.0712626953125,1.1257861328125005,1.1356722365851473,0.43115234375,0.16259765625,-0.82177734375,42.41235294117647,456.90403319996966
-0.0733427734375,-0.0712626953125,1.1677783203125005,1.172247303068167,0.47021484375,0.07373046875,-1.05517578125,42.41235294117647,456.90403319996966
-0.0772490234375,-0.0824931640625,1.1780322265625005,1.18344094088336,0.46728515625,-0.06005859375,-1.216796875,42.506470588235295,456.90403319996966
-0.1143583984375,-0.0785869140625,1.2097705078125005,1.2177021096836331,0.5048828125,-0.01123046875,-1.2236328125,41.84764705882353,456.90403319996966
-0.1392607421875,-0.0829814453125,1.2371142578125005,1.24769033075669,0.57470703125,0.25537109375,-1.04150390625,42.64764705882353,456.70016435960696
-0.1495146484375,-0.1073955078125,1.2893603515625005,1.3024356188990949,0.552734375,0.740234375,-1.046875,43.21235294117647,456.70016435960696
-0.1724638671875,-0.1488994140625,1.2981494140625005,1.317993445440544,0.400390625,0.95849609375,-1.21240234375,43.16529411764706,456.70016435960696
-0.2667021484375,-0.1479228515625,1.2898486328125005,1.3254134077954076,0.2939453125,1.0546875,-1.11767578125,42.45941176470589,456.70016435960696
-0.3541044921875,-0.1015361328125,1.4089892578125005,1.4563482778116317,0.3056640625,1.5380859375,-0.70068359375,43.16529411764706,456.70016435960696
-0.2789091796875,-0.0829814453125,1.5691455078125005,1.5958990806026097,0.33251953125,1.9541015625,-0.6328125,42.74176470588235,456.4397476165996
-0.1670927734375,-0.0497783203125,1.6326220703125005,1.6419052045047071,0.02001953125,1.57080078125,-1.63623046875,41.84764705882353,456.4397476165996
-0.0982451171875,-0.0033916015624999,1.5935595703125005,1.5965887730241952,-0.33935546875,0.8369140625,-2.30810546875,43.25941176470588,456.4397476165996
-0.0850615234375,0.0786396484375,1.5632861328125005,1.5675723875214644,-0.443359375,0.51220703125,-2.09619140625,42.41235294117647,456.4397476165996
-0.0118193359375,0.1318623046875,1.5354541015625005,1.5411510834777384,-0.369140625,0.61767578125,-1.4951171875,42.506470588235295,456.4410015692792
-0.0049833984375,0.1421162109375,1.4558642578125005,1.4627927361205897,-0.193359375,0.6669921875,-0.87109375,42.45941176470589,456.4410015692792
0.2943330078125,0.1357685546875,1.2825244140625005,1.3228506690463009,0.04150390625,0.92822265625,0.01904296875,42.31823529411765,456.4410015692792
0.3929658203125,0.1645771484375,1.1868212890625005,1.260972856921857,0.0,1.38671875,0.962890625,41.84764705882353,456.4410015692792
0.3661103515625,0.2104755859375,1.1609423828125005,1.2353639050932794,0.36181640625,1.50390625,2.01513671875,41.84764705882353,456.4410015692792
0.3499970703125,0.2217060546875,1.1477587890625005,1.220246598758893,0.59521484375,1.4375,2.8369140625,42.45941176470589,457.7944732785261
0.3485322265625,0.1880146484375,1.0877001953125005,1.157547379532493,0.5732421875,0.794921875,2.71533203125,43.07117647058824,457.7944732785261
0.2523408203125,0.1850849609375,1.0813525390625005,1.1257244983112598,0.4560546875,0.1513671875,1.85595703125,42.64764705882353,457.7944732785261
0.1170869140625,0.2163349609375,1.1418994140625005,1.1680943594610798,0.27587890625,-0.18408203125,1.037109375,42.224117647058826,457.7944732785261
0.0223603515625,0.2217060546875,1.1799853515625005,1.2008409511293212,0.123046875,-0.220703125,0.59716796875,42.41235294117647,458.07328894256807
-0.0503935546875,0.1704365234375,1.1877978515625005,1.2010211717750836,0.05078125,0.0673828125,0.51123046875,43.16529411764706,458.07328894256807
-0.0552763671875,0.0635029296875,1.1536181640625005,1.156686200878733,0.04638671875,0.005859375,1.0478515625,43.16529411764706,458.07328894256807
-0.0391630859375,-0.0180400390625,1.1970751953125005,1.1978514989521805,-0.01806640625,-0.05126953125,1.013671875,42.45941176470589,458.07328894256807
-0.0450224609375,-0.0707744140625,1.1487353515625005,1.1517937956093445,-0.123046875,0.02587890625,1.08642578125,41.89470588235295,458.07328894256807
-0.0416044921875,-0.1142314453125,1.0813525390625005,1.0881650015532014,-0.208984375,0.09033203125,1.18798828125,43.07117647058824,457.6999311559565
-0.0201201171875,-0.1493876953125,0.9900439453125,1.001453202239805,-0.27587890625,-0.189453125,1.21142578125,42.45941176470589,457.6999311559565
0.0252900390625,-0.1337626953125,0.9089892578125,0.9191264959468676,-0.296875,-0.2412109375,0.99365234375,43.25941176470588,457.6999311559565
0.0584931640625,-0.0614970703125,0.8645556640625001,0.8687115955031414,-0.416015625,-0.19189453125,0.01708984375,41.84764705882353,457.6999311559565
-0.0352568359375,-0.0844462890625,0.7937548828125001,0.7990125369513527,-0.44775390625,-0.17822265625,-0.2451171875,42.41235294117647,457.2896651607319
-0.0293974609375,-0.0566142578125,0.7527392578125001,0.7554374726933696,-0.58544921875,0.04296875,-0.24755859375,42.506470588235295,457.2896651607319
-0.0518583984375,-0.0463603515625,0.7043994140625001,0.7078256213341634,-0.654296875,0.3154296875,-0.25634765625,42.41235294117647,457.2896651607319
-0.0660185546875,-0.0468486328125,0.6418994140625001,0.6469838496695322,-0.69384765625,0.59619140625,-0.07080078125,43.21235294117647,457.2896651607319
-0.0748076171875,-0.0380595703125,0.5955126953125001,0.6013984376102105,-0.68359375,0.8349609375,0.10546875,42.45941176470589,457.2896651607319
-0.0777373046875,-0.0253642578125,0.5823291015625001,0.5880421895077297,-0.650390625,1.04248046875,0.38623046875,42.506470588235295,457.85958227610354
-0.0738310546875,-0.0243876953125,0.5486376953125001,0.5541201178776454,-0.60888671875,1.07275390625,0.76708984375,42.506470588235295,457.85958227610354
-0.0699248046875,-0.0175517578125,0.5261767578125001,0.5310927630602473,-0.56201171875,1.001953125,1.279296875,42.45941176470589,457.85958227610354
-0.0616240234375,-0.0077861328124999,0.5208056640625001,0.5244966004164193,-0.50146484375,0.90185546875,1.66650390625,41.84764705882353,457.85958227610354
-0.0440458984375,0.0014912109375,0.5208056640625001,0.5226670112019778,-0.4228515625,0.7880859375,2.0244140625,42.45941176470589,457.9148797450267
-0.0250029296875,0.0146748046875,0.5486376953125001,0.5494031462445278,-0.361328125,0.771484375,2.234375,41.89470588235295,457.9148797450267
0.0121064453125,0.0293232421875,0.5588916015625001,0.5597912475625066,-0.25390625,0.6416015625,2.271484375,43.25941176470588,457.9148797450267
0.0204072265625,0.0434833984375,0.5637744140625001,0.5658169764041752,-0.15576171875,0.39501953125,2.216796875,42.60058823529412,457.9148797450267
-0.0103544921875,0.0361591796875,0.6077197265625001,0.608882556686701,-0.189453125,0.1884765625,2.162109375,42.45941176470589,457.9148797450267
-0.0499052734375,0.0366474609375,0.6638720703125001,0.6667531015683709,-0.20654296875,-0.021484375,2.287109375,42.41235294117647,457.6016443257676
-0.0767607421875,0.0508076171875,0.7419970703125001,0.7476852799525885,-0.12646484375,-0.2666015625,2.4306640625,42.31823529411765,457.6016443257676
-0.0943388671875,0.0722919921875,0.8142626953125001,0.8228910565647409,-0.2236328125,-0.47216796875,2.50927734375,42.45941176470589,457.6016443257676
-0.1016630859375,0.0884052734375,0.8591845703125001,0.8696832764155983,-0.2265625,-0.57275390625,2.3759765625,42.45941176470589,457.6016443257676
-0.1148466796875,0.0903583984375,0.9138720703125,0.9254817993351832,-0.1943359375,-0.5712890625,2.1396484375,41.98882352941177,457.3117842250211
-0.1446318359375,0.0927998046875,0.9646533203125,0.9798398849335646,-0.18359375,-0.51025390625,1.94189453125,42.506470588235295,457.3117842250211
-0.1871123046875,0.1142841796875,0.9988330078125,1.02261393780257,-0.13916015625,-0.45556640625,1.58984375,42.60058823529412,457.3117842250211
-0.2281279296875,0.1465107421875,1.0413134765625005,1.076030439323404,-0.177734375,-0.1513671875,1.23388671875,43.21235294117647,457.3117842250211
-0.2173857421875,0.1728779296875,1.0969775390625005,1.1315931515730666,-0.0888671875,0.20263671875,1.07275390625,42.45941176470589,457.3117842250211
-0.1602568359375,0.1943623046875,1.1248095703125005,1.1526732097236956,0.0224609375,0.35693359375,0.958984375,41.84764705882353,457.0857873399229
-0.1338896484375,0.1845966796875,1.1453173828125005,1.167798903699966,0.076171875,0.1904296875,0.78466796875,42.45941176470589,457.0857873399229
-0.1607451171875,0.1772724609375,1.1575244140625005,1.182001390547911,0.12353515625,0.12255859375,0.62109375,42.506470588235295,457.0857873399229
-0.2217802734375,0.1748310546875,1.1848681640625005,1.2180578613423896,0.20556640625,0.02392578125,0.287109375,42.31823529411765,457.0857873399229
-0.2798857421875,0.1889912109375,1.2239306640625005,1.2696692391815845,0.26025390625,0.11572265625,0.400390625,42.31823529411765,456.8168087166072
-0.3565458984375,0.1909443359375,1.3088916015625005,1.3699569123735476,0.33056640625,0.30029296875,0.81787109375,42.60058823529412,456.8168087166072
-0.3921904296875,0.1777607421875,1.3635791015625005,1.429951111338955,0.44189453125,0.568359375,1.2177734375,42.45941176470589,456.8168087166072
-0.3755888671875,0.1606708984375,1.4768603515625005,1.5323180586213865,0.53369140625,0.93896484375,1.36767578125,41.84764705882353,456.8168087166072
-0.3072294921875,0.1299091796875,1.6106494140625005,1.6448276173680767,0.62255859375,1.07373046875,1.46484375,42.27117647058824,456.8168087166072
-0.1548857421875,0.1045185546875,1.6560595703125005,1.666567436928539,0.8349609375,0.70361328125,1.64013671875,42.60058823529412,456.248201107773
-0.0303740234375,0.0581318359375,1.5916064453125005,1.592957302757842,0.90087890625,0.44775390625,1.5029296875,42.45941176470589,456.248201107773
0.0287080078125,0.0312763671875,1.5652392578125005,1.5658148980816464,0.85595703125,0.39990234375,0.962890625,42.506470588235295,456.248201107773
0.1615205078125,-0.0068095703124999,1.5188525390625005,1.5274319232320803,0.64453125,0.3251953125,0.27197265625,42.60058823529412,456.248201107773
0.2835908203125,-0.0517314453125,1.3943408203125005,1.4238280159448236,0.51416015625,0.3310546875,-0.1748046875,43.21235294117647,456.36609277291086
0.3607392578125,-0.0512431640625,1.2620166015625005,1.3135617901757084,0.1376953125,0.66943359375,-0.77685546875,42.45941176470589,456.36609277291086
0.3861298828125,-0.0815166015625,1.1863330078125005,1.2502508740874962,-0.08203125,0.89599609375,-1.7607421875,43.21235294117647,456.36609277291086
0.3397431640625,-0.1440166015625,1.1233447265625005,1.1823999212400975,-0.2001953125,0.84228515625,-2.60791015625,42.31823529411765,456.36609277291086
0.2718720703125,-0.2040751953125,1.0618212890625005,1.1149105604774716,-0.20654296875,0.6962890625,-2.71044921875,42.31823529411765,456.36609277291086
0.2098603515625,-0.2323955078125,1.0227587890625005,1.0696188946601295,-0.06396484375,0.39501953125,-2.48486328125,41.84764705882353,457.5599045375553
0.1556611328125,-0.2875712890625,1.0339892578125005,1.0844636553767877,-0.17724609375,0.119140625,-2.20361328125,41.89470588235295,457.5599045375553
0.1278291015625,-0.3237041015625,1.1121142578125005,1.1652994237553325,-0.4755859375,-0.58935546875,-2.0947265625,42.74176470588235,457.5599045375553
0.1253876953125,-0.3212626953125,1.1248095703125005,1.1764898482357695,-0.69189453125,-1.07177734375,-1.8798828125,42.506470588235295,457.5599045375553
0.0721650390625,-0.2480205078125,1.1047900390625005,1.134584944184517,-0.90283203125,-1.28369140625,-1.35693359375,42.45941176470589,458.1826367211745
0.0208955078125,-0.1303447265625,1.1028369140625005,1.110709516033915,-1.01025390625,-1.365234375,-0.6298828125,42.27117647058824,458.1826367211745
-0.0196318359375,-0.0219462890625,1.1262744140625005,1.126659267195597,-0.8193359375,-1.09375,0.00830078125,42.64764705882353,458.1826367211745
0.0038056640625,0.0669208984375,1.1150439453125005,1.1170567978866182,-0.76611328125,-0.54052734375,0.1025390625,43.02411764705882,458.1826367211745
-0.0601591796875,0.1206318359375,1.0969775390625005,1.1052288848695295,-0.54150390625,-0.08544921875,-0.03515625,41.84764705882353,458.1826367211745
-0.1211943359375,0.1177021484375,1.0198291015625005,1.033727845810449,-0.2421875,0.17236328125,0.6083984375,42.224117647058826,456.945767463581
-0.1187529296875,0.1289326171875,0.9387744140625,0.9549990987339062,0.0400390625,0.32421875,1.70166015625,43.07117647058824,456.945767463581
-0.0445341796875,0.1518818359375,0.8811572265625001,0.8952594278596017,0.275390625,0.541015625,2.564453125,42.41235294117647,456.945767463581
0.0291962890625,0.1343037109375,0.8044970703125001,0.8161528326287916,0.49560546875,0.52197265625,2.67041015625,41.84764705882353,456.945767463581
0.0501923828125,0.0879169921875,0.7463916015625001,0.7532257932988802,0.63720703125,0.4111328125,2.3544921875,42.60058823529412,456.88316644818497
0.0394501953125,0.0649677734375,0.6960986328125001,0.7002359860068978,0.67626953125,0.32373046875,1.71044921875,41.89470588235295,456.88316644818497
-0.0069365234375,0.0386005859375,0.6360400390625001,0.6372480301128783,0.67724609375,0.275390625,1.244140625,43.07117647058824,456.88316644818497
-0.0459990234375,-0.0112041015624999,0.5960009765625001,0.5978784208453088,0.681640625,0.20947265625,0.9697265625,42.60058823529412,456.88316644818497
-0.0435576171875,-0.0429423828125,0.5549853515625001,0.558345819994759,0.5400390625,0.11572265625,0.3759765625,41.89470588235295,456.88316644818497
-0.0762724609375,-0.0531962890625,0.5466845703125001,0.5545370617778819,0.46533203125,0.15478515625,-0.306640625,41.84764705882353,457.5500946236884
-0.0684599609375,-0.0732158203125,0.5222705078125001,0.5318024124863698,0.3818359375,0.15283203125,-0.60107421875,42.506470588235295,457.5500946236884
-0.0225615234375,-0.1015361328125,0.5378955078125001,0.5478596407212396,0.2470703125,-0.02685546875,-0.81884765625,42.45941176470589,457.5500946236884
-0.0230498046875,-0.1288798828125,0.5754931640625001,0.5901980172557031,0.22509765625,-0.08935546875,-0.60205078125,43.07117647058824,457.5500946236884
0.0023408203125,-0.1274150390625,0.5862353515625001,0.5999266280476654,0.154296875,-0.2578125,-0.31591796875,42.31823529411765,457.8178402510538
-0.0044951171875,-0.1132548828125,0.5877001953125001,0.5985301948354429,0.072265625,-0.60205078125,-0.28125,42.506470588235295,457.8178402510538
-0.0386748046875,-0.0649150390625,0.6794970703125001,0.6836855793253013,0.0390625,-0.08154296875,-0.44482421875,42.41235294117647,457.8178402510538
-0.0572294921875,-0.0463603515625,0.6746142578125001,0.6786227919963697,0.03125,-0.07763671875,-0.625,42.41235294117647,457.8178402510538
-0.0621123046875,-0.0151103515624999,0.7043994140625001,0.7072939952025102,0.05810546875,0.0771484375,-0.85791015625,43.21235294117647,457.8178402510538
-0.0914091796875,-0.0170634765625,0.7571337890625001,0.762822636596266,0.130859375,0.298828125,-1.09130859375,42.45941176470589,457.35477221396894
-0.1260771484375,-0.0312236328125,0.8162158203125001,0.8264857094545245,0.23291015625,0.45263671875,-1.12451171875,43.25941176470588,457.35477221396894
-0.1187529296875,-0.0502666015625,0.8523486328125001,0.8620482477212894,0.25732421875,0.5546875,-1.14453125,42.31823529411765,457.35477221396894
-0.1529326171875,-0.0668681640625,0.8884814453125001,0.9040237914067842,0.2744140625,0.57080078125,-0.990234375,43.07117647058824,457.35477221396894
-0.1778349609375,-0.0697978515625,0.9460986328125,0.965194092617679,0.32470703125,0.572265625,-0.66650390625,43.16529411764706,456.9580790580056
-0.1685576171875,-0.0644267578125,1.0208056640625005,1.0366323751534297,0.369140625,0.71142578125,-0.572265625,42.45941176470589,456.9580790580056
-0.1509794921875,-0.0590556640625,1.1023486328125005,1.11420594451055,0.4345703125,0.76025390625,-0.67626953125,42.506470588235295,456.9580790580056
-0.1500029296875,-0.0444072265625,1.1882861328125005,1.1985394503812936,0.4794921875,0.740234375,-0.853515625,42.27117647058824,456.9580790580056
-0.1744169921875,-0.0375712890625,1.2522509765625005,1.2648973860465078,0.5087890625,0.77783203125,-1.1484375,42.224117647058826,456.9580790580056
-0.2330107421875,-0.0658916015625,1.2668994140625005,1.2898332584032508,0.45166015625,0.80419921875,-1.25732421875,41.89470588235295,456.7873884830652
-0.2808623046875,-0.0903056640625,1.2908251953125005,1.324110430443661,0.46630859375,0.75439453125,-1.0869140625,42.27117647058824,456.7873884830652
-0.2857451171875,-0.0942119140625,1.3279345703125005,1.3615933239329805,0.52001953125,0.7998046875,-0.91064453125,42.41235294117647,456.7873884830652
-0.2457060546875,-0.1161845703125,1.3484423828125005,1.375560678215923,0.5048828125,0.87548828125,-0.85986328125,42.31823529411765,456.7873884830652
-0.2144560546875,-0.1352275390625,1.3796923828125005,1.4027932698383832,0.44677734375,0.90966796875,-0.947265625,41.84764705882353,455.6894301675862
-0.2164091796875,-0.1518291015625,1.4197314453125005,1.4441337839491928,0.36572265625,0.96142578125,-0.89697265625,43.16529411764706,455.6894301675862
-0.2276396484375,-0.1503642578125,1.5002978515625005,1.5249009354614833,0.20361328125,1.109375,-0.99658203125,43.21235294117647,455.6894301675862
-0.1812529296875,-0.1127666015625,1.5960009765625005,1.6102136653676469,0.130859375,0.99609375,-1.5146484375,43.16529411764706,455.6894301675862
-0.0557646484375,-0.0649150390625,1.6423876953125005,1.6446157606035976,-0.1875,0.77734375,-2.1875,42.224117647058826,455.6894301675862
0.0272431640625,-0.0234111328125,1.5916064453125005,1.5920117298211072,-0.52978515625,0.44140625,-2.53125,42.41235294117647,456.033285706138
0.0321259765625,0.0244404296875,1.5046923828125005,1.5052337293149405,-0.6298828125,0.23046875,-2.08056640625,42.506470588235295,456.033285706138
0.0985322265625,0.1269794921875,1.4895556640625005,1.4982017445752207,-0.48974609375,0.6787109375,-1.435546875,41.84764705882353,456.033285706138
0.1253876953125,0.1264912109375,1.4880908203125005,1.498711576681299,-0.3623046875,0.9873046875,-1.33251953125,43.16529411764706,456.033285706138
0.4735322265625,0.1460224609375,1.2815478515625005,1.3740160932594432,-0.34228515625,0.77880859375,-1.1015625,42.31823529411765,456.90403319996966
0.5248017578125,0.2007099609375,1.1502001953125005,1.280102286037931,-0.26025390625,0.6171875,-0.31591796875,42.31823529411765,456.90403319996966
0.3924775390625,0.2763935546875,1.1096728515625005,1.2090516338172654,-0.03125,0.46875,0.787109375,42.506470588235295,456.90403319996966
0.2640595703125,0.3315693359375,1.0168994140625005,1.1017032719967357,0.2177734375,-0.16064453125,1.95751953125,42.64764705882353,456.90403319996966
0.1498017578125,0.3159443359375,0.9895556640625,1.0495150319708997,0.4560546875,-0.67041015625,2.88037109375,43.21235294117647,456.90403319996966
0.0409150390625,0.3252216796875,1.0872119140625005,1.135549614697522,0.65478515625,-0.72900390625,2.96337890625,42.506470588235295,457.7650396536014
-0.0313505859375,0.2597919921875,1.1531298828125005,1.1824479967755646,0.7451171875,-0.525390625,2.564453125,43.21235294117647,457.7650396536014
-0.0787138671875,0.1704365234375,1.1599658203125005,1.1750596519761558,0.63671875,-0.2197265625,2.185546875,43.16529411764706,457.7650396536014
-0.0928740234375,0.0927998046875,1.1370166015625005,1.144571596803033,0.72216796875,0.0458984375,1.84326171875,42.506470588235295,457.7650396536014
-0.1109404296875,0.0034443359375,1.0735400390625005,1.0792626454480911,0.74853515625,0.2275390625,1.7744140625,43.07117647058824,457.6569419635747
-0.0503935546875,-0.0409892578125,1.0325244140625005,1.0345657520163574,0.69482421875,0.20458984375,1.45703125,41.84764705882353,457.6569419635747
0.0208955078125,-0.0863994140625,1.0432666015625005,1.0470466479258955,0.908203125,0.64453125,0.42578125,42.506470588235295,457.6569419635747
0.0995087890625,-0.2397197265625,0.8435595703125001,0.8825872733445087,0.388671875,0.1474609375,0.02294921875,42.60058823529412,457.6569419635747
0.0755830078125,-0.2094462890625,0.7400439453125001,0.7728166535897938,-0.11328125,-0.970703125,0.12890625,42.31823529411765,457.6569419635747
0.0560517578125,-0.0365947265625,0.7644580078125001,0.7673832284293889,-0.21533203125,-1.06201171875,-0.56689453125,41.84764705882353,457.3117842250211
-0.0596708984375,-0.0058330078124999,0.7332080078125001,0.7356552336664604,-0.298828125,-1.0087890625,-1.142578125,43.16529411764706,457.3117842250211
-0.0943388671875,0.0093037109375,0.6990283203125001,0.7054268023674353,-0.35400390625,-0.5595703125,-0.953125,42.506470588235295,457.3117842250211
-0.0855498046875,0.0176044921875,0.6697314453125001,0.6754027658128292,-0.40234375,-0.21728515625,-0.59619140625,41.89470588235295,457.3117842250211
-0.0479521484375,0.0376240234375,0.6145556640625001,0.6175707570074039,-0.4111328125,0.064453125,-0.38525390625,42.97705882352941,457.2270596722362
-0.0142607421875,0.0639912109375,0.5740283203125001,0.5777601200894503,-0.38037109375,0.310546875,-0.3720703125,43.21235294117647,457.2270596722362
-0.0088896484375,0.0722919921875,0.5618212890625001,0.5665230082067534,-0.3623046875,0.447265625,-0.23876953125,42.506470588235295,457.2270596722362
-0.0093779296875,0.0649677734375,0.5374072265625001,0.541401223042808,-0.2890625,0.46337890625,0.21875,43.07117647058824,457.2270596722362
0.0008759765625,0.0625263671875,0.5281298828125001,0.5318190359964085,-0.21435546875,0.36279296875,0.67236328125,42.45941176470589,457.2270596722362
0.0091767578125,0.0571552734375,0.5188525390625001,0.5220717340148457,-0.14501953125,0.1796875,1.0478515625,43.07117647058824,457.5365363115021
0.0233369140625,0.0522724609375,0.5266650390625001,0.5297670102046065,-0.138671875,-0.025390625,1.2841796875,41.84764705882353,457.5365363115021
0.0194306640625,0.0527607421875,0.5549853515625001,0.557826126199766,-0.04541015625,-0.0615234375,1.37109375,41.84764705882353,457.5365363115021
0.0052705078125,0.0454365234375,0.5764697265625001,0.5782815936528948,0.01708984375,-0.13232421875,1.35498046875,42.506470588235295,457.5365363115021
-0.0279326171875,0.0425068359375,0.5950244140625001,0.5971943699791404,0.06884765625,-0.23681640625,1.357421875,42.41235294117647,457.8288997839584
-0.0435576171875,0.0273701171875,0.6379931640625001,0.6400637989453789,0.02685546875,-0.4033203125,1.458984375,42.31823529411765,457.8288997839584
-0.0718779296875,0.0268818359375,0.6965869140625001,0.700801254795287,0.00537109375,-0.5419921875,1.57177734375,42.41235294117647,457.8288997839584
-0.0992216796875,0.0268818359375,0.7566455078125001,0.7635967517716505,-0.0263671875,-0.693359375,1.85791015625,42.41235294117647,457.8288997839584
-0.1158232421875,0.0605732421875,0.8157275390625001,0.8261328943244497,-0.1484375,-0.8232421875,2.0078125,41.89470588235295,457.8288997839584
-0.1412138671875,0.0918232421875,0.8958056640625001,0.9115046087970864,-0.1552734375,-0.9013671875,2.03515625,42.45941176470589,457.50585630658384
-0.1617216796875,0.0952412109375,0.9475634765625,0.9659717035488148,-0.18212890625,-0.93359375,2.09130859375,42.506470588235295,457.50585630658384
-0.1631865234375,0.1094013671875,1.0027392578125005,1.0218045408650696,-0.2548828125,-0.88525390625,1.98095703125,41.89470588235295,457.50585630658384
-0.1377958984375,0.1303974609375,1.0525439453125005,1.0695045414859856,-0.30615234375,-0.7294921875,1.72607421875,42.31823529411765,457.50585630658384
-0.0992216796875,0.1489521484375,1.1126025390625005,1.1269055391524518,-0.353515625,-0.6171875,1.47509765625,42.97705882352941,457.06617130744064
-0.0879912109375,0.1596943359375,1.1711962890625005,1.1853039617104713,-0.3662109375,-0.51611328125,1.390625,42.74176470588235,457.06617130744064
-0.0835966796875,0.1714130859375,1.1956103515625005,1.210724974405334,-0.38525390625,-0.44677734375,1.27197265625,43.16529411764706,457.06617130744064
-0.1070341796875,0.1738544921875,1.2068408203125005,1.2239879352541423,-0.37744140625,-0.40478515625,1.0205078125,43.07117647058824,457.06617130744064
-0.1392607421875,0.1924091796875,1.2239306640625005,1.2467642588617558,-0.32568359375,-0.18505859375,0.73779296875,42.41235294117647,457.06617130744064
-0.1885771484375,0.1938740234375,1.2688525390625005,1.297357022473774,-0.3359375,0.2099609375,0.6064453125,42.41235294117647,456.7959420172409
-0.2217802734375,0.2187763671875,1.3303759765625005,1.3663637244673903,-0.30126953125,0.587890625,0.6064453125,41.84764705882353,456.7959420172409
-0.2305693359375,0.2217060546875,1.4080126953125005,1.4438890343516455,-0.23828125,0.80322265625,0.783203125,43.25941176470588,456.7959420172409
-0.2061552734375,0.2143818359375,1.4934619140625005,1.5227895642869538,-0.1015625,0.99560546875,0.85888671875,42.41235294117647,456.7959420172409
-0.1451201171875,0.2177998046875,1.6252978515625005,1.6462350104490264,0.04248046875,0.95458984375,0.72802734375,42.88294117647059,456.143883691595
-0.0777373046875,0.1982685546875,1.6975634765625005,1.710869739424048,0.26220703125,0.50341796875,0.67626953125,43.16529411764706,456.143883691595
-0.0518583984375,0.1914326171875,1.7429736328125005,1.7542214298917236,0.58349609375,0.1904296875,0.84423828125,43.25941176470588,456.143883691595
-0.0093779296875,0.1855732421875,1.6853564453125005,1.695568259179674,0.9072265625,-0.01806640625,0.96044921875,41.84764705882353,456.143883691595
0.0941376953125,0.1421162109375,1.6018603515625005,1.6109051831184598,0.96728515625,-0.0302734375,0.66650390625,42.60058823529412,456.143883691595
0.2665009765625,0.0224873046875,1.4211962890625005,1.4461422272466482,0.76318359375,-0.212890625,0.00146484375,42.41235294117647,456.1524305571298
0.4857392578125,-0.0697978515625,1.2634814453125005,1.3554334101356451,0.25244140625,-0.10498046875,-1.1728515625,42.41235294117647,456.1524305571298
0.6332001953125,-0.0947001953125,1.2229541015625005,1.380408399302379,-0.005859375,0.19677734375,-2.91943359375,42.41235294117647,456.1524305571298
0.5863251953125,-0.1625712890625,1.2009814453125005,1.3463146328665474,-0.3916015625,-0.03466796875,-4.45947265625,42.60058823529412,456.1524305571298
0.4373994140625,-0.2084697265625,1.0837939453125005,1.1871761411902182,-0.560546875,-0.4501953125,-5.25244140625,43.25941176470588,456.5920748550488
0.2586884765625,-0.2084697265625,1.0125048828125005,1.0656197692040186,-0.69580078125,-0.5380859375,-5.30419921875,42.31823529411765,456.5920748550488
0.1239228515625,-0.1972392578125,0.9851611328125,1.012325370405294,-0.888671875,-0.48486328125,-4.6259765625,43.16529411764706,456.5920748550488
0.0248017578125,-0.1938212890625,1.0012744140625005,1.0201628652037096,-0.92236328125,-0.455078125,-3.46435546875,42.27117647058824,456.5920748550488
0.0228486328125,-0.2133525390625,1.0457080078125005,1.067495481746412,-0.708984375,-0.3955078125,-2.326171875,42.506470588235295,456.5920748550488
0.0711884765625,-0.2123759765625,1.0378955078125005,1.0617902051504962,-0.599609375,-0.3251953125,-1.56494140625,42.08294117647059,457.8829492181227
0.1131806640625,-0.1430400390625,1.0300830078125005,1.046107699272249,-0.58349609375,-0.375,-1.203125,42.41235294117647,457.8829492181227
0.0628876953125,-0.0990947265625,1.0266650390625005,1.033351696900634,-0.41943359375,-0.05126953125,-0.8193359375,43.25941176470588,457.8829492181227
0.0384736328125,-0.1557353515625,1.0032275390625005,1.0159720543801818,-0.3876953125,0.31103515625,-0.56640625,43.07117647058824,457.8829492181227
-0.0064482421875,0.0132099609375,0.9802783203125,0.9803885291913484,-0.26806640625,0.5185546875,-0.37548828125,42.74176470588235,457.14233705356486
-0.0508818359375,0.0224873046875,0.9480517578125,0.9496824604002384,-0.07080078125,0.77099609375,-0.02099609375,43.25941176470588,457.14233705356486
-0.0772490234375,0.0527607421875,0.8909228515625001,0.8958206488882023,0.08740234375,0.88330078125,0.76708984375,42.41235294117647,457.14233705356486
-0.0650419921875,0.0757099609375,0.8435595703125001,0.8494440579571361,0.20849609375,0.9990234375,1.3583984375,43.07117647058824,457.14233705356486
-0.0093779296875,0.0859638671875,0.7830126953125001,0.78777319899042,0.27392578125,0.94970703125,1.4482421875,43.25941176470588,457.14233705356486
0.0365205078125,0.0888935546875,0.7546923828125001,0.7607867008768433,0.3857421875,0.98681640625,1.19970703125,42.506470588235295,457.33640504235154
0.0599580078125,0.0610615234375,0.7214892578125001,0.7265467785932191,0.44921875,0.85791015625,1.0673828125,41.84764705882353,457.33640504235154
0.0726533203125,0.0298115234375,0.6946337890625001,0.6990588907877656,0.54052734375,0.84130859375,1.0107421875,42.45941176470589,457.33640504235154
0.0809541015625,-0.0029033203124999,0.6511767578125001,0.6561959812006074,0.521484375,0.818359375,0.5625,41.98882352941177,457.33640504235154
0.0809541015625,-0.0365947265625,0.6233447265625001,0.6296438586258534,0.5146484375,0.7431640625,0.14404296875,43.07117647058824,457.4862371023366
0.0501923828125,-0.0575908203125,0.6082080078125001,0.6129869155568604,0.40576171875,0.79150390625,-0.3955078125,41.84764705882353,457.4862371023366
0.0501923828125,-0.0458720703125,0.6047900390625001,0.6086004547125905,0.18212890625,0.75,-1.07666015625,42.27117647058824,457.4862371023366
0.0135712890625,-0.0824931640625,0.5818408203125001,0.5878163337180956,0.13134765625,0.708984375,-1.40380859375,41.98882352941177,457.4862371023366
0.0091767578125,-0.0849345703125,0.6052783203125001,0.6112773013603889,0.037109375,0.67041015625,-1.509765625,43.07117647058824,457.4862371023366
-0.0044951171875,-0.0878642578125,0.6506884765625001,0.6566093415499797,-0.02099609375,0.70263671875,-1.68310546875,42.506470588235295,457.5722138658194
-0.0059599609375,-0.0800517578125,0.6668017578125001,0.6716162515045981,-0.07861328125,0.56396484375,-1.9033203125,42.45941176470589,457.5722138658194
-0.0416044921875,-0.0761455078125,0.6873095703125001,0.6927651243916344,-0.134765625,0.462890625,-1.95361328125,42.45941176470589,457.5722138658194
-0.0943388671875,-0.0820048828125,0.6902392578125001,0.7014662184972728,-0.1064453125,0.25634765625,-1.69921875,42.31823529411765,457.5722138658194
-0.0987333984375,-0.0639384765625,0.7234423828125001,0.732942899550558,-0.06005859375,0.23388671875,-1.34326171875,41.84764705882353,457.1742642680263
-0.1006865234375,-0.0458720703125,0.7400439453125001,0.7482693791879872,0.03955078125,0.2490234375,-1.24072265625,42.506470588235295,457.1742642680263
-0.1065458984375,-0.0468486328125,0.7795947265625001,0.7882352190522279,0.17431640625,0.2568359375,-1.24609375,42.60058823529412,457.1742642680263
-0.0982451171875,-0.0693095703125,0.8333056640625001,0.841934824880604,0.14892578125,0.37158203125,-1.30810546875,42.31823529411765,457.1742642680263
-0.0933623046875,-0.0712626953125,0.8728564453125001,0.8807231493513369,0.14404296875,0.3759765625,-1.40234375,41.84764705882353,457.1742642680263
-0.1094755859375,-0.0761455078125,0.9104541015625,0.9201683070658117,0.1435546875,0.3134765625,-1.3486328125,42.45941176470589,456.8095079557269
-0.1197294921875,-0.0639384765625,0.9421923828125,0.9519189914664518,0.15625,0.29833984375,-1.25146484375,41.89470588235295,456.8095079557269
-0.1397490234375,-0.0590556640625,0.9876025390625,0.9991877382015328,0.1904296875,0.32958984375,-1.1796875,43.25941176470588,456.8095079557269
-0.1573271484375,-0.0673564453125,1.0349658203125005,1.049020005326751,0.22900390625,0.369140625,-1.13916015625,42.41235294117647,456.8095079557269
-0.1558623046875,-0.0707744140625,1.0911181640625005,1.104464088893573,0.2958984375,0.3876953125,-1.19970703125,42.506470588235295,456.5196742488727
-0.1539091796875,-0.0693095703125,1.1492236328125005,1.1615536192288942,0.3759765625,0.3759765625,-1.27001953125,41.84764705882353,456.5196742488727
-0.1626982421875,-0.0639384765625,1.1887744140625005,1.2015587602467377,0.46435546875,0.5556640625,-1.32080078125,42.64764705882353,456.5196742488727
-0.1763701171875,-0.0605205078125,1.2043994140625005,1.21874816869471,0.3759765625,0.53564453125,-1.28173828125,43.21235294117647,456.5196742488727
-0.2046904296875,-0.0663798828125,1.2161181640625005,1.2350092509008186,0.55322265625,0.55029296875,-1.12841796875,42.60058823529412,456.5196742488727
-0.2125029296875,-0.0868876953125,1.2512744140625005,1.2721613993554206,0.6240234375,0.685546875,-0.9794921875,43.21235294117647,456.5515987131545
-0.2037138671875,-0.0966533203125,1.3069384765625005,1.326246351750468,0.6318359375,0.734375,-1.0009765625,41.89470588235295,456.5515987131545
-0.1758818359375,-0.1230205078125,1.3728564453125005,1.389533477463305,0.56787109375,0.68603515625,-1.47900390625,43.21235294117647,456.5515987131545
-0.1241240234375,-0.1381572265625,1.4949267578125005,1.5064196638618166,0.38671875,0.7373046875,-2.01904296875,42.97705882352941,456.5515987131545
-0.0040068359375,-0.1581767578125,1.6555712890625005,1.6631152198853731,0.1494140625,0.62109375,-2.9560546875,42.64764705882353,456.4349619269758
0.1332001953125,-0.1650126953125,1.7087939453125005,1.7219025028096813,-0.34814453125,-0.19775390625,-4.02978515625,42.31823529411765,456.4349619269758
0.1175751953125,-0.0839580078125,1.6204150390625005,1.62684288499183,-0.701171875,-0.43505859375,-4.072265625,42.45941176470589,456.4349619269758
0.0648408203125,0.0469013671875,1.5803759765625005,1.582400801794138,-0.70556640625,0.06640625,-3.12744140625,42.45941176470589,456.4349619269758
0.1576142578125,0.0962177734375,1.5920947265625005,1.6027681468444457,-0.66845703125,0.73583984375,-2.267578125,43.16529411764706,456.4349619269758
0.2708955078125,0.1582294921875,1.4695361328125005,1.5026501236124212,-0.66455078125,0.966796875,-1.10009765625,41.84764705882353,457.4002610393791
0.3866181640625,0.2026630859375,1.3108447265625005,1.3816149349009963,-0.4169921875,1.2158203125,0.77392578125,42.41235294117647,457.4002610393791
0.4046845703125,0.2998310546875,1.2732470703125005,1.3692429897075962,-0.115234375,0.9140625,3.0859375,42.97705882352941,457.4002610393791
0.3426728515625,0.2925068359375,1.2004931640625005,1.2822514453994334,0.4638671875,0.36083984375,4.7080078125,42.45941176470589,457.4002610393791
0.2459931640625,0.1831318359375,1.1477587890625005,1.1880236293818134,0.6962890625,0.1328125,5.0234375,43.07117647058824,458.2072495573776
0.1375947265625,0.0898701171875,1.1072314453125005,1.1193616128087975,0.63330078125,-0.02099609375,4.10498046875,42.41235294117647,458.2072495573776
0.0462861328125,0.1123310546875,1.1057666015625005,1.1124209855396578,0.58740234375,-0.1953125,2.33056640625,41.84764705882353,458.2072495573776
-0.0240263671875,0.1406513671875,1.0813525390625005,1.0907260825472442,0.412109375,-0.14404296875,0.9033203125,42.45941176470589,458.2072495573776
-0.0738310546875,0.1748310546875,1.0657275390625005,1.082493468726544,0.37744140625,0.17919921875,0.5615234375,43.21235294117647,458.2072495573776
-0.0596708984375,0.1753193359375,1.0007861328125005,1.0177771707518812,0.37158203125,0.587890625,0.7373046875,43.16529411764706,458.0561581675783
0.0199189453125,0.1645771484375,1.0061572265625005,1.0197228872267816,0.1923828125,0.84033203125,0.48828125,43.07117647058824,458.0561581675783
0.0433564453125,0.0825458984375,0.9895556640625,0.9939386394426798,0.30224609375,0.84130859375,0.34619140625,41.84764705882353,458.0561581675783
0.1161103515625,0.0107685546875,0.9221728515625,0.9295161879542162,0.23486328125,0.42431640625,0.29736328125,43.21235294117647,458.0561581675783
0.0707001953125,-0.0590556640625,0.9387744140625,0.9432833559294252,0.36376953125,0.42529296875,-0.26708984375,43.16529411764706,458.4222067071437
0.0282197265625,-0.0780986328125,0.8547900390625001,0.8588141593470117,0.08935546875,0.150390625,-0.3818359375,41.89470588235295,458.4222067071437
0.0487275390625,-0.0121806640624999,0.8533251953125001,0.8548021002519866,-0.2373046875,0.27001953125,-0.83544921875,41.84764705882353,458.4222067071437
0.0301728515625,0.0219990234375,0.7835009765625001,0.7843902971595248,-0.14306640625,0.060546875,-1.1962890625,42.27117647058824,458.4222067071437
-0.0025419921874999,0.0195576171875,0.7454150390625001,0.745675896469024,-0.08544921875,0.22412109375,-1.35302734375,41.84764705882353,458.4222067071437
-0.0079130859375,-0.0053447265624999,0.7253955078125001,0.7254583556522297,-0.2041015625,0.39697265625,-1.52099609375,42.64764705882353,458.4553854792917
-0.0103544921875,0.0044208984375,0.6873095703125001,0.6874017786524916,-0.22265625,0.44921875,-1.4814453125,42.60058823529412,458.4553854792917
-0.0210966796875,0.0097919921875,0.6340869140625001,0.6345133312942616,-0.2099609375,0.48583984375,-1.38525390625,42.506470588235295,458.4553854792917
-0.0318388671875,-0.0136455078124999,0.5891650390625001,0.590182477375228,-0.2216796875,0.61474609375,-0.9716796875,42.41235294117647,458.4553854792917
-0.0289091796875,-0.0204814453125,0.5637744140625001,0.5648865551806029,-0.2275390625,0.5869140625,-0.5166015625,42.45941176470589,458.5954214221642
-0.0318388671875,-0.0224345703125,0.5369189453125001,0.538329803414577,-0.22607421875,0.564453125,-0.15478515625,42.506470588235295,458.5954214221642
-0.0372099609375,-0.0146220703124999,0.5252001953125001,0.5267196894833932,-0.234375,0.5673828125,0.13134765625,43.02411764705882,458.5954214221642
-0.0499052734375,-0.0165751953125,0.5300830078125001,0.5326849618565049,-0.208984375,0.6103515625,0.25244140625,42.506470588235295,458.5954214221642
-0.0582060546875,-0.0165751953125,0.5364306640625001,0.5398338070633096,-0.228515625,0.71044921875,0.57421875,42.41235294117647,458.5954214221642
-0.0635771484375,-0.0209697265625,0.5613330078125001,0.5653110019231699,-0.2451171875,0.7177734375,0.74609375,43.25941176470588,458.4013341056225
-0.0621123046875,-0.0180400390625,0.5925830078125001,0.5961023423465797,-0.25634765625,0.69140625,0.90625,42.41235294117647,458.4013341056225
-0.0626005859375,-0.0116923828124999,0.6101611328125001,0.6134754707162998,-0.31103515625,0.5693359375,1.04052734375,42.41235294117647,458.4013341056225
-0.0679716796875,-0.0121806640624999,0.6379931640625001,0.641719405353324,-0.310546875,0.38427734375,1.16259765625,41.84764705882353,458.4013341056225
-0.0792021484375,-0.0068095703124999,0.6809619140625001,0.685586230148054,-0.31640625,0.162109375,1.3134765625,43.21235294117647,458.2072495573776
-0.0821318359375,0.0019794921875,0.7131884765625001,0.7179048404665652,-0.29345703125,-0.06640625,1.521484375,43.07117647058824,458.2072495573776
-0.0972685546875,0.0141865234375,0.7585986328125001,0.7649407263855365,-0.26220703125,-0.1806640625,1.7548828125,42.45941176470589,458.2072495573776
-0.1075224609375,0.0254169921875,0.7966845703125001,0.8043092736453612,-0.25146484375,-0.24560546875,1.92724609375,42.41235294117647,458.2072495573776
-0.1109404296875,0.0312763671875,0.8250048828125001,0.8330180350677657,-0.2158203125,-0.28466796875,2.0546875,43.07117647058824,458.2072495573776
-0.1216826171875,0.0454365234375,0.8552783203125001,0.8650850491045707,-0.2451171875,-0.1748046875,2.06494140625,41.84764705882353,457.7245493230052
-0.1451201171875,0.0547138671875,0.9085009765625,0.9216439009130052,-0.24560546875,0.017578125,1.97607421875,42.03588235294118,457.7245493230052
-0.1617216796875,0.0761982421875,0.9685595703125,0.9849201566814164,-0.228515625,0.24609375,1.84912109375,42.74176470588235,457.7245493230052
-0.1661162109375,0.1084248046875,1.0227587890625005,1.0418186379655272,-0.1796875,0.46728515625,1.77783203125,42.60058823529412,457.7245493230052
-0.1729521484375,0.1240498046875,1.0686572265625005,1.08964630388783,-0.14892578125,0.521484375,1.75439453125,41.84764705882353,457.7884080557796
-0.1700224609375,0.1469990234375,1.0901416015625005,1.1130701063149957,-0.11279296875,0.4208984375,1.65234375,41.84764705882353,457.7884080557796
-0.1817412109375,0.1792255859375,1.0911181640625005,1.120575979733097,-0.04345703125,0.35205078125,1.5205078125,42.45941176470589,457.7884080557796
-0.2129912109375,0.2163349609375,1.1038134765625005,1.144801407363498,-0.0009765625,0.5703125,1.3994140625,41.84764705882353,457.7884080557796
-0.2710966796875,0.2358662109375,1.1604541015625005,1.2148168590502972,0.1220703125,0.978515625,1.34716796875,42.506470588235295,457.7884080557796
-0.3335966796875,0.2217060546875,1.2063525390625005,1.2711124135520675,0.1953125,1.265625,1.375,41.84764705882353,457.7785979926068
-0.3751005859375,0.1811787109375,1.2820361328125005,1.3480143992941844,0.3232421875,1.59228515625,1.65087890625,42.27117647058824,457.7785979926068
-0.3711943359375,0.1435810546875,1.3943408203125005,1.450030026408761,0.51806640625,1.966796875,1.63037109375,42.88294117647059,457.7785979926068
-0.2750029296875,0.0947529296875,1.5208056640625005,1.548371595214035,0.673828125,1.89501953125,1.44384765625,42.31823529411765,457.7785979926068
-0.0992216796875,0.0112568359375,1.5764697265625005,1.579629214987928,0.83935546875,1.212890625,1.2578125,42.506470588235295,457.11041003941097
0.0160126953125,-0.0507548828125,1.5281298828125005,1.529056376751697,0.6875,0.58837890625,0.89501953125,41.84764705882353,457.11041003941097
0.0433564453125,-0.0390361328125,1.5115283203125005,1.5126537819745205,0.54638671875,0.40234375,0.5400390625,42.60058823529412,457.11041003941097
0.1415009765625,-0.0009501953124999,1.4563525390625005,1.4632109032101506,0.44287109375,0.4287109375,0.0888671875,42.31823529411765,457.11041003941097
0.2718720703125,0.0141865234375,1.4587939453125005,1.4839796005820491,0.39892578125,0.7646484375,-0.47998046875,43.25941176470588,457.11041003941097
0.3846650390625,0.0259052734375,1.3357470703125005,1.390272819024113,0.38134765625,1.1494140625,-1.34423828125,43.02411764705882,457.2614901177986
0.4203095703125,-0.0258525390625,1.3401416015625005,1.4047448170079715,0.2861328125,1.12451171875,-2.19677734375,42.27117647058824,457.2614901177986
0.3211884765625,-0.1259501953125,1.2712939453125005,1.3172751362430015,0.2470703125,0.85888671875,-2.53173828125,42.506470588235295,457.2614901177986
0.1810517578125,-0.2104228515625,1.2219775390625005,1.253110777800564,0.025390625,0.73486328125,-2.5625,41.89470588235295,457.2614901177986
0.0990205078125,-0.2665751953125,1.2205126953125005,1.25320334947778,-0.10888671875,0.3994140625,-2.6357421875,42.64764705882353,457.1227222586552
0.0750947265625,-0.2758525390625,1.2439501953125005,1.2763800099040772,-0.26318359375,-0.06201171875,-2.59765625,42.224117647058826,457.1227222586552
0.0677705078125,-0.2602275390625,1.2527392578125005,1.2812754824315895,-0.419921875,-0.5,-1.982421875,42.60058823529412,457.1227222586552
0.0501923828125,-0.2206767578125,1.2639697265625005,1.2840704717411406,-0.57421875,-0.87890625,-0.92529296875,42.506470588235295,457.1227222586552
-0.0040068359375,-0.1381572265625,1.2244189453125005,1.2321952879417482,-0.60888671875,-0.9619140625,-0.0751953125,43.21235294117647,457.1227222586552
-0.0709013671875,-0.0820048828125,1.1956103515625005,1.20051485515072,-0.482421875,-0.70361328125,0.43017578125,41.84764705882353,457.4113207038609
-0.1172880859375,-0.0448955078125,1.1868212890625005,1.1934474742931085,-0.32568359375,-0.32373046875,0.92626953125,42.27117647058824,457.4113207038609
-0.1026396484375,-0.0160869140625,1.1482470703125005,1.1529375614996105,-0.373046875,-0.0146484375,1.5234375,41.89470588235295,457.4113207038609
-0.1021513671875,0.0200458984375,1.0476611328125005,1.0528203023633298,-0.10888671875,0.099609375,2.08154296875,43.02411764705882,457.4113207038609
-0.1016630859375,0.0639912109375,0.9431689453125,0.9507880507881222,-0.0517578125,0.14892578125,2.50927734375,41.84764705882353,456.8316274841077
-0.0918974609375,0.0932880859375,0.8499072265625001,0.8599361046425499,0.0673828125,0.2685546875,2.66650390625,42.31823529411765,456.8316274841077
-0.0674833984375,0.0957294921875,0.7805712890625001,0.7893096236888564,0.2666015625,0.3671875,2.732421875,42.08294117647059,456.8316274841077
-0.0420927734375,0.0674091796875,0.7141650390625001,0.7185732405962141,0.46337890625,0.474609375,2.72314453125,43.21235294117647,456.8316274841077
-0.0064482421875,0.0249287109375,0.6467822265625001,0.6472945767218039,0.60546875,0.4873046875,2.42138671875,42.41235294117647,456.8316274841077
0.0042939453125,-0.0048564453124999,0.5881884765625001,0.5882241978942508,0.68798828125,0.39453125,1.85693359375,43.21235294117647,457.1214697572311
-0.0142607421875,-0.0585673828125,0.5486376953125001,0.5519391522759152,0.6708984375,0.25390625,1.45703125,42.74176470588235,457.1214697572311
-0.0372099609375,-0.0800517578125,0.5198291015625001,0.5272714291075493,0.50244140625,0.2587890625,1.05078125,43.07117647058824,457.1214697572311
-0.0445341796875,-0.0790751953125,0.5144580078125001,0.5224013988079999,0.54541015625,0.28125,0.5693359375,42.31823529411765,457.1214697572311
-0.0743193359375,-0.0751689453125,0.4905322265625,0.5017923866799381,0.45654296875,0.24755859375,0.24560546875,43.16529411764706,458.0254757276203
-0.0611357421875,-0.0683330078125,0.4783251953125,0.4870338503638746,0.3056640625,0.25732421875,-0.046875,42.31823529411765,458.0254757276203
-0.0733427734375,-0.0707744140625,0.5095751953125001,0.5196682208670905,0.24169921875,0.3271484375,-0.24560546875,42.60058823529412,458.0254757276203
-0.0704130859375,-0.0600322265625,0.5198291015625001,0.5280001569399095,0.1650390625,0.45703125,-0.42529296875,43.07117647058824,458.0254757276203
-0.0635771484375,-0.0468486328125,0.5501025390625001,0.5557424328615315,0.13671875,0.64697265625,-0.63916015625,42.41235294117647,458.0254757276203
-0.0684599609375,-0.0292705078125,0.5706103515625001,0.575447393068598,0.11474609375,0.56884765625,-0.86474609375,42.41235294117647,457.8215871230565
-0.0953154296875,-0.0043681640624999,0.6169970703125001,0.6243312396220437,0.14453125,0.5302734375,-0.91748046875,41.84764705882353,457.8215871230565
-0.1041044921875,0.0083271484375,0.6585009765625001,0.6667312973218549,0.14892578125,0.5830078125,-0.75048828125,42.03588235294118,457.8215871230565
-0.1182646484375,0.0146748046875,0.7175830078125001,0.7274113348470013,0.2568359375,0.48046875,-0.79638671875,41.84764705882353,457.8215871230565
-0.1832060546875,-0.0224345703125,0.7625048828125001,0.7845262677133061,0.365234375,0.2509765625,-0.60205078125,42.45941176470589,457.5636549674118
-0.1666044921875,-0.0302470703125,0.8284228515625001,0.8455509228133383,0.3564453125,0.14208984375,-0.67236328125,42.27117647058824,457.5636549674118
-0.1739287109375,-0.0483134765625,0.9011767578125,0.9190783085936612,0.3759765625,0.06298828125,-0.61474609375,41.98882352941177,457.5636549674118
-0.1685576171875,-0.0395244140625,0.9929736328125,1.0079536125634778,0.34619140625,0.02880859375,-0.41650390625,42.506470588235295,457.5636549674118
-0.1221708984375,-0.0380595703125,1.1130908203125005,1.1204219890654383,0.4072265625,-0.0771484375,-0.38037109375,41.98882352941177,457.5636549674118
-0.0079130859375,-0.0590556640625,1.0842822265625005,1.0859181070533128,0.287109375,-0.41162109375,-0.96240234375,42.31823529411765,456.5847781279591
-0.0137724609375,-0.0727275390625,1.0877001953125005,1.0902158916935736,0.2255859375,-0.2900390625,-1.01513671875,42.506470588235295,456.5847781279591
-0.2408232421875,-0.0639384765625,1.2434619140625005,1.2681803872031807,0.333984375,0.0771484375,-0.8046875,41.89470588235295,456.5847781279591
-0.2198271484375,-0.0717509765625,1.3035205078125005,1.3238723095962064,0.4091796875,0.23876953125,-0.7529296875,42.45941176470589,456.5847781279591
-0.2203154296875,-0.0800517578125,1.2961962890625005,1.3172213148391791,0.4296875,0.57373046875,-0.93115234375,43.21235294117647,456.1230209683228
-0.2857451171875,-0.0947001953125,1.3806689453125005,1.4131047857604389,0.4990234375,0.86376953125,-0.814453125,41.89470588235295,456.1230209683228
-0.2896513671875,-0.1078837890625,1.4358447265625005,1.4687364995986896,0.4326171875,0.91845703125,-0.96923828125,42.08294117647059,456.1230209683228
-0.2501005859375,-0.1254619140625,1.5584033203125005,1.58332305728412,0.3349609375,0.87646484375,-1.41650390625,43.25941176470588,456.1230209683228
-0.1587919921875,-0.1396220703125,1.7410205078125005,1.7538134530003242,0.09521484375,0.31884765625,-2.0537109375,42.506470588235295,456.1230209683228
-0.0538115234375,-0.0522197265625,1.8108447265625005,1.8123965359755416,-0.32373046875,-0.40771484375,-2.4560546875,42.41235294117647,455.6932057220977
0.0326142578125,0.0688740234375,1.7742236328125005,1.7758594595709187,-0.60302734375,-0.7041015625,-2.38330078125,42.506470588235295,455.6932057220977
0.0311494140625,0.1772724609375,1.7395556640625005,1.7488423942068654,-0.61572265625,-0.609375,-1.564453125,43.07117647058824,455.6932057220977
0.1790986328125,0.2739521484375,1.7166064453125005,1.747530768827046,-0.2890625,-0.07275390625,-0.59619140625,43.25941176470588,455.6932057220977
0.4193330078125,0.2700458984375,1.5813525390625005,1.65814378493043,-0.17236328125,0.25537109375,0.48388671875,42.31823529411765,456.28514867322326
0.3290009765625,0.2768818359375,1.5837939453125005,1.6411302370195164,-0.11669921875,0.59619140625,2.47998046875,42.41235294117647,456.28514867322326
0.2699189453125,0.2866474609375,1.3220751953125005,1.379458526365006,0.2724609375,0.259765625,3.91162109375,43.07117647058824,456.28514867322326
0.2679658203125,0.2212177734375,1.2000048828125005,1.2493016861087791,0.44873046875,-0.02587890625,3.81689453125,42.31823529411765,456.28514867322326
0.1458955078125,0.1709248046875,1.1663134765625005,1.1877659338727613,0.7421875,-0.9345703125,3.28955078125,42.41235294117647,456.28514867322326
0.0633759765625,0.1675068359375,1.1516650390625005,1.165507364494053,0.47119140625,-1.1328125,1.5673828125,42.45941176470589,457.4125717604443
-0.0489287109375,0.1772724609375,1.1741259765625005,1.1884407233849268,0.00439453125,-0.74560546875,-0.21630859375,42.41235294117647,457.4125717604443
-0.1153349609375,0.1909443359375,1.1643603515625005,1.185536554025989,-0.20849609375,-0.10400390625,-0.9443359375,42.506470588235295,457.4125717604443
-0.1294951171875,0.1328388671875,1.1252978515625005,1.1404869156383346,0.21533203125,0.4873046875,-0.20556640625,41.84764705882353,457.4125717604443
-0.0396513671875,0.0166279296875,1.0530322265625005,1.053909668398913,0.2412109375,0.27490234375,0.42236328125,42.41235294117647,457.897755604416
0.0560517578125,-0.0297587890625,0.9993212890625,1.0013343217197113,0.17822265625,0.3349609375,0.00390625,42.31823529411765,457.897755604416
0.0731416015625,-0.1059306640625,1.0071337890625005,1.015327271641631,0.08544921875,0.00634765625,-0.111328125,41.84764705882353,457.897755604416
0.0550751953125,-0.1396220703125,0.9026416015625,0.9150352236544634,-0.13720703125,-0.49658203125,0.33447265625,42.31823529411765,457.897755604416
0.0951142578125,-0.1293681640625,0.8484423828125001,0.8635029362223834,-0.2255859375,-0.5498046875,0.115234375,43.16529411764706,457.897755604416
0.1346650390625,-0.0629619140625,0.7908251953125001,0.8046759378216626,-0.28466796875,-0.63623046875,-0.7099609375,42.506470588235295,458.2183091623132
0.1566376953125,-0.0058330078124999,0.7224658203125001,0.7392741393372054,-0.36962890625,-0.59912109375,-1.66748046875,41.98882352941177,458.2183091623132
0.0506806640625,-0.0429423828125,0.6780322265625001,0.6812784146064902,-0.48583984375,-0.5400390625,-1.818359375,42.45941176470589,458.2183091623132
-0.0225615234375,-0.0351298828125,0.6487353515625001,0.6500774472116083,-0.37548828125,-0.171875,-1.22509765625,43.07117647058824,458.2183091623132
-0.0479521484375,-0.0302470703125,0.6116259765625001,0.6142480191325758,-0.48876953125,0.24072265625,-0.6357421875,41.84764705882353,457.9493067578785
-0.0572294921875,-0.0004619140624999,0.5706103515625001,0.5734732787592811,-0.45849609375,0.619140625,-0.5322265625,42.45941176470589,457.9493067578785
-0.0674833984375,0.0151630859375,0.5496142578125001,0.5539492401209768,-0.3623046875,0.8330078125,-0.5146484375,43.16529411764706,457.9493067578785
-0.0821318359375,0.0093037109375,0.5159228515625001,0.5225022356660826,-0.349609375,0.9873046875,0.0556640625,42.506470588235295,457.9493067578785
-0.0713896484375,0.0097919921875,0.5247119140625001,0.5296366280518771,-0.27197265625,1.03271484375,0.80712890625,42.45941176470589,457.9493067578785
-0.0391630859375,0.0024677734375,0.5027392578125001,0.5042683794882942,-0.310546875,0.99853515625,1.46337890625,41.84764705882353,458.2514880606963
-0.0450224609375,0.0083271484375,0.5256884765625001,0.5276786311578014,-0.40185546875,0.71337890625,1.99560546875,42.41235294117647,458.2514880606963
0.0379853515625,0.0527607421875,0.5144580078125001,0.5185495392456818,-0.40185546875,0.1337890625,2.013671875,42.74176470588235,458.2514880606963
0.0975556640625,0.0830341796875,0.4900439453125,0.5065124390619562,-0.54248046875,-0.7353515625,1.59130859375,42.27117647058824,458.2514880606963
0.0077119140625,0.0761982421875,0.5872119140625001,0.5921853407067058,-0.55615234375,-1.25634765625,1.2890625,43.25941176470588,458.11145627669833
-0.0289091796875,0.0459248046875,0.6677783203125001,0.669979636582466,-0.224609375,-0.81201171875,1.49169921875,42.31823529411765,458.11145627669833
-0.0191435546875,0.0478779296875,0.6980517578125001,0.6999535901917753,-0.06982421875,-0.91259765625,1.51708984375,43.21235294117647,458.11145627669833
-0.0811552734375,-0.0048564453124999,0.7737353515625001,0.7779949599613961,0.11865234375,-0.60498046875,1.67626953125,42.31823529411765,458.11145627669833
-0.0376982421875,-0.0014384765624999,0.8289111328125001,0.8297691804226947,0.05029296875,-0.779296875,1.5,42.41235294117647,458.11145627669833
-0.0503935546875,0.0049091796875,0.9050830078125,0.9064981309579012,-0.11083984375,-1.13623046875,1.2880859375,42.45941176470589,457.7675382839511
-0.0879912109375,0.0136982421875,0.9871142578125,0.9911229252812176,-0.30859375,-1.27490234375,1.201171875,41.84764705882353,457.7675382839511
-0.1373076171875,0.0302998046875,1.0505908203125005,1.0599587405303577,-0.40185546875,-1.287109375,1.33251953125,42.41235294117647,457.7675382839511
-0.1612333984375,0.0600849609375,1.0881884765625005,1.101708024762451,-0.4765625,-1.1123046875,1.3134765625,42.60058823529412,457.7675382839511
-0.1802763671875,0.0879169921875,1.1179736328125005,1.1358230538889402,-0.6083984375,-0.7802734375,1.26708984375,43.02411764705882,457.1018555360165
-0.1792998046875,0.1313740234375,1.1643603515625005,1.1853871022943865,-0.73388671875,-0.37890625,1.29931640625,42.41235294117647,457.1018555360165
-0.1695341796875,0.1709248046875,1.2156298828125005,1.239238935365778,-0.7900390625,-0.07080078125,1.2607421875,42.03588235294118,457.1018555360165
-0.2593779296875,0.2060810546875,1.1965869140625005,1.2415983869253793,-0.796875,-0.2353515625,1.2470703125,42.31823529411765,457.1018555360165
-0.1773466796875,0.2065693359375,1.2283251953125005,1.258135732258381,-0.90966796875,-0.498046875,1.12939453125,42.03588235294118,457.1018555360165
-0.2374052734375,0.2163349609375,1.3352587890625005,1.3733455912291044,-0.56396484375,-0.24365234375,1.17529296875,43.16529411764706,457.0158834158208
-0.2188505859375,0.2192646484375,1.3484423828125005,1.3835712575739136,-0.248046875,0.10546875,1.08203125,42.506470588235295,457.0158834158208
-0.1915068359375,0.2094990234375,1.3582080078125005,1.387549531194494,0.1025390625,0.27099609375,0.890625,42.506470588235295,457.0158834158208
-0.1265654296875,0.2016865234375,1.4031298828125005,1.4231899837230824,0.2001953125,0.69921875,0.67822265625,42.506470588235295,457.0158834158208
-0.0884794921875,0.2041279296875,1.5881884765625005,1.6036955662787682,0.3447265625,1.13330078125,0.63671875,42.41235294117647,456.4668857708455
-0.0015654296874999,0.1767841796875,1.8127978515625005,1.821398129840784,0.50048828125,1.0546875,1.3525390625,41.84764705882353,456.4668857708455
0.1830048828125,0.1201435546875,1.7742236328125005,1.7876785953007748,1.150390625,0.24755859375,2.0595703125,42.506470588235295,456.4668857708455
0.4032197265625,-0.0136455078124999,1.5662158203125005,1.6173448437391935,1.57421875,-0.3037109375,2.1630859375,42.45941176470589,456.4668857708455
0.6610322265625,-0.1347392578125,1.5471728515625005,1.6878572524837752,1.33837890625,-0.66015625,0.9404296875,43.07117647058824,456.4668857708455
0.8319306640625,-0.2568095703125,1.5061572265625005,1.7397038185674036,0.88037109375,-1.26904296875,-1.73828125,42.45941176470589,456.9741514760765
0.8236298828125,-0.3407939453125,1.4470751953125005,1.6995685681701995,0.22265625,-1.7294921875,-4.61767578125,42.506470588235295,456.9741514760765
0.6717744140625,-0.3403056640625,1.3543017578125005,1.5495877063258028,-0.16650390625,-2.02099609375,-6.53173828125,42.45941176470589,456.9741514760765
0.2865205078125,-0.3276103515625,1.1560595703125005,1.2352717409376612,-0.775390625,-2.640625,-6.3828125,42.506470588235295,456.9741514760765
-0.0108427734375,-0.3183330078125,1.0906298828125005,1.1361896896567836,-0.76416015625,-3.2607421875,-3.72607421875,42.506470588235295,457.2210078444535
-0.3379912109375,-0.2817119140625,1.1228564453125005,1.2059876690810645,-0.2578125,-3.4638671875,-0.11865234375,42.31823529411765,457.2210078444535
-0.2203154296875,-0.2016337890625,1.1956103515625005,1.2323470234530105,0.01416015625,-2.45654296875,1.50146484375,43.21235294117647,457.2210078444535
-0.0025419921874999,-0.1425517578125,1.2249072265625005,1.23317686447028,0.19287109375,-0.59716796875,1.36279296875,42.13,457.2210078444535
0.1790986328125,-0.1176494140625,1.1677783203125005,1.1872758358092026,-0.0712890625,0.98828125,0.09765625,42.41235294117647,457.2210078444535
0.2547822265625,-0.0947001953125,1.0217822265625005,1.0573178464791897,-0.42724609375,0.51708984375,-0.48046875,41.89470588235295,457.7257995004345
0.1688447265625,-0.0546611328125,0.9856494140625,1.0014994501097148,-0.4755859375,-0.005859375,-0.4384765625,42.506470588235295,457.7257995004345
0.0931611328125,-0.0029033203124999,0.9500048828125,0.9545662383005892,-0.431640625,0.1884765625,-0.2666015625,43.21235294117647,457.7257995004345
0.0775361328125,0.0210224609375,0.9231494140625,0.9266383525622732,-0.185546875,0.525390625,-0.201171875,42.506470588235295,457.7257995004345
0.0623994140625,0.0302998046875,0.8640673828125001,0.8668472801364075,0.1201171875,0.904296875,0.4384765625,42.45941176470589,457.4678705985568
0.0833955078125,0.0469013671875,0.8088916015625001,0.8145306452465173,0.36279296875,1.0146484375,1.18115234375,42.506470588235295,457.4678705985568
0.1209931640625,0.0610615234375,0.7478564453125001,0.760037576827496,0.5517578125,0.93603515625,1.54736328125,41.84764705882353,457.4678705985568
0.1390595703125,0.0654560546875,0.7195361328125001,0.7357678340438089,0.68603515625,0.81494140625,1.45849609375,42.31823529411765,457.4678705985568
0.1082978515625,0.0488544921875,0.7053759765625001,0.7153114387254355,0.763671875,0.60595703125,1.2822265625,42.41235294117647,457.4678705985568
0.0667939453125,0.0044208984375,0.6834033203125001,0.6866739209315826,0.91943359375,0.59228515625,1.37744140625,41.89470588235295,457.56490599680217
0.0287080078125,-0.0707744140625,0.6707080078125001,0.6750425165441547,0.984375,0.53173828125,1.4052734375,41.89470588235295,457.56490599680217
0.0311494140625,-0.0951884765625,0.6096728515625001,0.6178447361587512,0.76513671875,0.458984375,1.017578125,42.97705882352941,457.56490599680217
0.0291962890625,-0.1005595703125,0.5632861328125001,0.5729362249808587,0.6357421875,0.4560546875,0.39501953125,42.27117647058824,457.56490599680217
0.0335908203125,-0.0883525390625,0.5418017578125001,0.5499851444691686,0.5322265625,0.61376953125,-0.0322265625,42.45941176470589,457.4789304079664
0.0575166015625,-0.0795634765625,0.5320361328125001,0.5410184404214805,0.43896484375,0.7939453125,-0.27294921875,43.21235294117647,457.4789304079664
0.0804658203125,-0.0961650390625,0.5305712890625001,0.5451865329902222,0.376953125,0.9052734375,-0.3818359375,42.41235294117647,457.4789304079664
0.0858369140625,-0.0790751953125,0.5549853515625001,0.5671239747872019,0.32666015625,0.900390625,-0.70458984375,42.45941176470589,457.4789304079664
0.0643525390625,-0.0844462890625,0.5823291015625001,0.5919287182987546,0.2822265625,0.9267578125,-0.9970703125,41.89470588235295,457.4789304079664
0.0555634765625,-0.0829814453125,0.5925830078125001,0.6009391328096153,0.2021484375,0.80517578125,-1.14794921875,42.45941176470589,457.6496316520801
0.0438447265625,-0.0903056640625,0.6096728515625001,0.617882237114371,0.2412109375,0.5888671875,-1.080078125,43.25941176470588,457.6496316520801
0.0272431640625,-0.0566142578125,0.6350634765625001,0.6381637591084639,0.2529296875,0.48828125,-0.95703125,42.31823529411765,457.6496316520801
-0.0137724609375,-0.0678447265625,0.6726611328125001,0.6762141577926414,0.2646484375,0.50244140625,-0.76953125,42.506470588235295,457.6496316520801
-0.0474638671875,-0.0873759765625,0.5881884765625001,0.596534210192138,0.35986328125,0.46435546875,-0.41064453125,41.84764705882353,457.39295551963625
-0.0772490234375,-0.1025126953125,0.7791064453125001,0.7896094714792626,0.37744140625,0.53125,-0.236328125,42.60058823529412,457.39295551963625
-0.0835966796875,-0.1083720703125,0.7210009765625001,0.7338769097625778,0.3623046875,0.521484375,-0.2080078125,42.45941176470589,457.39295551963625
-0.0884794921875,-0.1147197265625,0.8845751953125001,0.8963607043832746,0.33154296875,0.49853515625,-0.2841796875,43.21235294117647,457.39295551963625
-0.1021513671875,-0.1176494140625,0.9348681640625,0.9477630350594576,0.291015625,0.11181640625,-0.21484375,43.25941176470588,457.39295551963625
-0.1177763671875,-0.1073955078125,0.9700244140625,0.9830322637856228,0.28271484375,-0.16796875,-0.14892578125,43.07117647058824,456.9741514760765
-0.1290068359375,-0.0854228515625,1.0076220703125005,1.0194322262262083,0.2763671875,-0.248046875,-0.07177734375,41.98882352941177,456.9741514760765
-0.1207060546875,-0.0527080078125,1.0554736328125005,1.0636600374594325,0.30712890625,-0.0947265625,-0.0478515625,42.60058823529412,456.9741514760765
-0.1158232421875,-0.0468486328125,1.1101611328125005,1.1171694404318258,0.39111328125,0.00244140625,-0.0908203125,42.31823529411765,456.9741514760765
-0.0870146484375,-0.0444072265625,1.1658251953125005,1.1699110807403716,0.45166015625,0.33544921875,-0.3388671875,42.74176470588235,456.5111253088911
-0.0674833984375,-0.0424541015625,1.2053759765625005,1.2080097701087331,0.5087890625,0.35595703125,-0.50048828125,43.16529411764706,456.5111253088911
-0.1001982421875,-0.0790751953125,1.2356494140625005,1.2422246369816432,0.544921875,0.181640625,-0.72216796875,41.84764705882353,456.5111253088911
-0.1485380859375,-0.0927470703125,1.2566455078125005,1.2687882070427927,0.63818359375,-0.02294921875,-0.4775390625,43.21235294117647,456.5111253088911
-0.1407255859375,-0.0824931640625,1.2756884765625005,1.2860753873272155,0.68994140625,0.1357421875,-0.294921875,41.84764705882353,456.5111253088911
-0.1319365234375,-0.1103251953125,1.2927783203125005,1.3041681948305306,0.70556640625,0.3154296875,-0.23046875,42.45941176470589,456.8107617792101
-0.1197294921875,-0.1445048828125,1.2947314453125005,1.308260802721356,0.62890625,0.490234375,-0.25341796875,42.45941176470589,456.8107617792101
-0.1529326171875,-0.1523173828125,1.3005908203125005,1.318379858913132,0.51953125,0.64501953125,-0.39208984375,43.07117647058824,456.8107617792101
-0.1851591796875,-0.1371806640625,1.3503955078125005,1.3699162324519545,0.46728515625,0.99169921875,-0.314453125,43.21235294117647,456.8107617792101
-0.1412138671875,-0.1098369140625,1.4539111328125005,1.4648764746875245,0.46875,1.23046875,-0.48876953125,41.84764705882353,456.4681416182953
-0.0601591796875,-0.0942119140625,1.5476611328125005,1.5516926221615104,0.28369140625,1.15087890625,-0.93505859375,42.27117647058824,456.4681416182953
0.0106416015625,-0.0571025390625,1.6204150390625005,1.621455778759052,0.0263671875,0.70068359375,-1.50927734375,43.21235294117647,456.4681416182953
0.0213837890625,0.0102802734375,1.6077197265625005,1.6078947943304065,-0.3125,0.28515625,-1.91552734375,42.41235294117647,456.4681416182953
0.0487275390625,0.0884052734375,1.5691455078125005,1.5723891026469232,-0.38330078125,0.38330078125,-1.5419921875,42.45941176470589,456.4681416182953
0.1273408203125,0.1235615234375,1.4861376953125005,1.4966924814472766,-0.35791015625,0.50146484375,-0.91796875,42.41235294117647,456.4472779779078
0.2059541015625,0.1206318359375,1.4163134765625005,1.436284441078655,-0.26611328125,0.7470703125,-0.4111328125,41.98882352941177,456.4472779779078
0.2733369140625,0.1147724609375,1.3284228515625005,1.3610999445052907,-0.09130859375,0.71044921875,0.2587890625,42.41235294117647,456.4472779779078
0.4017548828125,0.1523701171875,1.1931689453125005,1.268178130442866,0.0576171875,0.6220703125,1.47216796875,42.03588235294118,456.4472779779078
0.4339814453125,0.2046162109375,1.0994189453125005,1.1995539612564314,0.27880859375,0.80078125,2.45751953125,41.89470588235295,457.5980854748423
0.3880830078125,0.2104755859375,1.0354541015625005,1.1256436335142377,0.43310546875,0.7587890625,3.06591796875,41.84764705882353,457.5980854748423
0.3539033203125,0.2129169921875,0.9651416015625,1.049799750789174,0.52392578125,0.6376953125,2.92333984375,42.41235294117647,457.5980854748423
0.3099580078125,0.2202412109375,0.9343798828125,1.0087843788476365,0.46337890625,0.60498046875,2.33349609375,42.08294117647059,457.5980854748423
0.2323212890625,0.2197529296875,0.9675830078125,1.019059079968078,0.36962890625,0.73828125,1.53369140625,42.41235294117647,457.5980854748423
0.1527314453125,0.2090107421875,1.0349658203125005,1.0668489274270003,0.2041015625,1.03125,0.64794921875,42.31823529411765,458.00710376212106
0.0423798828125,0.1113544921875,1.0671923828125005,1.0738228249253037,0.32080078125,1.25634765625,0.38134765625,43.16529411764706,458.00710376212106
-0.0186552734375,0.0405537109375,1.0037158203125005,1.004707952911405,0.02490234375,1.03125,0.44775390625,41.89470588235295,458.00710376212106
-0.0113310546875,0.0542255859375,1.0452197265625005,1.0466867171059278,-0.22998046875,1.5634765625,-0.16650390625,43.21235294117647,458.00710376212106
-0.0293974609375,-0.0502666015625,1.0623095703125005,1.0639043966070183,0.71435546875,2.423828125,-0.3583984375,41.84764705882353,457.9419947004472
0.0443330078125,-0.1977275390625,0.8616259765625001,0.8851332774066838,0.31103515625,1.00244140625,0.8349609375,42.45941176470589,457.9419947004472
0.0936494140625,-0.1274150390625,0.8474658203125001,0.8620922929312653,0.07861328125,0.3388671875,0.91015625,42.506470588235295,457.9419947004472
0.0863251953125,-0.0600322265625,0.8479541015625001,0.8544483986341477,-0.19189453125,0.3740234375,0.25634765625,42.41235294117647,457.9419947004472
-0.0186552734375,-0.0546611328125,0.7937548828125001,0.7958534241027423,-0.24609375,0.34375,-0.1083984375,42.45941176470589,457.9419947004472
-0.0269560546875,-0.0195048828125,0.7913134765625001,0.7920126814182178,-0.3740234375,0.44775390625,-0.47119140625,42.45941176470589,457.3954604887443
-0.0474638671875,-0.0107158203124999,0.7532275390625001,0.7547975709390647,-0.41796875,0.62353515625,-0.732421875,42.31823529411765,457.3954604887443
-0.0308623046875,0.0122333984375,0.7024462890625001,0.7032303512403543,-0.44091796875,0.68603515625,-0.92333984375,42.45941176470589,457.3954604887443
-0.0225615234375,-0.0043681640624999,0.6648486328125001,0.665245674732086,-0.47216796875,0.76708984375,-0.748046875,41.89470588235295,457.3954604887443
0.0082001953125,0.0029560546875,0.6335986328125001,0.633658590223748,-0.47509765625,0.791015625,-0.54052734375,42.45941176470589,457.7381099579025
0.0121064453125,0.0053974609375,0.6350634765625001,0.6352017930282671,-0.466796875,0.8837890625,-0.2353515625,41.84764705882353,457.7381099579025
0.0233369140625,0.0083271484375,0.5994189453125001,0.5999308501474238,-0.44384765625,0.822265625,0.11572265625,43.16529411764706,457.7381099579025
0.0091767578125,0.0254169921875,0.6028369140625001,0.6034422767193286,-0.36767578125,0.775390625,0.44189453125,42.03588235294118,457.7381099579025
-0.0118193359375,0.0263935546875,0.6096728515625001,0.6103583393084719,-0.29345703125,0.69287109375,0.73583984375,41.89470588235295,457.7381099579025
-0.0279326171875,0.0239521484375,0.6179736328125001,0.6190681282130377,-0.171875,0.64453125,0.8896484375,42.31823529411765,457.7909078176551
-0.0577177734375,0.0180927734375,0.6526416015625001,0.6554385935473348,-0.1337890625,0.61083984375,0.96728515625,41.89470588235295,457.7909078176551
-0.0796904296875,0.0068623046875,0.6736376953125001,0.6783696634986998,-0.04736328125,0.705078125,1.08447265625,42.45941176470589,457.7909078176551
-0.0762724609375,-0.0097392578124999,0.6711962890625001,0.6755862638416148,-0.123046875,0.54150390625,1.35107421875,43.16529411764706,457.7909078176551
-0.0586943359375,0.0029560546875,0.7048876953125001,0.7073333205310122,-0.15478515625,0.3408203125,1.517578125,42.27117647058824,457.31804117766734
-0.0557646484375,-0.0072978515624999,0.7200244140625001,0.7222174959794542,-0.1982421875,-0.06396484375,1.85498046875,43.21235294117647,457.31804117766734
-0.0586943359375,0.0132099609375,0.8005908203125001,0.8028481735096344,-0.20068359375,-0.2998046875,2.27587890625,42.31823529411765,457.31804117766734
-0.0596708984375,0.0483662109375,0.8562548828125001,0.8596931608551026,-0.11669921875,-0.2978515625,2.31640625,43.25941176470588,457.31804117766734
-0.0821318359375,0.0639912109375,0.8933642578125001,0.8994110354496386,-0.02880859375,-0.24755859375,2.1748046875,42.45941176470589,457.31804117766734
-0.0909208984375,0.0942646484375,0.9363330078125,0.9454480076857378,-0.08349609375,-0.1728515625,1.86376953125,43.21235294117647,457.0822426518693
-0.1368193359375,0.0947529296875,0.9651416015625,0.9793855009327892,-0.07861328125,-0.07080078125,1.6240234375,42.45941176470589,457.0822426518693
-0.1456083984375,0.1152607421875,1.0247119140625005,1.0414035486816722,-0.05517578125,-0.00927734375,1.4306640625,42.45941176470589,457.0822426518693
-0.1167998046875,0.1167255859375,1.0730517578125005,1.08568279517177,-0.01171875,-0.02392578125,1.19287109375,43.16529411764706,457.0822426518693
-0.0826201171875,0.1264912109375,1.0906298828125005,1.101044799947813,0.02734375,-0.10009765625,1.04833984375,42.506470588235295,457.0601228507957
-0.0704130859375,0.1440693359375,1.0925830078125005,1.1042878271489385,0.02392578125,-0.13525390625,0.81640625,42.31823529411765,457.0601228507957
-0.1094755859375,0.1494404296875,1.1018603515625005,1.1173242950401554,0.01318359375,-0.0615234375,0.54248046875,41.84764705882353,457.0601228507957
-0.1583037109375,0.1748310546875,1.1360400390625005,1.1602641651507015,0.04736328125,0.119140625,0.35302734375,43.07117647058824,457.0601228507957
-0.2022490234375,0.1880146484375,1.2004931640625005,1.2318433392559671,0.0888671875,0.39013671875,0.3212890625,42.41235294117647,457.0601228507957
-0.2134794921875,0.1889912109375,1.2883837890625005,1.3195544548503106,0.15380859375,0.63134765625,0.3994140625,41.84764705882353,457.0073312323581
-0.2007841796875,0.1738544921875,1.3972705078125005,1.422288488060407,0.23486328125,0.7333984375,0.517578125,43.07117647058824,457.0073312323581
-0.1617216796875,0.1538349609375,1.5242236328125005,1.540479399314293,0.37060546875,0.6259765625,0.72021484375,42.506470588235295,457.0073312323581
-0.1285185546875,0.1167255859375,1.6272509765625005,1.636486364756831,0.60205078125,0.3671875,0.958984375,43.21235294117647,457.0073312323581
-0.1319365234375,0.0771748046875,1.6184619140625005,1.6256636072589494,1.111328125,0.27099609375,1.091796875,42.506470588235295,456.3515084835176
-0.1387724609375,0.0346943359375,1.5603564453125005,1.56689939986237,1.14404296875,0.39892578125,1.1259765625,42.45941176470589,456.3515084835176
-0.0113310546875,-0.0331767578125,1.4861376953125005,1.4865511560279483,0.80615234375,0.2744140625,0.76123046875,43.25941176470588,456.3515084835176
0.2298798828125,-0.0580791015625,1.3948291015625005,1.4148378582459007,0.49267578125,0.05322265625,-0.21044921875,41.84764705882353,456.3515084835176
0.3988251953125,-0.0546611328125,1.2747119140625005,1.3367646912262765,-0.0302734375,-0.00341796875,-1.19580078125,42.31823529411765,456.3515084835176
0.3988251953125,-0.0385478515625,1.2043994140625005,1.2693011549156616,-0.17822265625,0.486328125,-1.88671875,42.506470588235295,456.5332451614976
0.3363251953125,-0.0654033203125,1.1526416015625005,1.2024869616600655,-0.20849609375,0.888671875,-2.23828125,42.45941176470589,456.5332451614976
0.2899384765625,-0.1083720703125,1.0881884765625005,1.131354491898369,-0.2568359375,1.0419921875,-2.24267578125,42.27117647058824,456.5332451614976
0.2606416015625,-0.1440166015625,1.0271533203125005,1.0694478806466778,-0.30029296875,1.05078125,-2.1962890625,42.60058823529412,456.5332451614976
0.2230439453125,-0.1645244140625,1.0027392578125005,1.0403378794995106,-0.38623046875,0.9443359375,-2.107421875,42.41235294117647,457.7172413000533
0.1693330078125,-0.1767314453125,1.0315478515625005,1.0601880217019448,-0.49462890625,0.72314453125,-1.83349609375,43.21235294117647,457.7172413000533
0.1371064453125,-0.1762431640625,1.0872119140625005,1.1099052105042289,-0.56103515625,0.515625,-1.3974609375,42.64764705882353,457.7172413000533
0.1239228515625,-0.1542705078125,1.1477587890625005,1.1646915903321038,-0.5166015625,0.103515625,-1.07080078125,41.84764705882353,457.7172413000533
0.0755830078125,-0.1005595703125,1.1814501953125005,1.1881286050993656,-0.400390625,-0.4345703125,-0.7939453125,42.64764705882353,457.7172413000533
0.0291962890625,-0.0639384765625,1.1716845703125005,1.173790988374226,-0.31201171875,-0.7080078125,-0.31884765625,42.83588235294118,457.7479190656301
0.0033173828125,0.0010029296875,1.1541064453125005,1.1541116488488183,-0.2109375,-0.3017578125,0.24169921875,43.16529411764706,457.7479190656301
-0.0123076171875,0.0332294921875,1.1126025390625005,1.1131666930519415,-0.09375,0.201171875,0.822265625,41.84764705882353,457.7479190656301
-0.0269560546875,0.0708271484375,1.1082080078125005,1.11079615700625,0.05224609375,0.64111328125,1.2412109375,42.27117647058824,457.7479190656301
-0.0577177734375,0.0664326171875,1.0359423828125005,1.0396736288394568,0.2099609375,0.84716796875,1.5,41.84764705882353,456.82307592566144
-0.0777373046875,0.0610615234375,0.9666064453125,0.9716478880254168,0.36474609375,0.89453125,1.95556640625,42.41235294117647,456.82307592566144
-0.0694365234375,0.0644794921875,0.8997119140625001,0.9046881031636548,0.47119140625,1.041015625,2.14453125,43.16529411764706,456.82307592566144
-0.0108427734375,0.0678974609375,0.8098681640625001,0.8127816890774182,0.50439453125,1.05224609375,1.95751953125,41.84764705882353,456.82307592566144
0.0228486328125,0.0737568359375,0.7571337890625001,0.7610609078181917,0.4892578125,1.025390625,1.6328125,42.31823529411765,456.82307592566144
0.0394501953125,0.0649677734375,0.6897509765625001,0.6939261770278905,0.490234375,1.05810546875,1.4111328125,42.41235294117647,457.2026482937789
0.0355439453125,0.0395771484375,0.6394580078125001,0.6416667877351556,0.5107421875,1.041015625,1.09130859375,42.31823529411765,457.2026482937789
-0.0020537109374999,0.0171162109375,0.5989306640625001,0.5991787068645039,0.50390625,0.998046875,0.6953125,42.45941176470589,457.2026482937789
-0.0333037109375,-0.0019267578124999,0.5779345703125001,0.5788965513113468,0.46044921875,0.884765625,0.36865234375,42.45941176470589,457.2026482937789
-0.0445341796875,-0.0160869140625,0.5598681640625001,0.5618669265005792,0.39111328125,0.8515625,0.10205078125,43.07117647058824,458.0722130321354
-0.0279326171875,-0.0209697265625,0.5422900390625001,0.5434136978412094,0.2744140625,0.8486328125,-0.2978515625,42.31823529411765,458.0722130321354
-0.0240263671875,-0.0356181640625,0.5388720703125001,0.5405821196583288,0.236328125,0.76171875,-0.67724609375,42.31823529411765,458.0722130321354
-0.0386748046875,-0.0405009765625,0.5291064453125001,0.5320617446230861,0.26904296875,0.53759765625,-0.79345703125,42.13,458.0722130321354
-0.0586943359375,-0.0409892578125,0.5505908203125001,0.5552255359217149,0.21728515625,0.537109375,-1.15576171875,43.07117647058824,458.0722130321354
-0.0889677734375,-0.0585673828125,0.5662158203125001,0.5761473407142392,0.18701171875,0.7314453125,-1.17578125,42.64764705882353,458.19012304241966
-0.0684599609375,-0.0483134765625,0.5872119140625001,0.5931600039500844,0.1279296875,0.63525390625,-1.20849609375,41.84764705882353,458.19012304241966
-0.0835966796875,-0.0473369140625,0.6301806640625001,0.6374612597217093,0.03173828125,0.68896484375,-1.359375,42.506470588235295,458.19012304241966
-0.0977568359375,-0.0683330078125,0.6716845703125001,0.682192026430317,0.140625,0.74658203125,-1.4052734375,43.21235294117647,458.19012304241966
-0.1075224609375,-0.0824931640625,0.7019580078125001,0.7149204476409894,0.13525390625,0.38818359375,-1.28515625,42.60058823529412,457.81427809554185
-0.0879912109375,-0.0771220703125,0.7312548828125001,0.7405565275984387,0.0986328125,0.29638671875,-1.1640625,42.41235294117647,457.81427809554185
-0.0772490234375,-0.0678447265625,0.7615283203125001,0.7684371810254664,0.04052734375,0.2001953125,-1.08447265625,42.45941176470589,457.81427809554185
-0.1163115234375,-0.0634501953125,0.8293994140625001,0.8399152849048319,-0.00341796875,0.22265625,-1.02197265625,42.45941176470589,457.81427809554185
-0.1607451171875,-0.0517314453125,0.9138720703125,0.9293423997811562,-0.0458984375,0.26025390625,-0.9658203125,42.41235294117647,457.81427809554185
-0.1705107421875,-0.0292705078125,1.0056689453125005,1.0204414257540166,-0.1220703125,0.32470703125,-1.07080078125,42.45941176470589,457.5023020590221
-0.1729521484375,-0.0253642578125,1.0935595703125005,1.107442244564287,0.06201171875,0.26806640625,-1.02685546875,42.31823529411765,457.5023020590221
-0.1592802734375,-0.0243876953125,1.1702197265625005,1.1812616871908583,0.09765625,0.07275390625,-0.91845703125,41.89470588235295,457.5023020590221
-0.1265654296875,-0.0258525390625,1.2224658203125005,1.229272078752411,0.17333984375,-0.09423828125,-0.91162109375,43.21235294117647,457.5023020590221
-0.1470732421875,-0.0336650390625,1.2844775390625005,1.2933083243289976,0.185546875,-0.10546875,-0.83544921875,42.45941176470589,457.1817824462409
-0.1846708984375,-0.0448955078125,1.3479541015625005,1.361285865375316,0.271484375,0.04248046875,-0.77099609375,42.506470588235295,457.1817824462409
-0.2276396484375,-0.0644267578125,1.3704150390625005,1.3906861601208425,0.3291015625,0.13232421875,-0.83544921875,42.60058823529412,457.1817824462409
-0.2906279296875,-0.0927470703125,1.4573291015625005,1.4889172988540895,0.30810546875,0.1845703125,-0.92333984375,42.41235294117647,457.1817824462409
-0.3643583984375,-0.1078837890625,1.3123095703125005,1.3662182705513055,0.17333984375,0.1123046875,-0.51806640625,43.21235294117647,457.1817824462409
-0.4029326171875,-0.0839580078125,1.3626025390625005,1.4234076438353789,0.24267578125,0.2353515625,-0.0361328125,41.84764705882353,455.95612830155136
-0.3741240234375,-0.0068095703124999,1.4290087890625005,1.4771869463201932,0.298828125,0.560546875,-0.16552734375,41.89470588235295,455.95612830155136
-0.3262724609375,0.0454365234375,1.5364306640625005,1.5713489052084628,0.4052734375,0.94580078125,-0.78662109375,41.84764705882353,455.95612830155136
-0.2378935546875,0.1172138671875,1.6721728515625005,1.6930724968310031,0.3896484375,1.353515625,-1.83544921875,42.64764705882353,455.95612830155136
-0.1143583984375,0.1216083984375,1.7483447265625005,1.756296025379158,0.376953125,1.37646484375,-2.7841796875,43.21235294117647,455.8897675345968
0.0443330078125,0.0786396484375,1.7034228515625005,1.705813301951124,0.11083984375,0.8359375,-3.21826171875,42.41235294117647,455.8897675345968
0.0907197265625,0.0351826171875,1.6252978515625005,1.6282079079876182,-0.1328125,0.45947265625,-3.236328125,42.60058823529412,455.8897675345968
0.1161103515625,0.0512958984375,1.6023486328125005,1.6073686646231993,-0.34423828125,0.81396484375,-2.66064453125,41.84764705882353,455.8897675345968
0.4212861328125,0.1333271484375,1.3914111328125005,1.4598914599123975,-0.267578125,0.72119140625,-2.2490234375,42.64764705882353,455.8897675345968
0.6576142578125,0.1894794921875,1.1038134765625005,1.2987544729774414,-0.36474609375,0.8232421875,-1.86328125,43.16529411764706,457.40652044604303
0.5819306640625,0.2617451171875,1.0999072265625005,1.2715933749403272,-0.14306640625,0.91748046875,-0.8154296875,42.506470588235295,457.40652044604303
0.4842744140625,0.3530537109375,1.0613330078125005,1.2188504356132652,-0.02294921875,0.423828125,-0.0126953125,42.45941176470589,457.40652044604303
0.3499970703125,0.3315693359375,1.0012744140625005,1.1112995212891847,0.26171875,-0.2138671875,0.9111328125,42.506470588235295,457.40652044604303
0.1581025390625,0.3032490234375,1.0510791015625005,1.1053160909057822,0.6044921875,-0.25341796875,1.62939453125,42.45941176470589,458.6310936925891
0.0248017578125,0.2221943359375,1.1121142578125005,1.1343648322048532,0.6923828125,-0.48828125,2.1376953125,42.224117647058826,458.6310936925891
-0.0835966796875,0.2153583984375,1.1794970703125005,1.2019072274964115,0.74755859375,-0.35888671875,2.3759765625,42.506470588235295,458.6310936925891
-0.0948271484375,-0.0077861328124999,1.1599658203125005,1.163861467803713,0.69921875,-0.4599609375,2.19384765625,42.31823529411765,458.6310936925891
-0.0884794921875,-0.0668681640625,1.1589892578125005,1.1642835013980133,0.67138671875,-0.423828125,1.5205078125,41.98882352941177,458.6310936925891
-0.0430693359375,-0.1381572265625,1.1169970703125005,1.1263324740218794,0.5595703125,-0.56640625,0.955078125,41.84764705882353,458.21099375070537
0.0189423828125,-0.2197001953125,1.0637744140625005,1.0863898902792597,0.40087890625,-0.81591796875,0.53369140625,42.31823529411765,458.21099375070537
0.1297822265625,-0.2621806640625,0.9055712890625,0.9516519776231706,-0.09326171875,-1.3623046875,-0.2080078125,43.21235294117647,458.21099375070537
0.1268525390625,-0.2094462890625,0.8684619140625001,0.9023222322683604,-0.283203125,-1.37939453125,-0.455078125,42.08294117647059,458.21099375070537
0.0594697265625,-0.1308330078125,0.8245166015625001,0.8369477585625394,-0.41552734375,-1.11865234375,-0.3212890625,41.84764705882353,457.92112507712267
-0.0059599609375,-0.0146220703124999,0.8054736328125001,0.8056283878009554,-0.4443359375,-0.8837890625,-0.3681640625,43.21235294117647,457.92112507712267
-0.0748076171875,0.0400654296875,0.7844775390625001,0.7890541347327646,-0.46728515625,-0.75390625,-0.38037109375,42.60058823529412,457.92112507712267
-0.1251005859375,0.0473896484375,0.7542041015625001,0.7659763457148228,-0.48486328125,-0.47900390625,-0.24951171875,41.98882352941177,457.92112507712267
-0.0718779296875,0.0678974609375,0.7122119140625001,0.7190426360866862,-0.4365234375,-0.24560546875,0.27685546875,42.45941176470589,457.92112507712267
0.0238251953125,0.0849873046875,0.6716845703125001,0.6774589610342553,-0.43505859375,0.00390625,0.5498046875,42.27117647058824,457.92112507712267
0.0897431640625,0.1015888671875,0.6331103515625001,0.6474587636969483,-0.39892578125,0.0205078125,0.77294921875,42.60058823529412,457.92112507712267
0.1019501953125,0.1177021484375,0.6209033203125001,0.640131682738909,-0.32421875,-0.11767578125,1.0205078125,41.89470588235295,457.92112507712267
0.0887666015625,0.1152607421875,0.5906298828125001,0.6082829988695035,-0.20556640625,-0.2548828125,1.31689453125,41.84764705882353,457.92112507712267
0.0780244140625,0.1050068359375,0.5486376953125001,0.5640191180281154,-0.0693359375,-0.79443359375,1.47265625,42.41235294117647,457.96411433205134
0.0414033203125,0.0840107421875,0.5447314453125001,0.5527245129791507,0.07470703125,-0.896484375,1.49853515625,42.60058823529412,457.96411433205134
-0.0108427734375,0.0620380859375,0.5413134765625001,0.54496474175013,0.1689453125,-0.8984375,1.57666015625,42.41235294117647,457.96411433205134
-0.0611357421875,0.0361591796875,0.5569384765625001,0.56144949187282,0.25830078125,-0.861328125,1.6494140625,42.31823529411765,457.96411433205134
-0.0933623046875,0.0185810546875,0.6052783203125001,0.6127182228154985,0.349609375,-0.71484375,1.63232421875,43.25941176470588,457.96411433205134
-0.0948271484375,0.0039326171875,0.6448291015625001,0.6517762068230415,0.40966796875,-0.62939453125,1.71630859375,42.41235294117647,457.943244775696
-0.0894560546875,-0.0082744140624999,0.6926806640625001,0.6984821787378664,0.39892578125,-0.50927734375,1.77734375,42.27117647058824,457.943244775696
-0.1036162109375,-0.0131572265624999,0.7263720703125001,0.7338431823693186,0.32080078125,-0.4482421875,1.72900390625,43.16529411764706,457.943244775696
-0.1192412109375,-0.0033916015624999,0.7629931640625001,0.772261961871168,0.16552734375,-0.5263671875,1.6640625,41.89470588235295,457.943244775696
-0.1172880859375,0.0205341796875,0.8230517578125001,0.831620312207781,0.01025390625,-0.5146484375,1.6943359375,42.31823529411765,457.7614809212521
-0.0948271484375,0.0542255859375,0.8752978515625001,0.882087825106424,-0.00537109375,-0.50244140625,1.70166015625,42.31823529411765,457.7614809212521
-0.0918974609375,0.0908466796875,0.9651416015625,0.9737538567849836,-0.017578125,-0.31591796875,1.6669921875,41.84764705882353,457.7614809212521
-0.0523466796875,0.0835224609375,1.0134814453125005,1.0182636281180215,0.04248046875,-0.3203125,1.85595703125,42.41235294117647,457.7614809212521
-0.0245146484375,0.1206318359375,1.0754931640625005,1.082514920809332,-0.0263671875,-0.453125,1.80810546875,42.41235294117647,457.7614809212521
0.0067353515625,0.1152607421875,1.1077197265625005,1.1137205198190363,-0.06103515625,-0.4794921875,1.51708984375,43.25941176470588,457.3094870914703
-0.0054716796875,0.0991474609375,1.1360400390625005,1.140371487122544,-0.0947265625,-0.5751953125,1.35693359375,43.07117647058824,457.3094870914703
-0.0206083984375,0.1015888671875,1.1638720703125005,1.1684790113973396,-0.1796875,-0.56005859375,1.2197265625,42.41235294117647,457.3094870914703
-0.0718779296875,0.1225849609375,1.1926806640625005,1.201116428933006,-0.244140625,-0.21435546875,0.99609375,42.31823529411765,457.3094870914703
-0.0098662109375,0.1435810546875,1.2273486328125005,1.2357578759005146,-0.2646484375,0.09326171875,0.92919921875,42.45941176470589,457.0945566628228
-0.1724638671875,0.1596943359375,1.2712939453125005,1.292839650460957,-0.28173828125,0.4384765625,1.0361328125,43.16529411764706,457.0945566628228
-0.1861357421875,0.1899677734375,1.3123095703125005,1.338988677247971,-0.23828125,0.6337890625,1.2685546875,42.41235294117647,457.0945566628228
-0.1900419921875,0.2031513671875,1.3865283203125005,1.4141595453884783,-0.1416015625,0.8125,1.45703125,42.41235294117647,457.0945566628228
-0.1456083984375,0.2041279296875,1.4504931640625005,1.4720055829941958,-0.02587890625,0.76904296875,1.63720703125,43.21235294117647,457.0945566628228
-0.0987333984375,0.2065693359375,1.5159228515625005,1.5331148901520917,0.11962890625,0.55517578125,1.7705078125,42.45941176470589,456.4387315752397
-0.0982451171875,0.2036396484375,1.5252001953125005,1.5418679727033129,0.296875,0.26318359375,1.74365234375,41.84764705882353,456.4387315752397
-0.1041044921875,0.2016865234375,1.5110400390625005,1.527991229909362,0.5263671875,0.34814453125,1.6748046875,42.45941176470589,456.4387315752397
-0.0630888671875,0.1889912109375,1.5803759765625005,1.592886094568755,0.74462890625,0.68505859375,1.525390625,43.02411764705882,456.4387315752397
0.0550751953125,0.1416279296875,1.6345751953125005,1.6416235307576388,0.86181640625,0.6611328125,1.40087890625,42.41235294117647,456.7076929230127
0.2035126953125,0.0591083984375,1.5330126953125005,1.547591400825328,0.85595703125,0.39697265625,1.03564453125,42.45941176470589,456.7076929230127
0.3280244140625,-0.0380595703125,1.3293994140625005,1.3697997478548234,0.70654296875,0.048828125,0.294921875,43.02411764705882,456.7076929230127
0.4457001953125,-0.0844462890625,1.2039111328125005,1.2865387112512028,0.1337890625,-0.1162109375,-0.65625,43.21235294117647,456.7076929230127
0.5604462890625,-0.0492900390625,1.1589892578125005,1.2883266862870926,-0.01708984375,0.27197265625,-1.962890625,42.60058823529412,456.7076929230127
0.5272431640625,-0.0917705078125,1.0652392578125005,1.1921165448645223,-0.18115234375,0.16552734375,-2.83349609375,42.60058823529412,457.43844745005856
0.4330048828125,-0.1601298828125,0.9836962890625,1.0866430863095506,-0.35107421875,0.06591796875,-3.27978515625,42.45941176470589,457.43844745005856
0.3529267578125,-0.1943095703125,0.9138720703125,0.998737035656697,-0.521484375,0.01123046875,-3.53076171875,43.16529411764706,457.43844745005856
0.2694306640625,-0.2323955078125,0.9026416015625,0.9702383293087862,-0.7333984375,-0.13037109375,-3.59814453125,43.25941176470588,457.43844745005856
