AccX,AccY,AccZ,Magnitude,GyroX,GyroY,GyroZ,Temperature,Altitude
-0.0582060546875,-0.1005595703125,0.8079150390625001,0.8162272246911885,0.4619140625,-0.45654296875,2.1015625,46.224117647058826,216.04155903986583
0.0013642578125,-0.1049541015625,0.7932666015625001,0.8001806832139157,0.5654296875,-0.4990234375,2.1328125,46.97705882352941,216.04155903986583
0.0418916015625,-0.1064189453125,0.7302783203125001,0.7391794933041247,0.54931640625,-0.71533203125,1.78271484375,47.02411764705882,216.04155903986583
0.0213837890625,-0.1235087890625,0.6985400390625001,0.7096970294314283,0.7490234375,-0.642578125,1.29296875,46.36529411764706,216.04155903986583
0.0111298828125,-0.1415751953125,0.6536181640625001,0.6688677855986381,0.65380859375,-0.52978515625,0.796875,47.02411764705882,216.2059038569525
0.0082001953125,-0.1479228515625,0.6306689453125001,0.6478361921034712,0.56298828125,-0.51904296875,0.3427734375,46.27117647058824,216.2059038569525
-0.0005888671874999,-0.1415751953125,0.6150439453125001,0.6311283049886945,0.5576171875,-0.42138671875,-0.07275390625,46.97705882352941,216.2059038569525
-0.0088896484375,-0.1552470703125,0.6243212890625001,0.6433954854260469,0.51611328125,-0.2822265625,-0.1845703125,46.13,216.2059038569525
0.0062470703125,-0.1537822265625,0.6326220703125001,0.6510750209772167,0.36328125,-0.1669921875,-0.38623046875,46.60058823529412,216.2059038569525
0.0086884765625,-0.1537822265625,0.6643603515625001,0.6819817736272326,0.2587890625,-0.04638671875,-0.7412109375,46.224117647058826,216.22234885337383
0.0013642578125,-0.1518291015625,0.6809619140625001,0.6976840729759557,0.14404296875,0.05712890625,-1.15771484375,46.224117647058826,216.22234885337383
-0.0259794921875,-0.1625712890625,0.6853564453125001,0.7048530450903573,0.06982421875,0.111328125,-1.24267578125,46.13,216.22234885337383
-0.0455107421875,-0.1498759765625,0.7068408203125001,0.7239875560153421,0.08740234375,0.1005859375,-1.21728515625,45.89470588235295,216.22234885337383
-0.0757841796875,-0.1586650390625,0.7351611328125001,0.7558966382447869,0.166015625,0.0693359375,-1.0224609375,45.65941176470588,215.8032823400524
-0.0772490234375,-0.1625712890625,0.7654345703125001,0.7863122262046878,0.26318359375,0.16552734375,-0.8251953125,46.224117647058826,215.8032823400524
-0.0709013671875,-0.1567119140625,0.7922900390625001,0.8107460353747324,0.3173828125,0.1708984375,-0.73046875,46.788823529411765,215.8032823400524
-0.1114287109375,-0.1596416015625,0.8005908203125001,0.8239219988198365,0.26513671875,-0.111328125,-0.54345703125,46.41235294117647,215.8032823400524
-0.1387724609375,-0.1757548828125,0.8733447265625001,0.901597796227128,0.318359375,-0.05224609375,-0.32177734375,45.80058823529412,215.8032823400524
-0.1285185546875,-0.2109111328125,0.8796923828125001,0.91370630577968,0.36474609375,-0.021484375,-0.3564453125,46.13,215.57731930915463
-0.1338896484375,-0.2162822265625,0.9045947265625,0.9396786997746804,0.32080078125,-0.03759765625,-0.32080078125,46.788823529411765,215.57731930915463
-0.1456083984375,-0.2148173828125,0.9470751953125,0.9819876471881692,0.34521484375,-0.00244140625,-0.21240234375,46.27117647058824,215.57731930915463
-0.1504912109375,-0.2079814453125,1.0071337890625005,1.0393374597478435,0.34814453125,0.13232421875,-0.1708984375,45.65941176470588,215.57731930915463
-0.1480498046875,-0.1908916015625,1.0710986328125005,1.0980030188610186,0.4306640625,0.240234375,-0.15185546875,45.80058823529412,215.43900007177788
-0.1358427734375,-0.1718486328125,1.1277392578125005,1.1488172375561774,0.51611328125,0.42236328125,-0.09228515625,46.27117647058824,215.43900007177788
-0.0792021484375,-0.1694072265625,1.1741259765625005,1.1889253961319688,0.63818359375,0.67529296875,-0.19921875,46.27117647058824,215.43900007177788
-0.0484404296875,-0.1962626953125,1.1926806640625005,1.209691153653776,0.69384765625,0.8447265625,-0.55029296875,46.03588235294118,215.43900007177788
-0.0674833984375,-0.2226298828125,1.3372119140625005,1.3572964955736375,0.70654296875,0.90869140625,-0.8837890625,46.13,215.43900007177788
-0.1460966796875,-0.2431376953125,1.2439501953125005,1.2758809768609272,0.69091796875,0.93359375,-0.9716796875,46.27117647058824,215.18290917190123
-0.2061552734375,-0.2631572265625,1.2795947265625005,1.3225408828859384,0.66943359375,0.9951171875,-0.82080078125,45.70647058823529,215.18290917190123
-0.2164091796875,-0.2914775390625,1.3157275390625005,1.3648923202503598,0.62451171875,0.95947265625,-0.81689453125,45.61235294117647,215.18290917190123
-0.2232451171875,-0.3085673828125,1.3616259765625005,1.4138873760429431,0.56494140625,1.0244140625,-0.7373046875,45.61235294117647,215.18290917190123
-0.2012724609375,-0.2944072265625,1.4211962890625005,1.4652594004575037,0.4697265625,1.12548828125,-0.64306640625,46.27117647058824,215.0555491666224
-0.1524443359375,-0.3105205078125,1.5012744140625005,1.5406125819459808,0.26513671875,1.376953125,-0.5927734375,46.27117647058824,215.0555491666224
-0.0328154296875,-0.3129619140625,1.5686572265625005,1.599908593178371,0.0654296875,1.42529296875,-1.09375,45.65941176470588,215.0555491666224
0.0296845703125,-0.2968486328125,1.5667041015625005,1.5948548605970545,-0.06005859375,1.07958984375,-2.06689453125,47.02411764705882,215.0555491666224
0.0340791015625,-0.2402080078125,1.5569384765625005,1.5757279879412298,-0.24609375,0.91064453125,-2.50537109375,46.97705882352941,215.0555491666224
0.0638642578125,-0.1830791015625,1.5715869140625005,1.5835030878742755,-0.1904296875,0.8486328125,-2.1767578125,45.61235294117647,215.34040351544672
0.1444306640625,-0.1415751953125,1.5286181640625005,1.5419394424396555,-0.0751953125,0.61181640625,-1.3896484375,45.65941176470588,215.34040351544672
0.2386689453125,-0.0849345703125,1.4138720703125005,1.43638817103891,-0.04150390625,0.39404296875,-0.38330078125,46.27117647058824,215.34040351544672
0.3426728515625,-0.0380595703125,1.2610400390625005,1.3073236761449325,-0.048828125,0.16796875,0.765625,46.83588235294118,215.34040351544672
0.4164033203125,0.0346943359375,1.1497119140625005,1.2232877451567463,-0.041015625,-0.4091796875,1.720703125,47.02411764705882,216.0607914572661
0.3944306640625,0.0932880859375,1.0686572265625005,1.1429376551741228,0.13330078125,-0.80810546875,2.25146484375,47.02411764705882,216.0607914572661
0.3280244140625,0.1284443359375,1.0032275390625005,1.0632795769640608,0.2392578125,-1.0234375,2.9619140625,47.02411764705882,216.0607914572661
0.2577119140625,0.1235615234375,1.0066455078125005,1.046431105770007,0.39794921875,-0.923828125,3.34619140625,45.61235294117647,216.0607914572661
0.2010712890625,0.0898701171875,0.9543994140625,0.9794817725774144,0.4931640625,-0.70458984375,3.16748046875,45.70647058823529,216.0607914572661
0.0995087890625,0.0708271484375,0.9690478515625,0.9767150160995632,0.62451171875,-0.3154296875,2.666015625,46.27117647058824,216.877111782485
0.0160126953125,0.0581318359375,1.0051806640625005,1.006987529300023,0.5751953125,0.0908203125,1.990234375,45.61235294117647,216.877111782485
-0.0508818359375,0.0010029296875,1.0032275390625005,1.004517527089363,0.5830078125,0.5390625,1.4814453125,46.224117647058826,216.877111782485
-0.0342802734375,-0.0722392578125,0.9421923828125,0.9455792583100304,0.39111328125,0.7685546875,1.17919921875,46.224117647058826,216.877111782485
-0.0342802734375,-0.1371806640625,0.9578173828125,0.968198228957978,0.05712890625,1.0830078125,1.1455078125,46.36529411764706,216.972988828828
0.0008759765625,-0.1567119140625,0.9959033203125,1.0081581298355593,-0.06298828125,1.41748046875,0.68212890625,45.65941176470588,216.972988828828
0.0526337890625,-0.1923564453125,0.9783251953125,0.9984445430706594,-0.15771484375,1.50634765625,0.0888671875,46.224117647058826,216.972988828828
0.0936494140625,-0.1933330078125,0.9104541015625,0.9354541868611508,-0.1435546875,1.267578125,-0.361328125,46.83588235294118,216.972988828828
0.1034150390625,-0.1825908203125,0.8450244140625001,0.8706895763292228,-0.248046875,0.9716796875,-0.6328125,46.27117647058824,216.972988828828
0.0975556640625,-0.1513408203125,0.8313525390625001,0.850628118327393,-0.37060546875,0.724609375,-1.193359375,46.27117647058824,216.83465091349024
0.0174775390625,-0.1606181640625,0.7918017578125001,0.8081173693675037,-0.173828125,0.74365234375,-1.134765625,46.97705882352941,216.83465091349024
0.0282197265625,-0.1288798828125,0.7502978515625001,0.7618091908216449,-0.35986328125,0.5029296875,-0.9443359375,46.27117647058824,216.83465091349024
0.0140595703125,-0.1034892578125,0.7351611328125001,0.7425426514336483,-0.3857421875,0.513671875,-0.7509765625,46.97705882352941,216.83465091349024
-0.0064482421875,-0.0815166015625,0.7004931640625001,0.7052497494192399,-0.30712890625,0.5068359375,-0.48193359375,46.97705882352941,216.70726932501464
-0.0152373046875,-0.0610087890625,0.6609423828125001,0.6639270149608899,-0.31689453125,0.40869140625,-0.19384765625,46.45941176470589,216.70726932501464
-0.0235380859375,-0.0351298828125,0.6536181640625001,0.6549846216121828,-0.326171875,0.37451171875,0.13525390625,46.08294117647059,216.70726932501464
-0.0474638671875,-0.0336650390625,0.6609423828125001,0.6634990481841987,-0.3046875,0.51318359375,0.580078125,45.61235294117647,216.70726932501464
-0.0313505859375,-0.0126689453124999,0.6438525390625001,0.6447398339417101,-0.322265625,0.4345703125,0.7802734375,47.02411764705882,216.70726932501464
-0.0284208984375,-0.0033916015624999,0.6511767578125001,0.6518055080653682,-0.2861328125,0.31298828125,0.884765625,46.41235294117647,216.87575374173105
-0.0494169921875,-0.0336650390625,0.6536181640625001,0.6563475286495504,-0.1728515625,0.23291015625,1.14892578125,46.224117647058826,216.87575374173105
-0.0499052734375,-0.1567119140625,0.6541064453125001,0.6744660125798473,-0.15185546875,0.0830078125,1.39013671875,46.45941176470589,216.87575374173105
-0.0757841796875,-0.0556376953125,0.7048876953125001,0.7111297054922975,-0.1767578125,0.06103515625,1.5087890625,46.27117647058824,216.87575374173105
-0.1138701171875,-0.0824931640625,0.7336962890625001,0.7470487067718016,0.06201171875,0.22265625,1.8896484375,46.788823529411765,216.3456828466558
-0.0596708984375,-0.0478251953125,0.7219775390625001,0.7260161377943062,-0.10986328125,0.26953125,1.75244140625,46.88294117647059,216.3456828466558
-0.0523466796875,-0.0497783203125,0.7444384765625001,0.7479349580238481,-0.16943359375,0.162109375,1.701171875,46.45941176470589,216.3456828466558
-0.0533232421875,-0.0556376953125,0.7800830078125001,0.7838803610085345,-0.29443359375,0.0458984375,1.90234375,46.13,216.3456828466558
-0.0464873046875,-0.0409892578125,0.8230517578125001,0.8253819629670703,-0.396484375,-0.09033203125,1.947265625,46.69470588235294,216.3456828466558
-0.0718779296875,-0.0273173828125,0.8591845703125001,0.862618572744038,-0.45166015625,-0.13671875,1.76904296875,46.224117647058826,215.9649217521585
-0.1465849609375,-0.0497783203125,0.9109423828125,0.9240027363326896,-0.49560546875,-0.1904296875,1.80908203125,45.70647058823529,215.9649217521585
-0.1617216796875,-0.0346416015625,0.9202197265625,0.9349643241292812,-0.5830078125,-0.2822265625,1.837890625,46.27117647058824,215.9649217521585
-0.1758818359375,-0.0155986328124999,0.9641650390625,0.9801999592474778,-0.61474609375,-0.26123046875,1.6376953125,46.03588235294118,215.9649217521585
-0.2198271484375,-0.0116923828124999,0.9895556640625,1.013746072389024,-0.56494140625,-0.2275390625,1.46435546875,45.61235294117647,215.72800189385137
-0.2540068359375,-0.0063212890624999,1.0203173828125005,1.0514784796027647,-0.50146484375,-0.0771484375,1.3505859375,46.27117647058824,215.72800189385137
-0.2378935546875,-0.0165751953125,1.0437548828125005,1.0706504265428742,-0.40869140625,0.09716796875,1.328125,46.08294117647059,215.72800189385137
-0.1812529296875,-0.0165751953125,1.0652392578125005,1.08067665747201,-0.33642578125,0.1904296875,1.20751953125,45.61235294117647,215.72800189385137
-0.1197294921875,-0.0112041015624999,1.0925830078125005,1.0991807458975569,-0.23095703125,0.24365234375,0.94091796875,46.08294117647059,215.72800189385137
-0.0762724609375,-0.0326884765625,1.1165087890625005,1.1195882729160975,-0.22802734375,0.28662109375,0.56005859375,46.08294117647059,216.17720991679224
-0.0826201171875,-0.0365947265625,1.1472705078125005,1.1508235641802842,-0.24609375,0.31884765625,0.29052734375,46.27117647058824,216.17720991679224
-0.1373076171875,-0.0146220703124999,1.1995166015625005,1.2074383065407452,-0.236328125,0.38037109375,0.185546875,46.27117647058824,216.17720991679224
-0.2212919921875,0.0053974609375,1.2532275390625005,1.2726266314420482,-0.19677734375,0.484375,0.28662109375,47.02411764705882,216.17720991679224
-0.2706083984375,0.0156513671875,1.2825244140625005,1.3108557293867644,-0.119140625,0.517578125,0.4482421875,46.224117647058826,216.26076533014688
-0.2940458984375,-0.0238994140625,1.2776416015625005,1.3112597890668491,-0.17041015625,0.51123046875,0.45947265625,46.788823529411765,216.26076533014688
-0.3111357421875,-0.0854228515625,1.3469775390625005,1.3850815876238138,-0.31103515625,0.8828125,0.50439453125,45.80058823529412,216.26076533014688
-0.3501982421875,-0.1440166015625,1.4392626953125005,1.4882394620742423,-0.46435546875,1.23876953125,0.626953125,46.36529411764706,216.26076533014688
-0.3575224609375,-0.1674541015625,1.5549853515625005,1.604319989833345,-0.53076171875,1.435546875,1.17578125,45.61235294117647,216.26076533014688
-0.2881865234375,-0.1708720703125,1.5584033203125005,1.5940105537495346,-0.3544921875,1.26171875,1.41162109375,45.70647058823529,214.95558566514592
-0.2134794921875,-0.1303447265625,1.3752978515625005,1.3978581551215112,-0.11865234375,1.31005859375,1.37744140625,45.94176470588236,214.95558566514592
-0.1075224609375,-0.1152080078125,1.3391650390625005,1.3484053420679736,-0.2626953125,1.92236328125,1.380859375,46.08294117647059,214.95558566514592
0.1224580078125,-0.1459697265625,1.3933642578125005,1.406331070445191,-0.513671875,2.51904296875,1.38671875,46.13,214.95558566514592
0.3553681640625,-0.1645244140625,1.3543017578125005,1.4097829854505228,-0.5654296875,2.13232421875,1.1201171875,45.61235294117647,215.30617267235567
0.4618134765625,-0.1625712890625,1.2024462890625005,1.298298189647649,-0.576171875,1.2841796875,-0.21484375,46.97705882352941,215.30617267235567
0.4256806640625,-0.2016337890625,1.1169970703125005,1.2122469499797062,-0.71484375,0.78759765625,-1.25634765625,46.97705882352941,215.30617267235567
0.3700166015625,-0.2455791015625,1.0818408203125005,1.1694447148328688,-0.7763671875,0.3818359375,-1.9677734375,45.70647058823529,215.30617267235567
0.3167939453125,-0.2831767578125,1.0242236328125005,1.1088649737292156,-0.58544921875,-0.10009765625,-1.8427734375,46.97705882352941,215.30617267235567
0.2791962890625,-0.2973369140625,0.9714892578125,1.053637122701912,-0.41015625,-0.4599609375,-1.50146484375,45.70647058823529,217.02504742162355
0.3026337890625,-0.3197978515625,0.9880908203125,1.0817492063006775,-0.240234375,-0.74853515625,-1.25341796875,46.224117647058826,217.02504742162355
0.3080048828125,-0.3876689453125,1.0393603515625005,1.1512706716477112,-0.12890625,-1.27294921875,-1.75,46.36529411764706,217.02504742162355
0.2332978515625,-0.3764384765625,1.0252001953125005,1.1167673234157431,-0.06494140625,-1.7080078125,-1.79296875,46.08294117647059,217.02504742162355
0.1678681640625,-0.2485087890625,1.0256884765625005,1.0686314564432993,-0.20947265625,-1.890625,-2.12109375,46.03588235294118,217.66063690664103
0.0409150390625,-0.1474345703125,1.0618212890625005,1.0727886291581707,-0.31787109375,-1.48193359375,-2.443359375,46.36529411764706,217.66063690664103
-0.0611357421875,-0.0995830078125,1.0720751953125005,1.078424581888848,-0.2431640625,-0.951171875,-2.42724609375,45.61235294117647,217.66063690664103
-0.1465849609375,-0.1288798828125,1.0955126953125005,1.1127646833709592,-0.02880859375,-0.4091796875,-1.802734375,46.27117647058824,217.66063690664103
-0.0879912109375,-0.0575908203125,1.0569384765625005,1.062157285445415,-0.0771484375,-0.05615234375,-1.11083984375,45.70647058823529,217.66063690664103
-0.0640654296875,-0.0107158203124999,1.0784228515625005,1.080377274315879,0.0517578125,0.14501953125,-0.7578125,45.61235294117647,217.1852973901072
-0.0679716796875,-0.0146220703124999,0.9856494140625,0.9880985384168492,0.33349609375,-0.03466796875,-0.46875,46.224117647058826,217.1852973901072
-0.0552763671875,-0.0278056640625,0.8679736328125001,0.8701763378655689,0.40234375,-0.31787109375,-0.09326171875,46.27117647058824,217.1852973901072
-0.0079130859375,-0.0375712890625,0.8206103515625001,0.8215081057314055,0.48876953125,-0.4755859375,0.23828125,46.41235294117647,217.1852973901072
0.0301728515625,-0.0517314453125,0.7585986328125001,0.7609588879239976,0.60595703125,-0.658203125,0.474609375,46.27117647058824,216.55797960832305
0.0521455078125,-0.0829814453125,0.7097705078125001,0.7165048834527153,0.6533203125,-0.6982421875,0.55029296875,46.36529411764706,216.55797960832305
0.0335908203125,-0.1156962890625,0.6951220703125001,0.7054847036950104,0.65283203125,-0.576171875,0.4267578125,46.27117647058824,216.55797960832305
0.0467744140625,-0.1196025390625,0.6589892578125001,0.6713862190076265,0.60546875,-0.53564453125,-0.03564453125,46.13,216.55797960832305
0.0106416015625,-0.1493876953125,0.6531298828125001,0.6700810182487379,0.6083984375,-0.33642578125,-0.4873046875,46.83588235294118,216.55797960832305
-0.0113310546875,-0.1713603515625,0.6682666015625001,0.689980444398135,0.52880859375,-0.0478515625,-0.943359375,46.224117647058826,216.5990804002551
-0.0201201171875,-0.1845439453125,0.6360400390625001,0.6625769526309894,0.4306640625,0.17919921875,-1.29443359375,46.224117647058826,216.5990804002551
-0.0088896484375,-0.1816142578125,0.6394580078125001,0.6648077227632505,0.3125,0.22119140625,-1.5419921875,47.02411764705882,216.5990804002551
-0.0010771484374999,-0.1811259765625,0.6609423828125001,0.6853120552218099,0.21044921875,0.2890625,-1.66943359375,46.03588235294118,216.5990804002551
0.0042939453125,-0.1733134765625,0.6721728515625001,0.6941702539739006,0.18115234375,0.41796875,-1.751953125,46.08294117647059,216.7593258340613
0.0038056640625,-0.1620830078125,0.7029345703125001,0.7213892116194438,0.0888671875,0.580078125,-1.80810546875,45.70647058823529,216.7593258340613
-0.0103544921875,-0.1508525390625,0.7107470703125001,0.7266533575287917,0.02783203125,0.6357421875,-1.779296875,46.83588235294118,216.7593258340613
-0.0298857421875,-0.1469462890625,0.7542041015625001,0.7689669669556914,-0.03076171875,0.72412109375,-1.59033203125,46.08294117647059,216.7593258340613
-0.0386748046875,-0.1415751953125,0.7893603515625001,0.8028879380488054,-0.10107421875,0.7001953125,-1.4287109375,46.224117647058826,216.7593258340613
-0.0054716796875,-0.1391337890625,0.8001025390625001,0.8121282063515282,0.123046875,0.4921875,-1.45947265625,46.27117647058824,215.589677553646
-0.0328154296875,-0.1459697265625,0.8167041015625001,0.8302948891853525,0.13916015625,0.1904296875,-1.64599609375,45.61235294117647,215.589677553646
-0.0972685546875,-0.1772197265625,0.8816455078125001,0.9045257346586904,0.20263671875,0.0078125,-1.35107421875,46.08294117647059,215.589677553646
-0.1392607421875,-0.1928447265625,0.9221728515625,0.952357816703623,0.30859375,0.01806640625,-1.09130859375,47.02411764705882,215.589677553646
-0.1290068359375,-0.2089580078125,0.9265673828125,0.9585579417226588,0.32861328125,-0.16796875,-1.15478515625,46.83588235294118,215.64581549523865
-0.1612333984375,-0.2074931640625,0.9553759765625,0.9908546202632976,0.35205078125,-0.20458984375,-0.93115234375,46.97705882352941,215.64581549523865
-0.1651396484375,-0.2143291015625,0.9812548828125,1.0178748510038074,0.3984375,-0.20751953125,-0.95654296875,46.03588235294118,215.64581549523865
-0.1993193359375,-0.2177470703125,1.0037158203125005,1.046225325756282,0.40966796875,-0.20654296875,-0.73046875,46.224117647058826,215.64581549523865
-0.2115263671875,-0.2123759765625,1.0339892578125005,1.0765596800493975,0.41552734375,-0.01953125,-0.4091796875,46.36529411764706,215.64581549523865
-0.1900419921875,-0.1982158203125,1.0916064453125005,1.1256154324033336,0.455078125,0.2333984375,-0.2353515625,46.13,215.97451426717737
-0.1475615234375,-0.2109111328125,1.1306689453125005,1.1595991432549135,0.49853515625,0.43017578125,-0.337890625,45.61235294117647,215.97451426717737
-0.1192412109375,-0.2333720703125,1.1458056640625005,1.175394235729226,0.48486328125,0.4423828125,-0.61376953125,46.27117647058824,215.97451426717737
-0.1534208984375,-0.2431376953125,1.1658251953125005,1.2007507222503233,0.4609375,0.5341796875,-0.59033203125,46.41235294117647,215.97451426717737
-0.1773466796875,-0.2436259765625,1.2131884765625005,1.250052695255785,0.447265625,0.64111328125,-0.376953125,46.27117647058824,216.04711294568605
-0.1734404296875,-0.2582744140625,1.2493212890625005,1.2874746362217393,0.45703125,0.57373046875,-0.181640625,46.788823529411765,216.04711294568605
-0.1597685546875,-0.2836650390625,1.2546923828125005,1.2962425779694833,0.4931640625,0.58740234375,-0.12255859375,46.97705882352941,216.04711294568605
-0.2593779296875,-0.2953837890625,1.2380908203125005,1.2989986037682923,0.439453125,0.59423828125,-0.23974609375,47.02411764705882,216.04711294568605
-0.1534208984375,-0.2929423828125,1.2634814453125005,1.306039269843828,0.43115234375,0.75439453125,-0.36962890625,46.27117647058824,216.04711294568605
-0.1607451171875,-0.2734111328125,1.3020556640625005,1.3401274538500718,0.34130859375,1.0771484375,-0.51904296875,46.08294117647059,215.36917239456244
-0.1402373046875,-0.2631572265625,1.3796923828125005,1.4115485463521673,0.29443359375,1.4755859375,-0.9150390625,45.65941176470588,215.36917239456244
-0.1109404296875,-0.2743876953125,1.4158251953125005,1.4464291790336063,0.283203125,1.5419921875,-1.26708984375,46.13,215.36917239456244
-0.0860380859375,-0.2553447265625,1.4221728515625005,1.4474733508208295,0.208984375,1.34375,-1.73876953125,46.88294117647059,215.36917239456244
-0.0840849609375,-0.2236064453125,1.4260791015625005,1.4459501121942142,0.05908203125,1.275390625,-1.9658203125,45.61235294117647,215.10212458503813
-0.0352568359375,-0.1869853515625,1.4753955078125005,1.487615027704608,0.01171875,1.375,-1.7578125,45.61235294117647,215.10212458503813
0.0902314453125,-0.1528056640625,1.4592822265625005,1.4700326191802593,0.1484375,1.19970703125,-1.40234375,46.27117647058824,215.10212458503813
0.1839814453125,-0.1186259765625,1.3767626953125005,1.3940576794877693,0.1962890625,0.875,-0.85498046875,46.27117647058824,215.10212458503813
0.2015595703125,-0.1015361328125,1.3035205078125005,1.3229140414020994,0.21240234375,0.61572265625,-0.0888671875,46.08294117647059,215.10212458503813
0.2752900390625,-0.0741923828125,1.2527392578125005,1.284774207142657,0.23876953125,0.36083984375,0.697265625,46.13,215.6006323934118
0.3773408203125,-0.0488017578125,1.1912158203125005,1.2505050326977831,0.22216796875,-0.05029296875,1.208984375,45.65941176470588,215.6006323934118
0.4066376953125,-0.0131572265624999,1.1033251953125005,1.175948049222943,0.255859375,-0.37890625,1.42626953125,47.02411764705882,215.6006323934118
0.3539033203125,0.0195576171875,1.0159228515625005,1.0759782994304052,0.37158203125,-0.73193359375,1.63720703125,45.80058823529412,215.6006323934118
0.2821259765625,0.0498310546875,0.9963916015625,1.036761507930776,0.404296875,-0.787109375,2.10546875,46.224117647058826,216.6963145066717
0.2557587890625,0.1050068359375,0.9885791015625,1.0265123641839105,0.36669921875,-0.80517578125,2.5087890625,46.97705882352941,216.6963145066717
0.2054658203125,0.1313740234375,1.0247119140625005,1.053332731938241,0.33935546875,-0.4892578125,2.49609375,45.65941176470588,216.6963145066717
0.1258759765625,0.0840107421875,1.0457080078125005,1.0566020082706855,0.4833984375,-0.060546875,2.3134765625,45.65941176470588,216.6963145066717
0.0663056640625,0.0034443359375,1.0027392578125005,1.004934984810054,0.50830078125,0.2646484375,1.9951171875,45.61235294117647,216.6963145066717
0.0165009765625,-0.0414775390625,1.0447314453125005,1.0456846854090114,0.42431640625,0.71435546875,1.55224609375,45.61235294117647,217.1948953555068
-0.0196318359375,-0.1235087890625,1.0374072265625005,1.0449179794041543,0.51806640625,1.12939453125,1.49853515625,45.70647058823529,217.1948953555068
0.0072236328125,-0.2030986328125,1.0203173828125005,1.0403599363636926,0.1748046875,1.16650390625,1.4130859375,46.27117647058824,217.1948953555068
0.0750947265625,-0.2040751953125,0.9827197265625,1.0064909161410285,0.05712890625,1.1982421875,0.88330078125,46.97705882352941,217.1948953555068
0.0960908203125,-0.2167705078125,0.9700244140625,0.9985841289961076,0.0546875,1.05419921875,0.021484375,46.224117647058826,216.91685755970823
0.0780244140625,-0.2358134765625,0.9011767578125,0.9347809121605654,0.08349609375,0.67578125,-0.4375,46.83588235294118,216.91685755970823
0.0414033203125,-0.2416728515625,0.8679736328125001,0.9019413669263532,-0.138671875,0.42333984375,-0.72998046875,46.27117647058824,216.91685755970823
0.0033173828125,-0.2153056640625,0.8254931640625001,0.8531157588041828,-0.11328125,0.25146484375,-0.81103515625,46.08294117647059,216.91685755970823
-0.0098662109375,-0.1864970703125,0.7756884765625001,0.7978540668726714,-0.16748046875,0.1474609375,-0.71826171875,46.13,216.91685755970823
-0.0176787109375,-0.1440166015625,0.7483447265625001,0.7622815412430807,-0.287109375,0.01708984375,-0.7529296875,45.61235294117647,217.04424284563305
-0.0196318359375,-0.1108134765625,0.6960986328125001,0.7051371087764254,-0.353515625,0.06884765625,-0.818359375,46.224117647058826,217.04424284563305
-0.0347685546875,-0.0737041015625,0.6702197265625001,0.6751560033471563,-0.45703125,0.13330078125,-0.79833984375,46.08294117647059,217.04424284563305
-0.0713896484375,-0.0707744140625,0.6692431640625001,0.6767509972170757,-0.42724609375,0.4150390625,-0.38720703125,46.83588235294118,217.04424284563305
-0.0328154296875,-0.0126689453124999,0.6404345703125001,0.6413998701685735,-0.3349609375,0.60498046875,-0.27294921875,46.27117647058824,216.3552774135377
-0.0450224609375,-0.0136455078124999,0.6150439453125001,0.6168405600622379,-0.3505859375,0.6474609375,0.04150390625,46.27117647058824,216.3552774135377
-0.0001005859374999,0.0136982421875,0.6033251953125001,0.6034806900435378,-0.50830078125,0.68408203125,0.07275390625,47.02411764705882,216.3552774135377
-0.0127958984375,-0.0068095703124999,0.6511767578125001,0.6513380652010621,-0.54931640625,0.68212890625,-0.05126953125,45.61235294117647,216.3552774135377
-0.0401396484375,-0.0326884765625,0.6721728515625001,0.6741632370979049,-0.43359375,0.6591796875,0.07470703125,46.13,216.3552774135377
-0.1065458984375,-0.0780986328125,0.7366259765625001,0.7483777483782457,-0.40625,0.845703125,0.419921875,45.94176470588236,216.68400101628643
-0.1084990234375,-0.0927470703125,0.7537158203125001,0.7671125047395511,-0.263671875,0.97509765625,0.837890625,46.224117647058826,216.68400101628643
-0.0909208984375,-0.0761455078125,0.7356494140625001,0.7451475079091423,-0.26171875,0.85498046875,0.86474609375,46.224117647058826,216.68400101628643
-0.0870146484375,-0.0873759765625,0.7395556640625001,0.7497657571334381,-0.3291015625,0.82373046875,0.89990234375,45.61235294117647,216.68400101628643
-0.1094755859375,-0.0937236328125,0.7864306640625001,0.7995262426222894,-0.44482421875,0.5625,0.84716796875,45.70647058823529,216.05942939645576
-0.1397490234375,-0.0820048828125,0.8220751953125001,0.8378915306320455,-0.45703125,0.42431640625,1.02001953125,46.13,216.05942939645576
-0.1773466796875,-0.0815166015625,0.8611376953125001,0.8829807084045519,-0.44970703125,0.31494140625,1.44287109375,45.61235294117647,216.05942939645576
-0.1709990234375,-0.0639384765625,0.8894580078125001,0.9080001885811992,-0.330078125,0.2744140625,1.90234375,46.27117647058824,216.05942939645576
-0.1783232421875,-0.0536845703125,0.9270556640625,0.9455757061516876,-0.29541015625,0.28955078125,2.14013671875,46.36529411764706,216.05942939645576
-0.1783232421875,-0.0439189453125,0.9573291015625,0.9747856488275192,-0.2587890625,0.26025390625,2.26708984375,46.224117647058826,215.6115872470643
-0.1983427734375,-0.0507548828125,0.9812548828125,1.002385683730351,-0.2470703125,0.2470703125,2.30517578125,46.41235294117647,215.6115872470643
-0.2144560546875,-0.0497783203125,1.0076220703125005,1.0313929983988213,-0.2177734375,0.36767578125,2.2548828125,46.08294117647059,215.6115872470643
-0.1993193359375,-0.0341533203125,1.0393603515625005,1.0588505972832325,-0.12744140625,0.4560546875,2.1328125,46.97705882352941,215.6115872470643
-0.1827177734375,-0.0556376953125,1.0603564453125005,1.0774215187128042,-0.017578125,0.5380859375,1.88427734375,45.65941176470588,215.8252330301928
-0.1334013671875,-0.0639384765625,1.0662158203125005,1.0764293887837164,0.0859375,0.56005859375,1.47216796875,45.70647058823529,215.8252330301928
-0.1148466796875,-0.0756572265625,1.0598681640625005,1.068753620325839,0.0712890625,0.736328125,0.91552734375,46.08294117647059,215.8252330301928
-0.1309599609375,-0.0824931640625,1.0803759765625005,1.0914063790445656,-0.0166015625,0.93212890625,0.38623046875,46.27117647058824,215.8252330301928
-0.1763701171875,-0.0854228515625,1.1228564453125005,1.1398289690061512,-0.0546875,1.1640625,0.14453125,46.224117647058826,215.8252330301928
-0.2237333984375,-0.0732158203125,1.1541064453125005,1.177870483980425,-0.04248046875,1.30517578125,0.12158203125,46.224117647058826,216.2073519751716
-0.2491240234375,-0.0624736328125,1.1794970703125005,1.2071367249513414,0.01953125,1.26123046875,0.1962890625,46.36529411764706,216.2073519751716
-0.2750029296875,-0.0795634765625,1.2009814453125005,1.23463087201168,0.0390625,1.2353515625,0.28466796875,46.97705882352941,216.2073519751716
-0.2833037109375,-0.0956767578125,1.2424853515625005,1.2779612214241325,0.10107421875,1.1982421875,0.25,45.61235294117647,216.2073519751716
-0.2637724609375,-0.1230205078125,1.2200244140625005,1.2542605500453314,-0.04443359375,1.21044921875,0.5205078125,46.97705882352941,215.26371808313877
-0.2149443359375,-0.1562236328125,1.4182666015625005,1.442943881136197,-0.0849609375,1.029296875,0.693359375,46.224117647058826,215.26371808313877
-0.1856474609375,-0.1562236328125,1.4431689453125005,1.4634231814195338,-0.0703125,0.50439453125,0.74853515625,46.41235294117647,215.26371808313877
-0.2388701171875,-0.1435283203125,1.3567431640625005,1.3850672636544488,-0.10546875,0.294921875,0.61865234375,46.27117647058824,215.26371808313877
-0.3013701171875,-0.1337626953125,1.3645556640625005,1.4038264018445883,-0.10595703125,0.849609375,0.99755859375,46.224117647058826,215.26371808313877
-0.1993193359375,-0.1620830078125,1.4373095703125005,1.4600883192505911,-0.1728515625,1.54150390625,1.52880859375,46.27117647058824,214.80631638134892
0.0238251953125,-0.1611064453125,1.4788134765625005,1.487754087581606,-0.109375,1.57421875,1.67578125,46.27117647058824,214.80631638134892
0.2123017578125,-0.1459697265625,1.4119189453125005,1.4352331885708929,0.068359375,1.01708984375,0.89404296875,47.02411764705882,214.80631638134892
0.2777314453125,-0.1615947265625,1.3001025390625005,1.3392214990228235,0.10400390625,0.62353515625,-0.10498046875,46.27117647058824,214.80631638134892
0.3182587890625,-0.2099345703125,1.2112353515625005,1.269823711190871,0.10693359375,0.03955078125,-0.7734375,46.41235294117647,215.82659592787232
0.3534150390625,-0.2665751953125,1.1028369140625005,1.188366014159924,0.11181640625,-0.451171875,-1.3212890625,45.65941176470588,215.82659592787232
0.3724580078125,-0.3178447265625,0.9949267578125,1.108886599792125,0.0185546875,-0.94482421875,-1.89404296875,46.27117647058824,215.82659592787232
0.3548798828125,-0.3334697265625,0.9202197265625,1.0411273384718338,0.01171875,-1.28173828125,-2.41943359375,45.61235294117647,215.82659592787232
0.3084931640625,-0.3495830078125,0.8743212890625001,0.9908652926268228,0.076171875,-1.5400390625,-2.5986328125,45.61235294117647,215.82659592787232
0.2498994140625,-0.3788798828125,0.8210986328125001,0.9381911572570651,0.02685546875,-1.74609375,-2.3369140625,45.65941176470588,217.49213577586764
0.1927705078125,-0.3862041015625,0.8201220703125001,0.9267762874392332,-0.1357421875,-1.9365234375,-1.87744140625,46.27117647058824,217.49213577586764
0.1014619140625,-0.3407939453125,0.8718798828125001,0.9415994706986748,-0.11181640625,-1.8955078125,-1.21728515625,47.02411764705882,217.49213577586764
0.0208955078125,-0.2616923828125,0.9309619140625,0.9672691512209722,-0.11376953125,-1.38134765625,-0.72998046875,47.02411764705882,217.49213577586764
-0.0201201171875,-0.1864970703125,0.9622119140625,0.9803253255499444,-0.15625,-0.900390625,-0.79541015625,46.97705882352941,217.2907750681433
-0.1055693359375,-0.1601298828125,1.0032275390625005,1.0213970624557476,-0.04443359375,-0.4482421875,-0.68994140625,46.13,217.2907750681433
-0.0972685546875,-0.1064189453125,0.9529345703125,0.9637792584140256,0.0390625,-0.46142578125,-0.22607421875,46.224117647058826,217.2907750681433
-0.0826201171875,-0.0361064453125,1.0051806640625005,1.00921649142407,-0.11083984375,-0.27734375,0.21728515625,46.13,217.2907750681433
-0.1260771484375,0.0029560546875,1.0149462890625005,1.0227512675617605,0.173828125,-0.267578125,0.61767578125,46.88294117647059,217.2907750681433
-0.1519560546875,0.0229755859375,0.9622119140625,0.9744076598986596,0.58935546875,-0.271484375,1.12353515625,46.45941176470589,216.80042850058524
-0.1485380859375,-0.0097392578124999,0.8650439453125001,0.8777581918948578,0.75439453125,-0.58203125,1.919921875,45.61235294117647,216.80042850058524
-0.0870146484375,-0.0468486328125,0.8377001953125001,0.8435093127320545,0.79541015625,-0.6591796875,2.45361328125,47.02411764705882,216.80042850058524
-0.0162138671875,-0.0883525390625,0.7966845703125001,0.8017327267998839,0.89599609375,-0.81005859375,2.60888671875,46.27117647058824,216.80042850058524
0.0204072265625,-0.1269267578125,0.7820361328125001,0.7925322515639956,0.880859375,-0.8486328125,2.2724609375,46.27117647058824,216.47306039443927
0.0311494140625,-0.1440166015625,0.7546923828125001,0.7689419095076416,0.943359375,-0.81298828125,1.60791015625,46.83588235294118,216.47306039443927
-0.0084013671875,-0.1708720703125,0.7195361328125001,0.7395945469013863,0.9228515625,-0.833984375,1.17333984375,46.27117647058824,216.47306039443927
0.0052705078125,-0.1567119140625,0.6721728515625001,0.6902193453094435,0.9228515625,-0.71533203125,0.87255859375,46.27117647058824,216.47306039443927
0.0047822265625,-0.1806376953125,0.6560595703125001,0.680490269186363,0.90283203125,-0.41552734375,0.380859375,46.27117647058824,216.47306039443927
0.0052705078125,-0.1874736328125,0.6428759765625001,0.6696742958287304,0.84033203125,-0.34912109375,0.2001953125,46.83588235294118,216.3881418595153
0.0111298828125,-0.1767314453125,0.6731494140625001,0.6960517306252118,0.79833984375,-0.17333984375,0.029296875,45.70647058823529,216.3881418595153
-0.0049833984375,-0.1645244140625,0.6677783203125001,0.6877652231408475,0.74267578125,-0.0703125,-0.08984375,46.224117647058826,216.3881418595153
0.0316376953125,-0.1572001953125,0.6809619140625001,0.6995870021481521,0.546875,-0.06982421875,-0.48828125,47.02411764705882,216.3881418595153
0.0067353515625,-0.1381572265625,0.6755908203125001,0.6896054964272176,0.458984375,-0.0751953125,-0.7431640625,46.224117647058826,216.112842111362
-0.0386748046875,-0.1376689453125,0.7210009765625001,0.7350448198750544,0.365234375,-0.13134765625,-0.5517578125,46.08294117647059,216.112842111362
-0.0655302734375,-0.1230205078125,0.7820361328125001,0.7943606077239538,0.4033203125,-0.17138671875,-0.36865234375,45.61235294117647,216.112842111362
-0.0811552734375,-0.1137431640625,0.8430712890625001,0.8545717548685832,0.37939453125,-0.02392578125,-0.294921875,46.83588235294118,216.112842111362
-0.0953154296875,-0.1362041015625,0.8826220703125001,0.8981415853982513,0.57666015625,0.09814453125,-0.1123046875,46.224117647058826,216.112842111362
-0.0782255859375,-0.1420634765625,0.9265673828125,0.9406531712381004,0.458984375,-0.0537109375,-0.19384765625,46.08294117647059,215.7307278980034
-0.0923857421875,-0.1698955078125,0.9817431640625,1.0006094388510691,0.470703125,-0.02490234375,-0.16943359375,46.45941176470589,215.7307278980034
-0.1070341796875,-0.2128642578125,1.0242236328125005,1.0515709951720225,0.47265625,-0.0107421875,-0.25146484375,45.61235294117647,215.7307278980034
-0.1431669921875,-0.2382548828125,1.0471728515625005,1.0834358116130147,0.4228515625,0.02783203125,-0.1279296875,46.08294117647059,215.7307278980034
-0.1832060546875,-0.2333720703125,1.0808642578125005,1.1208454512075556,0.35546875,0.14599609375,-0.01904296875,45.61235294117647,215.52940315081216
-0.2320341796875,-0.2333720703125,1.1257861328125005,1.1729010190881914,0.35400390625,0.33544921875,0.16748046875,45.70647058823529,215.52940315081216
-0.2383818359375,-0.2377666015625,1.1736376953125005,1.220976779624392,0.38330078125,0.607421875,0.3310546875,46.36529411764706,215.52940315081216
-0.1817412109375,-0.2353251953125,1.1604541015625005,1.197940539899675,0.44482421875,0.69775390625,0.19873046875,46.08294117647059,215.52940315081216
-0.1500029296875,-0.2406962890625,1.1355517578125005,1.1704329870412706,0.3603515625,0.8232421875,-0.0361328125,47.02411764705882,215.52940315081216
-0.1387724609375,-0.2411845703125,1.1375048828125005,1.1710444702460088,0.21923828125,0.95166015625,-0.2216796875,46.224117647058826,216.1237970209452
-0.1480498046875,-0.2367900390625,1.1663134765625005,1.199281198417841,0.1103515625,1.10791015625,-0.3427734375,45.70647058823529,216.1237970209452
-0.1822294921875,-0.2236064453125,1.1892626953125005,1.2237455571605396,0.08056640625,1.259765625,-0.3154296875,46.08294117647059,216.1237970209452
-0.1724638671875,-0.2216533203125,1.2200244140625005,1.251931927382384,0.1015625,1.38525390625,-0.11083984375,46.788823529411765,216.1237970209452
-0.1275419921875,-0.2397197265625,1.2566455078125005,1.285647867567046,0.09814453125,1.3564453125,-0.06591796875,45.65941176470588,215.984107110126
-0.0733427734375,-0.2406962890625,1.2688525390625005,1.293561220765881,0.0966796875,1.25634765625,-0.33837890625,46.83588235294118,215.984107110126
-0.0738310546875,-0.2499736328125,1.3254931640625005,1.3508774813854014,0.00146484375,1.21533203125,-0.5712890625,46.788823529411765,215.984107110126
-0.0875029296875,-0.2187236328125,1.4793017578125005,1.497942081965036,-0.09619140625,1.20654296875,-0.734375,46.27117647058824,215.984107110126
-0.0821318359375,-0.1938212890625,1.5559619140625005,1.5701368757472558,-0.1318359375,1.0634765625,-1.01806640625,46.13,215.984107110126
-0.0167021484375,-0.1679423828125,1.5896533203125005,1.5985872777198389,-0.12841796875,0.8310546875,-1.5478515625,45.70647058823529,215.4335374581756
0.0213837890625,-0.1425517578125,1.5837939453125005,1.5903400678152575,-0.08056640625,0.62158203125,-1.86474609375,46.27117647058824,215.4335374581756
0.0560517578125,-0.1322978515625,1.5906298828125005,1.597106115816364,-0.01513671875,0.62890625,-1.61865234375,47.02411764705882,215.4335374581756
0.1151337890625,-0.1069072265625,1.5662158203125005,1.574076535709853,0.23095703125,0.583984375,-0.927734375,46.36529411764706,215.4335374581756
0.1727509765625,-0.0751689453125,1.4661181640625005,1.4781731093605674,0.26318359375,0.35888671875,0.03125,46.224117647058826,215.6334969960739
0.2450166015625,-0.0551494140625,1.3386767578125005,1.3620315909772658,0.15087890625,-0.01904296875,1.02880859375,46.13,215.6334969960739
0.3226533203125,-0.0268291015625,1.2385791015625005,1.2801965304697174,0.283203125,-0.458984375,1.708984375,46.224117647058826,215.6334969960739
0.3319306640625,0.0112568359375,1.2014697265625005,1.246528854839095,0.3056640625,-1.11962890625,2.15283203125,46.27117647058824,215.6334969960739
0.2762666015625,0.0434833984375,0.9788134765625,1.0179832331521652,0.47021484375,-1.31787109375,2.564453125,46.27117647058824,215.6334969960739
0.2318330078125,0.0493427734375,0.9148486328125,0.9450551696915878,0.40234375,-1.357421875,2.6103515625,46.13,216.7798770436044
0.1605439453125,0.0683857421875,0.8787158203125001,0.8958752485578045,0.42529296875,-1.23193359375,2.35009765625,46.27117647058824,216.7798770436044
0.0501923828125,0.0864521484375,0.8713916015625001,0.8771069333527782,0.478515625,-0.7236328125,2.12060546875,46.83588235294118,216.7798770436044
-0.0264677734375,0.0493427734375,0.8718798828125001,0.8736760168245332,0.47607421875,-0.162109375,1.59716796875,45.61235294117647,216.7798770436044
-0.0704130859375,-0.0033916015624999,0.8840869140625001,0.8868929908669675,0.30908203125,0.5654296875,1.4462890625,45.61235294117647,217.22640304466117
-0.0777373046875,-0.0414775390625,0.8953173828125001,0.8996425349843032,0.3046875,1.0361328125,1.2841796875,46.36529411764706,217.22640304466117
-0.0313505859375,-0.0634501953125,0.8552783203125001,0.8582014866687138,0.18212890625,1.05810546875,1.248046875,47.02411764705882,217.22640304466117
-0.0142607421875,-0.0780986328125,0.9036181640625,0.9070989756573444,-0.2412109375,1.5673828125,0.48486328125,46.03588235294118,217.22640304466117
-0.0054716796875,-0.1391337890625,0.9148486328125,0.9253843371790942,-0.11572265625,1.6259765625,0.2236328125,46.13,217.22640304466117
0.0135712890625,-0.1684306640625,0.8904345703125001,0.9063259857749636,-0.171875,1.26123046875,0.3544921875,46.41235294117647,217.2483124960183
0.1102509765625,-0.1352275390625,0.8401416015625001,0.8580674075093911,-0.384765625,0.86474609375,-0.38134765625,46.45941176470589,217.2483124960183
0.0589814453125,-0.1357158203125,0.8230517578125001,0.8362486417402976,-0.1572265625,0.6875,-1.072265625,45.61235294117647,217.2483124960183
0.0296845703125,-0.1528056640625,0.7722705078125001,0.7878023114469747,-0.07373046875,0.47802734375,-1.0712890625,46.36529411764706,217.2483124960183
0.0355439453125,-0.1259501953125,0.7610400390625001,0.7722103112519844,-0.10791015625,0.46533203125,-0.96435546875,46.27117647058824,216.9935406283288
0.0335908203125,-0.1083720703125,0.7419970703125001,0.7506214100233335,-0.06982421875,0.47900390625,-0.77197265625,46.83588235294118,216.9935406283288
0.0370087890625,-0.0688212890625,0.7327197265625001,0.7368746284069778,-0.095703125,0.36474609375,-0.71484375,46.08294117647059,216.9935406283288
0.0340791015625,-0.0444072265625,0.7078173828125001,0.7100273476041734,-0.00927734375,0.25048828125,-0.705078125,46.08294117647059,216.9935406283288
0.0135712890625,-0.0370830078125,0.6809619140625001,0.6821058992259953,-0.10791015625,0.1640625,-0.576171875,46.13,216.9935406283288
-0.0206083984375,-0.0356181640625,0.7009814453125001,0.7021882556478308,-0.0625,0.185546875,-0.2568359375,46.27117647058824,216.68535970222536
-0.0142607421875,-0.0287822265625,0.6545947265625001,0.6553823627296265,-0.06982421875,-0.01806640625,0.01220703125,45.61235294117647,216.68535970222536
-0.0079130859375,-0.0297587890625,0.6287158203125001,0.6294694473655894,-0.13916015625,-0.265625,0.14599609375,46.97705882352941,216.68535970222536
-0.0059599609375,-0.0312236328125,0.6453173828125001,0.6460998072591889,-0.22314453125,-0.58349609375,0.02294921875,46.36529411764706,216.68535970222536
-0.0230498046875,-0.0385478515625,0.6931689453125001,0.694622499708914,-0.15234375,-0.826171875,-0.12060546875,46.55352941176471,216.5347108687173
-0.0865263671875,-0.0746806640625,0.7371142578125001,0.745923215132734,-0.16748046875,-0.76171875,-0.2001953125,46.27117647058824,216.5347108687173
-0.1299833984375,-0.1093486328125,0.7620166015625001,0.7807189689153113,-0.0634765625,-0.37890625,-0.0908203125,46.224117647058826,216.5347108687173
-0.1021513671875,-0.1005595703125,0.7668994140625001,0.7801806459334376,-0.19873046875,-0.2451171875,0.037109375,46.27117647058824,216.5347108687173
-0.0796904296875,-0.0956767578125,0.7610400390625001,0.7711592232642632,-0.3037109375,-0.4345703125,0.1767578125,46.08294117647059,216.5347108687173
-0.0860380859375,-0.1083720703125,0.8235400390625001,0.8350839800850393,-0.42041015625,-0.46533203125,0.4453125,45.70647058823529,215.98274547706956
-0.0816435546875,-0.1073955078125,0.8416064453125001,0.8523502061429079,-0.4599609375,-0.572265625,0.64794921875,47.02411764705882,215.98274547706956
-0.1299833984375,-0.1283916015625,0.8694384765625001,0.8884274600373778,-0.54736328125,-0.63232421875,0.8876953125,46.27117647058824,215.98274547706956
-0.1456083984375,-0.0995830078125,0.8943408203125001,0.9115723142009928,-0.6708984375,-0.544921875,0.78125,46.41235294117647,215.98274547706956
-0.1734404296875,-0.0947001953125,0.9392626953125,0.9598250467913996,-0.71240234375,-0.4482421875,0.7509765625,46.27117647058824,215.62390559622472
-0.1636748046875,-0.0854228515625,0.9656298828125,0.9831213433951288,-0.73974609375,-0.44775390625,0.6875,46.64764705882353,215.62390559622472
-0.1475615234375,-0.0644267578125,0.9822314453125,0.9953410583725104,-0.693359375,-0.47265625,0.56884765625,46.27117647058824,215.62390559622472
-0.1583037109375,-0.0458720703125,1.0320361328125005,1.04511381732418,-0.66943359375,-0.41552734375,0.38037109375,46.27117647058824,215.62390559622472
-0.1475615234375,-0.0400126953125,1.0764697265625005,1.0872729607559046,-0.677734375,-0.3193359375,0.2392578125,47.02411764705882,215.62390559622472
-0.1270537109375,-0.0400126953125,1.0989306640625005,1.1069743744396294,-0.6669921875,-0.28173828125,0.126953125,45.61235294117647,216.1114806175173
-0.1260771484375,-0.0146220703124999,1.1243212890625005,1.1314625991775058,-0.54541015625,-0.2646484375,0.04052734375,46.97705882352941,216.1114806175173
-0.1334013671875,0.0044208984375,1.1526416015625005,1.1603439708823649,-0.34228515625,-0.12109375,-0.0283203125,46.45941176470589,216.1114806175173
-0.1524443359375,0.0073505859375,1.1672900390625005,1.1772252723958925,-0.27734375,0.1689453125,-0.0537109375,46.97705882352941,216.1114806175173
-0.1836943359375,0.0005146484375,1.2083056640625005,1.2221892045522469,-0.32080078125,0.40673828125,0.00341796875,46.97705882352941,215.984107110126
-0.2198271484375,-0.0009501953124999,1.2678759765625005,1.2867922792764994,-0.28271484375,0.64013671875,0.5068359375,47.02411764705882,215.984107110126
-0.2554716796875,-0.0082744140624999,1.3196337890625005,1.3441605492968025,-0.24072265625,0.92041015625,0.86279296875,45.94176470588236,215.984107110126
-0.2940458984375,-0.0531962890625,1.3923876953125005,1.4240914049370546,-0.263671875,1.25341796875,1.19189453125,46.64764705882353,215.984107110126
-0.3160185546875,-0.0990947265625,1.5134814453125005,1.549294541733265,-0.2529296875,1.5029296875,1.64501953125,45.61235294117647,215.984107110126
-0.2828154296875,-0.1430400390625,1.5842822265625005,1.6156717468118826,-0.1669921875,1.5849609375,2.08154296875,46.27117647058824,215.3897176052403
-0.1636748046875,-0.1679423828125,1.5627978515625005,1.5802946593855838,-0.025390625,1.2861328125,2.09619140625,45.70647058823529,215.3897176052403
-0.0230498046875,-0.2153056640625,1.5120166015625005,1.527442969761601,0.025390625,1.1396484375,1.78271484375,45.65941176470588,215.3897176052403
0.1664033203125,-0.2714580078125,1.4866259765625005,1.5203408529691502,-0.24658203125,0.9326171875,1.333984375,45.61235294117647,215.3897176052403
0.4173798828125,-0.2865947265625,1.4299853515625005,1.516970866415482,-0.54443359375,0.41845703125,0.59765625,45.94176470588236,214.83644746440729
0.5208955078125,-0.2465556640625,1.3445361328125005,1.4628394436775811,-0.7314453125,-0.20556640625,-0.44580078125,46.03588235294118,214.83644746440729
0.5101533203125,-0.2270244140625,1.2449267578125005,1.3644189705232896,-0.75390625,-0.6845703125,-1.52001953125,45.65941176470588,214.83644746440729
0.4193330078125,-0.2460673828125,1.1394580078125005,1.238851839363087,-0.71630859375,-0.97314453125,-2.13037109375,47.02411764705882,214.83644746440729
0.3040986328125,-0.2675517578125,1.0618212890625005,1.1364525381613348,-0.66552734375,-0.82958984375,-2.4775390625,45.94176470588236,214.83644746440729
0.2147431640625,-0.2807353515625,1.0188525390625005,1.078418963335956,-0.544921875,-0.7705078125,-1.93017578125,46.03588235294118,216.47442047585537
0.1498017578125,-0.3012431640625,0.9627001953125,1.0197939382997072,-0.5107421875,-0.78076171875,-1.0791015625,46.13,216.47442047585537
0.1039033203125,-0.3217509765625,0.9583056640625,1.0162033933544767,-0.416015625,-0.67138671875,-0.36962890625,46.08294117647059,216.47442047585537
0.0975556640625,-0.3193095703125,0.9968798828125,1.051306430133523,-0.384765625,-0.4990234375,0.271484375,46.13,216.47442047585537
0.0863251953125,-0.3061259765625,1.0056689453125005,1.054767832481652,-0.4150390625,-0.5146484375,0.30859375,45.61235294117647,217.2469562431022
0.0882783203125,-0.2319072265625,1.0305712890625005,1.0600241532196568,-0.46044921875,-0.20654296875,-0.033203125,46.45941176470589,217.2469562431022
0.0550751953125,-0.1484111328125,1.0212939453125005,1.0334894601365667,-0.470703125,0.0107421875,-0.34423828125,46.224117647058826,217.2469562431022
0.0384736328125,-0.0976298828125,1.0252001953125005,1.0305567693769044,-0.33544921875,0.36865234375,-0.52734375,46.55352941176471,217.2469562431022
0.0345673828125,-0.0937236328125,0.9890673828125,0.994099246074378,-0.15625,0.49609375,-0.17822265625,46.224117647058826,217.2469562431022
0.0399384765625,-0.0585673828125,1.0842822265625005,1.086597058287465,-0.19580078125,0.33544921875,-0.20703125,46.224117647058826,217.4496723493515
-0.0489287109375,-0.0649150390625,0.9783251953125,0.9816965767658216,0.3232421875,0.08056640625,0.28369140625,46.27117647058824,217.4496723493515
0.0082001953125,0.0171162109375,0.9016650390625,0.901864762892752,0.4267578125,0.330078125,0.80029296875,46.13,217.4496723493515
0.0799775390625,0.0400654296875,0.8630908203125001,0.8677138984240381,0.54931640625,0.361328125,0.513671875,46.27117647058824,217.4496723493515
-0.0225615234375,-0.0351298828125,0.8230517578125001,0.8241100212013485,0.720703125,0.3486328125,0.58349609375,46.224117647058826,216.70726932501464
-0.0416044921875,-0.0712626953125,0.8044970703125001,0.808718023574829,0.8359375,0.3623046875,1.0009765625,46.224117647058826,216.70726932501464
0.0096650390625,-0.0683330078125,0.7498095703125001,0.7529788872664351,0.951171875,0.2734375,1.09814453125,46.83588235294118,216.70726932501464
0.0360322265625,-0.0805400390625,0.7053759765625001,0.7108729053457735,0.978515625,0.20947265625,0.9033203125,45.65941176470588,216.70726932501464
0.0531220703125,-0.1235087890625,0.7000048828125001,0.7127995589864751,1.037109375,0.26171875,0.8427734375,46.55352941176471,216.70726932501464
0.0790009765625,-0.1269267578125,0.6614306640625001,0.6781165677881507,0.8798828125,0.06494140625,0.544921875,46.27117647058824,216.3771870302961
0.0750947265625,-0.1156962890625,0.6648486328125001,0.6790055624315465,0.806640625,0.10009765625,0.2431640625,46.08294117647059,216.3771870302961
0.0702119140625,-0.1279033203125,0.6843798828125001,0.6997605277677023,0.77001953125,0.2705078125,-0.27880859375,45.61235294117647,216.3771870302961
0.0619111328125,-0.1244853515625,0.6731494140625001,0.6873570577017838,0.6689453125,0.4208984375,-0.9833984375,46.41235294117647,216.3771870302961
0.0370087890625,-0.1386455078125,0.6633837890625001,0.6787269545961603,0.5576171875,0.58154296875,-1.58935546875,46.97705882352941,216.29090881188023
0.0238251953125,-0.1581767578125,0.6648486328125001,0.6838210520277974,0.466796875,0.56982421875,-1.72412109375,46.27117647058824,216.29090881188023
0.0111298828125,-0.1405986328125,0.6819384765625001,0.696370544793896,0.41943359375,0.56396484375,-1.955078125,46.08294117647059,216.29090881188023
-0.0059599609375,-0.1454814453125,0.7200244140625001,0.734598889810376,0.4208984375,0.44287109375,-1.83544921875,46.224117647058826,216.29090881188023
-0.0318388671875,-0.1532939453125,0.7634814453125001,0.7793694018048944,0.33203125,0.3310546875,-1.650390625,45.61235294117647,216.29090881188023
-0.0323271484375,-0.1586650390625,0.7927783203125001,0.809145910392133,0.322265625,0.173828125,-1.5546875,46.88294117647059,216.15666183305456
-0.0225615234375,-0.1738017578125,0.8005908203125001,0.8195497147380246,0.2783203125,0.08740234375,-1.49169921875,46.36529411764706,216.15666183305456
-0.0484404296875,-0.1840556640625,0.8206103515625001,0.8423920178831987,0.22412109375,-0.14453125,-1.14697265625,46.27117647058824,216.15666183305456
-0.0850615234375,-0.1962626953125,0.8460009765625001,0.8726237222798492,0.177734375,-0.36669921875,-0.63037109375,46.27117647058824,216.15666183305456
-0.1143583984375,-0.2065166015625,0.8586962890625001,0.8905539101389781,0.1416015625,-0.4482421875,-0.498046875,46.83588235294118,215.69922657659097
-0.1739287109375,-0.2284892578125,0.8826220703125001,0.9281596071941568,0.0,-0.35205078125,-0.1728515625,47.02411764705882,215.69922657659097
-0.1832060546875,-0.2436259765625,0.8923876953125001,0.9430131884949152,0.08056640625,-0.25439453125,0.0654296875,46.224117647058826,215.69922657659097
-0.2007841796875,-0.2563212890625,0.9304736328125,0.985797175588739,0.03125,-0.1552734375,0.1689453125,46.13,215.69922657659097
-0.2354521484375,-0.2563212890625,0.9719775390625,1.0324139934505392,0.0244140625,0.02734375,0.30615234375,46.83588235294118,215.69922657659097
-0.2491240234375,-0.2446025390625,1.0193408203125005,1.0774733820957578,0.07763671875,0.24267578125,0.39111328125,46.83588235294118,215.6348605387809
-0.2208037109375,-0.2304423828125,1.0676806640625005,1.1143607903067192,0.0009765625,0.4951171875,0.50146484375,46.08294117647059,215.6348605387809
-0.1358427734375,-0.2333720703125,1.0999072265625005,1.1325686245616844,0.1640625,0.68505859375,0.482421875,46.03588235294118,215.6348605387809
-0.0787138671875,-0.2607158203125,1.1453173828125005,1.1772512557739347,0.17138671875,0.8271484375,0.375,46.97705882352941,215.6348605387809
-0.0376982421875,-0.2465556640625,1.1965869140625005,1.2223056474756815,0.2470703125,0.97509765625,0.2568359375,46.41235294117647,215.7731843539564
-0.0787138671875,-0.2314189453125,1.2454150390625005,1.2691765915979585,0.14306640625,0.83349609375,0.4130859375,45.61235294117647,215.7731843539564
-0.0474638671875,-0.2358134765625,1.2776416015625005,1.3000880264274708,0.177734375,1.0478515625,0.1630859375,45.65941176470588,215.7731843539564
-0.0171904296875,-0.2187236328125,1.3464892578125005,1.3642466272005205,0.408203125,1.333984375,-0.82177734375,45.65941176470588,215.7731843539564
-0.0420927734375,-0.2319072265625,1.3709033203125005,1.3910171375477045,0.45556640625,1.318359375,-1.5869140625,46.224117647058826,215.7731843539564
-0.1041044921875,-0.2128642578125,1.4509814453125005,1.4702027384646092,0.47509765625,1.38427734375,-1.8984375,46.224117647058826,214.8912223688677
-0.1299833984375,-0.1830791015625,1.6008837890625005,1.6165526738654086,0.359375,1.61474609375,-1.9326171875,45.65941176470588,214.8912223688677
-0.0621123046875,-0.1567119140625,1.7117236328125005,1.7200041736959677,0.5498046875,1.51953125,-2.353515625,46.27117647058824,214.8912223688677
0.0003876953125,-0.1640361328125,1.6917041015625005,1.6996384234357382,0.515625,0.9326171875,-2.62646484375,46.224117647058826,214.8912223688677
0.0248017578125,-0.1401103515625,1.6604541015625005,1.666539486841307,0.51123046875,0.58544921875,-2.25341796875,46.788823529411765,214.359886488169
0.0560517578125,-0.1205791015625,1.6360400390625005,1.6414347774746088,0.5078125,0.5859375,-1.3623046875,46.224117647058826,214.359886488169
0.1707978515625,-0.1093486328125,1.5505908203125005,1.5637969566518926,0.53173828125,0.4140625,-0.87353515625,46.224117647058826,214.359886488169
0.2674775390625,-0.1069072265625,1.4168017578125005,1.4457871938618103,0.5400390625,0.05419921875,-0.40673828125,46.08294117647059,214.359886488169
0.3192353515625,-0.0639384765625,1.2708056640625005,1.3118484570580928,0.46875,-0.37109375,0.10205078125,45.70647058823529,214.359886488169
0.3587861328125,0.0161396484375,1.1062548828125005,1.1630940817907782,0.45703125,-0.724609375,0.69091796875,45.61235294117647,215.33630755082297
0.3397431640625,0.0854755859375,0.9753955078125,1.036401413535973,0.51611328125,-0.9560546875,1.25048828125,46.03588235294118,215.33630755082297
0.3084931640625,0.1186787109375,0.9475634765625,1.0035582747495488,0.62109375,-0.9208984375,2.39208984375,46.03588235294118,215.33630755082297
0.3099580078125,0.1113544921875,0.9280322265625,0.9847424044266506,0.72802734375,-0.69775390625,2.90869140625,47.02411764705882,215.33630755082297
0.2928681640625,0.0713154296875,0.9285205078125,0.976221278943066,0.68701171875,-0.24755859375,2.72412109375,46.97705882352941,217.03464496964372
0.2411103515625,0.0161396484375,0.9524462890625,0.9826233375160626,0.63232421875,0.4912109375,1.80224609375,46.224117647058826,217.03464496964372
0.1248994140625,-0.0527080078125,0.9763720703125,0.985738513707888,0.7265625,1.0234375,0.86572265625,46.224117647058826,217.03464496964372
0.0145478515625,-0.1269267578125,0.9724658203125,0.9808220090872456,0.7001953125,1.22314453125,0.34033203125,46.83588235294118,217.03464496964372
-0.0420927734375,-0.1796611328125,0.9851611328125,1.0022935607014245,0.45263671875,1.318359375,0.4736328125,46.88294117647059,217.03464496964372
0.0179658203125,-0.1894267578125,0.9753955078125,0.9937814970785388,0.26123046875,1.27099609375,0.69384765625,46.36529411764706,217.14147838761292
0.0736298828125,-0.2104228515625,0.9812548828125,1.0062605433713725,0.2392578125,1.3076171875,0.18212890625,46.27117647058824,217.14147838761292
0.0423798828125,-0.2231181640625,0.9358447265625,0.9630073321821918,0.103515625,1.07666015625,-0.41064453125,46.27117647058824,217.14147838761292
-0.0064482421875,-0.2157939453125,0.8953173828125001,0.9209787308223072,0.224609375,0.95703125,-0.75634765625,46.27117647058824,217.14147838761292
-0.0337919921875,-0.2387431640625,0.8528369140625001,0.8862680176505423,0.3359375,1.1279296875,-0.81201171875,46.83588235294118,217.5455540661107
0.0243134765625,-0.1830791015625,0.8240283203125001,0.8444712992449936,0.328125,1.07470703125,-1.23486328125,47.02411764705882,217.5455540661107
0.0125947265625,-0.1547587890625,0.7932666015625001,0.8083197455733676,0.45849609375,1.1181640625,-1.4853515625,46.788823529411765,217.5455540661107
0.0150361328125,-0.1474345703125,0.7058642578125001,0.721254038651,0.11669921875,0.5673828125,-1.34326171875,46.08294117647059,217.5455540661107
0.0086884765625,-0.1117900390625,0.6951220703125001,0.704107374690898,-0.2060546875,0.46630859375,-0.90478515625,46.13,217.5455540661107
0.0462861328125,-0.0697978515625,0.6829150390625001,0.6880313196005057,-0.31982421875,0.44775390625,-0.73388671875,46.224117647058826,217.2469562431022
0.0399384765625,-0.0644267578125,0.6438525390625001,0.6482992990043966,-0.29931640625,0.3505859375,-0.56884765625,46.224117647058826,217.2469562431022
0.0589814453125,-0.0468486328125,0.6194384765625001,0.6240013073172386,-0.3291015625,0.265625,-0.37353515625,46.27117647058824,217.2469562431022
0.0638642578125,-0.0282939453125,0.5940478515625001,0.5981404857667723,-0.31787109375,-0.017578125,-0.25,45.70647058823529,217.2469562431022
0.0394501953125,-0.0282939453125,0.5896533203125001,0.5916484626930902,-0.30908203125,-0.28076171875,-0.08837890625,46.13,216.94972164860525
-0.1080107421875,-0.0820048828125,0.6653369140625001,0.6790171797879617,-0.22314453125,-0.12353515625,0.3427734375,45.61235294117647,216.94972164860525
-0.1397490234375,-0.0771220703125,0.6668017578125001,0.685639983885757,-0.05712890625,0.30419921875,0.779296875,46.27117647058824,216.94972164860525
-0.1568388671875,-0.0712626953125,0.6790087890625001,0.700521047241254,-0.029296875,0.56494140625,0.89794921875,46.27117647058824,216.94972164860525
-0.1690458984375,-0.0883525390625,0.6965869140625001,0.7222298912260895,-0.0625,0.7177734375,0.9453125,45.65941176470588,216.94972164860525
-0.1788115234375,-0.0981181640625,0.7244189453125001,0.7525845755532797,-0.13818359375,0.6689453125,0.931640625,46.36529411764706,216.1539387927648
-0.1631865234375,-0.1049541015625,0.7732470703125001,0.7972178100201185,-0.0576171875,0.724609375,1.32373046875,46.27117647058824,216.1539387927648
-0.1099638671875,-0.1025126953125,0.7781298828125001,0.7925194125779246,-0.056640625,0.56787109375,1.67529296875,46.83588235294118,216.1539387927648
-0.0831083984375,-0.0927470703125,0.8196337890625001,0.8290407547975847,-0.0830078125,0.482421875,1.92236328125,46.13,216.1539387927648
-0.0723662109375,-0.1020244140625,0.8499072265625001,0.8590623628779275,-0.03515625,0.4794921875,2.33203125,46.36529411764706,215.9937002810043
-0.0337919921875,-0.0824931640625,0.8582080078125001,0.8628255939218207,-0.16015625,0.32421875,2.4287109375,46.224117647058826,215.9937002810043
-0.0440458984375,-0.0629619140625,0.8816455078125001,0.884987596092477,-0.2919921875,0.20458984375,2.1787109375,46.83588235294118,215.9937002810043
-0.1031279296875,-0.0854228515625,0.9700244140625,0.979224079221909,-0.3955078125,0.146484375,2.1328125,46.08294117647059,215.9937002810043
-0.1255888671875,-0.0688212890625,1.0359423828125005,1.0457942215832443,-0.3994140625,0.08740234375,1.9189453125,46.03588235294118,215.9937002810043
-0.1304716796875,-0.0737041015625,1.0803759765625005,1.0907187559224372,-0.3427734375,-0.01904296875,1.654296875,46.83588235294118,216.2402165708141
-0.1265654296875,-0.0702861328125,1.1140673828125005,1.123434502721192,-0.3662109375,-0.11083984375,1.40966796875,47.02411764705882,216.2402165708141
-0.1133818359375,-0.0536845703125,1.1492236328125005,1.1560503587754971,-0.32080078125,-0.16357421875,1.0849609375,47.02411764705882,216.2402165708141
-0.1241240234375,-0.0483134765625,1.1741259765625005,1.1816567919877214,-0.35791015625,-0.22216796875,0.78466796875,45.61235294117647,216.2402165708141
-0.1651396484375,-0.0170634765625,1.1941455078125005,1.2056308554226844,-0.36279296875,-0.1259765625,0.58544921875,46.08294117647059,216.33608860772333
-0.2085966796875,0.0014912109375,1.2146533203125005,1.232435591433845,-0.37353515625,-0.123046875,0.416015625,46.27117647058824,216.33608860772333
-0.2378935546875,-0.0033916015624999,1.2127001953125005,1.2358181945715112,-0.1982421875,0.00927734375,0.26318359375,46.224117647058826,216.33608860772333
-0.2427763671875,-0.0170634765625,1.2127001953125005,1.2368804673080318,-0.19580078125,0.10986328125,0.12109375,46.08294117647059,216.33608860772333
-0.2442412109375,-0.0585673828125,1.2297900390625005,1.2551762615772608,-0.3330078125,0.23681640625,0.08447265625,46.36529411764706,216.33608860772333
-0.2540068359375,-0.1122783203125,1.2527392578125005,1.2831529690492052,-0.55078125,0.36865234375,0.07763671875,46.08294117647059,215.79509427540648
-0.2769560546875,-0.1484111328125,1.3074267578125005,1.3446543227219632,-0.75927734375,0.62548828125,0.32666015625,45.70647058823529,215.79509427540648
-0.3350615234375,-0.1781962890625,1.4368212890625005,1.4860940611640736,-0.92236328125,1.19580078125,1.06689453125,46.27117647058824,215.79509427540648
-0.3272490234375,-0.1757548828125,1.5632861328125005,1.606812134388179,-0.8056640625,1.52685546875,2.017578125,46.224117647058826,215.79509427540648
-0.2378935546875,-0.1488994140625,1.5642626953125005,1.589239490705016,-0.51318359375,1.42724609375,2.61962890625,46.27117647058824,215.2938525945937
-0.1294951171875,-0.0971416015625,1.4592822265625005,1.4682336642683074,-0.24169921875,1.2255859375,2.681640625,46.45941176470589,215.2938525945937
0.0374970703125,-0.0790751953125,1.3894580078125005,1.392211360487341,-0.0986328125,1.388671875,2.41845703125,46.224117647058826,215.2938525945937
0.3060517578125,-0.1303447265625,1.3909228515625005,1.4301481759599357,-0.02197265625,1.51513671875,2.00927734375,47.02411764705882,215.2938525945937
0.5267548828125,-0.2104228515625,1.3259814453125005,1.442211938773054,-0.00927734375,0.96044921875,1.21142578125,46.224117647058826,215.2938525945937
0.6190400390625,-0.2577861328125,1.1838916015625005,1.3606114744787166,-0.03173828125,0.06298828125,-0.13916015625,46.27117647058824,215.98546917943656
0.5663056640625,-0.2861064453125,1.0569384765625005,1.2327521837080162,-0.00048828125,-0.50537109375,-1.60986328125,45.61235294117647,215.98546917943656
0.4915986328125,-0.2919658203125,0.9758837890625,1.1310448380894775,-0.15283203125,-1.1005859375,-2.458984375,46.41235294117647,215.98546917943656
0.4046845703125,-0.3114970703125,0.9202197265625,1.0524278461809369,-0.1259765625,-1.48291015625,-2.8291015625,46.08294117647059,215.98546917943656
0.2879853515625,-0.3403056640625,0.9002001953125001,1.0045416364433375,-0.16162109375,-1.64697265625,-2.560546875,46.83588235294118,217.6743006275588
0.1790986328125,-0.3627666015625,0.9055712890625,0.991834304235758,-0.28173828125,-1.64404296875,-1.92431640625,47.02411764705882,217.6743006275588
0.0907197265625,-0.3285869140625,0.9504931640625,1.009770609500115,-0.22216796875,-1.4970703125,-1.18505859375,45.70647058823529,217.6743006275588
0.0062470703125,-0.2665751953125,0.9797900390625,1.0154259605158231,-0.26904296875,-0.83837890625,-0.72900390625,46.224117647058826,217.6743006275588
-0.0542998046875,-0.2162822265625,1.0134814453125005,1.0377240048821497,-0.32470703125,-0.27734375,-0.541015625,46.13,217.6743006275588
-0.0845732421875,-0.1635478515625,1.0354541015625005,1.0516965957382478,-0.3828125,0.2919921875,-0.701171875,46.27117647058824,217.98250745283624
-0.0889677734375,-0.1166728515625,0.9924853515625,1.0032721425756277,-0.62890625,0.5322265625,-1.0546875,46.27117647058824,217.98250745283624
-0.0591826171875,-0.0834697265625,1.0315478515625005,1.0366102196548088,-0.4599609375,0.87744140625,-0.5458984375,46.27117647058824,217.98250745283624
-0.0694365234375,-0.0800517578125,1.0315478515625005,1.0369767040677278,-0.10546875,0.74755859375,0.072265625,45.65941176470588,217.98250745283624
0.0082001953125,-0.0405009765625,0.9573291015625,0.9582205283775456,0.2158203125,0.34375,0.69580078125,46.224117647058826,217.41816380314475
0.0389619140625,2.6367187500001e-05,0.9236376953125,0.9244590978755246,0.3134765625,0.0751953125,0.9453125,46.27117647058824,217.41816380314475
0.0316376953125,-0.0361064453125,0.8899462890625001,0.8912401565088425,0.5693359375,-0.10400390625,1.27685546875,45.70647058823529,217.41816380314475
0.0394501953125,-0.0605205078125,0.8474658203125001,0.8505394560947869,0.64453125,-0.36669921875,1.44873046875,46.03588235294118,217.41816380314475
0.0038056640625,-0.1205791015625,0.8337939453125001,0.8424761991014112,0.7958984375,-0.39111328125,1.61181640625,46.45941176470589,217.41816380314475
0.0409150390625,-0.1181376953125,0.7727587890625001,0.7828069375960949,0.8623046875,-0.498046875,1.3701171875,46.224117647058826,217.00449540799735
0.0379853515625,-0.1347392578125,0.7371142578125001,0.750289933025669,0.82958984375,-0.4814453125,0.84765625,46.36529411764706,217.00449540799735
0.0316376953125,-0.1513408203125,0.6960986328125001,0.7130626159468597,0.82275390625,-0.4453125,0.54296875,46.97705882352941,217.00449540799735
0.0370087890625,-0.1591533203125,0.6555712890625001,0.6756279633625549,0.74072265625,-0.52001953125,0.45068359375,47.02411764705882,217.00449540799735
0.0091767578125,-0.1723369140625,0.6492236328125001,0.6717704594835908,0.6923828125,-0.482421875,0.44775390625,46.224117647058826,216.7278200730142
0.0169892578125,-0.1669658203125,0.6404345703125001,0.662059407368404,0.60888671875,-0.49609375,0.5673828125,45.61235294117647,216.7278200730142
0.0145478515625,-0.1425517578125,0.6453173828125001,0.6610349220733296,0.515625,-0.42333984375,0.314453125,46.224117647058826,216.7278200730142
0.0204072265625,-0.1381572265625,0.6912158203125001,0.7051830857285911,0.4609375,-0.27587890625,-0.11328125,46.224117647058826,216.7278200730142
-0.0030302734374999,-0.1337626953125,0.7053759765625001,0.7179532780939658,0.3154296875,-0.17041015625,-0.59375,46.224117647058826,216.7278200730142
-0.0240263671875,-0.1279033203125,0.7195361328125001,0.7312104841220196,0.26171875,-0.068359375,-0.8603515625,45.61235294117647,216.4196462184148
-0.0235380859375,-0.1103251953125,0.7307666015625001,0.7394224206565203,0.21337890625,0.0322265625,-0.96533203125,46.27117647058824,216.4196462184148
-0.0210966796875,-0.1127666015625,0.7302783203125001,0.7392346051425346,0.27783203125,0.072265625,-0.80615234375,46.27117647058824,216.4196462184148
-0.0274443359375,-0.1254619140625,0.7693408203125001,0.7799866545360805,0.3359375,0.060546875,-0.423828125,46.97705882352941,216.4196462184148
-0.0220732421875,-0.1274150390625,0.7722705078125001,0.7830220670178736,0.3896484375,-0.01220703125,-0.283203125,46.41235294117647,216.21966805888965
-0.0562529296875,-0.1454814453125,0.7961962890625001,0.811330865766573,0.41796875,0.0,-0.21728515625,46.27117647058824,216.21966805888965
-0.0948271484375,-0.1586650390625,0.8445361328125001,0.8645276527256864,0.3466796875,0.16064453125,-0.234375,45.61235294117647,216.21966805888965
-0.1221708984375,-0.1889384765625,0.8416064453125001,0.871162949821861,0.509765625,0.1279296875,-0.1513671875,47.02411764705882,216.21966805888965
-0.1290068359375,-0.1874736328125,0.8787158203125001,0.9077062407992968,0.42236328125,-0.0078125,-0.06689453125,46.224117647058826,216.21966805888965
-0.1495146484375,-0.1874736328125,0.9246142578125,0.9552028679016128,0.45068359375,-0.05615234375,0.09228515625,46.36529411764706,215.97587671163168
-0.1622099609375,-0.1864970703125,0.9627001953125,0.9939239884001274,0.4365234375,0.0205078125,0.06982421875,47.02411764705882,215.97587671163168
-0.1900419921875,-0.1874736328125,1.0208056640625005,1.0551334160079435,0.47021484375,0.24853515625,0.05615234375,46.27117647058824,215.97587671163168
-0.1797880859375,-0.1801494140625,1.0847705078125005,1.114228262903038,0.4931640625,0.427734375,0.11083984375,45.61235294117647,215.97587671163168
-0.1495146484375,-0.1723369140625,1.1262744140625005,1.1491512945725657,0.587890625,0.58544921875,0.025390625,46.13,216.14570688179148
-0.1036162109375,-0.1698955078125,1.1365283203125005,1.1538186276951266,0.74951171875,0.70751953125,-0.00390625,46.36529411764706,216.14570688179148
-0.0879912109375,-0.2030986328125,1.1663134765625005,1.1871304197365429,0.59033203125,0.8212890625,-0.3271484375,46.83588235294118,216.14570688179148
-0.1065458984375,-0.2294658203125,1.1985400390625005,1.224950944487771,0.54345703125,0.93310546875,-0.439453125,46.08294117647059,216.14570688179148
-0.1334013671875,-0.2533916015625,1.2273486328125005,1.260312617955012,0.51611328125,0.9306640625,-0.47607421875,45.61235294117647,216.14570688179148
-0.1451201171875,-0.2738994140625,1.2502978515625005,1.288148071868331,0.5185546875,0.9873046875,-0.5546875,46.97705882352941,215.99506197517616
-0.1417021484375,-0.2846416015625,1.2922900390625005,1.3308320274444956,0.64306640625,1.05859375,-0.8388671875,46.13,215.99506197517616
-0.1373076171875,-0.2797587890625,1.2551806640625005,1.2932891638113282,0.67431640625,0.94384765625,-1.154296875,46.27117647058824,215.99506197517616
-0.1685576171875,-0.2572978515625,1.3093798828125005,1.3450239894680998,0.5029296875,1.12353515625,-1.21240234375,46.224117647058826,215.99506197517616
-0.2120146484375,-0.2226298828125,1.4392626953125005,1.4717307437134644,0.3388671875,1.623046875,-1.130859375,46.08294117647059,215.54035815163067
-0.2066435546875,-0.1933330078125,1.6018603515625005,1.6266640084884312,0.14306640625,2.18798828125,-1.25634765625,45.70647058823529,215.54035815163067
-0.0943388671875,-0.1625712890625,1.6321337890625005,1.6429211640517565,0.181640625,1.7255859375,-2.0146484375,45.70647058823529,215.54035815163067
-0.1314482421875,-0.1659892578125,1.5593798828125005,1.573688880625283,0.0439453125,1.30615234375,-2.52978515625,46.36529411764706,215.54035815163067
0.0482392578125,-0.1420634765625,1.5520556640625005,1.5592901723912114,0.0546875,1.333984375,-2.62255859375,46.83588235294118,215.54035815163067
0.1937470703125,-0.1357158203125,1.5525439453125005,1.570461528743788,0.18212890625,1.2880859375,-1.45458984375,46.27117647058824,215.54035815163067
0.4510712890625,-0.1010478515625,1.3953173828125005,1.4698933889573855,0.15869140625,0.73046875,-0.2880859375,46.36529411764706,215.54035815163067
0.5316376953125,-0.0668681640625,1.2795947265625005,1.3872536374754387,0.0673828125,0.02685546875,0.2568359375,45.61235294117647,215.54035815163067
0.4183564453125,-0.0141337890624999,1.1882861328125005,1.2598594416688955,0.0654296875,-0.65869140625,1.04052734375,45.65941176470588,215.54035815163067
0.3377900390625,0.0595966796875,1.1072314453125005,1.1591442309775035,0.2978515625,-1.0185546875,1.51025390625,46.224117647058826,217.0264050090244
0.3348603515625,0.0967060546875,0.9739306640625,1.034419863722176,0.44677734375,-1.3193359375,1.689453125,46.88294117647059,217.0264050090244
0.2855439453125,0.1347919921875,0.9172900390625,0.9701160969831322,0.45654296875,-1.5615234375,1.88916015625,46.224117647058826,217.0264050090244
0.2523408203125,0.0376240234375,0.9299853515625,0.9643465201142368,0.5087890625,-1.58984375,1.65283203125,46.27117647058824,217.0264050090244
0.0985322265625,0.1054951171875,0.9993212890625,1.0096934476341346,0.54931640625,-0.99951171875,1.6669921875,46.27117647058824,217.0264050090244
0.0287080078125,0.0205341796875,1.0061572265625005,1.006776125467794,0.5,-0.13232421875,1.53125,45.61235294117647,217.59897252898125
-0.0196318359375,-0.0697978515625,1.0266650390625005,1.02922215847611,0.3974609375,0.619140625,1.09375,45.61235294117647,217.59897252898125
-0.1334013671875,-0.1747783203125,1.0627978515625005,1.0853030264882797,0.49658203125,1.03125,1.21435546875,46.36529411764706,217.59897252898125
-0.1382841796875,-0.2631572265625,1.0554736328125005,1.09653947936512,0.3466796875,1.3427734375,1.697265625,46.224117647058826,217.59897252898125
0.0326142578125,-0.2616923828125,0.9895556640625,1.0240932600661523,0.0107421875,1.3125,1.1953125,46.224117647058826,216.93876693840969
0.1624970703125,-0.2255595703125,0.9529345703125,0.9926563921702084,-0.21630859375,1.3466796875,-0.02001953125,46.13,216.93876693840969
0.1488251953125,-0.2411845703125,0.8953173828125001,0.9391017791926782,-0.3544921875,0.94580078125,-0.61181640625,46.27117647058824,216.93876693840969
0.0868134765625,-0.2314189453125,0.8494189453125001,0.8846489996706137,-0.39794921875,0.48046875,-0.5458984375,46.224117647058826,216.93876693840969
0.0482392578125,-0.1962626953125,0.8225634765625001,0.8470281840294421,-0.3984375,0.31396484375,-0.587890625,47.02411764705882,216.93876693840969
0.0653291015625,-0.1435283203125,0.7854541015625001,0.8011282143976988,-0.4697265625,0.2275390625,-1.041015625,46.224117647058826,217.69621014622456
0.0306611328125,-0.1327861328125,0.7395556640625001,0.7520072089944152,-0.52001953125,0.1513671875,-1.25048828125,47.02411764705882,217.69621014622456
0.0218720703125,-0.0932353515625,0.7014697265625001,0.7079766913708435,-0.650390625,0.1171875,-1.13134765625,45.70647058823529,217.69621014622456
0.0106416015625,-0.0605205078125,0.6819384765625001,0.6847014395823053,-0.70166015625,0.1494140625,-0.7275390625,45.61235294117647,217.69621014622456
-0.0171904296875,-0.0512431640625,0.6609423828125001,0.6631487058977364,-0.66552734375,0.17333984375,-0.03857421875,46.36529411764706,216.9935406283288
-0.0235380859375,-0.0448955078125,0.6580126953125001,0.6599623893100003,-0.55029296875,0.2119140625,0.77294921875,46.224117647058826,216.9935406283288
-0.0001005859374999,-0.0209697265625,0.6521533203125001,0.6524903775108528,-0.4921875,0.201171875,1.05859375,46.224117647058826,216.9935406283288
0.0018525390625,-0.0092509765624999,0.6580126953125001,0.6580803291853959,-0.3974609375,0.05810546875,1.26611328125,46.224117647058826,216.9935406283288
-0.0084013671875,-0.0155986328124999,0.6653369140625001,0.665572768020484,-0.251953125,-0.048828125,1.43212890625,46.83588235294118,216.9935406283288
0.0003876953125,-0.0116923828124999,0.6736376953125001,0.6737392720254818,-0.1904296875,-0.3046875,1.51953125,46.97705882352941,216.7278200730142
-0.0523466796875,-0.0409892578125,0.7151416015625001,0.7182254551432321,-0.146484375,-0.29248046875,1.53173828125,45.65941176470588,216.7278200730142
-0.0865263671875,-0.0678447265625,0.7546923828125001,0.7626600237433555,0.1533203125,-0.1845703125,1.822265625,46.224117647058826,216.7278200730142
-0.0323271484375,-0.0488017578125,0.7258837890625001,0.72824029778324,0.1357421875,-0.24462890625,1.810546875,45.61235294117647,216.7278200730142
-0.0289091796875,-0.0497783203125,0.7205126953125001,0.7228085264783625,0.0810546875,-0.2744140625,1.58203125,47.02411764705882,216.21966805888965
-0.0333037109375,-0.0580791015625,0.7083056640625001,0.7114627417817008,0.01806640625,-0.248046875,1.2431640625,45.70647058823529,216.21966805888965
-0.0557646484375,-0.0888408203125,0.7468798828125001,0.7542094846388301,-0.1728515625,-0.2490234375,0.9873046875,47.02411764705882,216.21966805888965
-0.1021513671875,-0.1156962890625,0.7849658203125001,0.7999949200963623,-0.234375,-0.08349609375,1.40478515625,46.03588235294118,216.21966805888965
-0.1075224609375,-0.1113017578125,0.8420947265625001,0.8561966417842226,-0.3603515625,-0.13134765625,1.8466796875,46.08294117647059,216.21966805888965
-0.1011748046875,-0.0751689453125,0.8801806640625001,0.8891595542041096,-0.43994140625,-0.09130859375,2.03515625,46.97705882352941,215.86905271772685
-0.0992216796875,-0.0683330078125,0.9275439453125,0.9353352939788973,-0.572265625,-0.1337890625,1.83203125,46.224117647058826,215.86905271772685
-0.1163115234375,-0.0610087890625,0.8381884765625001,0.8484163866106014,-0.62255859375,-0.2724609375,1.6630859375,45.65941176470588,215.86905271772685
-0.1426787109375,-0.0619853515625,0.9895556640625,1.001708445926902,-0.67236328125,-0.48974609375,1.560546875,45.65941176470588,215.86905271772685
-0.1797880859375,-0.0502666015625,1.0100634765625005,1.0271702457544405,-0.6689453125,-0.52734375,1.3828125,46.224117647058826,216.0799774659968
-0.2056669921875,-0.0468486328125,1.0520556640625005,1.0729933953001958,-0.5927734375,-0.3837890625,1.24658203125,46.27117647058824,216.0799774659968
-0.1944365234375,-0.0575908203125,1.0842822265625005,1.1030821415787952,-0.56787109375,-0.18212890625,1.22705078125,45.65941176470588,216.0799774659968
-0.1514677734375,-0.0590556640625,1.1199267578125005,1.131665145134547,-0.5439453125,-0.12744140625,1.13671875,46.41235294117647,216.0799774659968
-0.1031279296875,-0.0502666015625,1.1482470703125005,1.1539642263066534,-0.44775390625,-0.11669921875,0.99560546875,46.03588235294118,216.0799774659968
-0.0767607421875,-0.0268291015625,1.1526416015625005,1.1555062413870347,-0.35791015625,-0.01220703125,0.51513671875,46.27117647058824,216.79219021425024
-0.1128935546875,2.6367187500001e-05,1.1809619140625005,1.186345648557524,-0.28125,0.30810546875,0.326171875,46.27117647058824,216.79219021425024
-0.1612333984375,0.0229755859375,1.2419970703125005,1.252629557764669,-0.2138671875,0.50927734375,0.423828125,45.61235294117647,216.79219021425024
-0.1919951171875,0.0410419921875,1.2927783203125005,1.307601757270374,-0.0263671875,0.87939453125,0.583984375,45.89470588235295,216.79219021425024
-0.2095732421875,0.0273701171875,1.3137744140625005,1.3306664789499674,0.1240234375,0.98486328125,0.65087890625,46.788823529411765,216.2388556524501
-0.2466826171875,2.6367187500001e-05,1.3811572265625005,1.4030137557428013,-0.0693359375,1.30078125,0.6923828125,45.89470588235295,216.2388556524501
-0.3086943359375,-0.0551494140625,1.4856494140625005,1.5183832956192522,-0.07080078125,1.66357421875,1.03369140625,46.788823529411765,216.2388556524501
-0.2950224609375,-0.1000712890625,1.6023486328125005,1.6323521851697131,-0.03564453125,1.91357421875,1.521484375,46.88294117647059,216.2388556524501
-0.1827177734375,-0.1547587890625,1.6467822265625005,1.6640996872916585,0.01611328125,1.48193359375,1.7568359375,46.27117647058824,216.2388556524501
-0.0752958984375,-0.1591533203125,1.6028369140625005,1.6124780385386346,0.1259765625,0.9755859375,1.63916015625,45.70647058823529,215.06103638008588
0.0062470703125,-0.1767314453125,1.4954150390625005,1.5058350403361032,0.0732421875,0.9482421875,1.31787109375,46.03588235294118,215.06103638008588
0.1795869140625,-0.1904033203125,1.4358447265625005,1.4595050403769962,-0.271484375,1.1513671875,0.9365234375,46.27117647058824,215.06103638008588
0.4613251953125,-0.1601298828125,1.4285205078125005,1.5096798854196027,-0.40478515625,0.962890625,0.201171875,46.27117647058824,215.06103638008588
0.6322236328125,-0.1796611328125,1.3347705078125005,1.487816236319575,-0.38427734375,0.275390625,-1.181640625,46.08294117647059,215.18976444491727
0.5819306640625,-0.2065166015625,1.1975634765625005,1.347386613000741,-0.30810546875,-0.4169921875,-2.3271484375,46.36529411764706,215.18976444491727
0.5135712890625,-0.2455791015625,1.1047900390625005,1.242829672354697,-0.23291015625,-0.9228515625,-3.025390625,45.61235294117647,215.18976444491727
0.4603486328125,-0.2655986328125,1.0144580078125005,1.1452460639963422,-0.0625,-1.37060546875,-3.56298828125,46.27117647058824,215.18976444491727
0.3807587890625,-0.2817119140625,0.9338916015625,1.0471353214566257,0.1171875,-1.6630859375,-3.5751953125,46.88294117647059,215.18976444491727
0.2806611328125,-0.3119853515625,0.8772509765625001,0.9724581260604656,0.20849609375,-1.650390625,-3.19140625,46.36529411764706,216.83465091349024
0.2147431640625,-0.3461650390625,0.8884814453125001,0.9774170754827772,0.060546875,-1.46484375,-2.30126953125,45.65941176470588,216.83465091349024
0.1136689453125,-0.3432353515625,0.9485400390625,1.0151154325471454,-0.0361328125,-1.3447265625,-1.16064453125,46.08294117647059,216.83465091349024
0.0550751953125,-0.2856181640625,1.0115283203125005,1.0525210475688225,-0.16357421875,-0.82666015625,-0.3798828125,46.97705882352941,216.83465091349024
0.0101533203125,-0.2177470703125,1.0349658203125005,1.0576725040191657,-0.20166015625,-0.2333984375,-0.333984375,47.02411764705882,217.47158177325983
-0.0245146484375,-0.1562236328125,0.9929736328125,1.005486661720583,-0.2509765625,0.05029296875,-0.91796875,45.70647058823529,217.47158177325983
-0.0523466796875,-0.0990947265625,0.9968798828125,1.0031597282900997,-0.45703125,0.51220703125,-1.517578125,46.45941176470589,217.47158177325983
-0.1114287109375,-0.1225322265625,1.0022509765625005,1.0158432576869534,-0.150390625,0.763671875,-1.04541015625,46.36529411764706,217.47158177325983
-0.0860380859375,-0.0956767578125,0.9959033203125,1.0041812673152006,0.04345703125,0.7724609375,-0.33984375,46.36529411764706,217.47158177325983
-0.0323271484375,-0.0326884765625,0.9143603515625,0.9155153922985544,0.4677734375,0.42236328125,0.42138671875,46.224117647058826,217.5455540661107
-0.1294951171875,0.0239521484375,0.8958056640625001,0.905433862055442,0.50537109375,0.52294921875,0.90625,46.83588235294118,217.5455540661107
0.0814423828125,0.0903583984375,0.8333056640625001,0.8421376559951538,0.76513671875,0.427734375,0.78369140625,46.08294117647059,217.5455540661107
0.0238251953125,-0.0121806640624999,0.8123095703125001,0.8127501747338851,0.8154296875,0.26318359375,0.7568359375,46.224117647058826,217.5455540661107
-0.0289091796875,-0.0927470703125,0.8318408203125001,0.8374944238978126,0.93896484375,0.58935546875,0.85595703125,45.70647058823529,216.88670849076817
0.0067353515625,-0.1127666015625,0.7512744140625001,0.7597202884046068,1.07763671875,0.63623046875,0.91162109375,45.70647058823529,216.88670849076817
0.0531220703125,-0.1352275390625,0.7312548828125001,0.7455482179660209,1.0234375,0.74951171875,0.77490234375,46.13,216.88670849076817
0.1273408203125,-0.1225322265625,0.7053759765625001,0.7271761130398364,0.83349609375,0.453125,0.06787109375,46.27117647058824,216.88670849076817
0.1161103515625,-0.1440166015625,0.7029345703125001,0.7268695931224516,0.69775390625,0.52880859375,-0.44384765625,46.08294117647059,216.88670849076817
0.1219697265625,-0.1576884765625,0.6780322265625001,0.7067318940699043,0.54248046875,0.48046875,-0.8505859375,46.08294117647059,216.5264747430568
0.0970673828125,-0.1713603515625,0.6775439453125001,0.7055864544641713,0.51171875,0.5146484375,-1.24169921875,45.61235294117647,216.5264747430568
0.0902314453125,-0.1698955078125,0.7063525390625001,0.7320793035854044,0.4453125,0.54150390625,-1.68212890625,45.70647058823529,216.5264747430568
0.0614228515625,-0.1718486328125,0.6990283203125001,0.7224578270684799,0.3642578125,0.5146484375,-1.99951171875,46.27117647058824,216.5264747430568
0.0238251953125,-0.1513408203125,0.7151416015625001,0.731368029182242,0.27685546875,0.32958984375,-2.04443359375,46.27117647058824,216.18816484863947
-0.0093779296875,-0.1401103515625,0.7317431640625001,0.7450952384308934,0.19189453125,0.27197265625,-1.82373046875,45.61235294117647,216.18816484863947
-0.0210966796875,-0.1254619140625,0.7654345703125001,0.7759354632980405,0.15771484375,0.1328125,-1.56494140625,46.08294117647059,216.18816484863947
-0.0459990234375,-0.1249736328125,0.7937548828125001,0.8048485155880223,0.13427734375,0.12158203125,-1.36962890625,46.97705882352941,216.18816484863947
-0.0274443359375,-0.1650126953125,0.8215869140625001,0.8384434617480705,0.236328125,-0.0263671875,-1.10009765625,45.61235294117647,216.18816484863947
-0.0254912109375,-0.1791728515625,0.8259814453125001,0.8455755794561621,0.23046875,-0.0859375,-1.16845703125,45.61235294117647,215.7088180210912
-0.0416044921875,-0.1864970703125,0.8279345703125001,0.8496986193491605,0.24853515625,-0.29833984375,-1.01025390625,47.02411764705882,215.7088180210912
-0.0757841796875,-0.1835673828125,0.8557666015625001,0.8785082255012578,-0.0009765625,-0.2841796875,-0.9072265625,46.97705882352941,215.7088180210912
-0.1124052734375,-0.2070048828125,0.8616259765625001,0.8932442501869564,0.04345703125,-0.07958984375,-0.650390625,46.224117647058826,215.7088180210912
-0.1177763671875,-0.2109111328125,0.9085009765625,0.9400685097518974,-0.0390625,0.06103515625,-0.486328125,47.02411764705882,215.59240458643507
-0.1417021484375,-0.1962626953125,0.9441455078125,0.9746841972483468,-0.01220703125,0.10400390625,-0.3251953125,46.13,215.59240458643507
-0.1783232421875,-0.1840556640625,0.9592822265625,0.9929239932524832,0.0244140625,0.28173828125,-0.11572265625,46.224117647058826,215.59240458643507
-0.1695341796875,-0.1825908203125,1.0100634765625005,1.040341036598206,0.0693359375,0.5185546875,0.048828125,46.224117647058826,215.59240458643507
-0.1529326171875,-0.1860087890625,1.0603564453125005,1.0873561726150625,0.1376953125,0.60302734375,0.01708984375,46.97705882352941,215.59240458643507
-0.1446318359375,-0.1874736328125,1.0847705078125005,1.1103115714007297,0.189453125,0.79150390625,-0.09033203125,47.02411764705882,216.0827013957906
-0.1187529296875,-0.1845439453125,1.1165087890625005,1.1378710832579753,0.232421875,1.13623046875,-0.1298828125,46.83588235294118,216.0827013957906
-0.0894560546875,-0.1855205078125,1.1716845703125005,1.1896490981998218,0.27783203125,1.3701171875,-0.2099609375,46.224117647058826,216.0827013957906
-0.0879912109375,-0.1923564453125,1.2053759765625005,1.223795203508132,0.3427734375,1.328125,-0.2783203125,46.224117647058826,216.0827013957906
-0.0679716796875,-0.2070048828125,1.2317431640625005,1.2508646581315088,0.4287109375,1.28173828125,-0.3330078125,46.224117647058826,216.114204041456
-0.0621123046875,-0.2275126953125,1.2551806640625005,1.277144652871526,0.49853515625,1.13720703125,-0.38134765625,45.70647058823529,216.114204041456
-0.0508818359375,-0.2323955078125,1.2585986328125005,1.2808853000160847,0.572265625,0.9697265625,-0.6005859375,46.45941176470589,216.114204041456
-0.0865263671875,-0.2353251953125,1.2922900390625005,1.3163883563856416,0.677734375,1.03857421875,-0.73828125,45.70647058823529,216.114204041456
-0.1031279296875,-0.2104228515625,1.3337939453125005,1.3542228158222742,0.529296875,0.99462890625,-0.80908203125,45.61235294117647,216.114204041456
-0.0977568359375,-0.2138408203125,1.4251025390625005,1.444368907947973,0.54736328125,1.3486328125,-1.04541015625,47.02411764705882,215.24317372870655
-0.0884794921875,-0.2577861328125,1.4885791015625005,1.513324172944053,0.51123046875,1.53466796875,-1.60888671875,45.80058823529412,215.24317372870655
-0.0699248046875,-0.2646220703125,1.4856494140625005,1.5106516805376775,0.37841796875,1.33544921875,-2.232421875,46.41235294117647,215.24317372870655
-0.0870146484375,-0.2367900390625,1.4876025390625005,1.5088414051407522,0.208984375,1.1953125,-2.63330078125,46.27117647058824,215.24317372870655
-0.0665068359375,-0.1991923828125,1.4998095703125005,1.5144403295600344,0.1044921875,1.0400390625,-2.57275390625,46.97705882352941,214.8912223688677
0.0243134765625,-0.1552470703125,1.4963916015625005,1.5046197603414473,0.103515625,0.69873046875,-2.00830078125,46.83588235294118,214.8912223688677
0.1532197265625,-0.1034892578125,1.4265673828125005,1.438499499059689,0.1259765625,0.27197265625,-1.263671875,46.83588235294118,214.8912223688677
0.2464814453125,-0.0624736328125,1.3298876953125005,1.353978338018642,0.3037109375,-0.0830078125,-0.228515625,46.08294117647059,214.8912223688677
0.3153291015625,-0.0204814453125,1.2415087890625005,1.2810917239658284,0.27978515625,-0.4072265625,0.75732421875,46.224117647058826,214.8912223688677
0.3797822265625,-0.0068095703124999,1.1677783203125005,1.2280012684246282,0.24267578125,-0.60400390625,1.6396484375,46.224117647058826,216.1977582479333
0.4144501953125,-0.0019267578124999,1.0784228515625005,1.1553218268354633,0.32421875,-0.87841796875,1.93017578125,46.27117647058824,216.1977582479333
0.3773408203125,0.0190693359375,1.0022509765625005,1.071100720879084,0.3896484375,-1.26318359375,2.08837890625,46.41235294117647,216.1977582479333
0.2938447265625,0.0356708984375,0.9539111328125,0.9987810498940976,0.453125,-1.1376953125,2.27734375,46.224117647058826,216.1977582479333
0.2376923828125,0.0605732421875,0.9402392578125,0.9717081086663784,0.43798828125,-0.8310546875,2.4384765625,46.13,217.53595465715907
0.1942353515625,0.0625263671875,0.9221728515625,0.9444785262509608,0.28564453125,-0.50830078125,2.3310546875,45.61235294117647,217.53595465715907
0.1224580078125,0.0503193359375,0.9211962890625,0.9306613789285116,0.3212890625,0.1572265625,1.90478515625,45.80058823529412,217.53595465715907
0.0418916015625,0.0122333984375,0.9421923828125,0.9432025490575704,0.2919921875,0.92236328125,1.44140625,46.224117647058826,217.53595465715907
-0.0123076171875,-0.0219462890625,0.9363330078125,0.9366710300653333,0.27783203125,1.45751953125,1.1904296875,46.27117647058824,217.53595465715907
-0.0396513671875,-0.0849345703125,0.9285205078125,0.9332397578234598,0.3271484375,1.75439453125,1.353515625,45.70647058823529,217.41816380314475
-0.0269560546875,-0.0961650390625,0.9172900390625,0.9227108752938216,0.26025390625,1.779296875,1.31982421875,45.70647058823529,217.41816380314475
0.0360322265625,-0.1073955078125,0.9045947265625,0.9116598794364268,-0.0908203125,1.53369140625,0.826171875,46.03588235294118,217.41816380314475
0.0995087890625,-0.0961650390625,0.9285205078125,0.9387758237550432,-0.38818359375,1.3623046875,-0.189453125,46.224117647058826,217.41816380314475
0.0575166015625,-0.1181376953125,0.9202197265625,0.9295531290162014,-0.3779296875,1.26025390625,-0.78466796875,46.36529411764706,217.80304800206736
0.0389619140625,-0.1562236328125,0.8918994140625001,0.9063158494705802,-0.31396484375,1.1357421875,-0.82861328125,46.224117647058826,217.80304800206736
0.0658173828125,-0.1303447265625,0.8518603515625001,0.8642845215478097,-0.36376953125,1.0,-1.1494140625,45.80058823529412,217.80304800206736
0.0409150390625,-0.1264384765625,0.8259814453125001,0.8366038947897974,-0.2509765625,0.83203125,-1.33251953125,46.08294117647059,217.80304800206736
0.0316376953125,-0.1298564453125,0.7810595703125001,0.7924125772163337,-0.26123046875,0.623046875,-1.16259765625,45.61235294117647,217.80304800206736
0.0130830078125,-0.1239970703125,0.7629931640625001,0.7731138382836062,-0.26708984375,0.37451171875,-0.7119140625,47.02411764705882,217.15514757731887
0.0316376953125,-0.0712626953125,0.7312548828125001,0.7353999042323924,-0.28125,0.4306640625,-0.61669921875,46.224117647058826,217.15514757731887
0.0262666015625,-0.0497783203125,0.6912158203125001,0.69350351533432,-0.2109375,0.32861328125,-0.689453125,46.97705882352941,217.15514757731887
-0.0084013671875,-0.0541728515625,0.6619189453125001,0.6641851932862132,-0.181640625,0.4150390625,-0.55322265625,46.83588235294118,217.15514757731887
-0.0210966796875,-0.0492900390625,0.6497119140625001,0.6519203548895963,-0.20263671875,0.4404296875,-0.33544921875,46.224117647058826,216.8140998705192
-0.0225615234375,-0.0278056640625,0.6467822265625001,0.6477726652853781,-0.33837890625,0.42822265625,-0.19287109375,46.27117647058824,216.8140998705192
-0.0284208984375,-0.0160869140625,0.6565478515625001,0.6573595801868134,-0.3076171875,0.36767578125,-0.05126953125,46.224117647058826,216.8140998705192
-0.0435576171875,-0.0458720703125,0.6414111328125001,0.6445228887678252,-0.248046875,0.2470703125,0.32568359375,46.36529411764706,216.8140998705192
-0.0547880859375,-0.0673564453125,0.6736376953125001,0.6792101071331075,-0.33154296875,0.181640625,0.76611328125,46.36529411764706,216.8140998705192
-0.0762724609375,-0.0776103515625,0.7205126953125001,0.7286833325070643,0.0166015625,0.2734375,1.3095703125,46.97705882352941,216.82505471949855
-0.0118193359375,-0.0429423828125,0.7122119140625001,0.7136032199171951,-0.01953125,0.11181640625,1.37109375,46.27117647058824,216.82505471949855
-0.0152373046875,-0.0546611328125,0.7517626953125001,0.7539012965620899,-0.0654296875,-0.0439453125,1.2607421875,46.27117647058824,216.82505471949855
-0.0264677734375,-0.0458720703125,0.7761767578125001,0.7779814581555387,-0.16552734375,-0.18603515625,1.1943359375,46.27117647058824,216.82505471949855
-0.0626005859375,-0.0468486328125,0.8147509765625001,0.8184942159634766,-0.17578125,-0.232421875,1.3291015625,46.27117647058824,216.3155397675543
-0.0845732421875,-0.0448955078125,0.8464892578125001,0.8518874946304853,-0.2060546875,-0.2685546875,1.5048828125,46.08294117647059,216.3155397675543
-0.1133818359375,-0.0434306640625,0.8718798828125001,0.8802932428200314,-0.2451171875,-0.28515625,1.66845703125,46.13,216.3155397675543
-0.1431669921875,-0.0492900390625,0.9109423828125,0.9234404801647552,-0.2587890625,-0.24072265625,1.74755859375,46.08294117647059,216.3155397675543
-0.1641630859375,-0.0439189453125,0.9216845703125,0.9372197392789074,-0.28515625,-0.1435546875,1.5068359375,46.64764705882353,216.3155397675543
-0.1968779296875,-0.0531962890625,0.9636767578125,0.985019623112184,-0.38916015625,-0.09375,1.20751953125,46.08294117647059,216.2292616917001
-0.2173857421875,-0.0556376953125,1.0227587890625005,1.047085313931338,-0.41357421875,-0.03662109375,1.09130859375,46.45941176470589,216.2292616917001
-0.2251982421875,-0.0673564453125,1.0437548828125005,1.069895038966165,-0.34130859375,0.0556640625,1.0380859375,45.80058823529412,216.2292616917001
-0.1817412109375,-0.0429423828125,1.0627978515625005,1.0790797881901553,-0.322265625,0.07568359375,0.94189453125,46.224117647058826,216.2292616917001
-0.1124052734375,-0.0395244140625,1.0623095703125005,1.0689708826628872,-0.22265625,-0.11669921875,0.68798828125,46.97705882352941,216.52783469374177
-0.0850615234375,-0.0253642578125,1.0564501953125005,1.0601725442208487,-0.20068359375,-0.10009765625,0.31005859375,46.224117647058826,216.52783469374177
-0.0958037109375,-0.0204814453125,1.1116259765625005,1.1159346541800812,-0.10205078125,0.0859375,0.01904296875,46.224117647058826,216.52783469374177
-0.1060576171875,-0.0448955078125,1.1497119140625005,1.155465841175104,-0.17578125,0.109375,-0.09228515625,46.27117647058824,216.52783469374177
-0.1304716796875,-0.0361064453125,1.1682666015625005,1.1760839200159043,-0.16259765625,0.14404296875,-0.1484375,46.27117647058824,216.52783469374177
-0.1709990234375,-0.0082744140624999,1.1751025390625005,1.1875079407127311,-0.21728515625,0.25732421875,-0.06201171875,47.02411764705882,216.26076533014688
-0.2042021484375,-0.0068095703124999,1.2146533203125005,1.2317173280507638,-0.22509765625,0.3017578125,0.1552734375,46.224117647058826,216.26076533014688
-0.2339873046875,-0.0263408203125,1.2649462890625005,1.286675177262174,-0.2470703125,0.4794921875,0.29443359375,46.88294117647059,216.26076533014688
-0.2359404296875,-0.0517314453125,1.3396533203125005,1.3612549531294822,-0.22314453125,0.611328125,0.49169921875,46.27117647058824,216.26076533014688
-0.2291044921875,-0.0595439453125,1.4143603515625005,1.4340326195159825,-0.2255859375,0.65380859375,0.70166015625,45.65941176470588,215.77454781858185
-0.2090849609375,-0.0824931640625,1.4944384765625005,1.511247168148786,-0.18408203125,0.56298828125,0.97216796875,45.61235294117647,215.77454781858185
-0.1622099609375,-0.0917705078125,1.5559619140625005,1.5670837168270713,-0.203125,0.55615234375,1.1015625,46.27117647058824,215.77454781858185
-0.0850615234375,-0.1230205078125,1.5520556640625005,1.5592454240626914,-0.1689453125,0.52734375,1.1953125,46.83588235294118,215.77454781858185
0.0672822265625,-0.1669658203125,1.5422900390625005,1.5527598165058374,-0.263671875,0.51123046875,0.802734375,46.224117647058826,215.77454781858185
0.2015595703125,-0.2236064453125,1.5017626953125005,1.531638761523786,-0.509765625,0.44482421875,0.02685546875,46.41235294117647,215.20071948992936
0.2840791015625,-0.2197001953125,1.4807666015625005,1.5236925018086374,-0.7119140625,0.298828125,-0.85693359375,46.36529411764706,215.20071948992936
0.3207001953125,-0.1650126953125,1.4094775390625005,1.4548899401705455,-0.67333984375,0.037109375,-1.8681640625,46.36529411764706,215.20071948992936
0.3133759765625,-0.1850322265625,1.2620166015625005,1.3134410265301368,-0.701171875,-0.259765625,-2.81005859375,46.97705882352941,215.20071948992936
0.2801728515625,-0.1967509765625,1.1711962890625005,1.2202083924661111,-0.64453125,-0.458984375,-3.345703125,46.08294117647059,216.2525328795436
0.2513642578125,-0.2187236328125,1.0418017578125005,1.093789248547243,-0.603515625,-0.68212890625,-3.3857421875,46.97705882352941,216.2525328795436
0.2113251953125,-0.2187236328125,0.9343798828125,0.9826312284520908,-0.51904296875,-0.92822265625,-3.18994140625,46.27117647058824,216.2525328795436
0.1615205078125,-0.2030986328125,0.8342822265625001,0.8737074811699836,-0.41845703125,-1.1337890625,-2.70751953125,45.65941176470588,216.2525328795436
0.1117158203125,-0.2035869140625,0.7771533203125001,0.8111074770696729,-0.203125,-0.955078125,-2.06640625,46.97705882352941,216.2525328795436
0.0995087890625,-0.2128642578125,0.7654345703125001,0.8006892485753966,-0.10009765625,-0.5205078125,-1.46533203125,46.27117647058824,217.5797737607712
0.1200166015625,-0.2250712890625,0.7776416015625001,0.8184054803650557,-0.07373046875,-0.16015625,-1.025390625,46.224117647058826,217.5797737607712
0.1244111328125,-0.2211650390625,0.8171923828125001,0.8556842262178136,-0.0537109375,0.05712890625,-0.7216796875,47.02411764705882,217.5797737607712
0.0975556640625,-0.2065166015625,0.8455126953125001,0.8758184356624428,-0.091796875,0.40283203125,-0.5146484375,45.61235294117647,217.5797737607712
0.0599580078125,-0.1664775390625,0.8538134765625001,0.8719559544339914,-0.18017578125,0.57666015625,-0.42236328125,46.27117647058824,217.47429379148195
0.0589814453125,-0.1156962890625,0.8562548828125001,0.8660466884263418,-0.2626953125,0.57470703125,-0.20947265625,47.02411764705882,217.47429379148195
0.0145478515625,-0.1098369140625,0.8709033203125001,0.8779227648302524,-0.375,0.3828125,-0.17529296875,46.13,217.47429379148195
-0.0157255859375,-0.0912822265625,0.8928759765625001,0.8976676715030588,-0.25830078125,0.3017578125,0.06494140625,45.61235294117647,217.47429379148195
0.0038056640625,-0.0834697265625,0.9490283203125,0.9526995492213378,-0.203125,0.4794921875,0.2958984375,46.03588235294118,217.47429379148195
0.0550751953125,-0.0522197265625,0.9211962890625,0.924317467087739,-0.0126953125,0.41064453125,0.33251953125,46.69470588235294,217.01680816414157
0.0057587890625,-0.0707744140625,0.9285205078125,0.9312317191578794,0.2919921875,0.2861328125,0.18603515625,45.70647058823529,217.01680816414157
-0.0577177734375,-0.1166728515625,0.8728564453125001,0.8825090763192643,0.5859375,0.26171875,0.251953125,46.224117647058826,217.01680816414157
0.0072236328125,-0.1298564453125,0.8362353515625001,0.8462886271616004,0.5009765625,0.16748046875,0.36572265625,46.13,217.01680816414157
0.0790009765625,-0.1401103515625,0.8230517578125001,0.838621643502624,0.45849609375,0.07373046875,0.1650390625,46.224117647058826,217.00449540799735
0.0731416015625,-0.1650126953125,0.8132861328125001,0.8330745568786355,0.44677734375,-0.0419921875,0.2060546875,45.61235294117647,217.00449540799735
0.0619111328125,-0.1752666015625,0.8074267578125001,0.8285465220619785,0.47900390625,-0.11376953125,0.30810546875,47.02411764705882,217.00449540799735
0.0448212890625,-0.1762431640625,0.7756884765625001,0.7967202856108521,0.44580078125,-0.23876953125,0.1767578125,45.65941176470588,217.00449540799735
0.0130830078125,-0.1835673828125,0.7620166015625001,0.7839243906034018,0.49658203125,-0.31689453125,-0.03369140625,45.80058823529412,217.00449540799735
-0.0030302734374999,-0.1796611328125,0.7542041015625001,0.775313570121325,0.22509765625,-0.275390625,-0.23974609375,46.224117647058826,216.71822415724924
-0.0127958984375,-0.1791728515625,0.7556689453125001,0.7767253057957921,0.2890625,-0.25732421875,-0.26220703125,46.27117647058824,216.71822415724924
-0.0167021484375,-0.1552470703125,0.7610400390625001,0.7768928855764444,0.20263671875,-0.14404296875,-0.48583984375,46.224117647058826,216.71822415724924
-0.0235380859375,-0.1513408203125,0.7444384765625001,0.7600307433052675,0.19970703125,-0.072265625,-0.6875,45.65941176470588,216.71822415724924
-0.0450224609375,-0.1606181640625,0.7664111328125001,0.7843540279201838,0.11767578125,0.0712890625,-0.6748046875,45.61235294117647,216.34976612618252
-0.0489287109375,-0.1669658203125,0.7800830078125001,0.7992503381196836,0.23046875,0.21142578125,-0.55810546875,45.65941176470588,216.34976612618252
-0.0323271484375,-0.1615947265625,0.8015673828125001,0.8183325542637236,0.185546875,0.21484375,-0.5390625,46.08294117647059,216.34976612618252
-0.0411162109375,-0.1733134765625,0.8220751953125001,0.8411514314962094,0.20263671875,0.203125,-0.42626953125,45.65941176470588,216.34976612618252
-0.0538115234375,-0.1738017578125,0.8352587890625001,0.8548450010262291,0.2236328125,0.22607421875,-0.3291015625,45.70647058823529,216.34976612618252
-0.0674833984375,-0.1728251953125,0.8572314453125001,0.8770794194552942,0.1689453125,0.21044921875,-0.2744140625,46.224117647058826,216.0922941417681
-0.0933623046875,-0.1811259765625,0.8552783203125001,0.879217916400054,0.23583984375,0.0595703125,-0.2412109375,46.27117647058824,216.0922941417681
-0.1324248046875,-0.1977275390625,0.8796923828125001,0.9113128974060276,0.279296875,0.08740234375,-0.0048828125,45.94176470588236,216.0922941417681
-0.1553740234375,-0.1972392578125,0.8967822265625001,0.9312694421379764,0.24658203125,0.033203125,0.22314453125,46.45941176470589,216.0922941417681
-0.1553740234375,-0.1972392578125,0.9207080078125,0.9543309947977406,0.23486328125,0.07958984375,0.35595703125,46.97705882352941,216.3607211581491
-0.1656279296875,-0.1923564453125,0.9490283203125,0.9823891112492004,0.19970703125,0.189453125,0.5732421875,46.27117647058824,216.3607211581491
-0.1739287109375,-0.1962626953125,0.9963916015625,1.0303234762558755,0.1923828125,0.353515625,0.8056640625,45.65941176470588,216.3607211581491
-0.1739287109375,-0.1923564453125,1.0603564453125005,1.0916079835075423,0.34326171875,0.50341796875,0.86083984375,45.94176470588236,216.3607211581491
-0.1465849609375,-0.1962626953125,1.1033251953125005,1.130191436419398,0.46044921875,0.72021484375,0.7958984375,46.224117647058826,216.3607211581491
-0.1138701171875,-0.2060283203125,1.1321337890625005,1.1563481260831874,0.4990234375,0.7890625,0.5693359375,46.27117647058824,216.49633027609784
-0.0679716796875,-0.2148173828125,1.1599658203125005,1.1816460390028836,0.5185546875,0.93505859375,0.19775390625,46.224117647058826,216.49633027609784
-0.0591826171875,-0.2280009765625,1.1755908203125005,1.1989582162417642,0.46826171875,1.04248046875,-0.240234375,46.27117647058824,216.49633027609784
-0.0899443359375,-0.2470439453125,1.2029345703125005,1.231329474566301,0.43505859375,1.111328125,-0.39306640625,45.70647058823529,216.49633027609784
-0.1187529296875,-0.2533916015625,1.2332080078125005,1.2645598256249675,0.388671875,1.142578125,-0.3671875,46.45941176470589,216.21966805888965
-0.1211943359375,-0.2441142578125,1.2361376953125005,1.2658263070829183,0.4814453125,1.0830078125,-0.43115234375,45.70647058823529,216.21966805888965
-0.1548857421875,-0.2304423828125,1.2566455078125005,1.286954240536396,0.43408203125,1.181640625,-0.48828125,45.61235294117647,216.21966805888965
-0.1841826171875,-0.2045634765625,1.3757861328125005,1.4030527201985492,0.40283203125,1.6015625,-0.6181640625,45.61235294117647,216.21966805888965
-0.1822294921875,-0.1991923828125,1.4558642578125005,1.480684277747751,0.34228515625,1.74462890625,-0.71142578125,46.27117647058824,216.21966805888965
-0.1353544921875,-0.1703837890625,1.5969775390625005,1.6117346972751905,0.36376953125,1.87255859375,-1.07421875,46.08294117647059,215.5745881584625
-0.0626005859375,-0.1962626953125,1.5911181640625005,1.604398607248419,0.4794921875,1.4501953125,-1.61328125,45.61235294117647,215.5745881584625
-0.0040068359375,-0.1991923828125,1.5740283203125005,1.586587159046279,0.4052734375,1.2822265625,-1.921875,45.61235294117647,215.5745881584625
0.0873017578125,-0.1728251953125,1.5652392578125005,1.5771696418741337,0.4716796875,1.2021484375,-1.77099609375,45.84764705882353,215.5745881584625
0.2103486328125,-0.1420634765625,1.5022509765625005,1.5235440838000385,0.4287109375,0.97265625,-1.302734375,46.83588235294118,215.31985939423117
0.2772431640625,-0.1122783203125,1.3914111328125005,1.423198908707475,0.4033203125,0.67529296875,-0.43310546875,46.27117647058824,215.31985939423117
0.3387666015625,-0.0947001953125,1.2546923828125005,1.3030671175400526,0.25244140625,0.2080078125,0.5947265625,47.02411764705882,215.31985939423117
0.3490205078125,-0.0527080078125,1.1760791015625005,1.2279069598684242,0.12939453125,-0.00439453125,1.5625,45.61235294117647,215.31985939423117
0.3548798828125,0.0063740234375,1.1292041015625005,1.183673207598013,0.17724609375,-0.51171875,2.2373046875,47.02411764705882,215.31985939423117
0.3436494140625,0.0415302734375,1.0364306640625005,1.092706824727625,0.37939453125,-0.69970703125,2.46923828125,47.02411764705882,216.59220399412905
0.2943330078125,0.0395771484375,0.9832080078125,1.0270814265641368,0.359375,-0.60986328125,2.4130859375,45.61235294117647,216.59220399412905
0.2367158203125,0.0425068359375,0.9661181640625,0.9956030924113952,0.26708984375,-0.61474609375,2.3046875,45.61235294117647,216.59220399412905
0.1502900390625,0.0464130859375,1.0076220703125005,1.0198252335417568,0.33056640625,-0.37548828125,2.04736328125,47.02411764705882,216.59220399412905
0.0545869140625,0.0073505859375,1.0183642578125005,1.0198526971531212,0.44189453125,0.12939453125,1.689453125,46.97705882352941,217.1866545852457
0.0135712890625,-0.0468486328125,0.9905322265625,0.9917323561032394,0.3037109375,0.7197265625,1.37451171875,45.65941176470588,217.1866545852457
-0.0918974609375,-0.0966533203125,0.9998095703125,1.0086655464239156,0.1669921875,0.9697265625,1.12646484375,45.65941176470588,217.1866545852457
-0.1265654296875,-0.1371806640625,0.9773486328125,0.9950114032738888,0.33740234375,1.19921875,1.72802734375,46.55352941176471,217.1866545852457
-0.0640654296875,-0.1913798828125,0.9661181640625,0.9869726165187492,0.07080078125,1.5029296875,1.732421875,46.97705882352941,217.1866545852457
0.0467744140625,-0.1723369140625,0.9812548828125,0.9973710457010716,-0.009765625,1.78759765625,1.279296875,46.27117647058824,217.33595085727072
0.1014619140625,-0.1767314453125,0.9392626953125,0.9611154637051542,-0.18505859375,1.64697265625,0.3291015625,46.788823529411765,217.33595085727072
0.1112275390625,-0.2026103515625,0.8713916015625001,0.9015241778675924,-0.23095703125,1.134765625,-0.04345703125,47.02411764705882,217.33595085727072
0.1004853515625,-0.1640361328125,0.8362353515625001,0.8580761749108161,-0.4794921875,0.7529296875,-0.673828125,45.61235294117647,217.33595085727072
0.0472626953125,-0.1698955078125,0.8206103515625001,0.8393447414707496,-0.2998046875,0.6201171875,-0.912109375,47.02411764705882,217.420876082898
0.0199189453125,-0.1625712890625,0.7742236328125001,0.791358592557881,-0.33935546875,0.50830078125,-0.62060546875,46.224117647058826,217.420876082898
0.0204072265625,-0.1303447265625,0.7698291015625001,0.7810525259232903,-0.40673828125,0.41259765625,-0.458984375,45.70647058823529,217.420876082898
0.0321259765625,-0.0898173828125,0.7717822265625001,0.7776548372273856,-0.31591796875,0.375,-0.40234375,46.13,217.420876082898
0.0272431640625,-0.0536845703125,0.7024462890625001,0.7050212848527706,-0.28271484375,0.37353515625,-0.45068359375,45.89470588235295,217.420876082898
0.0023408203125,-0.0258525390625,0.6692431640625001,0.6697464041412241,-0.32177734375,0.17236328125,-0.25439453125,47.02411764705882,217.1756997526717
-0.0274443359375,-0.0185283203125,0.6731494140625001,0.6739633698364772,-0.26904296875,0.1572265625,0.20361328125,46.83588235294118,217.1756997526717
-0.0567412109375,-0.0180400390625,0.6741259765625001,0.6767502052488604,-0.150390625,0.34033203125,0.625,46.88294117647059,217.1756997526717
-0.0406279296875,2.6367187500001e-05,0.6658251953125001,0.6670635802371839,-0.1376953125,0.26611328125,1.0078125,46.08294117647059,217.1756997526717
-0.0489287109375,-0.0019267578124999,0.6716845703125001,0.6734670690876884,-0.24951171875,0.2080078125,1.20166015625,45.61235294117647,216.60315891793348
-0.0303740234375,-0.0107158203124999,0.6467822265625001,0.6475837078725011,0.0146484375,-0.087890625,1.203125,45.61235294117647,216.60315891793348
-0.0772490234375,-0.0546611328125,0.7219775390625001,0.7281530182407657,0.080078125,0.154296875,1.333984375,46.13,216.60315891793348
-0.0699248046875,-0.0834697265625,0.8372119140625001,0.8442632661742417,0.32421875,0.13818359375,1.59228515625,46.97705882352941,216.60315891793348
-0.0606474609375,-0.0761455078125,0.6834033203125001,0.6903016377586965,0.212890625,-0.15087890625,1.5068359375,46.55352941176471,216.60315891793348
-0.0674833984375,-0.0468486328125,0.6770556640625001,0.6820213894741042,0.029296875,-0.3642578125,1.2646484375,46.03588235294118,216.82641376354616
-0.1211943359375,-0.0546611328125,0.7332080078125001,0.7451643370586467,-0.1953125,-0.423828125,1.2119140625,46.224117647058826,216.82641376354616
-0.1661162109375,-0.0585673828125,0.7781298828125001,0.7978162999033881,-0.255859375,-0.44677734375,1.32470703125,46.27117647058824,216.82641376354616
-0.2037138671875,-0.0629619140625,0.8108447265625001,0.8384108258491869,-0.2666015625,-0.36767578125,1.615234375,46.788823529411765,216.82641376354616
-0.2388701171875,-0.0751689453125,0.8445361328125001,0.880880572410617,-0.2255859375,-0.1630859375,1.91796875,46.224117647058826,216.2662121099875
-0.2002958984375,-0.0658916015625,0.8718798828125001,0.8970143143453706,-0.28662109375,0.08251953125,1.97900390625,46.03588235294118,216.2662121099875
-0.1988310546875,-0.0785869140625,0.9050830078125,0.9299919044813952,-0.36865234375,0.30322265625,1.8896484375,46.03588235294118,216.2662121099875
-0.1763701171875,-0.0834697265625,0.9407275390625,0.960750704522114,-0.39990234375,0.431640625,1.55810546875,45.65941176470588,216.2662121099875
-0.1817412109375,-0.0883525390625,0.9700244140625,0.9908498386683604,-0.45361328125,0.4609375,1.15087890625,46.788823529411765,216.2662121099875
-0.1763701171875,-0.0878642578125,0.9988330078125,1.0180834560749132,-0.46142578125,0.5703125,0.9619140625,47.02411764705882,216.3908632259388
-0.1548857421875,-0.0903056640625,1.0330126953125005,1.0484559765538743,-0.47998046875,0.60498046875,0.912109375,46.83588235294118,216.3908632259388
-0.1001982421875,-0.0795634765625,1.0647509765625005,1.072410684687063,-0.45166015625,0.57373046875,0.9140625,46.36529411764706,216.3908632259388
-0.0601591796875,-0.0614970703125,1.0906298828125005,1.0940176222718268,-0.4189453125,0.52783203125,0.71142578125,46.224117647058826,216.3908632259388
-0.0586943359375,-0.0268291015625,1.1072314453125005,1.1091105892789066,-0.3515625,0.55615234375,0.43701171875,47.02411764705882,216.5072851970639
-0.1001982421875,-0.0229228515625,1.1365283203125005,1.14116684482751,-0.38525390625,0.611328125,0.1875,46.224117647058826,216.5072851970639
-0.1568388671875,-0.0131572265624999,1.1814501953125005,1.191887623425724,-0.453125,0.724609375,0.19287109375,46.36529411764706,216.5072851970639
-0.2178740234375,-0.0082744140624999,1.2351611328125005,1.2542569832484811,-0.40185546875,0.81298828125,0.42236328125,46.27117647058824,216.5072851970639
-0.2559599609375,-0.0121806640624999,1.3069384765625005,1.3318228304469175,-0.35986328125,1.01513671875,0.62060546875,46.36529411764706,216.5072851970639
-0.2720732421875,-0.0282939453125,1.3962939453125005,1.422835611787993,-0.322265625,1.310546875,0.89111328125,45.65941176470588,216.1991197943784
-0.2618193359375,-0.0341533203125,1.4900439453125005,1.5132570082182215,-0.21630859375,1.37646484375,1.2216796875,46.08294117647059,216.1991197943784
-0.2398466796875,-0.0546611328125,1.5564501953125005,1.575770122729132,-0.1142578125,1.13916015625,1.4599609375,45.65941176470588,216.1991197943784
-0.2105498046875,-0.0595439453125,1.5354541015625005,1.5509661503986565,0.10693359375,0.69384765625,1.4599609375,46.27117647058824,216.1991197943784
-0.1963896484375,-0.0956767578125,1.5364306640625005,1.5518834110429984,0.294921875,0.82958984375,1.5927734375,45.61235294117647,215.91287262759136
-0.0782255859375,-0.1376689453125,1.5540087890625005,1.5620548317143736,0.40234375,1.115234375,1.54736328125,46.08294117647059,215.91287262759136
0.1566376953125,-0.1908916015625,1.4846728515625005,1.505067588949624,0.22900390625,1.01171875,1.14208984375,46.27117647058824,215.91287262759136
0.3602509765625,-0.2001689453125,1.3704150390625005,1.4310435884592851,0.04248046875,0.7099609375,-0.1328125,46.224117647058826,215.91287262759136
0.4339814453125,-0.2016337890625,1.2971728515625005,1.3826255771531264,-0.17236328125,0.61376953125,-2.07568359375,46.55352941176471,215.91287262759136
0.4452119140625,-0.2138408203125,1.2493212890625005,1.3434080646474864,-0.1181640625,0.466796875,-3.3662109375,46.13,216.168979033846
0.4271455078125,-0.2475322265625,1.1248095703125005,1.228381885855526,-0.1376953125,-0.0419921875,-4.23974609375,46.224117647058826,216.168979033846
0.3495087890625,-0.2973369140625,1.0149462890625005,1.1138588796512268,-0.16748046875,-0.54931640625,-4.64794921875,46.88294117647059,216.168979033846
0.2020478515625,-0.2934306640625,0.9177783203125,0.9845008553418406,-0.3203125,-0.8662109375,-4.4716796875,46.83588235294118,216.168979033846
0.0809541015625,-0.2958720703125,0.8811572265625001,0.9330229935398772,-0.25634765625,-0.77880859375,-3.85009765625,46.27117647058824,217.4646955528141
0.0096650390625,-0.3261455078125,0.8899462890625001,0.9478758899046162,-0.1455078125,-0.4599609375,-3.06396484375,47.02411764705882,217.4646955528141
-0.0044951171875,-0.3666728515625,0.9197314453125,0.9901389385576778,-0.08740234375,-0.1767578125,-2.28515625,46.224117647058826,217.4646955528141
0.0174775390625,-0.3417705078125,0.9836962890625,1.0415233715560246,-0.07421875,-0.00927734375,-1.7666015625,46.97705882352941,217.4646955528141
0.0741181640625,-0.2714580078125,0.9978564453125,1.0367740533506928,-0.21533203125,0.03955078125,-1.69677734375,46.45941176470589,217.4646955528141
0.0628876953125,-0.2079814453125,1.0339892578125005,1.0565722545513103,-0.15771484375,-0.00390625,-1.80029296875,45.61235294117647,217.8153579275252
-0.0025419921874999,-0.1874736328125,0.9973681640625,1.014837957217604,0.32470703125,-0.28466796875,-1.03857421875,45.70647058823529,217.8153579275252
0.0194306640625,-0.1420634765625,0.9734423828125,0.9839459612878196,0.18310546875,-0.43115234375,-0.130859375,46.97705882352941,217.8153579275252
0.0189423828125,-0.0654033203125,1.0447314453125005,1.046948041212772,0.24169921875,-0.21533203125,0.22412109375,45.61235294117647,217.8153579275252
-0.0489287109375,-0.0727275390625,0.9836962890625,0.9875938956916586,0.60546875,-0.16845703125,0.4033203125,45.61235294117647,216.94284085174573
-0.1138701171875,-0.0868876953125,0.9006884765625001,0.9120063634632656,0.7236328125,-0.181640625,0.78125,46.13,216.94284085174573
-0.0992216796875,-0.0771220703125,0.8513720703125001,0.8605969774275806,0.83056640625,-0.2529296875,1.19580078125,46.224117647058826,216.94284085174573
-0.0567412109375,-0.0722392578125,0.7922900390625001,0.7975973805032289,0.89990234375,-0.259765625,1.41943359375,46.36529411764706,216.94284085174573
-0.0254912109375,-0.1034892578125,0.7688525390625001,0.7762049053829121,0.94482421875,-0.12744140625,1.58447265625,46.27117647058824,216.94284085174573
0.0277314453125,-0.0898173828125,0.7146533203125001,0.7208089646696192,1.0283203125,-0.478515625,1.330078125,46.224117647058826,216.6333039580513
0.0311494140625,-0.1113017578125,0.6829150390625001,0.6926263912574552,1.0703125,-0.46875,0.9404296875,46.08294117647059,216.6333039580513
0.0252900390625,-0.1332744140625,0.6506884765625001,0.6646782297102205,1.05908203125,-0.4833984375,0.50439453125,45.65941176470588,216.6333039580513
0.0218720703125,-0.1484111328125,0.6433642578125001,0.6606222975597127,0.943359375,-0.33447265625,0.0146484375,46.224117647058826,216.6333039580513
0.0194306640625,-0.1440166015625,0.6467822265625001,0.6629069171676116,0.95263671875,-0.154296875,-0.44140625,46.08294117647059,216.58397003290617
0.0013642578125,-0.1625712890625,0.6467822265625001,0.6669021920971373,0.93212890625,-0.00634765625,-0.64599609375,46.60058823529412,216.58397003290617
-0.0337919921875,-0.1679423828125,0.6487353515625001,0.6709725024527168,0.806640625,0.16943359375,-0.751953125,46.03588235294118,216.58397003290617
-0.0435576171875,-0.1542705078125,0.6585009765625001,0.677731651709986,0.736328125,0.16162109375,-1.03369140625,46.224117647058826,216.58397003290617
