AccX,AccY,AccZ,Magnitude,GyroX,GyroY,GyroZ,Temperature,Altitude
-0.1246123046875,-0.1000712890625,1.0115283203125005,1.02407618474818,0.0703125,0.37255859375,0.13232421875,43.777058823529416,204.90790632066515
-0.1343779296875,-0.0986064453125,1.0159228515625005,1.0295046864250534,0.0791015625,0.3369140625,0.1279296875,43.82411764705883,204.90790632066515
-0.1397490234375,-0.0971416015625,1.0256884765625005,1.0397130042752014,0.080078125,0.3017578125,0.13623046875,44.01235294117648,204.90790632066515
-0.1324248046875,-0.0990947265625,1.0193408203125005,1.0326721656384374,0.080078125,0.21484375,0.2041015625,43.82411764705883,204.90790632066515
-0.1363310546875,-0.1010478515625,1.0066455078125005,1.0208486681074185,0.1015625,0.158203125,0.205078125,43.68294117647059,204.3810346826998
-0.1319365234375,-0.0976298828125,0.9988330078125,1.0122283426828762,0.10107421875,0.19921875,0.212890625,43.49470588235295,204.3810346826998
-0.1241240234375,-0.0976298828125,0.9988330078125,1.0112397068490049,0.11083984375,0.15869140625,0.23388671875,43.447647058823534,204.3810346826998
-0.1167998046875,-0.0971416015625,0.9861376953125,0.9977706345876364,0.119140625,0.140625,0.26416015625,43.82411764705883,204.3810346826998
-0.1221708984375,-0.0976298828125,0.9802783203125,0.9926746232868576,0.12060546875,0.21875,0.24267578125,43.96529411764706,204.70192519716616
-0.1309599609375,-0.0981181640625,0.9861376953125,0.999622548567206,0.1142578125,0.2939453125,0.21044921875,43.54176470588236,204.70192519716616
-0.1519560546875,-0.0990947265625,0.9871142578125,1.0036458366203738,0.12646484375,0.42529296875,0.16796875,43.82411764705883,204.70192519716616
-0.1587919921875,-0.1020244140625,0.9822314453125,1.0002012247584755,0.15087890625,0.51171875,0.12255859375,43.87117647058824,204.70192519716616
-0.1558623046875,-0.1034892578125,0.9919970703125,1.00948564725491,0.1591796875,0.5419921875,0.09423828125,43.777058823529416,204.70192519716616
-0.1402373046875,-0.0990947265625,1.0042041015625005,1.018779732843886,0.177734375,0.5126953125,0.1044921875,43.96529411764706,204.54949976490224
-0.1265654296875,-0.0986064453125,1.0076220703125005,1.0203157725086864,0.18798828125,0.42626953125,0.07421875,43.82411764705883,204.54949976490224
-0.1211943359375,-0.0903056640625,1.0042041015625005,1.0155141838596098,0.17333984375,0.2958984375,0.09033203125,43.87117647058824,204.54949976490224
-0.1246123046875,-0.0937236328125,1.0037158203125005,1.0157547901795485,0.14453125,0.19287109375,0.1025390625,43.49470588235295,204.54949976490224
-0.1343779296875,-0.0951884765625,1.0110400390625005,1.0243633313648486,0.15478515625,0.14453125,0.11572265625,43.777058823529416,204.85592364843507
-0.1470732421875,-0.1025126953125,1.0076220703125005,1.02344595746362,0.1318359375,0.11865234375,0.06298828125,43.49470588235295,204.85592364843507
-0.1524443359375,-0.0990947265625,1.0144580078125005,1.0306231561569092,0.16650390625,0.1162109375,0.04248046875,43.63588235294118,204.85592364843507
-0.1451201171875,-0.0947001953125,1.0168994140625005,1.0315582357411508,0.2041015625,0.13818359375,0.06982421875,43.54176470588236,204.85592364843507
-0.1329130859375,-0.0922587890625,1.0017626953125005,1.0147443374035026,0.19189453125,0.15673828125,0.10009765625,43.63588235294118,204.85592364843507
-0.1280302734375,-0.0873759765625,0.9988330078125,1.010788647389996,0.19775390625,0.1689453125,0.111328125,43.82411764705883,204.9327739297357
-0.1299833984375,-0.0859111328125,0.9983447265625,1.0104299083388426,0.18212890625,0.17431640625,0.1064453125,43.54176470588236,204.9327739297357
-0.1255888671875,-0.0917705078125,0.9929736328125,1.0050825961713084,0.1904296875,0.1962890625,0.04443359375,43.87117647058824,204.9327739297357
-0.1133818359375,-0.0961650390625,0.9802783203125,0.9914881445247576,0.17919921875,0.24658203125,-0.03466796875,43.82411764705883,204.9327739297357
-0.1045927734375,-0.0942119140625,0.9817431640625,0.9917838339023868,0.15185546875,0.28515625,-0.1044921875,43.777058823529416,204.6446111959078
-0.0914091796875,-0.0951884765625,0.9783251953125,0.9871862397666776,0.13916015625,0.3642578125,-0.1572265625,43.777058823529416,204.6446111959078
-0.0977568359375,-0.0937236328125,0.9768603515625,0.9862031559343616,0.13720703125,0.3916015625,-0.18994140625,43.68294117647059,204.6446111959078
-0.1119169921875,-0.0873759765625,0.9856494140625,0.9958236499814096,0.1416015625,0.3837890625,-0.20703125,43.82411764705883,204.6446111959078
-0.1216826171875,-0.0917705078125,0.9876025390625,0.9992933806407708,0.123046875,0.3955078125,-0.2158203125,43.49470588235295,204.6446111959078
-0.1299833984375,-0.0922587890625,0.9866259765625,0.9994189240036172,0.14013671875,0.39208984375,-0.2138671875,43.63588235294118,204.5895005814284
-0.1363310546875,-0.0947001953125,1.0002978515625005,1.0139773544340058,0.1474609375,0.40234375,-0.2353515625,44.01235294117648,204.5895005814284
-0.1363310546875,-0.0976298828125,1.0007861328125005,1.014736731433325,0.1689453125,0.38232421875,-0.2490234375,43.63588235294118,204.5895005814284
-0.1358427734375,-0.0947001953125,1.0037158203125005,1.017284047861271,0.16552734375,0.3671875,-0.240234375,43.68294117647059,204.5895005814284
-0.1373076171875,-0.0868876953125,1.0090869140625005,1.0220857368472602,0.14990234375,0.357421875,-0.2158203125,43.54176470588236,204.7564200745044
-0.1338896484375,-0.0927470703125,1.0100634765625005,1.023111276301749,0.16455078125,0.37060546875,-0.2001953125,43.777058823529416,204.7564200745044
-0.1270537109375,-0.0927470703125,1.0105517578125005,1.0227216237728016,0.1572265625,0.3486328125,-0.19287109375,44.01235294117648,204.7564200745044
-0.1246123046875,-0.0961650390625,1.0042041015625005,1.0164653554412817,0.16748046875,0.49951171875,-0.19384765625,43.49470588235295,204.7564200745044
-0.1270537109375,-0.0986064453125,1.0066455078125005,1.019412112405598,0.1513671875,0.40869140625,-0.21826171875,43.777058823529416,204.7564200745044
-0.1280302734375,-0.0990947265625,1.0071337890625005,1.0200637160591326,0.15673828125,0.373046875,-0.263671875,43.777058823529416,204.9472732699244
-0.1338896484375,-0.0947001953125,1.0056689453125005,1.0189526939543856,0.1650390625,0.3779296875,-0.28759765625,43.49470588235295,204.9472732699244
-0.1314482421875,-0.0937236328125,0.9993212890625,1.0122775303716331,0.15673828125,0.39599609375,-0.30029296875,43.49470588235295,204.9472732699244
-0.1343779296875,-0.0917705078125,0.9939501953125,1.007182329498001,0.16064453125,0.41259765625,-0.287109375,44.01235294117648,204.9472732699244
-0.1314482421875,-0.0883525390625,1.0007861328125005,1.013241183116228,0.17626953125,0.40087890625,-0.2822265625,43.777058823529416,204.67201647832889
-0.1324248046875,-0.0844462890625,0.9993212890625,1.0115881293325295,0.162109375,0.388671875,-0.25390625,43.82411764705883,204.67201647832889
-0.1382841796875,-0.0898173828125,0.9959033203125,1.0094617872988527,0.16552734375,0.40087890625,-0.2392578125,43.87117647058824,204.67201647832889
-0.1451201171875,-0.0927470703125,1.0002978515625005,1.0150160881998962,0.1806640625,0.43212890625,-0.2080078125,43.68294117647059,204.67201647832889
-0.1480498046875,-0.0932353515625,0.9993212890625,1.0145218648321617,0.17626953125,0.43603515625,-0.1962890625,43.82411764705883,204.67201647832889
-0.1495146484375,-0.0932353515625,0.9963916015625,1.0118516119187912,0.14892578125,0.443359375,-0.1953125,43.63588235294118,204.79862212397265
-0.1407255859375,-0.0947001953125,0.9988330078125,1.013133355005867,0.1826171875,0.4599609375,-0.201171875,44.01235294117648,204.79862212397265
-0.1329130859375,-0.0961650390625,1.0037158203125005,1.017034439484188,0.1650390625,0.46630859375,-0.1826171875,43.68294117647059,204.79862212397265
-0.1368193359375,-0.0961650390625,1.0042041015625005,1.0180339498362612,0.150390625,0.45654296875,-0.1982421875,43.54176470588236,204.79862212397265
-0.1363310546875,-0.0961650390625,1.0027392578125005,1.016523433260868,0.1494140625,0.43115234375,-0.20751953125,43.82411764705883,204.7233541241869
-0.1334013671875,-0.0966533203125,1.0032275390625005,1.0166628173727636,0.12841796875,0.42041015625,-0.21484375,43.82411764705883,204.7233541241869
-0.1368193359375,-0.0922587890625,1.0012744140625005,1.014781585909924,0.11962890625,0.40380859375,-0.2080078125,43.63588235294118,204.7233541241869
-0.1377958984375,-0.0966533203125,0.9959033203125,1.010026235977606,0.1162109375,0.41455078125,-0.216796875,43.777058823529416,204.7233541241869
-0.1417021484375,-0.0971416015625,0.9963916015625,1.0110945619922078,0.1142578125,0.3935546875,-0.2138671875,43.82411764705883,204.7233541241869
-0.1421904296875,-0.0951884765625,1.0002978515625005,1.0148274514446085,0.12060546875,0.39306640625,-0.1962890625,43.96529411764706,204.88114146121345
-0.1436552734375,-0.0990947265625,1.0012744140625005,1.0163695463142837,0.115234375,0.390625,-0.19970703125,43.68294117647059,204.88114146121345
-0.1397490234375,-0.0976298828125,0.9988330078125,1.013276251110961,0.123046875,0.3974609375,-0.20703125,43.63588235294118,204.88114146121345
-0.1412138671875,-0.0942119140625,0.9978564453125,1.012193028275273,0.11376953125,0.39892578125,-0.17919921875,43.87117647058824,204.88114146121345
-0.1353544921875,-0.0971416015625,0.9983447265625,1.0121509385287435,0.09521484375,0.3779296875,-0.1708984375,43.68294117647059,204.53061730679724
-0.1412138671875,-0.1015361328125,1.0022509765625005,1.0172305356078593,0.1044921875,0.3974609375,-0.14599609375,43.82411764705883,204.53061730679724
-0.1358427734375,-0.1000712890625,0.9959033203125,1.0100945230023202,0.10107421875,0.37744140625,-0.15380859375,43.54176470588236,204.53061730679724
-0.1348662109375,-0.1030009765625,0.9973681640625,1.0117022045596564,0.09423828125,0.3564453125,-0.134765625,43.82411764705883,204.53061730679724
-0.1431669921875,-0.0951884765625,0.9983447265625,1.0130398939713372,0.10498046875,0.357421875,-0.107421875,43.777058823529416,204.53061730679724
-0.1412138671875,-0.0986064453125,0.9963916015625,1.011168042912502,0.08203125,0.34423828125,-0.07958984375,43.447647058823534,204.7287202656449
-0.1436552734375,-0.1000712890625,0.9944384765625,1.0097321348501191,0.0830078125,0.34375,-0.06982421875,43.82411764705883,204.7287202656449
-0.1417021484375,-0.0990947265625,0.9954150390625,1.0103219109254724,0.07373046875,0.33251953125,-0.06103515625,43.82411764705883,204.7287202656449
-0.1387724609375,-0.0981181640625,0.9929736328125,1.007413324060437,0.0771484375,0.31298828125,-0.0615234375,43.63588235294118,204.7287202656449
-0.1343779296875,-0.0986064453125,1.0007861328125005,1.0145706198555453,0.08251953125,0.31982421875,-0.048828125,43.63588235294118,204.7306051063027
-0.1397490234375,-0.0986064453125,0.9988330078125,1.01337080977531,0.08740234375,0.32470703125,-0.072265625,43.447647058823534,204.7306051063027
-0.1397490234375,-0.0966533203125,0.9993212890625,1.0136639939608698,0.068359375,0.34912109375,-0.05029296875,43.82411764705883,204.7306051063027
-0.1412138671875,-0.0947001953125,0.9988330078125,1.0132012933144334,0.056640625,0.34130859375,-0.05859375,43.82411764705883,204.7306051063027
-0.1441435546875,-0.0966533203125,1.0007861328125005,1.0157224583099351,0.07177734375,0.3564453125,-0.06298828125,43.777058823529416,204.7306051063027
-0.1456083984375,-0.1000712890625,0.9973681640625,1.0128965017589735,0.060546875,0.34326171875,-0.06103515625,43.447647058823534,204.71044658002089
-0.1480498046875,-0.1000712890625,0.9988330078125,1.014692261258754,0.0615234375,0.35302734375,-0.052734375,43.87117647058824,204.71044658002089
-0.1426787109375,-0.1020244140625,0.9944384765625,1.00978912614839,0.0478515625,0.33740234375,-0.07470703125,43.82411764705883,204.71044658002089
-0.1441435546875,-0.1049541015625,1.0017626953125005,1.0175073589475927,0.04541015625,0.3447265625,-0.07666015625,43.82411764705883,204.71044658002089
-0.1460966796875,-0.0990947265625,0.9978564453125,1.0133516122747854,0.05810546875,0.337890625,-0.08935546875,43.54176470588236,204.80775842414417
-0.1456083984375,-0.1020244140625,1.0002978515625005,1.0159756781541986,0.03955078125,0.3330078125,-0.06787109375,43.777058823529416,204.80775842414417
-0.1426787109375,-0.1000712890625,0.9959033203125,1.0110365477364698,0.05322265625,0.3447265625,-0.05517578125,43.777058823529416,204.80775842414417
-0.1446318359375,-0.1000712890625,0.9973681640625,1.01275657763684,0.0439453125,0.349609375,-0.0244140625,44.01235294117648,204.80775842414417
-0.1441435546875,-0.0951884765625,0.9934619140625,1.0083673859863598,0.04833984375,0.3505859375,-0.0048828125,43.96529411764706,204.80775842414417
-0.1407255859375,-0.0995830078125,0.9973681640625,1.012157952430271,0.05224609375,0.333984375,0.01611328125,43.30647058823529,204.646200728318
-0.1417021484375,-0.0976298828125,0.9929736328125,1.0077736493631095,0.064453125,0.32763671875,0.01220703125,43.777058823529416,204.646200728318
-0.1421904296875,-0.0986064453125,0.9998095703125,1.014672620227997,0.076171875,0.3212890625,0.02392578125,43.82411764705883,204.646200728318
-0.1421904296875,-0.0971416015625,1.0042041015625005,1.0188623492129798,0.0439453125,0.32470703125,0.00732421875,43.777058823529416,204.646200728318
-0.1407255859375,-0.0937236328125,0.9929736328125,1.0072658265551744,0.06640625,0.326171875,-0.00537109375,43.87117647058824,204.56368305619725
-0.1417021484375,-0.0951884765625,1.0056689453125005,1.0200541027357566,0.0576171875,0.3134765625,-0.00244140625,43.68294117647059,204.56368305619725
-0.1451201171875,-0.0961650390625,0.9959033203125,1.011004938939404,0.06298828125,0.32470703125,0.0,43.82411764705883,204.56368305619725
-0.1441435546875,-0.0981181640625,1.0007861328125005,1.0158628953292583,0.0673828125,0.31005859375,-0.005859375,43.68294117647059,204.56368305619725
-0.1431669921875,-0.0942119140625,0.9919970703125,1.0066930316198277,0.05615234375,0.31494140625,0.0009765625,43.82411764705883,204.56368305619725
-0.1382841796875,-0.0947001953125,0.9929736328125,1.0070190051855643,0.07177734375,0.306640625,-0.0048828125,44.01235294117648,204.837053867704
-0.1412138671875,-0.0956767578125,0.9919970703125,1.006555306866018,0.07763671875,0.30517578125,0.0,43.68294117647059,204.837053867704
-0.1412138671875,-0.1005595703125,0.9978564453125,1.012803568772929,0.07275390625,0.31103515625,-0.0126953125,43.777058823529416,204.837053867704
-0.1436552734375,-0.0917705078125,0.9944384765625,1.0089432825280682,0.0673828125,0.3310546875,0.00341796875,43.87117647058824,204.837053867704
-0.1421904296875,-0.0947001953125,0.9998095703125,1.0143004595165122,0.07373046875,0.322265625,0.12451171875,43.96529411764706,204.69942469979517
-0.1436552734375,-0.0961650390625,0.9983447265625,1.0132012363688905,0.0615234375,0.3251953125,0.00830078125,43.68294117647059,204.69942469979517
-0.1436552734375,-0.0947001953125,0.9934619140625,1.008251724159872,0.06982421875,0.3408203125,0.02001953125,43.87117647058824,204.69942469979517
-0.1426787109375,-0.0937236328125,0.9978564453125,1.0123531100135257,0.09228515625,0.33349609375,0.02197265625,43.777058823529416,204.69942469979517
-0.1446318359375,-0.0981181640625,1.0012744140625005,1.0164132989792345,0.09912109375,0.328125,0.03759765625,43.82411764705883,204.69942469979517
-0.1446318359375,-0.0942119140625,0.9919970703125,1.0069023985603347,0.0791015625,0.35107421875,0.03369140625,43.87117647058824,204.63517887042028
-0.1460966796875,-0.0956767578125,0.9880908203125,1.0034050782147024,0.080078125,0.33642578125,0.03076171875,43.63588235294118,204.63517887042028
-0.1495146484375,-0.0947001953125,0.9934619140625,1.009103231479486,0.076171875,0.3505859375,0.0390625,43.82411764705883,204.63517887042028
-0.1524443359375,-0.0951884765625,0.9993212890625,1.0153537119660576,0.0595703125,0.349609375,0.0341796875,43.63588235294118,204.63517887042028
-0.1524443359375,-0.0961650390625,1.0007861328125005,1.0168873457404792,0.0830078125,0.33642578125,0.02978515625,43.63588235294118,204.82603200419848
-0.1529326171875,-0.0888408203125,0.9983447265625,1.0138901665411146,0.07568359375,0.34619140625,0.0166015625,43.68294117647059,204.82603200419848
-0.1529326171875,-0.0927470703125,0.9944384765625,1.010395114853252,0.09228515625,0.35498046875,0.03515625,44.01235294117648,204.82603200419848
-0.1539091796875,-0.0971416015625,0.9978564453125,1.0143184962317828,0.07763671875,0.34228515625,0.0546875,43.68294117647059,204.82603200419848
-0.1553740234375,-0.0942119140625,0.9924853515625,1.008981736691312,0.0830078125,0.34716796875,0.0478515625,43.82411764705883,204.82603200419848
-0.1597685546875,-0.1015361328125,0.9949267578125,1.0127758047785025,0.1025390625,0.37255859375,0.05810546875,43.63588235294118,204.45346437973248
-0.1597685546875,-0.0976298828125,0.9973681640625,1.0147910325630185,0.10205078125,0.36279296875,0.03173828125,43.63588235294118,204.45346437973248
-0.1587919921875,-0.1044658203125,0.9944384765625,1.0124405602623714,0.08642578125,0.35888671875,0.00244140625,43.82411764705883,204.45346437973248
-0.1587919921875,-0.1039775390625,0.9978564453125,1.015747857917538,0.08447265625,0.36328125,-0.0068359375,43.49470588235295,204.45346437973248
-0.1592802734375,-0.1034892578125,0.9993212890625,1.0172134833762496,0.0732421875,0.34423828125,-0.0380859375,43.777058823529416,204.80398831903452
-0.1519560546875,-0.0981181640625,0.9939501953125,1.0102746198123278,0.07666015625,0.341796875,-0.03857421875,43.87117647058824,204.80398831903452
-0.1475615234375,-0.0976298828125,0.9934619140625,1.0090949271054257,0.0625,0.32958984375,-0.033203125,43.87117647058824,204.80398831903452
-0.1407255859375,-0.1020244140625,0.9963916015625,1.0114390220208695,0.08056640625,0.318359375,0.00146484375,43.49470588235295,204.80398831903452
-0.1426787109375,-0.0976298828125,0.9895556640625,1.004544285161657,0.07861328125,0.34814453125,0.0068359375,44.01235294117648,204.80398831903452
-0.1426787109375,-0.1039775390625,0.9983447265625,1.013834669085366,0.06298828125,0.33447265625,-0.0107421875,43.87117647058824,204.6222719287804
-0.1553740234375,-0.1000712890625,0.9968798828125,1.013866288427646,0.05419921875,0.3056640625,-0.001953125,43.63588235294118,204.6222719287804
-0.1626982421875,-0.0995830078125,1.0002978515625005,1.0183237625119237,0.076171875,0.29541015625,0.02392578125,43.777058823529416,204.6222719287804
-0.1568388671875,-0.0971416015625,0.9910205078125,1.0080459155810966,0.0634765625,0.3203125,0.06787109375,43.87117647058824,204.6222719287804
-0.1534208984375,-0.0942119140625,0.9968798828125,1.013007086641033,0.09619140625,0.314453125,0.111328125,43.87117647058824,204.7306051063027
-0.1495146484375,-0.0942119140625,0.9919970703125,1.0076153543675743,0.09130859375,0.31494140625,0.14697265625,43.447647058823534,204.7306051063027
-0.1412138671875,-0.0922587890625,1.0066455078125005,1.0206802725851098,0.11767578125,0.29443359375,0.16845703125,43.777058823529416,204.7306051063027
-0.1451201171875,-0.0932353515625,0.9954150390625,1.0102493648527058,0.10205078125,0.26953125,0.1845703125,43.63588235294118,204.7306051063027
-0.1524443359375,-0.0917705078125,1.0002978515625005,1.0160004397165108,0.10546875,0.232421875,0.2001953125,43.96529411764706,204.7306051063027
-0.1573271484375,-0.0966533203125,1.0012744140625005,1.0181572315802256,0.1201171875,0.25634765625,0.234375,43.87117647058824,204.4773939833581
-0.1592802734375,-0.0956767578125,0.9978564453125,1.0150082427958578,0.0908203125,0.25439453125,0.23583984375,43.96529411764706,204.4773939833581
-0.1563505859375,-0.0951884765625,1.0032275390625005,1.019790099445317,0.11181640625,0.26513671875,0.26171875,43.63588235294118,204.4773939833581
-0.1524443359375,-0.0986064453125,0.9973681640625,1.0137582361204245,0.10107421875,0.28759765625,0.259765625,43.82411764705883,204.4773939833581
-0.1539091796875,-0.0947001953125,0.9973681640625,1.0136071316193995,0.10400390625,0.2861328125,0.26416015625,43.54176470588236,204.88839404888336
-0.1495146484375,-0.0912822265625,0.9929736328125,1.0083073491968857,0.1171875,0.2861328125,0.23779296875,43.447647058823534,204.88839404888336
-0.1485380859375,-0.0907939453125,0.9944384765625,1.0095617797575993,0.0966796875,0.3046875,0.22412109375,43.63588235294118,204.88839404888336
-0.1441435546875,-0.0932353515625,0.9998095703125,1.0144404231039876,0.091796875,0.29443359375,0.1953125,43.82411764705883,204.88839404888336
-0.1417021484375,-0.0942119140625,0.9973681640625,1.0117799357115782,0.095703125,0.28369140625,0.1767578125,43.87117647058824,204.88839404888336
-0.1441435546875,-0.0922587890625,0.9919970703125,1.0066514968080118,0.091796875,0.2646484375,0.1669921875,43.63588235294118,204.8865100291321
-0.1475615234375,-0.0932353515625,0.9993212890625,1.0144507246553258,0.09375,0.2822265625,0.1318359375,43.96529411764706,204.8865100291321
-0.1490263671875,-0.0956767578125,0.9988330078125,1.0144112960719538,0.0732421875,0.25927734375,0.1240234375,43.96529411764706,204.8865100291321
-0.1539091796875,-0.0922587890625,0.9983447265625,1.0143430942272496,0.08251953125,0.26513671875,0.11328125,43.87117647058824,204.8865100291321
-0.1519560546875,-0.0917705078125,0.9983447265625,1.0140042710538786,0.068359375,0.28662109375,0.2490234375,43.30647058823529,204.67738098119088
-0.1534208984375,-0.0888408203125,1.0002978515625005,1.0158870287939117,0.1083984375,0.2822265625,0.12255859375,43.96529411764706,204.67738098119088
-0.1504912109375,-0.0947001953125,1.0007861328125005,1.016458860550421,0.08251953125,0.29150390625,0.1279296875,43.87117647058824,204.67738098119088
-0.1504912109375,-0.0917705078125,0.9944384765625,1.00993926269927,0.06787109375,0.29248046875,0.1279296875,43.68294117647059,204.67738098119088
-0.1524443359375,-0.0907939453125,0.9988330078125,1.014470400534486,0.0859375,0.31982421875,0.13525390625,43.87117647058824,204.67738098119088
-0.1563505859375,-0.0932353515625,0.9944384765625,1.0109630162236047,0.0859375,0.296875,0.15380859375,43.82411764705883,204.82226339503464
-0.1509794921875,-0.0917705078125,0.9973681640625,1.0128967804523623,0.07080078125,0.29736328125,0.14501953125,43.63588235294118,204.82226339503464
-0.1514677734375,-0.0917705078125,0.9983447265625,1.0139312134210243,0.08544921875,0.3056640625,0.13916015625,43.54176470588236,204.82226339503464
-0.1475615234375,-0.0971416015625,0.9924853515625,1.0080863390699542,0.0654296875,0.3056640625,0.1416015625,43.54176470588236,204.82226339503464
-0.1504912109375,-0.1000712890625,0.9959033203125,1.012168607927319,0.06689453125,0.30224609375,0.09326171875,43.777058823529416,204.83328513580264
-0.1504912109375,-0.0942119140625,0.9988330078125,1.0144904468828284,0.05908203125,0.3056640625,0.09375,44.01235294117648,204.83328513580264
-0.1568388671875,-0.0912822265625,0.9944384765625,1.0108604052067782,0.0673828125,0.31982421875,0.083984375,43.82411764705883,204.83328513580264
-0.1543974609375,-0.0966533203125,0.9895556640625,1.0061813219045328,0.06591796875,0.3173828125,0.07958984375,43.68294117647059,204.83328513580264
-0.1543974609375,-0.0937236328125,0.9949267578125,1.0111883843789011,0.0498046875,0.3154296875,0.0830078125,43.63588235294118,204.83328513580264
-0.1529326171875,-0.0927470703125,0.9910205078125,1.007031306045803,0.06591796875,0.33740234375,0.08154296875,43.63588235294118,204.7599011160904
-0.1524443359375,-0.0942119140625,0.9954150390625,1.0114179454125498,0.0556640625,0.3525390625,0.03564453125,43.96529411764706,204.7599011160904
-0.1524443359375,-0.0951884765625,0.9954150390625,1.011509377920696,0.046875,0.35107421875,0.046875,44.01235294117648,204.7599011160904
-0.1539091796875,-0.0912822265625,0.9915087890625,1.007526753623184,0.06494140625,0.37841796875,0.0302734375,43.777058823529416,204.7599011160904
-0.1568388671875,-0.0927470703125,0.9929736328125,1.009552913310176,0.0654296875,0.359375,0.041015625,43.54176470588236,204.93973509285576
-0.1539091796875,-0.0888408203125,0.9954150390625,1.0111537108361297,0.064453125,0.35498046875,0.04833984375,43.96529411764706,204.93973509285576
-0.1563505859375,-0.0917705078125,0.9983447265625,1.0146721267889034,0.0458984375,0.35693359375,0.0576171875,43.82411764705883,204.93973509285576
-0.1587919921875,-0.0932353515625,0.9924853515625,1.0094230533478008,0.05859375,0.34716796875,0.0625,44.71823529411765,204.93973509285576
-0.1573271484375,-0.0947001953125,0.9978564453125,1.014611967246296,0.052734375,0.34912109375,0.07861328125,43.87117647058824,204.93973509285576
-0.1543974609375,-0.0976298828125,0.9949267578125,1.0115579189414825,0.05908203125,0.32421875,0.0869140625,43.87117647058824,204.50668781492467
-0.1573271484375,-0.0956767578125,0.9944384765625,1.0113425519026344,0.056640625,0.32861328125,0.0546875,43.49470588235295,204.50668781492467
-0.1543974609375,-0.0971416015625,1.0007861328125005,1.017274766387073,0.0576171875,0.31982421875,0.0712890625,43.63588235294118,204.50668781492467
-0.1519560546875,-0.0961650390625,0.9915087890625,1.0076844923299495,0.076171875,0.30078125,0.06201171875,43.63588235294118,204.50668781492467
-0.1563505859375,-0.1020244140625,0.9910205078125,1.0084523457718473,0.05078125,0.31884765625,0.0654296875,43.54176470588236,204.63329371136604
-0.1529326171875,-0.0971416015625,0.9895556640625,1.0060046165063663,0.0439453125,0.3095703125,0.0556640625,43.82411764705883,204.63329371136604
-0.1524443359375,-0.1005595703125,0.9939501953125,1.0105881918480035,0.05029296875,0.31396484375,0.07666015625,43.63588235294118,204.63329371136604
-0.1524443359375,-0.0927470703125,0.9934619140625,1.009360128647701,0.02880859375,0.333984375,0.0908203125,43.68294117647059,204.63329371136604
-0.1592802734375,-0.0990947265625,0.9949267578125,1.0124570231620276,0.04052734375,0.326171875,0.10205078125,43.68294117647059,204.63329371136604
-0.1563505859375,-0.0986064453125,0.9900439453125,1.0071522975350389,0.04150390625,0.326171875,0.1240234375,43.63588235294118,204.53786781909065
-0.1553740234375,-0.0986064453125,0.9895556640625,1.00652110285602,0.05517578125,0.3115234375,0.14501953125,43.82411764705883,204.53786781909065
-0.1485380859375,-0.0995830078125,0.9934619140625,1.00942900350232,0.03466796875,0.26904296875,0.14111328125,43.447647058823534,204.53786781909065
-0.1426787109375,-0.0986064453125,0.9885791015625,1.0036777797969194,0.0517578125,0.25390625,0.11767578125,43.87117647058824,204.53786781909065
-0.1392607421875,-0.1025126953125,0.9871142578125,1.0021461794526634,0.03955078125,0.27587890625,0.11669921875,43.777058823529416,204.64431550790235
-0.1421904296875,-0.1020244140625,0.9919970703125,1.0073158823666464,0.02587890625,0.2841796875,0.09033203125,43.63588235294118,204.64431550790235
-0.1460966796875,-0.0995830078125,0.9827197265625,0.9984984107327218,0.02294921875,0.29443359375,0.0908203125,43.63588235294118,204.64431550790235
-0.1470732421875,-0.1010478515625,0.9827197265625,0.99878890054306,0.01806640625,0.2978515625,0.091796875,43.82411764705883,204.64431550790235
-0.1504912109375,-0.0995830078125,0.9880908203125,1.0044340940053005,0.01708984375,0.34814453125,0.09033203125,43.777058823529416,204.64431550790235
-0.1583037109375,-0.0971416015625,0.9934619140625,1.0106745917175506,0.00146484375,0.33544921875,0.1181640625,43.68294117647059,204.6222719287804
-0.1597685546875,-0.1039775390625,0.9900439453125,1.008228314096746,0.01025390625,0.3037109375,0.13818359375,43.63588235294118,204.6222719287804
-0.1631865234375,-0.0990947265625,0.9885791015625,1.0068456914096788,0.0048828125,0.2783203125,0.17236328125,43.96529411764706,204.6222719287804
-0.1597685546875,-0.1059306640625,0.9876025390625,1.0060348263446708,-0.0009765625,0.27587890625,0.20556640625,43.82411764705883,204.6222719287804
-0.1573271484375,-0.1108134765625,0.9924853515625,1.0109691544698494,-0.005859375,0.25341796875,0.22265625,43.54176470588236,204.92682994082955
-0.1543974609375,-0.1113017578125,0.9959033203125,1.0139280451025907,-0.03173828125,0.24169921875,0.232421875,43.447647058823534,204.92682994082955
-0.1636748046875,-0.1103251953125,0.9919970703125,1.0114441546219028,-0.0390625,0.2509765625,0.2392578125,43.49470588235295,204.92682994082955
-0.1651396484375,-0.1098369140625,0.9905322265625,1.0101927256893597,-0.0537109375,0.25048828125,0.24853515625,44.01235294117648,204.92682994082955
-0.1700224609375,-0.1113017578125,0.9939501953125,1.0145110690757164,-0.0654296875,0.2412109375,0.29150390625,43.82411764705883,204.92682994082955
-0.1724638671875,-0.1142314453125,0.9929736328125,1.014292484466046,-0.09033203125,0.16796875,0.3232421875,43.49470588235295,204.76715490041067
-0.1822294921875,-0.1142314453125,0.9876025390625,1.0107498137935984,-0.07275390625,0.099609375,0.36865234375,43.63588235294118,204.76715490041067
-0.1846708984375,-0.1147197265625,0.9846728515625,1.008387118618893,-0.09423828125,-0.00244140625,0.43017578125,44.01235294117648,204.76715490041067
-0.1792998046875,-0.1171611328125,0.9895556640625,1.0124700308063737,-0.080078125,-0.05224609375,0.5087890625,43.54176470588236,204.76715490041067
-0.1612333984375,-0.1171611328125,0.9827197265625,1.002726782722337,-0.07177734375,-0.08349609375,0.6015625,43.68294117647059,204.61850303946156
-0.1558623046875,-0.1171611328125,0.9768603515625,0.9961304811716276,-0.06005859375,-0.0869140625,0.60009765625,43.68294117647059,204.61850303946156
-0.1612333984375,-0.1117900390625,0.9812548828125,1.000676954190849,-0.06982421875,-0.119140625,0.6103515625,43.82411764705883,204.61850303946156
-0.1685576171875,-0.1108134765625,0.9866259765625,1.0070363024875033,-0.111328125,-0.08544921875,0.65478515625,43.82411764705883,204.61850303946156
-0.1734404296875,-0.1025126953125,0.9959033203125,1.0160776834277387,-0.13916015625,-0.048828125,0.6796875,43.777058823529416,204.61850303946156
-0.1695341796875,-0.0971416015625,0.9880908203125,1.007224800142585,-0.14697265625,0.0244140625,0.76025390625,44.01235294117648,204.734089971017
-0.1646513671875,-0.1015361328125,0.9949267578125,1.013557552581265,-0.15185546875,0.1015625,0.8076171875,44.29470588235294,204.734089971017
-0.1573271484375,-0.1108134765625,1.0002978515625005,1.01863990205759,-0.18896484375,0.1201171875,0.85546875,43.777058823529416,204.734089971017
-0.1539091796875,-0.1103251953125,0.9959033203125,1.0137470629907062,-0.1923828125,0.1455078125,0.87890625,43.447647058823534,204.734089971017
-0.1548857421875,-0.1171611328125,1.0017626953125005,1.020414044344082,-0.2275390625,0.19482421875,0.8740234375,43.87117647058824,204.7891982564151
-0.1534208984375,-0.1166728515625,0.9968798828125,1.0153423201686014,-0.29150390625,0.23828125,0.87060546875,43.63588235294118,204.7891982564151
-0.1612333984375,-0.1142314453125,1.0007861328125005,1.020106815730435,-0.31298828125,0.2568359375,0.86767578125,43.68294117647059,204.7891982564151
-0.1646513671875,-0.1166728515625,1.0007861328125005,1.020928749050705,-0.32470703125,0.2880859375,0.91357421875,43.49470588235295,204.7891982564151
-0.1612333984375,-0.1176494140625,0.9924853515625,1.012356047281338,-0.34130859375,0.359375,0.9599609375,43.96529411764706,204.7891982564151
-0.1622099609375,-0.1215556640625,0.9861376953125,1.00675488824702,-0.3271484375,0.361328125,0.9794921875,43.87117647058824,204.88462644473972
-0.1675810546875,-0.1269267578125,0.9929736328125,1.014982978773448,-0.333984375,0.36181640625,1.0390625,43.63588235294118,204.88462644473972
-0.1685576171875,-0.1259501953125,0.9880908203125,1.0102467971723612,-0.32177734375,0.35986328125,1.09423828125,43.68294117647059,204.88462644473972
-0.1675810546875,-0.1303447265625,0.9851611328125,1.0077775623803282,-0.330078125,0.30615234375,1.15966796875,43.68294117647059,204.88462644473972
-0.1680693359375,-0.1269267578125,0.9895556640625,1.0117203743176475,-0.30615234375,0.3212890625,1.22314453125,43.96529411764706,204.97817246448997
-0.1719755859375,-0.1274150390625,0.9905322265625,1.0133924640516667,-0.3154296875,0.28564453125,1.2861328125,43.54176470588236,204.97817246448997
-0.1719755859375,-0.1352275390625,0.9993212890625,1.022988332412928,-0.3076171875,0.2763671875,1.3642578125,43.63588235294118,204.97817246448997
-0.1700224609375,-0.1337626953125,1.0032275390625005,1.0262872848349571,-0.28369140625,0.2568359375,1.43408203125,43.54176470588236,204.97817246448997
-0.1646513671875,-0.1362041015625,0.9968798828125,1.0195249534736384,-0.28857421875,0.2119140625,1.51513671875,43.777058823529416,204.97817246448997
-0.1656279296875,-0.1376689453125,0.9978564453125,1.020834381791543,-0.2587890625,0.203125,1.57421875,43.54176470588236,204.86258308312756
-0.1592802734375,-0.1274150390625,0.9978564453125,1.018490197860206,-0.22705078125,0.2080078125,1.66455078125,43.68294117647059,204.86258308312756
-0.1631865234375,-0.1274150390625,0.9924853515625,1.013849893562679,-0.2197265625,0.21240234375,1.7099609375,43.82411764705883,204.86258308312756
-0.1587919921875,-0.1239970703125,1.0007861328125005,1.0208638762630196,-0.20703125,0.23486328125,1.755859375,43.82411764705883,204.86258308312756
-0.1612333984375,-0.1186259765625,0.9973681640625,1.0172568927131995,-0.2109375,0.2392578125,1.7763671875,43.82411764705883,204.82037974348617
-0.1626982421875,-0.1176494140625,0.9924853515625,1.0125903790310726,-0.22509765625,0.228515625,1.81982421875,43.87117647058824,204.82037974348617
-0.1670927734375,-0.1161845703125,0.9973681640625,1.0179204801943706,-0.20166015625,0.20556640625,1.81787109375,43.82411764705883,204.82037974348617
-0.1700224609375,-0.1176494140625,0.9944384765625,1.015705127249262,-0.19287109375,0.18896484375,1.81884765625,43.777058823529416,204.82037974348617
-0.1666044921875,-0.1127666015625,0.9929736328125,1.0131485570763372,-0.1865234375,0.17578125,1.81298828125,43.447647058823534,204.82037974348617
-0.1587919921875,-0.1132548828125,0.9861376953125,1.005240826558491,-0.1640625,0.146484375,1.79541015625,43.30647058823529,204.93596861647484
-0.1558623046875,-0.1093486328125,0.9817431640625,1.000034910242593,-0.19580078125,0.13916015625,1.783203125,43.63588235294118,204.93596861647484
-0.1524443359375,-0.1103251953125,0.9856494140625,1.0034518880952472,-0.16064453125,0.15087890625,1.75244140625,43.96529411764706,204.93596861647484
-0.1519560546875,-0.1059306640625,0.9934619140625,1.010583258736082,-0.1552734375,0.15185546875,1.71337890625,43.54176470588236,204.93596861647484
-0.1583037109375,-0.1015361328125,0.9949267578125,1.012545754311574,-0.150390625,0.150390625,1.681640625,43.82411764705883,204.61850303946156
-0.1607451171875,-0.0981181640625,0.9929736328125,1.010674429418036,-0.15625,0.15380859375,1.6455078125,43.87117647058824,204.61850303946156
-0.1583037109375,-0.0971416015625,0.9944384765625,1.0116345384172374,-0.150390625,0.16455078125,1.61669921875,43.87117647058824,204.61850303946156
-0.1587919921875,-0.0898173828125,0.9993212890625,1.0158371413822684,-0.16015625,0.1748046875,1.57421875,43.82411764705883,204.61850303946156
-0.1597685546875,-0.0893291015625,0.9949267578125,1.011624897313322,-0.146484375,0.1630859375,1.52392578125,43.63588235294118,204.61850303946156
-0.1646513671875,-0.0937236328125,0.9885791015625,1.0065698346912673,-0.1484375,0.1533203125,1.466796875,43.82411764705883,204.5873221864827
-0.1622099609375,-0.0898173828125,0.9959033203125,1.0130166124462592,-0.1533203125,0.15625,1.435546875,43.777058823529416,204.5873221864827
-0.1607451171875,-0.0878642578125,0.9924853515625,1.0092503621830926,-0.17333984375,0.14013671875,1.39306640625,43.82411764705883,204.5873221864827
-0.1602568359375,-0.0878642578125,0.9949267578125,1.011573840447119,-0.15380859375,0.10498046875,1.34716796875,43.777058823529416,204.5873221864827
-0.1573271484375,-0.0903056640625,0.9998095703125,1.0161329251066074,-0.1513671875,0.080078125,1.30224609375,43.96529411764706,204.63140898766576
-0.1543974609375,-0.0844462890625,0.9929736328125,1.0084475133298847,-0.13720703125,0.04833984375,1.2822265625,43.82411764705883,204.63140898766576
-0.1524443359375,-0.0883525390625,0.9905322265625,1.0060812783155644,-0.154296875,0.03759765625,1.23828125,43.82411764705883,204.63140898766576
-0.1475615234375,-0.0888408203125,0.9880908203125,1.002990809398981,-0.14111328125,0.02587890625,1.2021484375,43.82411764705883,204.63140898766576
-0.1446318359375,-0.0888408203125,0.9944384765625,1.0088205702643045,-0.130859375,0.01220703125,1.17919921875,43.447647058823534,204.63140898766576
-0.1460966796875,-0.0912822265625,0.9944384765625,1.009249507490524,-0.1103515625,0.02685546875,1.13720703125,43.82411764705883,204.67172737972191
-0.1421904296875,-0.0873759765625,0.9993212890625,1.0131612499244644,-0.10205078125,0.01708984375,1.08056640625,43.96529411764706,204.67172737972191
-0.1431669921875,-0.0951884765625,0.9973681640625,1.012077511067066,-0.11328125,0.0302734375,1.03076171875,43.49470588235295,204.67172737972191
-0.1446318359375,-0.0937236328125,0.9963916015625,1.011186783427527,-0.1064453125,0.01416015625,0.96337890625,43.777058823529416,204.67172737972191
-0.1460966796875,-0.0937236328125,0.9973681640625,1.0123594291795217,-0.10693359375,0.02783203125,0.88134765625,43.68294117647059,204.93408603132275
-0.1485380859375,-0.0873759765625,1.0007861328125005,1.015515144093886,-0.1025390625,0.04296875,0.86328125,43.54176470588236,204.93408603132275
-0.1534208984375,-0.0932353515625,1.0007861328125005,1.016761371457508,-0.08935546875,0.04638671875,0.806640625,43.49470588235295,204.93408603132275
-0.1607451171875,-0.0907939453125,1.0076220703125005,1.0243948310031057,-0.08544921875,0.02685546875,0.76025390625,43.49470588235295,204.93408603132275
-0.1587919921875,-0.0922587890625,1.0027392578125005,1.0194177750561924,-0.06689453125,0.00927734375,0.87451171875,43.82411764705883,204.93408603132275
-0.1631865234375,-0.0927470703125,1.0085986328125005,1.025915719050261,-0.0654296875,0.0048828125,0.72412109375,43.68294117647059,204.79833642652008
-0.1631865234375,-0.0937236328125,1.0105517578125005,1.0279245186282524,-0.06689453125,-0.02783203125,0.7177734375,43.777058823529416,204.79833642652008
-0.1651396484375,-0.0927470703125,1.0085986328125005,1.0262282030079166,-0.04296875,-0.05029296875,0.69873046875,43.87117647058824,204.79833642652008
-0.1651396484375,-0.0917705078125,1.0056689453125005,1.0232609428470247,-0.02001953125,-0.0751953125,0.65625,43.63588235294118,204.79833642652008
-0.1529326171875,-0.0927470703125,1.0022509765625005,1.018085175450392,-0.02392578125,-0.08056640625,0.63427734375,43.87117647058824,204.8956481464645
-0.1500029296875,-0.0981181640625,0.9968798828125,1.0128660097910742,-0.029296875,-0.06396484375,0.60302734375,43.40058823529412,204.8956481464645
-0.1446318359375,-0.0927470703125,0.9880908203125,1.002917671697948,-0.0390625,-0.03857421875,0.55419921875,43.63588235294118,204.8956481464645
-0.1373076171875,-0.0981181640625,0.9939501953125,1.0081753550937762,-0.03955078125,-0.005859375,0.484375,43.87117647058824,204.8956481464645
-0.1343779296875,-0.1000712890625,0.9900439453125,1.0041208615160178,-0.07373046875,0.03125,0.4169921875,43.82411764705883,204.8956481464645
-0.1324248046875,-0.1030009765625,0.9900439453125,1.0041576289205256,-0.0908203125,0.08056640625,0.34228515625,43.96529411764706,204.5249610585834
-0.1304716796875,-0.1054423828125,0.9915087890625,1.0055996390621074,-0.0576171875,0.0595703125,0.27587890625,43.63588235294118,204.5249610585834
-0.1241240234375,-0.1088603515625,0.9934619140625,1.0070868502911507,-0.08251953125,0.05615234375,0.23291015625,43.54176470588236,204.5249610585834
-0.1255888671875,-0.1039775390625,0.9983447265625,1.011571097474659,-0.06298828125,0.03271484375,0.205078125,43.777058823529416,204.5249610585834
-0.1280302734375,-0.1015361328125,0.9924853515625,1.0058471604817194,-0.07421875,0.0517578125,0.1728515625,43.777058823529416,204.76715490041067
-0.1338896484375,-0.1064189453125,0.9978564453125,1.0124074848260658,-0.06201171875,0.0703125,0.18505859375,43.96529411764706,204.76715490041067
-0.1431669921875,-0.1025126953125,1.0012744140625005,1.016639608026587,-0.03125,0.0751953125,0.17822265625,43.82411764705883,204.76715490041067
-0.1382841796875,-0.1025126953125,1.0017626953125005,1.016444718010696,-0.05517578125,0.1025390625,0.16943359375,43.54176470588236,204.76715490041067
-0.1334013671875,-0.1020244140625,1.0110400390625005,1.024893587851828,-0.05126953125,0.12158203125,0.18359375,43.87117647058824,204.76715490041067
-0.1231474609375,-0.1069072265625,1.0017626953125005,1.014949727792665,-0.01318359375,0.12939453125,0.1640625,43.777058823529416,204.56527886958548
-0.1294951171875,-0.1113017578125,1.0027392578125005,1.017174068596875,-0.029296875,0.11767578125,0.1259765625,43.82411764705883,204.56527886958548
-0.1319365234375,-0.1088603515625,1.0007861328125005,1.015298333490647,-0.03369140625,0.1376953125,0.07666015625,43.447647058823534,204.56527886958548
-0.1485380859375,-0.1020244140625,0.9998095703125,1.0159191507827967,-0.044921875,0.12646484375,0.0537109375,43.63588235294118,204.56527886958548
-0.1456083984375,-0.1025126953125,0.9968798828125,1.0126599425039142,-0.0302734375,0.2470703125,0.041015625,43.777058823529416,204.55425723206045
-0.1397490234375,-0.1034892578125,0.9998095703125,1.0148196849306694,-0.0029296875,0.13916015625,0.05126953125,43.777058823529416,204.55425723206045
-0.1338896484375,-0.1030009765625,0.9968798828125,1.0110910640925523,-0.01123046875,0.13525390625,0.03515625,43.82411764705883,204.55425723206045
-0.1246123046875,-0.1093486328125,0.9968798828125,1.0105715465684542,-0.00830078125,0.1279296875,0.025390625,43.54176470588236,204.55425723206045
-0.1285185546875,-0.1103251953125,0.9983447265625,1.012610912776896,-0.0009765625,0.17041015625,0.00439453125,43.777058823529416,204.55425723206045
-0.1304716796875,-0.1083720703125,1.0037158203125005,1.0179453879113016,0.12451171875,0.16650390625,-0.0107421875,43.447647058823534,204.76715490041067
-0.1309599609375,-0.1093486328125,1.0007861328125005,1.0152243685493931,0.03173828125,0.19140625,0.015625,43.777058823529416,204.76715490041067
-0.1368193359375,-0.1113017578125,0.9968798828125,1.0123621450522509,0.03955078125,0.20458984375,0.009765625,43.68294117647059,204.76715490041067
-0.1377958984375,-0.1083720703125,0.9988330078125,1.0141003859311863,0.0556640625,0.20361328125,0.03955078125,43.68294117647059,204.76715490041067
-0.1294951171875,-0.1147197265625,1.0007861328125005,1.0156291078281374,0.04931640625,0.2080078125,0.0322265625,43.777058823529416,204.7211852565338
-0.1280302734375,-0.1098369140625,1.0076220703125005,1.0216448185098888,0.0361328125,0.1923828125,-0.017578125,43.68294117647059,204.7211852565338
-0.1299833984375,-0.1093486328125,0.9998095703125,1.0141360777803887,0.03857421875,0.21044921875,-0.0400390625,43.87117647058824,204.7211852565338
-0.1275419921875,-0.1142314453125,1.0042041015625005,1.0186960589225265,0.03662109375,0.20751953125,-0.07666015625,43.63588235294118,204.7211852565338
-0.1270537109375,-0.1122783203125,1.0022509765625005,1.0164920494994891,0.0537109375,0.20751953125,-0.09326171875,43.68294117647059,204.7211852565338
-0.1334013671875,-0.1142314453125,1.0017626953125005,1.017041417831861,0.03759765625,0.228515625,-0.091796875,43.82411764705883,204.73597356698903
-0.1309599609375,-0.1098369140625,1.0012744140625005,1.0157583921955693,0.0634765625,0.22021484375,-0.0810546875,43.68294117647059,204.73597356698903
-0.1324248046875,-0.1152080078125,1.0002978515625005,1.0155811172925584,0.03076171875,0.19921875,-0.107421875,43.82411764705883,204.73597356698903
-0.1348662109375,-0.1142314453125,1.0027392578125005,1.0181963156038156,0.060546875,0.21240234375,-0.12158203125,43.63588235294118,204.73597356698903
-0.1314482421875,-0.1156962890625,1.0007861328125005,1.015990725994493,0.02783203125,0.22265625,-0.1142578125,43.777058823529416,204.7047924262453
-0.1299833984375,-0.1176494140625,1.0071337890625005,1.022279578965559,0.052734375,0.21435546875,-0.1015625,43.777058823529416,204.7047924262453
-0.1265654296875,-0.1113017578125,0.9993212890625,1.0134347182022485,0.06005859375,0.24462890625,-0.10595703125,43.96529411764706,204.7047924262453
-0.1299833984375,-0.1200908203125,0.9973681640625,1.0129465650655485,0.0517578125,0.27001953125,-0.10595703125,43.777058823529416,204.7047924262453
-0.1260771484375,-0.1137431640625,0.9978564453125,1.012200790446628,0.0517578125,0.28759765625,-0.09619140625,43.63588235294118,204.7047924262453
-0.1338896484375,-0.1152080078125,0.9949267578125,1.0104843276538906,0.06591796875,0.28662109375,-0.09375,43.40058823529412,204.8074749232069
-0.1314482421875,-0.1166728515625,0.9954150390625,1.0108126901942354,0.07177734375,0.28173828125,-0.0693359375,43.82411764705883,204.8074749232069
-0.1358427734375,-0.1147197265625,1.0037158203125005,1.0193425933921147,0.06640625,0.27294921875,-0.0478515625,43.68294117647059,204.8074749232069
-0.1314482421875,-0.1166728515625,1.0017626953125005,1.0170642518472832,0.06494140625,0.24365234375,-0.00830078125,43.68294117647059,204.8074749232069
-0.1309599609375,-0.1176494140625,0.9915087890625,1.0070161740439854,0.0888671875,0.2587890625,0.0078125,43.82411764705883,204.40749212333327
-0.1255888671875,-0.1200908203125,0.9988330078125,1.0138351671650252,0.08935546875,0.26171875,0.0400390625,43.49470588235295,204.40749212333327
-0.1270537109375,-0.1205791015625,1.0007861328125005,1.0159994334774054,0.08935546875,0.26904296875,0.03466796875,44.57705882352941,204.40749212333327
-0.1324248046875,-0.1200908203125,1.0017626953125005,1.017588635814894,0.0712890625,0.287109375,0.06591796875,43.49470588235295,204.40749212333327
-0.1348662109375,-0.1147197265625,0.9998095703125,1.0153662823846767,0.09912109375,0.28759765625,0.0654296875,43.54176470588236,204.40749212333327
-0.1373076171875,-0.1132548828125,0.9973681640625,1.0131255129074503,0.07568359375,0.287109375,0.07275390625,43.68294117647059,204.64054637310844
-0.1329130859375,-0.1161845703125,1.0017626953125005,1.017198722232728,0.078125,0.2861328125,0.078125,43.49470588235295,204.64054637310844
-0.1343779296875,-0.1171611328125,1.0012744140625005,1.0170224241801211,0.0732421875,0.28662109375,0.07177734375,43.87117647058824,204.64054637310844
-0.1343779296875,-0.1200908203125,0.9944384765625,1.0106369856572506,0.0703125,0.3115234375,0.044921875,43.96529411764706,204.64054637310844
-0.1285185546875,-0.1210673828125,0.9993212890625,1.0147991766125797,0.04833984375,0.2978515625,0.03564453125,43.68294117647059,204.6276408463075
-0.1304716796875,-0.1191142578125,0.9959033203125,1.0114516740923227,0.03466796875,0.294921875,0.0517578125,43.82411764705883,204.6276408463075
-0.1275419921875,-0.1210673828125,0.9973681640625,1.012752450324178,0.03466796875,0.29248046875,0.0390625,43.63588235294118,204.6276408463075
-0.1304716796875,-0.1205791015625,0.9924853515625,1.0082605575942345,0.04736328125,0.302734375,0.06201171875,43.82411764705883,204.6276408463075
-0.1290068359375,-0.1191142578125,0.9900439453125,1.0054939004204693,0.0380859375,0.29296875,0.08642578125,43.447647058823534,204.6276408463075
-0.1280302734375,-0.1181376953125,0.9939501953125,1.009101212333028,0.04248046875,0.28466796875,0.1142578125,43.30647058823529,204.55425723206045
-0.1299833984375,-0.1215556640625,0.9919970703125,1.0078341385583347,0.0185546875,0.2939453125,0.1328125,43.87117647058824,204.55425723206045
-0.1285185546875,-0.1239970703125,0.9983447265625,1.0141915427571857,0.01318359375,0.2607421875,0.13427734375,43.87117647058824,204.55425723206045
-0.1285185546875,-0.1244853515625,0.9915087890625,1.0075233498241063,0.01806640625,0.259765625,0.1455078125,43.777058823529416,204.55425723206045
-0.1294951171875,-0.1196025390625,0.9963916015625,1.011864603783473,0.033203125,0.255859375,0.17138671875,43.82411764705883,204.89376493605985
-0.1265654296875,-0.1196025390625,0.9900439453125,1.0052415575333715,0.017578125,0.24169921875,0.17626953125,43.82411764705883,204.89376493605985
-0.1270537109375,-0.1220439453125,0.9973681640625,1.0128082862693375,0.02783203125,0.2470703125,0.177734375,43.54176470588236,204.89376493605985
-0.1304716796875,-0.1225322265625,0.9993212890625,1.0152241351151865,0.0087890625,0.28125,0.17333984375,43.87117647058824,204.89376493605985
-0.1309599609375,-0.1220439453125,0.9988330078125,1.01474756144174,0.0078125,0.267578125,0.1630859375,43.87117647058824,204.89376493605985
-0.1343779296875,-0.1220439453125,0.9915087890625,1.0079890035921644,0.01611328125,0.2666015625,0.17724609375,43.777058823529416,204.59457609269936
-0.1304716796875,-0.1196025390625,0.9856494140625,1.0014151956069093,0.01904296875,0.25341796875,0.1845703125,43.63588235294118,204.59457609269936
-0.1294951171875,-0.1205791015625,0.9919970703125,1.007653954796788,-0.01123046875,0.24658203125,0.2041015625,43.777058823529416,204.59457609269936
-0.1270537109375,-0.1191142578125,0.9963916015625,1.0114974421823797,0.00927734375,0.26171875,0.23876953125,43.54176470588236,204.59457609269936
-0.1255888671875,-0.1225322265625,0.9915087890625,1.0069142907397772,-0.0068359375,0.2802734375,0.24755859375,43.68294117647059,205.0405374411316
-0.1324248046875,-0.1215556640625,0.9944384765625,1.0105542993971892,-0.013671875,0.271484375,0.26513671875,43.777058823529416,205.0405374411316
-0.1407255859375,-0.1225322265625,1.0002978515625005,1.0175527646880875,-0.00537109375,0.29638671875,0.283203125,43.777058823529416,205.0405374411316
-0.1475615234375,-0.1205791015625,0.9963916015625,1.0144505639000352,-0.0048828125,0.29296875,0.29541015625,43.96529411764706,205.0405374411316
-0.1500029296875,-0.1220439453125,1.0012744140625005,1.0197774540351816,-0.009765625,0.30029296875,0.30078125,43.82411764705883,205.0405374411316
-0.1485380859375,-0.1225322265625,1.0012744140625005,1.0196215777319266,0.00390625,0.28955078125,0.31591796875,43.777058823529416,204.80559220373277
-0.1412138671875,-0.1225322265625,1.0007861328125005,1.0181003813289788,0.00244140625,0.28564453125,0.3291015625,43.63588235294118,204.80559220373277
-0.1319365234375,-0.1205791015625,0.9934619140625,1.0094122748625165,-0.00634765625,0.27490234375,0.34228515625,43.87117647058824,204.80559220373277
-0.1334013671875,-0.1215556640625,0.9978564453125,1.0140459504799908,-0.01416015625,0.29345703125,0.359375,43.63588235294118,204.80559220373277
-0.1382841796875,-0.1215556640625,0.9880908203125,1.0050978872743437,-0.0263671875,0.31787109375,0.37109375,43.82411764705883,204.80935807803024
-0.1426787109375,-0.1215556640625,0.9959033203125,1.013388581655588,-0.02490234375,0.3271484375,0.35888671875,43.87117647058824,204.80935807803024
-0.1426787109375,-0.1210673828125,1.0012744140625005,1.0186093353155852,-0.0166015625,0.35205078125,0.3623046875,43.82411764705883,204.80935807803024
-0.1377958984375,-0.1244853515625,0.9988330078125,1.015948664980472,-0.00927734375,0.3349609375,0.36572265625,44.01235294117648,204.80935807803024
-0.1465849609375,-0.1191142578125,1.0007861328125005,1.0184538481527137,-0.021484375,0.32080078125,0.34814453125,43.63588235294118,204.80935807803024
-0.1543974609375,-0.1156962890625,1.0002978515625005,1.0187345086367372,-0.01611328125,0.2998046875,0.34375,43.82411764705883,204.74322837821973
-0.1465849609375,-0.1200908203125,0.9954150390625,1.013291693387534,-0.009765625,0.27490234375,0.31298828125,43.87117647058824,204.74322837821973
-0.1397490234375,-0.1191142578125,0.9993212890625,1.0160516890097149,-0.0107421875,0.29541015625,0.314453125,43.777058823529416,204.74322837821973
-0.1392607421875,-0.1274150390625,0.9890673828125,1.0069172926499377,-0.01513671875,0.296875,0.3046875,43.54176470588236,204.74322837821973
-0.1451201171875,-0.1283916015625,0.9959033203125,1.0145775846004876,-0.02685546875,0.298828125,0.251953125,43.49470588235295,204.91392536084555
-0.1485380859375,-0.1210673828125,0.9983447265625,1.016569263360937,-0.02294921875,0.2783203125,0.22509765625,43.49470588235295,204.91392536084555
-0.1490263671875,-0.1171611328125,0.9968798828125,1.0147438543372784,-0.01318359375,0.29150390625,0.22802734375,44.01235294117648,204.91392536084555
-0.1524443359375,-0.1220439453125,0.9963916015625,1.0153473414606204,-0.01220703125,0.3291015625,0.2451171875,43.54176470588236,204.91392536084555
-0.1338896484375,-0.1196025390625,1.0007861328125005,1.0167615693655587,-0.01513671875,0.3349609375,0.23486328125,43.49470588235295,204.91392536084555
-0.1294951171875,-0.1191142578125,0.9973681640625,1.0127687033449588,-0.00146484375,0.33837890625,0.23388671875,43.777058823529416,204.67898203433205
-0.1373076171875,-0.1186259765625,0.9929736328125,1.0094167323330685,0.0078125,0.359375,0.244140625,43.49470588235295,204.67898203433205
-0.1299833984375,-0.1152080078125,0.9978564453125,1.0128603331087584,0.0166015625,0.35302734375,0.2373046875,43.49470588235295,204.67898203433205
-0.1407255859375,-0.1235087890625,0.9959033203125,1.0133516343908466,0.01806640625,0.34912109375,0.2421875,43.82411764705883,204.67898203433205
-0.1470732421875,-0.1205791015625,0.9949267578125,1.012940823401079,-0.01220703125,0.34619140625,0.2470703125,43.777058823529416,204.6037143683692
-0.1495146484375,-0.1166728515625,0.9983447265625,1.016198493132256,0.01416015625,0.35205078125,0.25341796875,43.87117647058824,204.6037143683692
-0.1451201171875,-0.1161845703125,0.9939501953125,1.011185291404583,0.0234375,0.298828125,0.2578125,43.68294117647059,204.6037143683692
-0.1524443359375,-0.1156962890625,0.9861376953125,1.0045359430993537,0.0224609375,0.3486328125,0.25,43.68294117647059,204.6037143683692
-0.1407255859375,-0.1200908203125,0.9973681640625,1.014380969037858,0.02978515625,0.38818359375,0.236328125,43.87117647058824,204.6037143683692
-0.1363310546875,-0.1215556640625,0.9924853515625,1.0091526688286667,0.03173828125,0.33251953125,0.23291015625,43.82411764705883,204.7451116001992
-0.1426787109375,-0.1220439453125,0.9910205078125,1.008649387075198,0.02587890625,0.31298828125,0.208984375,43.63588235294118,204.7451116001992
-0.1402373046875,-0.1210673828125,1.0007861328125005,1.0177901043127129,0.03369140625,0.31298828125,0.201171875,43.82411764705883,204.7451116001992
-0.1436552734375,-0.1171611328125,0.9949267578125,1.012048823940626,0.03466796875,0.2958984375,0.18994140625,43.96529411764706,204.7451116001992
-0.1412138671875,-0.1156962890625,0.9934619140625,1.0100958183665592,0.0478515625,0.275390625,0.17919921875,43.63588235294118,204.6257574286544
-0.1417021484375,-0.1186259765625,0.9910205078125,1.0081037982728542,0.044921875,0.2763671875,0.1708984375,43.87117647058824,204.6257574286544
-0.1456083984375,-0.1210673828125,0.9934619140625,1.0113484521021074,0.06591796875,0.27734375,0.1376953125,43.87117647058824,204.6257574286544
-0.1436552734375,-0.1176494140625,0.9978564453125,1.014985570176912,0.03857421875,0.26806640625,0.1484375,43.777058823529416,204.6257574286544
-0.1387724609375,-0.1181376953125,0.9905322265625,1.007158578788496,0.06640625,0.2744140625,0.14794921875,43.87117647058824,204.6257574286544
-0.1456083984375,-0.1186259765625,0.9949267578125,1.012498484651821,0.05029296875,0.259765625,0.1279296875,43.87117647058824,204.78543175687489
-0.1451201171875,-0.1186259765625,0.9934619140625,1.010988894805797,0.07470703125,0.2626953125,0.10791015625,43.82411764705883,204.78543175687489
-0.1460966796875,-0.1186259765625,0.9983447265625,1.015927435984614,0.07763671875,0.228515625,0.1025390625,44.388823529411766,204.78543175687489
-0.1460966796875,-0.1191142578125,0.9905322265625,1.0083087513697373,0.09228515625,0.23388671875,0.10791015625,43.82411764705883,204.78543175687489
-0.1553740234375,-0.1156962890625,0.9934619140625,1.0121725609572296,0.08740234375,0.24169921875,0.09521484375,43.447647058823534,204.87897830370136
-0.1524443359375,-0.1152080078125,1.0017626953125005,1.0198238369166095,0.08837890625,0.20556640625,0.08056640625,43.96529411764706,204.87897830370136
-0.1402373046875,-0.1137431640625,0.9944384765625,1.0106987150802704,0.0810546875,0.19287109375,0.09716796875,43.54176470588236,204.87897830370136
-0.0127958984375,-0.1132548828125,0.9919970703125,0.9985232050414647,0.07177734375,0.1875,0.05712890625,43.96529411764706,204.87897830370136
-0.1363310546875,-0.1161845703125,0.9954150390625,1.0114030407521548,0.07373046875,0.2138671875,0.03271484375,43.68294117647059,204.87897830370136
-0.1373076171875,-0.1156962890625,0.9880908203125,1.00427211562722,0.1064453125,0.2255859375,0.03564453125,43.96529411764706,204.82951814532703
-0.1382841796875,-0.1137431640625,0.9924853515625,1.0085074093872255,0.1328125,0.20654296875,0.013671875,43.63588235294118,204.82951814532703
-0.1514677734375,-0.1205791015625,0.9836962890625,1.0025668033797384,0.115234375,0.22314453125,0.123046875,43.82411764705883,204.82951814532703
-0.1417021484375,-0.1152080078125,0.9944384765625,1.011068873818136,0.1162109375,0.23291015625,-0.0556640625,43.49470588235295,204.82951814532703
-0.1373076171875,-0.1156962890625,0.9910205078125,1.007154734857305,0.125,0.22900390625,-0.11328125,43.68294117647059,204.75236711198968
-0.1387724609375,-0.1161845703125,0.9890673828125,1.0054903967900035,0.140625,0.2421875,-0.1572265625,43.63588235294118,204.75236711198968
-0.1421904296875,-0.1069072265625,0.9910205078125,1.006860924006363,0.14208984375,0.236328125,-0.1806640625,43.777058823529416,204.75236711198968
-0.1392607421875,-0.1059306640625,0.9968798828125,1.012118748299625,0.1494140625,0.24755859375,-0.20947265625,43.777058823529416,204.75236711198968
-0.1368193359375,-0.1054423828125,1.0022509765625005,1.017027357940799,0.166015625,0.3720703125,-0.24169921875,43.63588235294118,204.75236711198968
-0.1353544921875,-0.1083720703125,1.0017626953125005,1.0166581735760152,0.177734375,0.2373046875,-0.3037109375,43.82411764705883,204.6991421906457
-0.1407255859375,-0.1108134765625,0.9949267578125,1.0109216441132387,0.193359375,0.2646484375,-0.345703125,43.82411764705883,204.6991421906457
-0.1441435546875,-0.1127666015625,0.9988330078125,1.01546100283648,0.18701171875,0.2578125,-0.3671875,43.82411764705883,204.6991421906457
-0.1431669921875,-0.1147197265625,0.9944384765625,1.0112197026277407,0.19482421875,0.29150390625,-0.380859375,43.63588235294118,204.6991421906457
-0.1417021484375,-0.1161845703125,0.9880908203125,1.00493871576148,0.2060546875,0.27490234375,-0.384765625,43.96529411764706,205.112043302089
-0.1417021484375,-0.1161845703125,0.9910205078125,1.0078194283478807,0.1923828125,0.2734375,-0.3935546875,43.63588235294118,205.112043302089
-0.1480498046875,-0.1200908203125,0.9856494140625,1.0039149950235258,0.181640625,0.28515625,-0.40283203125,43.777058823529416,205.112043302089
-0.1441435546875,-0.1210673828125,0.9866259765625,1.0044229652725607,0.19140625,0.2890625,-0.41552734375,43.63588235294118,205.112043302089
-0.1402373046875,-0.1186259765625,0.9919970703125,1.0088591633374822,0.2021484375,0.27392578125,-0.443359375,43.54176470588236,205.112043302089
-0.1431669921875,-0.1196025390625,0.9919970703125,1.0093858244055125,0.20166015625,0.28076171875,-0.47119140625,43.777058823529416,204.6991421906457
-0.1475615234375,-0.1191142578125,0.9900439453125,1.0080424709620917,0.15625,0.28076171875,-0.46630859375,43.68294117647059,204.6991421906457
-0.1475615234375,-0.1200908203125,0.9949267578125,1.012953830010933,0.1611328125,0.2578125,-0.47265625,43.49470588235295,204.6991421906457
-0.1475615234375,-0.1200908203125,0.9973681640625,1.0153518912219188,0.1669921875,0.25244140625,-0.4990234375,43.777058823529416,204.6991421906457
-0.1426787109375,-0.1210673828125,1.0002978515625005,1.0176494079870575,0.1484375,0.23779296875,-0.52294921875,43.82411764705883,204.9542469474816
-0.1417021484375,-0.1235087890625,1.0012744140625005,1.0187661027457144,0.1591796875,0.2421875,-0.533203125,43.777058823529416,204.9542469474816
-0.1382841796875,-0.1239970703125,0.9988330078125,1.0159552968973062,0.15966796875,0.25830078125,-0.548828125,43.68294117647059,204.9542469474816
-0.1377958984375,-0.1235087890625,1.0012744140625005,1.0182301227414587,0.150390625,0.24609375,-0.5361328125,43.82411764705883,204.9542469474816
-0.1338896484375,-0.1239970703125,0.9973681640625,1.0139255229503803,0.1455078125,0.2607421875,-0.54248046875,43.87117647058824,204.9542469474816
-0.1363310546875,-0.1200908203125,0.9959033203125,1.0123395601303928,0.138671875,0.24267578125,-0.548828125,43.82411764705883,204.76715490041067
-0.1358427734375,-0.1244853515625,0.9968798828125,1.013764944454628,0.1396484375,0.22998046875,-0.51318359375,43.777058823529416,204.76715490041067
-0.1373076171875,-0.1264384765625,1.0032275390625005,1.020443807971098,0.13916015625,0.26025390625,-0.5009765625,43.777058823529416,204.76715490041067
-0.1397490234375,-0.1225322265625,0.9900439453125,1.0073385477326078,0.12744140625,0.267578125,-0.48779296875,43.777058823529416,204.76715490041067
-0.1431669921875,-0.1264384765625,0.9919970703125,1.010218621643872,0.13623046875,0.27294921875,-0.45263671875,43.63588235294118,204.85881746587984
-0.1431669921875,-0.1264384765625,0.9963916015625,1.0145342279448957,0.13916015625,0.24072265625,-0.4033203125,43.87117647058824,204.85881746587984
-0.1392607421875,-0.1249736328125,0.9944384765625,1.0118892463510585,0.13818359375,0.20556640625,-0.36474609375,43.87117647058824,204.85881746587984
-0.1426787109375,-0.1293681640625,0.9998095703125,1.018190803983298,0.13720703125,0.22509765625,-0.3359375,44.388823529411766,204.85881746587984
-0.1387724609375,-0.1288798828125,0.9993212890625,1.01710906931457,0.14697265625,0.212890625,-0.36572265625,43.87117647058824,204.85881746587984
-0.1377958984375,-0.1313212890625,0.9978564453125,1.015849632592803,0.1279296875,0.18359375,-0.38037109375,43.68294117647059,204.96150513968357
-0.1470732421875,-0.1288798828125,1.0056689453125005,1.0245050465113694,0.14501953125,0.17724609375,-0.37109375,43.777058823529416,204.96150513968357
-0.1534208984375,-0.1327861328125,1.0115283203125005,1.0316780854214636,0.14208984375,0.16015625,-0.30859375,43.777058823529416,204.96150513968357
-0.1573271484375,-0.1293681640625,1.0125048828125005,1.032789470912408,0.173828125,0.15380859375,-0.27294921875,43.82411764705883,204.96150513968357
-0.1602568359375,-0.1239970703125,1.0149462890625005,1.0349751188277534,0.1435546875,0.1474609375,-0.29638671875,43.447647058823534,204.80370991962235
-0.1602568359375,-0.1239970703125,1.0095751953125005,1.0297085033644495,0.16064453125,0.16845703125,-0.28759765625,43.82411764705883,204.80370991962235
-0.1500029296875,-0.1347392578125,1.0066455078125005,1.0266405042222826,0.16064453125,0.19140625,-0.31494140625,43.54176470588236,204.80370991962235
-0.1470732421875,-0.1313212890625,0.9993212890625,1.0185866965075268,0.14990234375,0.20068359375,-0.35400390625,43.68294117647059,204.80370991962235
-0.1568388671875,-0.1298564453125,1.0022509765625005,1.0227258414014686,0.12548828125,0.18017578125,-0.359375,43.777058823529416,204.80370991962235
-0.1705107421875,-0.1244853515625,1.0066455078125005,1.0285454264902731,0.1181640625,0.16357421875,-0.341796875,43.54176470588236,205.0900003086205
-0.1636748046875,-0.1259501953125,0.9934619140625,1.0147016645701703,0.146484375,0.1904296875,-0.3310546875,43.87117647058824,205.0900003086205
-0.1480498046875,-0.1230205078125,0.9895556640625,1.0081037656355758,0.150390625,0.22705078125,-0.30224609375,43.49470588235295,205.0900003086205
-0.1294951171875,-0.1283916015625,0.9915087890625,1.0081384168433287,0.13623046875,0.29541015625,-0.3212890625,43.63588235294118,205.0900003086205
-0.1080107421875,-0.1254619140625,0.9846728515625,0.9984926824530792,0.1494140625,0.34326171875,-0.3232421875,43.63588235294118,204.92306445789907
-0.1094755859375,-0.1235087890625,0.9841845703125,0.997927148309557,0.15966796875,0.36669921875,-0.2978515625,43.82411764705883,204.92306445789907
-0.1182646484375,-0.1235087890625,0.9905322265625,1.0051840825961156,0.13720703125,0.4033203125,-0.25341796875,43.49470588235295,204.92306445789907
-0.1363310546875,-0.1293681640625,0.9900439453125,1.007724809655418,0.14404296875,0.43603515625,-0.2451171875,43.777058823529416,204.92306445789907
-0.1548857421875,-0.1259501953125,1.0022509765625005,1.021939364567544,0.146484375,0.47802734375,-0.24365234375,43.54176470588236,204.92306445789907
-0.1451201171875,-0.1259501953125,0.9959033203125,1.0142715235681383,0.14599609375,0.4423828125,-0.2431640625,43.68294117647059,204.8991393872144
-0.1392607421875,-0.1244853515625,0.9993212890625,1.0166283469595905,0.142578125,0.4384765625,-0.24462890625,43.96529411764706,204.8991393872144
-0.1368193359375,-0.1230205078125,1.0037158203125005,1.020440602864478,0.1259765625,0.435546875,-0.1259765625,43.87117647058824,204.8991393872144
-0.1358427734375,-0.1274150390625,0.9998095703125,1.0170088633649936,0.1025390625,0.40869140625,-0.23046875,43.87117647058824,204.8991393872144
-0.1280302734375,-0.1288798828125,1.0042041015625005,1.0205036269926693,0.11474609375,0.39501953125,-0.2177734375,43.82411764705883,204.87897830370136
-0.1368193359375,-0.1230205078125,0.9895556640625,1.0065157665466544,0.1015625,0.35986328125,-0.18701171875,43.777058823529416,204.87897830370136
-0.1407255859375,-0.1196025390625,0.9910205078125,1.0080823898831857,0.09423828125,0.4052734375,-0.15234375,43.63588235294118,204.87897830370136
-0.1324248046875,-0.1279033203125,1.0007861328125005,1.017579712785826,0.10986328125,0.39794921875,-0.1318359375,43.68294117647059,204.87897830370136
-0.1319365234375,-0.1293681640625,0.9915087890625,1.0085797176613562,0.09716796875,0.3427734375,-0.1083984375,43.777058823529416,204.87897830370136
-0.1412138671875,-0.1298564453125,0.9866259765625,1.005104407662783,0.07080078125,0.31640625,-0.0966796875,43.96529411764706,205.0459144890524
-0.1495146484375,-0.1342509765625,0.9890673828125,1.0092731258430212,0.0830078125,0.3037109375,-0.07275390625,43.54176470588236,205.0459144890524
-0.1407255859375,-0.1327861328125,0.9934619140625,1.0121276709474345,0.0927734375,0.32177734375,-0.03955078125,43.82411764705883,205.0459144890524
-0.1373076171875,-0.1303447265625,0.9978564453125,1.0156577252854726,0.10498046875,0.322265625,-0.0361328125,43.68294117647059,205.0459144890524
-0.1338896484375,-0.1298564453125,0.9929736328125,1.0103394329673416,0.10205078125,0.3134765625,-0.01513671875,44.01235294117648,204.71930259263607
-0.1368193359375,-0.1293681640625,0.9910205078125,1.0087503652857956,0.08935546875,0.3388671875,0.00439453125,43.63588235294118,204.71930259263607
-0.1368193359375,-0.1298564453125,0.9871142578125,1.0049760121775542,0.11279296875,0.30908203125,-0.015625,43.68294117647059,204.71930259263607
-0.1382841796875,-0.1210673828125,0.9944384765625,1.011280232774704,0.115234375,0.35302734375,0.0126953125,43.777058823529416,204.71930259263607
-0.1451201171875,-0.1191142578125,0.9929736328125,1.0105665194768676,0.10791015625,0.4990234375,0.0205078125,43.63588235294118,204.71930259263607
-0.1446318359375,-0.1235087890625,0.9968798828125,1.014860724286146,0.12060546875,0.35986328125,0.01904296875,43.87117647058824,204.6367789797206
-0.1377958984375,-0.1235087890625,1.0007861328125005,1.017749976286751,0.00146484375,0.3525390625,0.02099609375,43.82411764705883,204.6367789797206
-0.1456083984375,-0.1142314453125,0.9968798828125,1.0139132751621216,0.13525390625,0.3837890625,-0.0126953125,43.68294117647059,204.6367789797206
-0.1490263671875,-0.1171611328125,1.0076220703125005,1.0252988958054432,0.134765625,0.49951171875,0.1240234375,43.82411764705883,204.6367789797206
-0.1475615234375,-0.1191142578125,1.0007861328125005,1.0185948621720111,0.13720703125,0.3623046875,-0.01171875,43.82411764705883,204.6459174396959
-0.1431669921875,-0.1098369140625,1.0017626953125005,1.0178847837857457,0.13916015625,0.349609375,-0.01318359375,43.777058823529416,204.6459174396959
-0.1392607421875,-0.1113017578125,1.0002978515625005,1.016059755844763,0.162109375,0.3681640625,-0.03564453125,43.63588235294118,204.6459174396959
-0.1392607421875,-0.1083720703125,0.9983447265625,1.0138196353363766,0.193359375,0.35205078125,-0.0380859375,43.777058823529416,204.6459174396959
-0.1368193359375,-0.1088603515625,0.9959033203125,1.0111347735283125,0.2177734375,0.35546875,-0.03564453125,43.68294117647059,204.6459174396959
-0.1402373046875,-0.1093486328125,0.9954150390625,1.0111749231046905,0.2080078125,0.36328125,-0.07470703125,43.63588235294118,204.6459174396959
-0.1348662109375,-0.1073955078125,0.9900439453125,1.0049426369703316,0.22216796875,0.38623046875,-0.13330078125,43.87117647058824,204.6459174396959
-0.1290068359375,-0.1069072265625,0.9934619140625,1.0074911878039514,0.21240234375,0.39404296875,-0.18994140625,44.62411764705882,204.6459174396959
-0.1377958984375,-0.0981181640625,0.9949267578125,1.0092047052786102,0.2216796875,0.384765625,-0.24462890625,43.96529411764706,204.6459174396959
-0.1456083984375,-0.0951884765625,1.0056689453125005,1.020604075698201,0.24462890625,0.3759765625,-0.22705078125,44.57705882352941,204.7926884522111
-0.1534208984375,-0.0961650390625,1.0076220703125005,1.0237616536069865,0.26513671875,0.3564453125,-0.20654296875,43.82411764705883,204.7926884522111
-0.1563505859375,-0.0917705078125,1.0017626953125005,1.0180352791268723,0.26611328125,0.3720703125,-0.19140625,43.82411764705883,204.7926884522111
-0.1465849609375,-0.1010478515625,1.0051806640625005,1.020826129408713,0.287109375,0.31640625,-0.1962890625,43.87117647058824,204.7926884522111
-0.1314482421875,-0.0961650390625,1.0071337890625005,1.0202180277683122,0.27685546875,0.29833984375,-0.29638671875,43.777058823529416,204.7926884522111
-0.1319365234375,-0.0893291015625,1.0046923828125005,1.0172481106810654,0.30078125,0.2724609375,-0.359375,43.87117647058824,204.73032408513987
-0.1387724609375,-0.0785869140625,1.0217822265625005,1.0341530919044517,0.3251953125,0.197265625,-0.34326171875,43.87117647058824,204.73032408513987
-0.1417021484375,-0.0776103515625,1.0232470703125005,1.0359234684302567,0.353515625,0.16650390625,-0.3623046875,43.82411764705883,204.73032408513987
-0.1553740234375,-0.0800517578125,1.0310595703125005,1.0457691947179482,0.3974609375,0.14697265625,-0.39697265625,43.82411764705883,204.73032408513987
-0.1353544921875,-0.0785869140625,1.0383837890625005,1.0501131534291903,0.4375,0.048828125,-0.42333984375,43.87117647058824,204.74134559159432
-0.1119169921875,-0.0824931640625,1.0339892578125005,1.0432949345841689,0.43310546875,-0.0390625,-0.5546875,43.82411764705883,204.74134559159432
-0.1060576171875,-0.0834697265625,1.0032275390625005,1.0122652362643445,0.41455078125,-0.0078125,-0.6728515625,43.87117647058824,204.74134559159432
-0.1011748046875,-0.0907939453125,0.9988330078125,1.0080412983130844,0.42236328125,0.09716796875,-0.845703125,43.63588235294118,204.74134559159432
-0.1021513671875,-0.0878642578125,0.9836962890625,0.992881371934508,0.4501953125,0.2841796875,-0.9921875,43.87117647058824,204.74134559159432
-0.1114287109375,-0.0839580078125,0.9797900390625,0.9896735953551212,0.47998046875,0.42041015625,-1.0830078125,43.68294117647059,204.7596241336815
-0.1338896484375,-0.0761455078125,0.9666064453125,0.9788016124008012,0.62451171875,0.529296875,-1.14892578125,43.777058823529416,204.7596241336815
-0.1436552734375,-0.0790751953125,0.9651416015625,0.9789729491496384,0.50732421875,0.56591796875,-1.20947265625,43.82411764705883,204.7596241336815
-0.1397490234375,-0.0790751953125,0.9690478515625,0.9822608689565832,0.5185546875,0.53662109375,-1.32275390625,43.54176470588236,204.7596241336815
-0.1319365234375,-0.0780986328125,0.9583056640625,0.9704928585199506,0.5126953125,0.4453125,-1.44482421875,43.96529411764706,204.66796048883927
-0.1163115234375,-0.0722392578125,0.9504931640625,0.9603041891938175,0.51123046875,0.30810546875,-1.533203125,44.01235294117648,204.66796048883927
-0.1148466796875,-0.0746806640625,0.9607470703125,0.9704647827376895,0.4970703125,0.1650390625,-1.6083984375,43.777058823529416,204.66796048883927
-0.1211943359375,-0.0702861328125,0.9617236328125,0.9718747622194644,0.5,0.0849609375,-1.65380859375,43.82411764705883,204.66796048883927
-0.1236357421875,-0.0727275390625,0.9734423828125,0.9839538425861344,0.498046875,-0.01025390625,-1.70263671875,43.68294117647059,204.66796048883927
-0.1304716796875,-0.0732158203125,0.9827197265625,0.9940429953073382,0.46923828125,-0.06689453125,-1.71337890625,43.777058823529416,204.9725265848012
-0.1397490234375,-0.0746806640625,0.9856494140625,0.998304441830397,0.470703125,-0.15576171875,-1.74072265625,43.87117647058824,204.9725265848012
-0.1417021484375,-0.0844462890625,0.9919970703125,1.005618646464361,0.45751953125,-0.21533203125,-1.78125,43.96529411764706,204.9725265848012
-0.1421904296875,-0.0917705078125,1.0095751953125005,1.0236610861946218,0.41259765625,-0.2685546875,-1.8095703125,43.96529411764706,204.9725265848012
-0.1563505859375,-0.0951884765625,1.0076220703125005,1.0241135622449975,0.37646484375,-0.224609375,-1.859375,43.777058823529416,205.06069864785928
-0.1670927734375,-0.0981181640625,1.0203173828125005,1.0385541539676115,0.33154296875,-0.1513671875,-1.91357421875,43.68294117647059,205.06069864785928
-0.1783232421875,-0.1078837890625,1.0374072265625005,1.0581360235673118,0.30615234375,-0.24951171875,-1.93896484375,43.777058823529416,205.06069864785928
-0.1714873046875,-0.1083720703125,1.0408251953125005,1.0604100567658274,0.2783203125,-0.15771484375,-1.93408203125,43.54176470588236,205.06069864785928
-0.1583037109375,-0.1108134765625,1.0359423828125005,1.053810377625734,0.25048828125,-0.2578125,-1.87353515625,43.54176470588236,205.06069864785928
-0.1456083984375,-0.1098369140625,1.0232470703125005,1.039375062376148,0.21044921875,-0.287109375,-1.75634765625,43.82411764705883,204.68812067862277
-0.1265654296875,-0.1152080078125,1.0159228515625005,1.0302382896121598,0.18310546875,-0.32568359375,-1.59326171875,43.777058823529416,204.68812067862277
-0.1187529296875,-0.1200908203125,1.0066455078125005,1.020715063978082,0.20751953125,-0.2353515625,-1.43505859375,43.68294117647059,204.68812067862277
-0.1163115234375,-0.1366923828125,0.9978564453125,1.0138691549973349,0.18603515625,-0.11181640625,-1.3291015625,43.82411764705883,204.68812067862277
-0.1241240234375,-0.1425517578125,0.9934619140625,1.0112835168944825,0.177734375,-0.0126953125,-1.25537109375,43.82411764705883,204.8348923726753
-0.1275419921875,-0.1425517578125,0.9827197265625,1.0011623366875448,0.177734375,0.09912109375,-1.22314453125,43.54176470588236,204.8348923726753
-0.1285185546875,-0.1435283203125,0.9812548828125,0.9999892712794796,0.13916015625,0.14892578125,-1.19384765625,43.777058823529416,204.8348923726753
-0.1124052734375,-0.1425517578125,0.9836962890625,1.0003071219717106,0.14599609375,0.095703125,-1.09716796875,43.63588235294118,204.8348923726753
-0.0977568359375,-0.1415751953125,0.9758837890625,0.9909334511738244,0.173828125,0.046875,-0.92431640625,43.82411764705883,204.8348923726753
-0.0958037109375,-0.1415751953125,0.9661181640625,0.9811249634417952,0.1748046875,0.0380859375,-0.77783203125,43.777058823529416,205.02575262359736
-0.1021513671875,-0.1542705078125,0.9749072265625,0.9923096249673224,0.15478515625,0.01513671875,-0.66943359375,43.82411764705883,205.02575262359736
-0.0997099609375,-0.1576884765625,0.9890673828125,1.0065098209626813,0.12939453125,-0.052734375,-0.59521484375,43.68294117647059,205.02575262359736
-0.1011748046875,-0.1484111328125,0.9988330078125,1.0148544639218025,0.1083984375,-0.11865234375,-0.5478515625,43.96529411764706,205.02575262359736
-0.1368193359375,-0.1445048828125,1.0017626953125005,1.0213372065888906,0.107421875,-0.1455078125,-0.48046875,43.82411764705883,204.8459138345132
-0.1670927734375,-0.1518291015625,1.0364306640625005,1.0607358730736636,0.064453125,-0.2353515625,-0.373046875,43.82411764705883,204.8459138345132
-0.1490263671875,-0.1518291015625,1.0383837890625005,1.0599536912460727,0.046875,-0.42578125,-0.25537109375,43.82411764705883,204.8459138345132
-0.1094755859375,-0.1503642578125,1.0227587890625005,1.0395334792821511,-0.02587890625,-0.486328125,-0.134765625,43.87117647058824,204.8459138345132
-0.0914091796875,-0.1366923828125,1.0178759765625005,1.0310732026937586,-0.0830078125,-0.39404296875,0.01220703125,43.87117647058824,204.8459138345132
-0.0982451171875,-0.1303447265625,1.0105517578125005,1.023648721980237,-0.15087890625,-0.234375,0.19189453125,43.68294117647059,204.94134363173703
-0.1197294921875,-0.1342509765625,1.0149462890625005,1.0307640106683984,-0.1884765625,-0.0478515625,0.32275390625,43.54176470588236,204.94134363173703
-0.1280302734375,-0.1405986328125,1.0056689453125005,1.0234890102151473,-0.23876953125,0.1572265625,0.421875,43.96529411764706,204.94134363173703
-0.1211943359375,-0.1567119140625,0.9954150390625,1.0149373335651135,-0.2978515625,0.3408203125,0.47998046875,43.96529411764706,204.94134363173703
-0.0977568359375,-0.1542705078125,1.0027392578125005,1.0192358940459278,-0.30712890625,0.43115234375,0.5361328125,43.82411764705883,205.0348930690322
-0.0918974609375,-0.1601298828125,0.9851611328125,1.002311917668703,-0.30859375,0.47705078125,0.64208984375,43.68294117647059,205.0348930690322
-0.1001982421875,-0.1635478515625,0.9856494140625,1.004137617525568,-0.3544921875,0.591796875,0.73095703125,43.87117647058824,205.0348930690322
-0.0855498046875,-0.1620830078125,0.9832080078125,1.00014381822328,-0.3759765625,0.59423828125,0.783203125,43.63588235294118,205.0348930690322
-0.1016630859375,-0.1655009765625,0.9807666015625,0.9998145243123508,-0.41259765625,0.6708984375,0.8720703125,43.777058823529416,205.0348930690322
-0.1084990234375,-0.1615947265625,0.9749072265625,0.9941473704353324,-0.43505859375,0.703125,0.96484375,43.777058823529416,204.93758138622235
-0.0958037109375,-0.1611064453125,0.9880908203125,1.0057122386331263,-0.42431640625,0.666015625,1.052734375,43.777058823529416,204.93758138622235
-0.1177763671875,-0.1645244140625,0.9778369140625,0.9985512435492568,-0.43115234375,0.64697265625,1.17236328125,43.30647058823529,204.93758138622235
-0.1216826171875,-0.1596416015625,0.9934619140625,1.0135377027855283,-0.43994140625,0.63037109375,1.35302734375,43.777058823529416,204.93758138622235
-0.1187529296875,-0.1513408203125,0.9910205078125,1.009518671995308,-0.41845703125,0.58251953125,1.5224609375,43.63588235294118,204.59081006094505
-0.1128935546875,-0.1572001953125,0.9871142578125,1.00590825330792,-0.40625,0.55615234375,1.64892578125,43.30647058823529,204.59081006094505
-0.1099638671875,-0.1537822265625,0.9900439453125,1.007932556743402,-0.4111328125,0.5166015625,1.73779296875,43.82411764705883,204.59081006094505
-0.1065458984375,-0.1523173828125,0.9871142578125,1.004463623809955,-0.439453125,0.501953125,1.82666015625,43.49470588235295,204.59081006094505
-0.1060576171875,-0.1562236328125,0.9915087890625,1.0093283511329751,-0.455078125,0.48193359375,1.90673828125,43.777058823529416,204.59081006094505
-0.1207060546875,-0.1503642578125,0.9929736328125,1.0115216246460474,-0.412109375,0.39697265625,1.9853515625,43.82411764705883,204.9945695168788
-0.1334013671875,-0.1445048828125,0.9944384765625,1.0136989047996918,-0.39453125,0.31201171875,2.05517578125,43.777058823529416,204.9945695168788
-0.1475615234375,-0.1430400390625,1.0002978515625005,1.0211907989277769,-0.3681640625,0.34130859375,2.12939453125,43.96529411764706,204.9945695168788
-0.1407255859375,-0.1449931640625,0.9900439453125,1.0104522362844512,-0.33447265625,0.380859375,2.17578125,43.82411764705883,204.9945695168788
-0.1280302734375,-0.1410869140625,0.9954150390625,1.013483284631749,-0.296875,0.44970703125,2.193359375,43.777058823529416,204.66607769641908
-0.1197294921875,-0.1435283203125,0.9944384765625,1.0118514780831969,-0.279296875,0.4716796875,2.197265625,43.777058823529416,204.66607769641908
-0.1158232421875,-0.1410869140625,0.9959033203125,1.012493932900324,-0.25439453125,0.49267578125,2.19775390625,43.82411764705883,204.66607769641908
-0.1163115234375,-0.1337626953125,0.9963916015625,1.012036092639932,-0.23779296875,0.49609375,2.212890625,43.49470588235295,204.66607769641908
-0.1192412109375,-0.1293681640625,0.9910205078125,1.00651688270177,-0.22412109375,0.62451171875,2.2216796875,43.96529411764706,204.66607769641908
-0.1192412109375,-0.1230205078125,0.9905322265625,1.0052395752193355,-0.22216796875,0.52783203125,2.19677734375,43.63588235294118,204.66607769641908
-0.1270537109375,-0.1200908203125,0.9983447265625,1.013536700687978,-0.2314453125,0.4560546875,2.24755859375,43.87117647058824,204.66607769641908
-0.1275419921875,-0.1205791015625,1.0164111328125005,1.031454250274808,-0.21240234375,0.32421875,2.029296875,43.96529411764706,204.66607769641908
-0.1260771484375,-0.1196025390625,1.0027392578125005,1.0176867071288158,-0.2587890625,0.24755859375,1.9775390625,43.96529411764706,204.66607769641908
-0.1265654296875,-0.1117900390625,1.0027392578125005,1.01685881025044,-0.287109375,0.0146484375,1.9833984375,43.63588235294118,204.5779063255533
-0.1348662109375,-0.1054423828125,1.0046923828125005,1.0191730839397573,-0.3076171875,-0.0908203125,2.01220703125,43.68294117647059,204.5779063255533
-0.1319365234375,-0.1059306640625,0.9983447265625,1.0125812287716227,-0.306640625,-0.1240234375,2.01611328125,43.87117647058824,204.5779063255533
-0.1368193359375,-0.1034892578125,0.9993212890625,1.0139391480471092,-0.298828125,-0.0888671875,1.99072265625,43.447647058823534,204.5779063255533
-0.1397490234375,-0.1176494140625,1.0090869140625005,1.0254889440228814,-0.28369140625,-0.13623046875,1.97265625,43.87117647058824,204.5779063255533
-0.1485380859375,-0.1103251953125,1.0173876953125005,1.034075884192257,-0.2841796875,-0.2421875,1.9482421875,43.87117647058824,204.6641953393578
-0.1558623046875,-0.1103251953125,1.0168994140625005,1.034673438851069,-0.28564453125,-0.369140625,1.95458984375,43.82411764705883,204.6641953393578
-0.1714873046875,-0.1059306640625,1.0232470703125005,1.042911198597858,-0.23876953125,-0.568359375,2.01220703125,43.54176470588236,204.6641953393578
-0.1690458984375,-0.0995830078125,1.0095751953125005,1.028462622662486,-0.2041015625,-0.65673828125,2.10009765625,43.777058823529416,204.6641953393578
-0.1446318359375,-0.0990947265625,1.0032275390625005,1.0184319456559427,-0.1650390625,-0.70458984375,2.2109375,43.82411764705883,204.73758132440545
-0.0909208984375,-0.0961650390625,0.9959033203125,1.0046580253598916,-0.14501953125,-0.7529296875,2.25244140625,43.68294117647059,204.73758132440545
-0.0674833984375,-0.0917705078125,0.9836962890625,0.9902697734880996,-0.15185546875,-0.6962890625,2.228515625,43.82411764705883,204.73758132440545
-0.0577177734375,-0.1000712890625,0.9797900390625,0.9865769736372872,-0.20263671875,-0.50341796875,2.1142578125,43.82411764705883,204.73758132440545
-0.0850615234375,-0.1225322265625,0.9749072265625,0.9862523560020824,-0.19970703125,-0.212890625,1.98388671875,43.82411764705883,204.73758132440545
-0.0850615234375,-0.1322978515625,0.9841845703125,0.9966731925454612,-0.1728515625,-0.013671875,1.81787109375,43.87117647058824,205.1265644078419
-0.0816435546875,-0.1357158203125,0.9895556640625,1.0021501215802355,-0.1943359375,-0.02490234375,1.64306640625,43.68294117647059,205.1265644078419
-0.1036162109375,-0.1381572265625,0.9866259765625,1.0016259561574836,-0.21826171875,-0.013671875,1.4599609375,43.68294117647059,205.1265644078419
-0.0982451171875,-0.1308330078125,0.9905322265625,1.0039539186851731,-0.12646484375,-0.06494140625,1.26904296875,43.777058823529416,205.1265644078419
-0.0967802734375,-0.1156962890625,0.9861376953125,0.9976069400047896,-0.23583984375,-0.111328125,1.1806640625,43.87117647058824,204.88435541442985
-0.1031279296875,-0.1073955078125,0.9783251953125,0.9895904975105492,-0.24560546875,-0.11083984375,1.13623046875,43.777058823529416,204.88435541442985
-0.0845732421875,-0.0990947265625,0.9783251953125,0.9869612889621576,-0.2294921875,-0.1630859375,1.1142578125,43.87117647058824,204.88435541442985
-0.0948271484375,-0.1020244140625,0.9812548828125,0.991091476196298,-0.21728515625,-0.11328125,1.0927734375,43.82411764705883,204.88435541442985
-0.0997099609375,-0.1044658203125,0.9861376953125,0.9966557771066048,-0.20849609375,-0.072265625,1.05810546875,43.68294117647059,204.88435541442985
-0.1031279296875,-0.1049541015625,0.9934619140625,1.0042994115348012,-0.1904296875,-0.06494140625,1.0244140625,43.63588235294118,204.78892531279476
-0.0967802734375,-0.1098369140625,0.9963916015625,1.0070882745229903,-0.18212890625,-0.05322265625,0.9765625,43.63588235294118,204.78892531279476
-0.0992216796875,-0.1142314453125,1.0042041015625005,1.015539089554479,-0.1552734375,-0.03515625,0.91357421875,43.96529411764706,204.78892531279476
-0.1045927734375,-0.1103251953125,1.0085986328125005,1.0199914210851648,-0.1435546875,-0.0107421875,0.99951171875,43.63588235294118,204.78892531279476
-0.1070341796875,-0.1064189453125,1.0100634765625005,1.0212783823367286,-0.14404296875,0.041015625,0.86572265625,43.63588235294118,204.74134559159432
-0.1060576171875,-0.1069072265625,1.0198291015625005,1.0308873700111727,-0.119140625,0.08740234375,0.83349609375,43.68294117647059,204.74134559159432
-0.0958037109375,-0.1132548828125,1.0120166015625005,1.0228306904607338,-0.1025390625,0.103515625,0.8232421875,43.82411764705883,204.74134559159432
-0.0943388671875,-0.1210673828125,1.0144580078125005,1.0260030129868996,-0.09521484375,0.10009765625,0.74755859375,44.01235294117648,204.74134559159432
-0.0953154296875,-0.1210673828125,1.0129931640625005,1.024645056961159,-0.080078125,0.07763671875,0.6513671875,43.87117647058824,204.74134559159432
-0.0997099609375,-0.1200908203125,1.0139697265625005,1.0259134894418334,-0.0732421875,0.0439453125,0.52734375,43.96529411764706,204.6090884347828
-0.1114287109375,-0.1220439453125,1.0188525390625005,1.0321683867289952,-0.0537109375,-0.0380859375,0.38916015625,43.87117647058824,204.6090884347828
-0.1143583984375,-0.1215556640625,1.0149462890625005,1.0285764883763413,-0.05810546875,-0.14453125,0.33740234375,43.63588235294118,204.6090884347828
-0.1182646484375,-0.1117900390625,1.0110400390625005,1.0240534656409024,-0.02490234375,-0.21630859375,0.37841796875,43.777058823529416,204.6090884347828
-0.1221708984375,-0.1020244140625,1.0071337890625005,1.0196338453392038,0.0087890625,-0.18603515625,0.4228515625,43.82411764705883,204.790806664821
-0.1192412109375,-0.1069072265625,1.0071337890625005,1.019787277106611,0.033203125,-0.1337890625,0.4521484375,44.57705882352941,204.790806664821
-0.1138701171875,-0.1113017578125,1.0115283203125005,1.0239843883940205,0.037109375,-0.1455078125,0.47607421875,43.96529411764706,204.790806664821
-0.1080107421875,-0.1093486328125,1.0032275390625005,1.0149329726929055,0.0693359375,-0.11865234375,0.4853515625,43.777058823529416,204.790806664821
-0.1299833984375,-0.1196025390625,1.0217822265625005,1.0369374955794488,0.08251953125,-0.13330078125,0.4677734375,44.01235294117648,204.790806664821
-0.1309599609375,-0.1191142578125,1.0398486328125005,1.054809886635976,0.09619140625,-0.2626953125,0.46435546875,43.54176470588236,204.8934961022948
-0.1251005859375,-0.1156962890625,1.0398486328125005,1.0537176885042625,0.16357421875,-0.38916015625,0.439453125,43.96529411764706,204.8934961022948
-0.1084990234375,-0.1152080078125,1.0320361328125005,1.0440993739015445,0.19189453125,-0.3994140625,0.42529296875,43.96529411764706,204.8934961022948
-0.0748076171875,-0.1127666015625,1.0066455078125005,1.015700578131328,0.1708984375,-0.33349609375,0.4033203125,43.82411764705883,204.8934961022948
-0.0459990234375,-0.1098369140625,0.9929736328125,1.0000883427521945,0.171875,-0.14306640625,0.37548828125,43.82411764705883,204.790806664821
-0.0494169921875,-0.1020244140625,0.9963916015625,1.0028196467191597,0.1796875,0.04052734375,0.28173828125,43.82411764705883,204.790806664821
-0.0586943359375,-0.1093486328125,0.9973681640625,1.005059900331572,0.1416015625,0.1201171875,0.162109375,43.63588235294118,204.790806664821
-0.0870146484375,-0.1200908203125,0.9944384765625,1.005435844713116,0.14599609375,0.19482421875,0.0322265625,43.777058823529416,204.790806664821
-0.0972685546875,-0.1171611328125,1.0002978515625005,1.011821967844866,0.00439453125,0.37109375,-0.09716796875,43.82411764705883,204.790806664821
-0.0875029296875,-0.1078837890625,0.9924853515625,1.0021590930149349,0.1533203125,0.2744140625,-0.17919921875,43.82411764705883,204.7779039820668
-0.0831083984375,-0.1069072265625,0.9939501953125,1.0031316721866024,0.13232421875,0.32666015625,-0.23828125,43.68294117647059,204.7779039820668
-0.0762724609375,-0.0937236328125,0.9954150390625,1.0027226474139463,0.12060546875,0.33154296875,-0.2587890625,43.49470588235295,204.7779039820668
-0.0884794921875,-0.1030009765625,0.9934619140625,1.002698557096455,0.1220703125,0.3876953125,-0.27978515625,43.54176470588236,204.7779039820668
-0.0879912109375,-0.1044658203125,0.9929736328125,1.002323399046767,0.13330078125,0.4404296875,-0.322265625,43.68294117647059,204.959624111878
-0.0850615234375,-0.1059306640625,0.9973681640625,1.0065783740194465,0.12744140625,0.453125,-0.3623046875,43.68294117647059,204.959624111878
-0.0743193359375,-0.1088603515625,0.9983447265625,1.007008506861613,0.1376953125,0.47314453125,-0.40673828125,43.82411764705883,204.959624111878
-0.0733427734375,-0.1117900390625,1.0095751953125005,1.018390028544748,0.0,0.490234375,-0.44384765625,43.96529411764706,204.959624111878
-0.0723662109375,-0.1073955078125,1.0061572265625005,1.0144570114833344,0.1240234375,0.52880859375,-0.451171875,43.82411764705883,204.959624111878
-0.0831083984375,-0.1142314453125,1.0061572265625005,1.016025685478951,0.13916015625,0.5625,-0.44775390625,43.96529411764706,204.62199189940037
-0.0967802734375,-0.1142314453125,1.0061572265625005,1.0172352771059223,0.1474609375,0.5947265625,-0.4365234375,43.63588235294118,204.62199189940037
-0.1153349609375,-0.1181376953125,1.0017626953125005,1.0152768912902377,0.13623046875,0.6396484375,-0.421875,43.777058823529416,204.62199189940037
-0.1197294921875,-0.1176494140625,1.0090869140625005,1.0229530468505903,0.15771484375,0.71875,-0.40087890625,43.777058823529416,204.62199189940037
-0.1192412109375,-0.1196025390625,1.0056689453125005,1.0197515684234053,0.173828125,0.76318359375,-0.39990234375,43.87117647058824,204.54672440901152
-0.1133818359375,-0.1156962890625,1.0085986328125005,1.021524485332895,0.17138671875,0.822265625,-0.46337890625,43.96529411764706,204.54672440901152
-0.1045927734375,-0.1235087890625,1.0051806640625005,1.018126827382602,0.16845703125,0.8486328125,-0.5380859375,44.388823529411766,204.54672440901152
-0.0962919921875,-0.1259501953125,1.0056689453125005,1.018089203864107,0.18115234375,0.77197265625,-0.6484375,43.82411764705883,204.54672440901152
-0.0928740234375,-0.1283916015625,1.0032275390625005,1.015665044546997,0.197265625,0.68896484375,-0.7236328125,43.87117647058824,204.54672440901152
-0.1006865234375,-0.1264384765625,0.9988330078125,1.011825993861169,0.1806640625,0.6064453125,-0.76953125,43.87117647058824,204.67145323131984
-0.1094755859375,-0.1244853515625,1.0007861328125005,1.0144231810737556,0.1806640625,0.59033203125,-0.78271484375,43.777058823529416,204.67145323131984
-0.1202177734375,-0.1156962890625,1.0051806640625005,1.0189338112744286,0.21240234375,0.60302734375,-0.728515625,43.68294117647059,204.67145323131984
-0.1265654296875,-0.1147197265625,1.0032275390625005,1.0176664084010814,0.2294921875,0.609375,-0.68701171875,43.68294117647059,204.67145323131984
-0.1309599609375,-0.1181376953125,1.0042041015625005,1.019574864351534,0.248046875,0.62060546875,-0.66455078125,43.777058823529416,204.5797886270381
-0.1329130859375,-0.1108134765625,1.0071337890625005,1.021892354444775,0.267578125,0.58642578125,-0.62744140625,43.63588235294118,204.5797886270381
-0.1363310546875,-0.1127666015625,1.0081103515625005,1.0235179255038134,0.3046875,0.58642578125,-0.58203125,43.87117647058824,204.5797886270381
-0.1353544921875,-0.1156962890625,1.0056689453125005,1.021311165817806,0.330078125,0.595703125,-0.5556640625,43.49470588235295,204.5797886270381
-0.1275419921875,-0.1132548828125,1.0129931640625005,1.0272530256413874,0.322265625,0.5615234375,-0.5537109375,43.777058823529416,204.5797886270381
-0.1104521484375,-0.1147197265625,1.0066455078125005,1.0191641041344228,0.34814453125,0.5029296875,-0.5419921875,43.68294117647059,204.41823286028333
-0.0899443359375,-0.1152080078125,0.9983447265625,1.008987146442667,0.30029296875,0.44873046875,-0.52587890625,43.777058823529416,204.41823286028333
-0.0777373046875,-0.1152080078125,0.9993212890625,1.0089395484258403,0.283203125,0.4482421875,-0.5712890625,43.82411764705883,204.41823286028333
-0.0777373046875,-0.1205791015625,1.0002978515625005,1.0105336214665257,0.2822265625,0.46240234375,-0.65283203125,43.96529411764706,204.41823286028333
-0.0826201171875,-0.1191142578125,1.0095751953125005,1.0199295883386128,0.26416015625,0.44189453125,-0.77587890625,43.82411764705883,204.63113115476665
-0.0938505859375,-0.1147197265625,1.0027392578125005,1.0136343360905602,0.2470703125,0.39697265625,-0.88232421875,43.54176470588236,204.63113115476665
-0.1036162109375,-0.1093486328125,0.9983447265625,1.009646292382714,0.2255859375,0.40625,-0.96435546875,43.63588235294118,204.63113115476665
-0.1158232421875,-0.1034892578125,1.0105517578125005,1.0224186545301983,0.22412109375,0.44384765625,-1.12255859375,43.82411764705883,204.63113115476665
-0.1216826171875,-0.1108134765625,1.0046923828125005,1.018083036885954,0.23876953125,0.4326171875,-1.03466796875,43.777058823529416,204.63113115476665
-0.1241240234375,-0.1156962890625,1.0071337890625005,1.0213279950968424,0.23876953125,0.41748046875,-1.052734375,43.63588235294118,204.41823286028333
-0.1265654296875,-0.1137431640625,1.0105517578125005,1.0247785958834543,0.234375,0.35693359375,-1.11328125,43.49470588235295,204.41823286028333
-0.1329130859375,-0.1073955078125,1.0051806640625005,1.0196018099811628,0.2333984375,0.310546875,-1.115234375,43.68294117647059,204.41823286028333
-0.1260771484375,-0.1049541015625,1.0051806640625005,1.0184787568712723,0.271484375,0.26513671875,-1.08984375,43.777058823529416,204.41823286028333
-0.1236357421875,-0.1039775390625,1.0129931640625005,1.02579348594788,0.32666015625,0.23583984375,-1.04541015625,43.82411764705883,204.49161765792851
-0.1114287109375,-0.1103251953125,1.0042041015625005,1.016372905943917,0.3740234375,0.19580078125,-1.017578125,43.54176470588236,204.49161765792851
-0.1006865234375,-0.1166728515625,1.0022509765625005,1.0140302511829422,0.38720703125,0.18359375,-1.0830078125,43.777058823529416,204.49161765792851
-0.0899443359375,-0.1200908203125,0.9978564453125,1.009073473113958,0.38134765625,0.23486328125,-1.162109375,43.777058823529416,204.49161765792851
-0.0870146484375,-0.1186259765625,0.9963916015625,1.0071940701882591,0.3515625,0.27294921875,-1.29052734375,43.82411764705883,204.49161765792851
-0.0826201171875,-0.1215556640625,1.0017626953125005,1.0124872152029956,0.33349609375,0.265625,-1.4130859375,43.54176470588236,204.5779063255533
-0.0806669921875,-0.1166728515625,0.9968798828125,1.006920661560069,0.29052734375,0.26611328125,-1.478515625,43.82411764705883,204.5779063255533
-0.0860380859375,-0.1098369140625,1.0032275390625005,1.0128831102629574,0.30419921875,0.25732421875,-1.50341796875,43.87117647058824,204.5779063255533
-0.1011748046875,-0.1054423828125,1.0085986328125005,1.0191298441847223,0.34130859375,0.2666015625,-1.46533203125,43.68294117647059,204.5779063255533
-0.1104521484375,-0.1069072265625,1.0129931640625005,1.0245896654871651,0.35107421875,0.14501953125,-1.40087890625,43.63588235294118,204.9357009165132
-0.1163115234375,-0.1122783203125,1.0100634765625005,1.0229188718476518,0.37158203125,-0.0546875,-1.32177734375,43.96529411764706,204.9357009165132
-0.1290068359375,-0.1103251953125,1.0129931640625005,1.0271171125420422,0.41259765625,-0.19189453125,-1.244140625,43.68294117647059,204.9357009165132
-0.1290068359375,-0.1127666015625,1.0242236328125005,1.0384570863344311,0.4873046875,-0.37255859375,-1.19873046875,43.82411764705883,204.9357009165132
-0.1109404296875,-0.1103251953125,0.9963916015625,1.0086008384511052,0.5732421875,-0.38916015625,-1.14501953125,43.777058823529416,204.9357009165132
-0.0796904296875,-0.1020244140625,0.9734423828125,0.9820130438564718,0.58642578125,-0.22314453125,-1.1240234375,43.68294117647059,205.15774876840567
-0.0352568359375,-0.1069072265625,0.9578173828125,0.9644098394299992,0.5517578125,0.01953125,-1.2177734375,43.54176470588236,205.15774876840567
-0.0191435546875,-0.1073955078125,0.9783251953125,0.9843883677531036,0.46728515625,0.15576171875,-1.388671875,43.777058823529416,205.15774876840567
-0.0396513671875,-0.1108134765625,0.9924853515625,0.9994393581272678,0.396484375,0.1494140625,-1.5029296875,43.30647058823529,205.15774876840567
-0.0875029296875,-0.1049541015625,0.9959033203125,1.00523407699309,0.3515625,0.197265625,-1.8056640625,43.87117647058824,204.8109680160879
-0.1265654296875,-0.0986064453125,1.0071337890625005,1.0198335688339235,0.3251953125,0.23486328125,-1.859375,43.63588235294118,204.8109680160879
-0.1285185546875,-0.0986064453125,1.0095751953125005,1.0224883006403565,0.33056640625,0.21484375,-1.892578125,43.96529411764706,204.8109680160879
-0.0938505859375,-0.1049541015625,0.9963916015625,1.006289977879084,0.31298828125,0.16064453125,-1.94091796875,43.63588235294118,204.8109680160879
-0.0782255859375,-0.0976298828125,0.9934619140625,1.001307850266827,0.291015625,0.236328125,-1.96630859375,43.63588235294118,204.8109680160879
-0.0630888671875,-0.0986064453125,0.9885791015625,0.9954858493551222,0.28125,0.2333984375,-2.0234375,43.54176470588236,205.0531749396525
-0.0572294921875,-0.0922587890625,0.9944384765625,1.0003473309822264,0.27001953125,0.203125,-2.03076171875,43.54176470588236,205.0531749396525
-0.0743193359375,-0.0849345703125,0.9959033203125,1.0022777401188865,0.2783203125,0.20361328125,-2.0576171875,43.777058823529416,205.0531749396525
-0.0855498046875,-0.0907939453125,0.9983447265625,1.0061085938618315,0.26513671875,0.2119140625,-2.06884765625,43.63588235294118,205.0531749396525
-0.0938505859375,-0.0971416015625,1.0012744140625005,1.0103439392064184,0.26171875,0.2685546875,-2.11669921875,43.447647058823534,204.8862364480351
-0.0948271484375,-0.0986064453125,1.0027392578125005,1.012028378207014,0.26513671875,0.30419921875,-2.17529296875,43.68294117647059,204.8862364480351
-0.0845732421875,-0.1030009765625,1.0090869140625005,1.0178498094508412,0.2646484375,0.29931640625,-2.23193359375,43.777058823529416,204.8862364480351
-0.0743193359375,-0.0976298828125,0.9959033203125,1.0034332967973685,0.2529296875,0.2861328125,-2.2783203125,43.87117647058824,204.8862364480351
-0.0669951171875,-0.1020244140625,1.0051806640625005,1.0125638222832636,0.37255859375,0.32080078125,-2.35595703125,43.777058823529416,204.8862364480351
-0.0674833984375,-0.1010478515625,1.0022509765625005,1.0095898659309912,0.25146484375,0.35693359375,-2.41796875,43.87117647058824,204.84027016400168
-0.0743193359375,-0.0995830078125,1.0061572265625005,1.0138010178053274,0.2568359375,0.34033203125,-2.50830078125,43.96529411764706,204.84027016400168
-0.0694365234375,-0.0961650390625,0.9983447265625,1.005366270858602,0.2685546875,0.33056640625,-2.57177734375,44.01235294117648,204.84027016400168
-0.0640654296875,-0.0976298828125,0.9944384765625,1.001271120609684,0.27392578125,0.28857421875,-2.63916015625,43.68294117647059,204.84027016400168
-0.0586943359375,-0.0981181640625,0.9934619140625,1.00001938675351,0.28271484375,0.2529296875,-2.736328125,43.87117647058824,204.90639812333575
-0.0562529296875,-0.1073955078125,0.9885791015625,0.9959853549339224,0.30322265625,0.25439453125,-2.8544921875,43.777058823529416,204.90639812333575
-0.0601591796875,-0.1069072265625,0.9866259765625,0.9942228621490584,0.30029296875,0.25048828125,-2.8603515625,43.777058823529416,204.90639812333575
-0.0704130859375,-0.1030009765625,0.9895556640625,0.9973904030630364,0.310546875,0.205078125,-2.92431640625,43.82411764705883,204.90639812333575
-0.0875029296875,-0.1000712890625,0.9885791015625,0.997476649172624,0.33154296875,0.2333984375,-2.93701171875,43.63588235294118,204.90639812333575
-0.1031279296875,-0.1020244140625,1.0042041015625005,1.014628123275407,0.33984375,0.17822265625,-2.96435546875,43.63588235294118,204.94672221100183
-0.0982451171875,-0.1039775390625,1.0139697265625005,1.024010760717831,0.35205078125,0.06103515625,-3.001953125,43.49470588235295,204.94672221100183
-0.0870146484375,-0.1010478515625,1.0144580078125005,1.023184864510322,0.3466796875,-0.12939453125,-3.025390625,43.777058823529416,204.94672221100183
-0.0821318359375,-0.0863994140625,1.0090869140625005,1.016103782768762,0.3759765625,-0.2392578125,-2.97705078125,43.87117647058824,204.94672221100183
-0.0826201171875,-0.0932353515625,1.0046923828125005,1.0123861410679813,0.3984375,-0.2998046875,-2.93212890625,43.68294117647059,204.78704439611255
-0.0845732421875,-0.0922587890625,1.0085986328125005,1.0163343542184478,0.43603515625,-0.294921875,-2.87890625,43.68294117647059,204.78704439611255
-0.0679716796875,-0.1030009765625,1.0032275390625005,1.010789219147973,0.4580078125,-0.248046875,-2.89208984375,43.82411764705883,204.78704439611255
-0.0557646484375,-0.1137431640625,0.9954150390625,1.003443223794005,0.44140625,-0.22021484375,-2.97021484375,43.54176470588236,204.78704439611255
-0.0401396484375,-0.1083720703125,1.0051806640625005,1.0118022852344388,0.4130859375,-0.23974609375,-3.00341796875,43.777058823529416,204.78704439611255
-0.0367216796875,-0.1117900390625,1.0046923828125005,1.0115593302788155,0.42333984375,-0.24755859375,-2.99609375,43.68294117647059,204.91365836938317
-0.0430693359375,-0.1186259765625,0.9919970703125,0.9999926387339496,0.392578125,-0.18408203125,-2.97412109375,43.96529411764706,204.91365836938317
-0.0611357421875,-0.1220439453125,0.9993212890625,1.0086006852733116,0.39794921875,-0.0556640625,-3.0087890625,43.68294117647059,204.91365836938317
-0.0684599609375,-0.1191142578125,0.9983447265625,1.0077535242910045,0.35888671875,-0.01318359375,-3.02490234375,43.82411764705883,204.91365836938317
-0.0645537109375,-0.1171611328125,0.9978564453125,1.0067826965584028,0.34130859375,0.07421875,-3.005859375,43.68294117647059,204.82924888626275
-0.0538115234375,-0.1176494140625,0.9954150390625,1.003786911986659,0.3369140625,0.150390625,-2.9755859375,43.87117647058824,204.82924888626275
-0.0464873046875,-0.1259501953125,1.0056689453125005,1.0145908282466989,0.33837890625,0.1806640625,-2.94970703125,43.68294117647059,204.82924888626275
-0.0513701171875,-0.1264384765625,1.0090869140625005,1.0182740188316126,0.361328125,0.1650390625,-2.91748046875,43.82411764705883,204.82924888626275
-0.0494169921875,-0.1298564453125,1.0120166015625005,1.0215098322307867,0.34912109375,0.109375,-2.8662109375,43.82411764705883,204.82924888626275
-0.0459990234375,-0.1381572265625,1.0149462890625005,1.0253386265475353,0.32568359375,0.06201171875,-2.8193359375,43.87117647058824,204.83838981122057
-0.0499052734375,-0.1371806640625,1.0110400390625005,1.0215238771056712,0.333984375,0.0400390625,-2.75732421875,43.82411764705883,204.83838981122057
-0.0464873046875,-0.1401103515625,1.0134814453125005,1.0241760688986978,0.32568359375,0.0234375,-2.69482421875,43.82411764705883,204.83838981122057
-0.0406279296875,-0.1493876953125,1.0134814453125005,1.0252375101283542,0.31005859375,0.0390625,-2.61865234375,43.68294117647059,204.83838981122057
-0.0289091796875,-0.1528056640625,1.0139697265625005,1.025826456095288,0.2900390625,0.0322265625,-2.5244140625,43.87117647058824,204.86231276132176
-0.0411162109375,-0.1518291015625,1.0188525390625005,1.030923428406415,0.26806640625,0.01904296875,-2.4326171875,43.82411764705883,204.86231276132176
-0.0459990234375,-0.1537822265625,1.0144580078125005,1.027078348023475,0.26806640625,0.02734375,-2.28662109375,43.96529411764706,204.86231276132176
-0.0464873046875,-0.1542705078125,1.0125048828125005,1.0252446521669791,0.2734375,0.05419921875,-2.18505859375,43.82411764705883,204.86231276132176
-0.0577177734375,-0.1562236328125,1.0208056640625005,1.034302358404833,0.28515625,0.06884765625,-2.0625,43.777058823529416,204.86231276132176
-0.0577177734375,-0.1523173828125,1.0252001953125005,1.038059423610335,0.29443359375,0.02001953125,-1.89208984375,43.63588235294118,204.565003162189
-0.0572294921875,-0.1552470703125,1.0286181640625005,1.0418407724100465,0.30810546875,0.01416015625,-1.71826171875,43.82411764705883,204.565003162189
-0.0533232421875,-0.1620830078125,1.0125048828125005,1.0267815772101136,0.30078125,0.02685546875,-1.58447265625,43.82411764705883,204.565003162189
-0.0562529296875,-0.1625712890625,1.0159228515625005,1.0303849069414557,0.30078125,0.072265625,-1.4580078125,43.68294117647059,204.565003162189
-0.0586943359375,-0.1611064453125,1.0164111328125005,1.0307724786283168,0.2978515625,0.14306640625,-1.326171875,43.96529411764706,204.69161463812384
-0.0562529296875,-0.1591533203125,1.0159228515625005,1.0298511600186708,0.28173828125,0.18212890625,-1.2099609375,43.82411764705883,204.69161463812384
-0.0455107421875,-0.1513408203125,1.0134814453125005,1.0257289659262,0.23046875,0.24658203125,-1.0654296875,43.54176470588236,204.69161463812384
-0.0328154296875,-0.1528056640625,1.0046923828125005,1.0167758885204825,0.21630859375,0.298828125,-0.95654296875,43.87117647058824,204.69161463812384
-0.0293974609375,-0.1552470703125,1.0066455078125005,1.0189705795307695,0.2099609375,0.35888671875,-0.84375,43.87117647058824,204.69161463812384
-0.0372099609375,-0.1572001953125,1.0032275390625005,1.0161505684359275,0.19287109375,0.37451171875,-0.759765625,43.54176470588236,204.658550880288
-0.0362333984375,-0.1572001953125,1.0012744140625005,1.0141869713345868,0.18017578125,0.3818359375,-0.64794921875,43.87117647058824,204.658550880288
-0.0406279296875,-0.1518291015625,1.0061572265625005,1.018359008069311,0.15478515625,0.4130859375,-0.5400390625,43.82411764705883,204.658550880288
-0.0396513671875,-0.1503642578125,1.0027392578125005,1.014725411185561,0.15673828125,0.40673828125,-0.44384765625,43.777058823529416,204.658550880288
-0.0386748046875,-0.1528056640625,1.0066455078125005,1.018911423964951,0.13232421875,0.4384765625,-0.3076171875,43.49470588235295,204.67683233015927
-0.0391630859375,-0.1518291015625,1.0051806640625005,1.0173367145574532,0.1298828125,0.45751953125,-0.22802734375,43.82411764705883,204.67683233015927
-0.0411162109375,-0.1498759765625,1.0051806640625005,1.017124141173313,0.0908203125,0.44580078125,-0.14697265625,43.96529411764706,204.67683233015927
-0.0372099609375,-0.1435283203125,1.0066455078125005,1.0175068247062449,0.08447265625,0.44287109375,-0.05517578125,43.96529411764706,204.67683233015927
-0.0450224609375,-0.1420634765625,1.0125048828125005,1.0234134995597075,0.08154296875,0.45703125,0.056640625,43.777058823529416,204.67683233015927
-0.0347685546875,-0.1381572265625,1.0115283203125005,1.0215115341692074,0.09912109375,0.47021484375,0.1611328125,43.54176470588236,204.7851639147992
-0.0406279296875,-0.1396220703125,1.0120166015625005,1.0224101686833682,0.07958984375,0.4853515625,0.24462890625,43.87117647058824,204.7851639147992
-0.0298857421875,-0.1401103515625,1.0027392578125005,1.0129215603191737,0.09814453125,0.49267578125,0.32421875,43.54176470588236,204.7851639147992
-0.0445341796875,-0.1420634765625,1.0012744140625005,1.0122824589953467,0.10595703125,0.5400390625,0.357421875,43.87117647058824,204.7851639147992
-0.0464873046875,-0.1381572265625,1.0012744140625005,1.0118295019442525,0.119140625,0.544921875,0.38427734375,43.68294117647059,204.47871460036023
-0.0538115234375,-0.1322978515625,0.9978564453125,1.0080257372877026,0.12548828125,0.5849609375,0.4345703125,43.777058823529416,204.47871460036023
-0.0489287109375,-0.1303447265625,1.0002978515625005,1.0099403736544117,0.11376953125,0.61865234375,0.48828125,43.96529411764706,204.47871460036023
-0.0425810546875,-0.1215556640625,0.9993212890625,1.007587199431152,0.11572265625,0.64990234375,0.53759765625,44.71823529411765,204.47871460036023
-0.0376982421875,-0.1205791015625,0.9939501953125,1.0019468388888724,0.10498046875,0.66064453125,0.5732421875,43.777058823529416,204.47871460036023
-0.0337919921875,-0.1205791015625,0.9963916015625,1.0042297755662812,0.109375,0.70556640625,0.60400390625,43.68294117647059,204.429254207697
-0.0381865234375,-0.1239970703125,1.0027392578125005,1.0110981669337007,0.0986328125,0.74755859375,0.5947265625,43.54176470588236,204.429254207697
-0.0455107421875,-0.1191142578125,1.0076220703125005,1.015658245006424,0.1015625,0.6875,0.55859375,43.63588235294118,204.429254207697
-0.0606474609375,-0.1254619140625,1.0144580078125005,1.0239843045737071,0.10009765625,0.60009765625,0.57275390625,43.82411764705883,204.429254207697
-0.0611357421875,-0.1176494140625,1.0168994140625005,1.02550640267271,0.1201171875,0.49658203125,0.61572265625,44.01235294117648,204.565003162189
-0.0557646484375,-0.1103251953125,1.0227587890625005,1.0302023516478165,0.12158203125,0.43603515625,0.697265625,43.777058823529416,204.565003162189
-0.0455107421875,-0.1073955078125,1.0134814453125005,1.020171388907509,0.13134765625,0.39453125,0.7900390625,43.82411764705883,204.565003162189
-0.0391630859375,-0.1020244140625,1.0095751953125005,1.0154726994632686,0.1220703125,0.43310546875,0.8505859375,43.447647058823534,204.565003162189
-0.0367216796875,-0.1034892578125,1.0085986328125005,1.0145588747593202,0.13916015625,0.4677734375,0.88818359375,43.54176470588236,204.565003162189
-0.0406279296875,-0.1034892578125,1.0046923828125005,1.0108251279201237,0.150390625,0.48095703125,0.92041015625,43.68294117647059,204.90451740236173
-0.0464873046875,-0.1039775390625,0.9978564453125,1.0043355433212051,0.1376953125,0.48388671875,0.904296875,43.777058823529416,204.90451740236173
-0.0523466796875,-0.1010478515625,1.0007861328125005,1.0072356858300355,0.13427734375,0.4833984375,0.890625,43.87117647058824,204.90451740236173
-0.0562529296875,-0.0990947265625,0.9959033203125,1.002400907990603,0.13671875,0.4990234375,0.8671875,43.68294117647059,204.90451740236173
-0.0601591796875,-0.0951884765625,0.9919970703125,0.9983677481166676,0.15185546875,0.49169921875,0.8505859375,43.82411764705883,204.7521003326505
-0.0601591796875,-0.0927470703125,0.9993212890625,1.0054174181531577,0.1201171875,0.5048828125,0.8310546875,43.87117647058824,204.7521003326505
-0.0582060546875,-0.0893291015625,0.9983447265625,1.0040218255811977,0.12109375,0.50537109375,0.8271484375,43.54176470588236,204.7521003326505
-0.0611357421875,-0.0893291015625,0.9988330078125,1.0046813648388957,0.1259765625,0.4990234375,0.81591796875,44.01235294117648,204.7521003326505
-0.0596708984375,-0.0898173828125,0.9963916015625,1.0022095599423853,0.1123046875,0.484375,0.80322265625,43.96529411764706,204.7521003326505
-0.0562529296875,-0.0883525390625,1.0066455078125005,1.012079908730681,0.09912109375,0.4833984375,0.80322265625,43.87117647058824,204.91365836938317
-0.0586943359375,-0.0903056640625,1.0037158203125005,1.0094778779044682,0.07421875,0.48681640625,0.796875,43.49470588235295,204.91365836938317
-0.0621123046875,-0.0917705078125,1.0090869140625005,1.015153271496446,0.08984375,0.4580078125,0.77880859375,43.82411764705883,204.91365836938317
-0.0665068359375,-0.0912822265625,1.0125048828125005,1.0187844432615665,0.078125,0.42919921875,0.7666015625,44.388823529411766,204.91365836938317
-0.0655302734375,-0.0937236328125,1.0129931640625005,1.0194280192940164,0.06787109375,0.421875,0.75439453125,43.777058823529416,204.71177629061447
-0.0684599609375,-0.0961650390625,1.0154345703125005,1.0222728831262171,0.064453125,0.39794921875,0.751953125,43.96529411764706,204.71177629061447
-0.0694365234375,-0.0903056640625,1.0110400390625005,1.0174372237815743,0.04833984375,0.3837890625,0.7607421875,44.53,204.71177629061447
-0.0694365234375,-0.0903056640625,1.0110400390625005,1.0174372237815743,0.0498046875,0.38037109375,0.7861328125,43.63588235294118,204.71177629061447
-0.0689482421875,-0.0903056640625,1.0071337890625005,1.0135222948381075,0.04638671875,0.388671875,0.7783203125,43.54176470588236,204.71177629061447
-0.0689482421875,-0.0912822265625,1.0071337890625005,1.013609774054267,0.0361328125,0.37060546875,0.73779296875,43.54176470588236,204.5319393541976
-0.0772490234375,-0.0912822265625,1.0027392578125005,1.00984448093091,0.0205078125,0.38623046875,0.71728515625,43.49470588235295,204.5319393541976
-0.0743193359375,-0.0907939453125,0.9988330078125,1.005700890769898,0.01318359375,0.4140625,0.68310546875,43.777058823529416,204.5319393541976
-0.0709013671875,-0.0893291015625,1.0061572265625005,1.0126001465627794,0.017578125,0.3984375,0.6455078125,43.63588235294118,204.5319393541976
-0.0669951171875,-0.0898173828125,0.9968798828125,1.003157519404863,0.00146484375,0.396484375,0.61181640625,43.96529411764706,204.58516427844384
-0.0606474609375,-0.0878642578125,1.0046923828125005,1.0103489626859457,0.00634765625,0.3935546875,0.59228515625,43.54176470588236,204.58516427844384
-0.0655302734375,-0.0815166015625,1.0002978515625005,1.005750945765226,0.00634765625,0.39404296875,0.58935546875,43.68294117647059,204.58516427844384
-0.0640654296875,-0.0810283203125,1.0056689453125005,1.0109599376531524,0.0078125,0.3798828125,0.548828125,43.777058823529416,204.58516427844384
-0.0689482421875,-0.0863994140625,1.0066455078125005,1.0126963499737598,0.00146484375,0.34716796875,0.5390625,43.82411764705883,204.58516427844384
-0.0689482421875,-0.0824931640625,1.0037158203125005,1.0094574929948186,0.01123046875,0.37255859375,0.5341796875,43.82411764705883,204.61634687065936
-0.0694365234375,-0.0839580078125,1.0076220703125005,1.013495246384402,0.03955078125,0.3486328125,0.5234375,43.82411764705883,204.61634687065936
-0.0704130859375,-0.0854228515625,1.0066455078125005,1.0127142956626003,0.01318359375,0.32958984375,0.4892578125,43.87117647058824,204.61634687065936
-0.0723662109375,-0.0878642578125,1.0061572265625005,1.0125756074735035,0.01953125,0.3017578125,0.4580078125,44.01235294117648,204.61634687065936
-0.0738310546875,-0.0824931640625,0.9998095703125,1.005920137805073,0.01171875,0.326171875,0.416015625,43.49470588235295,204.891615878046
-0.0752958984375,-0.0898173828125,1.0027392578125005,1.0095655767384115,0.01953125,0.33203125,0.39501953125,43.63588235294118,204.891615878046
-0.0748076171875,-0.0873759765625,1.0046923828125005,1.011255420233178,0.0126953125,0.33349609375,0.3603515625,43.82411764705883,204.891615878046
-0.0777373046875,-0.0868876953125,1.0061572265625005,1.012889394110106,0.0234375,0.3505859375,0.33203125,43.63588235294118,204.891615878046
-0.0816435546875,-0.0859111328125,1.0134814453125005,1.0203876874775843,0.015625,0.3623046875,0.3017578125,43.82411764705883,204.891615878046
-0.0816435546875,-0.0903056640625,1.0120166015625005,1.0193127021782336,0.0166015625,0.3681640625,0.291015625,43.63588235294118,204.84753106274556
-0.0752958984375,-0.0898173828125,1.0120166015625005,1.018780759739263,0.01806640625,0.25,0.26806640625,43.40058823529412,204.84753106274556
-0.0752958984375,-0.0854228515625,1.0042041015625005,1.0106396061334266,0.01025390625,0.38134765625,0.2470703125,43.777058823529416,204.84753106274556
-0.0752958984375,-0.0883525390625,1.0115283203125005,1.018167562965217,0.00830078125,0.37841796875,0.251953125,43.54176470588236,204.84753106274556
-0.0792021484375,-0.0912822265625,1.0090869140625005,1.0162980986578216,0.0263671875,0.3916015625,0.22900390625,43.777058823529416,204.7448400735724
-0.0782255859375,-0.0898173828125,1.0085986328125005,1.0156070138896232,0.04345703125,0.38818359375,0.21142578125,43.82411764705883,204.7448400735724
-0.0748076171875,-0.0907939453125,1.0090869140625005,1.0159213159624425,0.04541015625,0.38232421875,0.18798828125,43.82411764705883,204.7448400735724
-0.0718779296875,-0.0942119140625,1.0100634765625005,1.016990928284518,0.03759765625,0.3798828125,0.185546875,43.63588235294118,204.7448400735724
-0.0718779296875,-0.0898173828125,1.0081103515625005,1.0146526893271983,0.04833984375,0.3642578125,0.16064453125,43.82411764705883,204.7448400735724
-0.0748076171875,-0.0942119140625,1.0076220703125005,1.0147779564621222,0.05517578125,0.35400390625,0.15234375,43.82411764705883,204.73381879863732
-0.0767607421875,-0.0878642578125,0.9998095703125,1.00659401758136,0.0712890625,0.34765625,0.1416015625,43.82411764705883,204.73381879863732
-0.0816435546875,-0.0893291015625,1.0056689453125005,1.0129241758265677,0.0947265625,0.333984375,0.11279296875,43.82411764705883,204.73381879863732
-0.0757841796875,-0.0917705078125,1.0090869140625005,1.016081427901943,0.0888671875,0.35302734375,0.09619140625,43.82411764705883,204.73381879863732
-0.0772490234375,-0.0903056640625,1.0042041015625005,1.0112113538616767,0.0908203125,0.359375,0.064453125,43.447647058823534,204.61446606511544
-0.0772490234375,-0.0912822265625,1.0056689453125005,1.012753614693234,0.04443359375,0.3857421875,0.0556640625,43.68294117647059,204.61446606511544
-0.0840849609375,-0.0942119140625,1.0066455078125005,1.0145350382348888,0.06787109375,0.37158203125,0.056640625,43.82411764705883,204.61446606511544
-0.0875029296875,-0.0942119140625,1.0032275390625005,1.0114337064724588,0.0673828125,0.38330078125,0.07763671875,43.82411764705883,204.61446606511544
-0.0889677734375,-0.0986064453125,1.0046923828125005,1.0134324249051108,0.09814453125,0.38232421875,0.07373046875,43.777058823529416,204.61446606511544
-0.0855498046875,-0.0961650390625,1.0017626953125005,1.0099975156106706,0.0595703125,0.3857421875,0.09423828125,43.68294117647059,205.0494156977419
-0.0889677734375,-0.0971416015625,0.9963916015625,1.005061181783894,0.0556640625,0.40869140625,0.0966796875,43.87117647058824,205.0494156977419
-0.0879912109375,-0.1044658203125,1.0076220703125005,1.0168371538238856,0.06591796875,0.38720703125,0.095703125,43.777058823529416,205.0494156977419
-0.0865263671875,-0.1059306640625,1.0061572265625005,1.0154114842620852,0.0830078125,0.37939453125,0.10498046875,43.447647058823534,205.0494156977419
