AccX,AccY,AccZ,Magnitude,GyroX,GyroY,GyroZ,Temperature,Altitude
-0.2330107421875,-0.1088603515625,1.3469775390625005,1.371310713462106,0.62451171875,-0.2236328125,-0.58935546875,43.447647058823534,322.033607468151
-0.3101591796875,-0.1440166015625,1.3543017578125005,1.3968080574953965,0.65283203125,-0.01220703125,-0.51513671875,43.353529411764704,322.033607468151
-0.3531279296875,-0.1532939453125,1.3835986328125005,1.4361558220177473,0.74609375,0.314453125,-0.1552734375,43.447647058823534,322.033607468151
-0.3711943359375,-0.1689189453125,1.4382861328125005,1.4949869046109756,0.837890625,0.6513671875,0.19873046875,43.73,322.033607468151
-0.3311552734375,-0.1821025390625,1.4509814453125005,1.4993906443951246,0.8544921875,0.916015625,0.28759765625,43.353529411764704,322.0796273239032
-0.2999052734375,-0.1777080078125,1.4885791015625005,1.528852854490886,0.91162109375,1.28515625,0.05029296875,43.87117647058824,322.0796273239032
-0.2715849609375,-0.1596416015625,1.5725634765625005,1.6038078811925076,0.8798828125,1.54736328125,-0.26123046875,42.88294117647059,322.0796273239032
-0.2188505859375,-0.1283916015625,1.6794970703125005,1.698555383702646,0.72705078125,1.3828125,-0.85400390625,43.16529411764706,322.0796273239032
-0.1392607421875,-0.0790751953125,1.7839892578125005,1.7911627823340677,0.3525390625,0.7119140625,-1.65673828125,43.118235294117646,322.0796273239032
-0.0376982421875,0.0019794921875,1.7781298828125005,1.7785305608856272,-0.05615234375,0.03369140625,-2.1533203125,43.447647058823534,321.72478268716446
0.0970673828125,0.1006123046875,1.6467822265625005,1.6527058462965347,-0.220703125,0.115234375,-1.97216796875,42.69470588235294,321.72478268716446
0.2889619140625,0.1684833984375,1.4944384765625005,1.5314150330848133,-0.28662109375,0.83740234375,-1.080078125,42.60058823529412,321.72478268716446
0.4222626953125,0.2007099609375,1.4338916015625005,1.5081894434399088,-0.21728515625,1.185546875,0.28369140625,43.87117647058824,321.72478268716446
0.4422822265625,0.2422138671875,1.3230517578125005,1.4158909136094326,-0.08203125,1.0341796875,1.837890625,43.353529411764704,323.4808923476611
0.4471650390625,0.3017841796875,1.2283251953125005,1.3415711120581406,0.17431640625,0.7158203125,2.94482421875,43.87117647058824,323.4808923476611
0.4188447265625,0.3340107421875,1.1506884765625005,1.2692824945454766,0.39501953125,-0.07373046875,3.21728515625,42.69470588235294,323.4808923476611
0.3026337890625,0.3462177734375,1.2107470703125005,1.2951302734461303,0.39794921875,-0.7587890625,2.78564453125,42.60058823529412,323.4808923476611
0.1869111328125,0.3755146484375,1.0579150390625005,1.1380383353099326,0.26025390625,-1.16455078125,1.52392578125,43.447647058823534,323.4808923476611
0.0990205078125,0.3320576171875,1.1365283203125005,1.188176731371238,0.2841796875,-0.73681640625,-0.37841796875,42.60058823529412,323.933984039526
-0.0162138671875,0.1435810546875,1.0867236328125005,1.096287673408557,0.2861328125,-0.517578125,-1.58349609375,43.353529411764704,323.933984039526
-0.0904326171875,0.1894794921875,1.2039111328125005,1.222081237856507,0.35009765625,0.208984375,-2.78662109375,42.74176470588235,323.933984039526
-0.2501005859375,-0.1742900390625,1.0525439453125005,1.09579928710357,0.49365234375,0.44140625,-1.822265625,42.60058823529412,323.933984039526
-0.1543974609375,-0.2177470703125,1.0667041015625005,1.0995953814307715,0.62841796875,0.9873046875,-1.25341796875,44.01235294117648,324.4547907316631
-0.0406279296875,-0.3188212890625,0.9275439453125,0.9816493332733665,0.28173828125,0.3798828125,-0.1845703125,42.55352941176471,324.4547907316631
0.0985322265625,-0.2294658203125,0.9094775390625,0.943139733243295,-0.27490234375,0.26904296875,-0.43798828125,43.25941176470588,324.4547907316631
0.1131806640625,-0.1576884765625,0.8591845703125001,0.8808368998976518,-0.36083984375,0.1455078125,-1.77001953125,43.49470588235295,324.4547907316631
0.0404267578125,-0.1508525390625,0.7673876953125001,0.7831185645902311,-0.31298828125,0.05224609375,-1.9970703125,42.55352941176471,324.4547907316631
-0.0079130859375,-0.1357158203125,0.6843798828125001,0.6977515494863485,-0.30859375,0.052734375,-1.5625,44.01235294117648,324.2527802549472
-0.0210966796875,-0.0912822265625,0.6418994140625001,0.648700526093378,-0.38916015625,0.1845703125,-1.490234375,43.49470588235295,324.2527802549472
-0.0586943359375,-0.0605205078125,0.6282275390625001,0.6338592886229183,-0.49072265625,0.26904296875,-1.48583984375,43.91823529411765,324.2527802549472
-0.0923857421875,-0.0761455078125,0.6101611328125001,0.621795683255032,-0.4375,0.56396484375,-0.73974609375,43.91823529411765,324.2527802549472
-0.0806669921875,-0.0566142578125,0.5774462890625001,0.5857956593969358,-0.59130859375,0.73583984375,-0.06982421875,42.60058823529412,323.66430321336657
-0.0630888671875,-0.0346416015625,0.5325244140625001,0.5373662599144331,-0.5009765625,0.79345703125,0.24609375,43.447647058823534,323.66430321336657
-0.0684599609375,-0.0322001953125,0.4973681640625,0.5030891665029462,-0.68408203125,0.7333984375,0.61962890625,43.73,323.66430321336657
-0.0523466796875,-0.0155986328124999,0.4685595703125,0.4717325122899201,-0.66357421875,0.6123046875,1.09619140625,42.60058823529412,323.66430321336657
-0.0420927734375,0.0205341796875,0.4485400390625,0.450978514735778,-0.5986328125,0.4580078125,1.22705078125,42.74176470588235,323.66430321336657
-0.0435576171875,0.0459248046875,0.4705126953125,0.4747510401788197,-0.47998046875,0.38134765625,0.99267578125,43.118235294117646,323.93898046525004
-0.0606474609375,0.0449482421875,0.4563525390625,0.4625538875663055,-0.41259765625,0.146484375,0.8154296875,42.69470588235294,323.93898046525004
-0.1011748046875,0.0132099609375,0.4587939453125,0.4700029025728813,-0.38525390625,-0.0341796875,1.06103515625,44.01235294117648,323.93898046525004
-0.1006865234375,0.0283466796875,0.5168994140625001,0.527376824016179,-0.18408203125,-0.0029296875,1.36962890625,42.60058823529412,323.93898046525004
-0.1251005859375,0.0415302734375,0.5447314453125001,0.560452734604752,-0.03955078125,0.03466796875,1.57958984375,43.16529411764706,323.8853452808532
-0.1636748046875,0.0332294921875,0.5955126953125001,0.6184892974974497,0.0693359375,0.1015625,1.76123046875,43.353529411764704,323.8853452808532
-0.1744169921875,0.0312763671875,0.6653369140625001,0.6885293802898991,0.01123046875,0.2607421875,1.82080078125,44.01235294117648,323.8853452808532
-0.1924833984375,0.0395771484375,0.7639697265625001,0.7888383563547569,-0.01025390625,0.5498046875,1.7998046875,42.60058823529412,323.8853452808532
-0.1983427734375,0.0224873046875,0.8264697265625001,0.850233934615222,-0.09619140625,0.52685546875,1.98388671875,42.60058823529412,323.8853452808532
-0.1705107421875,0.0136982421875,0.9192431640625,0.9350238230740412,-0.1572265625,0.46533203125,2.2802734375,43.353529411764704,323.1720862359974
-0.1041044921875,0.0556904296875,0.9856494140625,0.992695288945276,-0.48388671875,0.251953125,1.84521484375,43.30647058823529,323.1720862359974
-0.1055693359375,0.0713154296875,1.0471728515625005,1.0548941919696666,-0.47705078125,-0.095703125,1.29638671875,42.55352941176471,323.1720862359974
-0.1500029296875,0.0444599609375,1.1252978515625005,1.136121834035671,-0.498046875,-0.25439453125,0.93798828125,44.01235294117648,323.1720862359974
-0.1402373046875,0.0386005859375,1.2092822265625005,1.2179983622077213,-0.41015625,-0.45361328125,0.7568359375,43.91823529411765,322.65133877793073
-0.0845732421875,0.0844990234375,1.2463916015625005,1.2521121126726356,-0.40185546875,-0.50927734375,0.4404296875,43.25941176470588,322.65133877793073
-0.1304716796875,0.1577412109375,1.3030322265625005,1.3190140758494329,-0.28369140625,-0.572265625,0.10498046875,43.30647058823529,322.65133877793073
-0.2789091796875,0.2085224609375,1.3445361328125005,1.388902213860925,-0.1357421875,-0.51806640625,0.265625,43.30647058823529,322.65133877793073
-0.3794951171875,0.2422138671875,1.3694384765625005,1.4415428687752925,-0.00341796875,-0.06982421875,0.5517578125,43.447647058823534,322.65133877793073
-0.4527373046875,0.2226826171875,1.3875048828125005,1.4763903328326513,0.0439453125,0.61865234375,1.00390625,42.60058823529412,322.4889355236169
-0.4922880859375,0.1865498046875,1.4412158203125005,1.5343570086208702,0.09130859375,1.24169921875,1.2685546875,43.30647058823529,322.4889355236169
-0.4664091796875,0.1328388671875,1.5486376953125005,1.6227946262159108,0.1376953125,1.72412109375,1.24072265625,42.74176470588235,322.4889355236169
-0.5010771484375,0.0747333984375,1.6897509765625005,1.7640639875929098,0.21337890625,1.4580078125,1.34716796875,42.55352941176471,322.4889355236169
-0.2017607421875,-0.0053447265624999,1.7463916015625005,1.7580158102810433,0.39013671875,0.591796875,1.486328125,43.91823529411765,322.2979892721514
0.0033173828125,-0.1010478515625,1.6970751953125005,1.700084083767354,0.474609375,0.07421875,0.99755859375,42.69470588235294,322.2979892721514
0.1747041015625,-0.1518291015625,1.5823291015625005,1.5991682165537262,0.3720703125,0.15576171875,-0.17333984375,43.91823529411765,322.2979892721514
0.3363251953125,-0.1562236328125,1.4490283203125005,1.4957284290668516,-0.048828125,0.5048828125,-0.87890625,42.60058823529412,322.2979892721514
0.4403291015625,-0.0947001953125,1.2805712890625005,1.357468478840764,-0.15234375,0.90087890625,-1.48828125,43.447647058823534,322.2979892721514
0.4198212890625,-0.0956767578125,1.2107470703125005,1.2850340170617716,-0.26123046875,1.16552734375,-1.81787109375,43.447647058823534,322.76811520787146
0.3358369140625,-0.1747783203125,1.1721728515625005,1.2317966910324305,-0.28466796875,1.126953125,-2.0283203125,42.97705882352941,322.76811520787146
0.2640595703125,-0.2651103515625,1.1306689453125005,1.1909757424369718,-0.26904296875,0.830078125,-1.884765625,43.353529411764704,322.76811520787146
0.2372041015625,-0.3036845703125,1.0510791015625005,1.119489786369395,-0.41552734375,0.20068359375,-1.4931640625,43.30647058823529,322.76811520787146
0.2074189453125,-0.3183330078125,1.0208056640625005,1.0892211559272915,-0.42822265625,-0.5341796875,-1.16845703125,42.55352941176471,323.8632883373841
0.1615205078125,-0.3642314453125,1.0750048828125005,1.146468018860168,0.05908203125,-1.4267578125,-0.587890625,42.60058823529412,323.8632883373841
0.1136689453125,-0.3827861328125,1.0745166015625005,1.1463122522399514,0.0458984375,-2.01953125,0.017578125,43.447647058823534,323.8632883373841
0.0370087890625,-0.3071025390625,1.1047900390625005,1.1472761874885349,-0.2890625,-1.544921875,0.86328125,43.447647058823534,323.8632883373841
-0.0479521484375,-0.1469462890625,1.1067431640625005,1.117485146034651,-0.48291015625,-1.0302734375,1.61474609375,43.777058823529416,323.8632883373841
-0.0665068359375,0.0136982421875,1.0676806640625005,1.0698377453980517,-0.6611328125,-0.8662109375,1.72509765625,43.49470588235295,323.9485019258622
-0.0669951171875,0.1474873046875,1.1062548828125005,1.1180521975817808,-0.5048828125,-0.35791015625,1.2236328125,43.54176470588236,323.9485019258622
-0.1055693359375,0.1572529296875,1.1067431640625005,1.1228329349394153,-0.11279296875,-0.29931640625,1.3642578125,42.55352941176471,323.9485019258622
-0.0640654296875,0.0932880859375,1.0266650390625005,1.03288341485965,0.08544921875,-0.29638671875,2.34912109375,42.69470588235294,323.9485019258622
-0.0596708984375,0.0932880859375,0.9314501953125,0.9380099943209108,0.091796875,-0.306640625,2.9677734375,42.60058823529412,323.3740782811228
-0.0401396484375,0.0996357421875,0.8401416015625001,0.8469807454564375,0.07373046875,-0.31005859375,3.14501953125,43.447647058823534,323.3740782811228
-0.0303740234375,0.0947529296875,0.7678759765625001,0.7742959475329567,0.150390625,-0.2373046875,3.06494140625,43.02411764705882,323.3740782811228
0.0038056640625,0.0761982421875,0.6960986328125001,0.7002670646223862,0.29345703125,-0.15869140625,2.80615234375,43.63588235294118,323.3740782811228
0.0023408203125,0.0527607421875,0.6438525390625001,0.6460149126863399,0.40869140625,-0.0263671875,2.427734375,43.30647058823529,323.3740782811228
-0.0123076171875,0.0254169921875,0.5979541015625001,0.5986205881091212,0.40234375,0.0859375,2.04833984375,43.447647058823534,322.9039269765417
-0.0420927734375,-0.0082744140624999,0.5691455078125001,0.5707599114924654,0.47607421875,0.1982421875,1.80615234375,43.30647058823529,322.9039269765417
-0.0513701171875,-0.0375712890625,0.5427783203125001,0.546496839609283,0.5400390625,0.27490234375,1.4658203125,42.69470588235294,322.9039269765417
-0.0547880859375,-0.0571025390625,0.5017626953125001,0.5079647987167457,0.52978515625,0.27587890625,1.05419921875,43.16529411764706,322.9039269765417
-0.0611357421875,-0.0717509765625,0.4807666015625,0.4899207147982667,0.28564453125,0.265625,0.46435546875,42.60058823529412,323.3409926855344
-0.0567412109375,-0.1030009765625,0.4876025390625,0.5015824979917854,0.2978515625,0.35107421875,0.1875,43.25941176470588,323.3409926855344
-0.0240263671875,-0.1230205078125,0.4646533203125,0.4812629424130895,0.17431640625,0.21484375,0.06640625,44.01235294117648,323.3409926855344
0.0023408203125,-0.1098369140625,0.4841845703125,0.4964920193308335,0.09814453125,0.0458984375,-0.0029296875,42.74176470588235,323.3409926855344
-0.0269560546875,-0.1210673828125,0.5217822265625001,0.536321388741773,-0.0341796875,-0.111328125,0.30322265625,43.353529411764704,323.3409926855344
-0.0367216796875,-0.0898173828125,0.5476611328125001,0.5561909388041388,-0.111328125,-0.07470703125,0.28955078125,43.447647058823534,323.28886951387204
-0.0879912109375,-0.0356181640625,0.6096728515625001,0.6170187134486125,-0.08642578125,0.10302734375,-0.06982421875,44.01235294117648,323.28886951387204
-0.1036162109375,-0.0312236328125,0.6672900390625001,0.6760083066405969,0.0810546875,0.12548828125,-0.1611328125,42.60058823529412,323.28886951387204
-0.1407255859375,-0.0063212890624999,0.6995166015625001,0.7135594755130183,0.04052734375,0.15185546875,-0.18017578125,44.01235294117648,323.28886951387204
-0.1133818359375,0.0200458984375,0.7756884765625001,0.7841874083639554,0.19580078125,0.09814453125,-0.330078125,42.60058823529412,323.1059149188806
-0.1578154296875,0.0024677734375,0.8586962890625001,0.8730813917401389,0.43603515625,0.1982421875,-0.02734375,43.447647058823534,323.1059149188806
-0.1417021484375,-0.0112041015624999,0.9524462890625,0.9629947893485996,0.439453125,0.17333984375,0.1943359375,43.118235294117646,323.1059149188806
-0.1431669921875,-0.0322001953125,1.0935595703125005,1.1033613071212165,0.5263671875,0.29443359375,-0.0390625,42.55352941176471,323.1059149188806
-0.1265654296875,-0.0756572265625,1.2107470703125005,1.219693113940311,0.587890625,0.24951171875,-0.30078125,43.49470588235295,323.1059149188806
-0.1119169921875,-0.0990947265625,1.2815478515625005,1.290236441051505,0.59423828125,-0.00244140625,-0.61083984375,42.55352941176471,322.4573631001116
-0.1817412109375,-0.1279033203125,1.3411181640625005,1.3594068769424268,0.6689453125,0.1220703125,-0.80126953125,44.01235294117648,322.4573631001116
-0.2466826171875,-0.1440166015625,1.3582080078125005,1.38792005808479,0.67236328125,0.3251953125,-0.78564453125,43.49470588235295,322.4573631001116
-0.2989287109375,-0.1630595703125,1.3543017578125005,1.3964526661893273,0.66552734375,0.65478515625,-0.5361328125,43.447647058823534,322.4573631001116
-0.3204130859375,-0.2030986328125,1.3855517578125005,1.4365469967486646,0.72705078125,0.90771484375,-0.2626953125,42.788823529411765,322.5631095507235
-0.3023466796875,-0.2226298828125,1.4065478515625005,1.4558002741359295,0.669921875,1.0087890625,-0.212890625,43.353529411764704,322.5631095507235
-0.2574248046875,-0.2182353515625,1.4260791015625005,1.465467776054224,0.541015625,0.955078125,-0.30908203125,44.01235294117648,322.5631095507235
-0.2437529296875,-0.1864970703125,1.5085986328125005,1.5395020243215434,0.48974609375,1.091796875,-0.5361328125,43.30647058823529,322.5631095507235
-0.2120146484375,-0.1386455078125,1.6326220703125005,1.6521584707467192,0.4111328125,1.1748046875,-1.03564453125,43.447647058823534,322.5631095507235
-0.1539091796875,-0.0624736328125,1.7639697265625005,1.7717731758376556,0.15283203125,1.41796875,-2.068359375,43.447647058823534,321.998275959272
-0.0342802734375,0.0263935546875,1.7888720703125005,1.7893951606115746,-0.32177734375,0.6806640625,-2.83837890625,43.16529411764706,321.998275959272
0.0145478515625,-0.0326884765625,1.6726611328125005,1.673043765627982,-0.5556640625,0.19091796875,-2.35498046875,43.353529411764704,321.998275959272
0.2064423828125,0.1567646484375,1.5252001953125005,1.547071183948019,-0.529296875,0.49560546875,-1.3291015625,43.30647058823529,321.998275959272
0.4237275390625,0.1699482421875,1.4202197265625005,1.491794725858704,-0.2802734375,0.9794921875,-0.23291015625,43.87117647058824,322.4889355236169
0.5160126953125,0.2026630859375,1.3411181640625005,1.4511855009280354,-0.2412109375,0.97802734375,0.61376953125,43.118235294117646,322.4889355236169
0.4627900390625,0.2593037109375,1.2825244140625005,1.3879055830379057,-0.00634765625,0.59423828125,1.095703125,43.353529411764704,322.4889355236169
0.3939423828125,0.3042255859375,1.1760791015625005,1.27706924684884,0.169921875,-0.04736328125,1.20458984375,42.69470588235294,322.4889355236169
0.3055634765625,0.3335224609375,1.0803759765625005,1.1712465670780614,0.14013671875,-0.4482421875,0.5625,44.01235294117648,322.4889355236169
0.1551728515625,0.3628193359375,1.0466845703125005,1.1185996040239017,0.05224609375,-0.41357421875,-0.5419921875,43.54176470588236,323.82068180024163
0.0628876953125,0.3623310546875,1.1116259765625005,1.1708761536478598,-0.31396484375,-0.05712890625,-1.7216796875,43.02411764705882,323.82068180024163
-0.0821318359375,0.2700458984375,1.2107470703125005,1.243213132977481,-0.00146484375,0.5634765625,-1.82666015625,43.353529411764704,323.82068180024163
-0.1114287109375,0.0776630859375,1.1199267578125005,1.1281329067990824,0.27294921875,0.80908203125,-1.0654296875,43.87117647058824,323.82068180024163
-0.0660185546875,0.0888935546875,1.0750048828125005,1.0806923760713425,0.1259765625,0.732421875,-0.57568359375,43.25941176470588,324.1710616284424
-0.0772490234375,-0.0458720703125,1.1121142578125005,1.1157373261151795,0.30859375,0.98291015625,-0.8447265625,43.353529411764704,324.1710616284424
-0.0767607421875,-0.1122783203125,1.0720751953125005,1.080668245650675,0.28955078125,1.025390625,-0.69189453125,44.01235294117648,324.1710616284424
0.0262666015625,-0.2309306640625,0.9260791015625,0.9547991455341788,0.23779296875,0.74755859375,-0.59033203125,42.60058823529412,324.1710616284424
0.0760712890625,-0.2343486328125,0.8430712890625001,0.8783366787071026,0.0537109375,0.62744140625,-0.93994140625,43.447647058823534,324.1710616284424
0.0790009765625,-0.2016337890625,0.7434619140625001,0.7743597076624052,0.005859375,0.36669921875,-1.3056640625,43.447647058823534,324.39663696184664
0.0516572265625,-0.1445048828125,0.6721728515625001,0.6894682535044282,-0.19873046875,-0.00830078125,-1.779296875,43.87117647058824,324.39663696184664
0.0443330078125,-0.0693095703125,0.6711962890625001,0.6762201494852677,-0.32763671875,0.0849609375,-2.52587890625,43.16529411764706,324.39663696184664
-0.0391630859375,-0.0839580078125,0.6516650390625001,0.658217302653403,-0.2861328125,0.1689453125,-2.60107421875,43.91823529411765,324.39663696184664
-0.0455107421875,-0.0483134765625,0.6296923828125001,0.6331807930157836,-0.35791015625,0.42236328125,-2.5166015625,43.447647058823534,323.38359734299854
-0.0777373046875,-0.0649150390625,0.5564501953125001,0.5655916112354236,-0.408203125,0.3876953125,-2.36767578125,43.87117647058824,323.38359734299854
-0.0787138671875,-0.0829814453125,0.4929736328125,0.5060679754757422,-0.50732421875,0.45751953125,-2.037109375,43.447647058823534,323.38359734299854
-0.0601591796875,-0.0824931640625,0.4431689453125,0.4547779272426369,-0.68017578125,0.52392578125,-1.6162109375,43.353529411764704,323.38359734299854
-0.0503935546875,-0.0429423828125,0.4246142578125,0.4297450715637325,-0.7841796875,0.529296875,-1.23388671875,43.30647058823529,323.38359734299854
-0.0357451171875,-0.0082744140624999,0.4168017578125,0.4184135330584035,-0.81494140625,0.49462890625,-0.806640625,43.54176470588236,323.62669258695814
-0.0396513671875,0.0136982421875,0.4163134765625,0.4184217770700046,-0.80126953125,0.42724609375,-0.63818359375,42.60058823529412,323.62669258695814
-0.0709013671875,0.0132099609375,0.4319384765625,0.437918205230338,-0.66455078125,0.318359375,-0.50341796875,43.49470588235295,323.62669258695814
-0.1104521484375,-0.0126689453124999,0.4441455078125,0.4578486773813092,-0.5947265625,0.39599609375,-0.064453125,42.55352941176471,323.62669258695814
-0.1197294921875,0.0005146484375,0.5012744140625001,0.5153750618299198,-0.51513671875,0.515625,0.28662109375,44.01235294117648,323.76855472656763
-0.1324248046875,0.0117451171875,0.5286181640625001,0.5450792970303301,-0.41796875,0.45556640625,0.54638671875,43.30647058823529,323.76855472656763
-0.1954130859375,-0.0009501953124999,0.6213916015625001,0.6513944269942424,-0.232421875,0.705078125,1.033203125,42.55352941176471,323.76855472656763
-0.1890654296875,-0.0058330078124999,0.6814501953125001,0.7072157587147675,-0.31103515625,0.83154296875,1.62158203125,44.01235294117648,323.76855472656763
-0.1221708984375,0.0278583984375,0.7805712890625001,0.7905652130578612,-0.33154296875,0.97705078125,1.73779296875,43.30647058823529,323.76855472656763
-0.0938505859375,0.0527607421875,0.8562548828125001,0.8629971336784591,-0.31640625,0.9541015625,1.6865234375,43.91823529411765,323.6171719710366
-0.0972685546875,0.0649677734375,0.9168017578125,0.924233437203238,-0.3154296875,0.8173828125,1.427734375,43.91823529411765,323.6171719710366
-0.1636748046875,0.0737568359375,1.0105517578125005,1.026374379919402,-0.24755859375,0.77587890625,1.00048828125,43.447647058823534,323.6171719710366
-0.1763701171875,0.0757099609375,1.0789111328125005,1.0958501945652257,-0.27001953125,0.84033203125,0.2763671875,43.447647058823534,323.6171719710366
-0.1734404296875,0.0547138671875,1.1184619140625005,1.1331514652159913,-0.36865234375,0.71337890625,0.25390625,43.353529411764704,322.65782912023525
-0.1089873046875,0.0742451171875,1.1941455078125005,1.2014050373783214,-0.50244140625,0.50634765625,0.21826171875,43.447647058823534,322.65782912023525
-0.1368193359375,0.0849873046875,1.2620166015625005,1.272253227649192,-0.3759765625,0.16796875,0.08837890625,43.353529411764704,322.65782912023525
-0.2452177734375,0.0805927734375,1.3123095703125005,1.3374540589768953,-0.20166015625,0.1630859375,0.0380859375,43.447647058823534,322.65782912023525
-0.3453154296875,0.1020771484375,1.3191455078125005,1.3674089955076694,-0.068359375,0.41796875,0.0107421875,43.353529411764704,322.65782912023525
-0.4332060546875,0.1289326171875,1.3606494140625005,1.4337565810071642,-0.02587890625,0.80078125,0.01220703125,43.777058823529416,323.0001615953112
-0.5196318359375,0.1133076171875,1.3796923828125005,1.4786503752487674,-0.01171875,1.201171875,0.3017578125,43.49470588235295,323.0001615953112
-0.5577177734375,0.1025654296875,1.4685595703125005,1.5742414026227045,-0.01708984375,1.5556640625,0.47998046875,42.69470588235294,323.0001615953112
-0.5425810546875,0.0503193359375,1.6282275390625005,1.7169889794161513,0.02099609375,1.76025390625,0.61767578125,44.01235294117648,323.0001615953112
-0.4180693359375,0.0132099609375,1.7551806640625005,1.8043324627734412,0.046875,1.33154296875,0.765625,43.447647058823534,322.5520809600146
-0.2173857421875,0.0058857421875,1.7717822265625005,1.785077998640474,0.072265625,0.62451171875,0.583984375,43.777058823529416,322.5520809600146
-0.1480498046875,-0.0219462890625,1.7356494140625005,1.7420904892706126,0.15087890625,0.248046875,0.1259765625,42.69470588235294,322.5520809600146
-0.0591826171875,-0.0580791015625,1.7019580078125005,1.7039767676152642,0.1376953125,0.27099609375,-0.48779296875,43.16529411764706,322.5520809600146
0.1732392578125,-0.1000712890625,1.5442431640625005,1.5571490144157103,-0.00244140625,0.4111328125,-1.138671875,43.63588235294118,322.5520809600146
0.3470673828125,-0.0761455078125,1.3440478515625005,1.390222476390781,0.0537109375,0.64111328125,-1.79736328125,42.69470588235294,322.659341472499
0.4261689453125,-0.0912822265625,1.2424853515625005,1.3167088758272902,-0.01611328125,1.07177734375,-2.548828125,43.118235294117646,322.659341472499
0.4452119140625,-0.1825908203125,1.1604541015625005,1.2562670010466788,0.01318359375,1.009765625,-3.06103515625,43.447647058823534,322.659341472499
0.4344697265625,-0.2563212890625,1.0681689453125005,1.1812914298580068,-0.083984375,0.64599609375,-3.10888671875,43.353529411764704,322.659341472499
0.4286103515625,-0.3036845703125,1.0442431640625005,1.1689204153421564,-0.1337890625,0.18701171875,-3.2568359375,43.353529411764704,324.096874338997
0.3807587890625,-0.3788798828125,1.0769580078125005,1.2034806901815354,-0.16943359375,-0.53564453125,-3.3994140625,43.25941176470588,324.096874338997
0.2957978515625,-0.4086650390625,1.0466845703125005,1.161917412242027,-0.22265625,-1.3916015625,-3.00146484375,43.30647058823529,324.096874338997
0.1844697265625,-0.3412822265625,1.0432666015625005,1.1130623702745814,-0.39013671875,-1.8662109375,-1.9453125,43.87117647058824,324.096874338997
0.0008759765625,-0.2240947265625,1.0798876953125005,1.102894667815292,-0.2294921875,-1.771484375,-0.6376953125,44.01235294117648,324.096874338997
-0.1529326171875,-0.1327861328125,1.0940478515625005,1.112637067500288,0.2001953125,-1.2509765625,1.5263671875,44.01235294117648,324.06378921251275
-0.2129912109375,-0.0268291015625,1.0999072265625005,1.1206609494720894,0.3515625,-0.6787109375,2.73095703125,42.74176470588235,324.06378921251275
-0.1265654296875,0.1108662109375,1.1174853515625005,1.130081251802889,0.39208984375,-0.3427734375,2.46142578125,42.55352941176471,324.06378921251275
-0.0889677734375,0.1372333984375,1.0232470703125005,1.036234933429793,0.3828125,-0.2685546875,2.06103515625,43.353529411764704,324.06378921251275
-0.0987333984375,0.0947529296875,0.9270556640625,0.9371011716574392,0.4580078125,-0.2705078125,2.33056640625,43.447647058823534,323.2668124138513
-0.0748076171875,0.0864521484375,0.8381884765625001,0.8459492158521668,0.375,-0.26171875,2.78955078125,43.30647058823529,323.2668124138513
-0.0723662109375,0.1006123046875,0.7849658203125001,0.7946892747475942,0.294921875,-0.28271484375,2.95703125,42.55352941176471,323.2668124138513
-0.0894560546875,0.0991474609375,0.7493212890625001,0.7611274525156039,0.2890625,-0.26318359375,3.00390625,42.88294117647059,323.2668124138513
-0.0840849609375,0.0635029296875,0.7092822265625001,0.7170663704652548,0.3349609375,-0.154296875,2.9169921875,42.69470588235294,323.2668124138513
-0.0772490234375,0.0644794921875,0.6516650390625001,0.6593878522320039,0.37255859375,-0.07666015625,2.8173828125,43.02411764705882,323.1595472430862
-0.0650419921875,0.0512958984375,0.6228564453125001,0.6283405775624812,0.54833984375,0.18896484375,2.55615234375,43.353529411764704,323.1595472430862
-0.0499052734375,0.0444599609375,0.5920947265625001,0.5958551750774322,0.71533203125,0.37255859375,2.09326171875,43.353529411764704,323.1595472430862
-0.0396513671875,0.0239521484375,0.5530322265625001,0.5549689900807849,0.8115234375,0.41796875,1.5439453125,43.30647058823529,323.1595472430862
-0.0533232421875,-0.0141337890624999,0.5261767578125001,0.5290605944622264,0.7998046875,0.462890625,1.1533203125,43.25941176470588,323.3409926855344
-0.0289091796875,-0.0263408203125,0.5066455078125001,0.5081527822137015,0.7197265625,0.51025390625,0.73779296875,42.97705882352941,323.3409926855344
-0.0030302734374999,-0.0575908203125,0.4866259765625,0.4900313522691987,0.6435546875,0.5390625,0.1806640625,42.60058823529412,323.3409926855344
0.0252900390625,-0.0878642578125,0.4734423828125,0.4821902152884296,0.53271484375,0.544921875,-0.37060546875,43.49470588235295,323.3409926855344
0.0301728515625,-0.1078837890625,0.5081103515625001,0.5203128311687711,0.47607421875,0.51904296875,-0.77587890625,42.60058823529412,323.3409926855344
0.0067353515625,-0.1005595703125,0.5227587890625001,0.5323855216703367,0.404296875,0.35400390625,-1.24609375,44.01235294117648,323.3615403601174
-0.0445341796875,-0.1044658203125,0.5427783203125001,0.5545310683588981,0.25146484375,0.0732421875,-1.3935546875,42.60058823529412,323.3615403601174
-0.0870146484375,-0.1117900390625,0.5862353515625001,0.6031089862519916,0.30078125,-0.1494140625,-1.2529296875,43.353529411764704,323.3615403601174
-0.1133818359375,-0.0990947265625,0.6316455078125001,0.6493467895452828,0.3486328125,-0.2470703125,-1.248046875,43.25941176470588,323.3615403601174
-0.1514677734375,-0.0771220703125,0.7009814453125001,0.7212941749326703,0.39208984375,-0.28662109375,-1.44287109375,43.02411764705882,322.6041986445452
-0.1861357421875,-0.0790751953125,0.7566455078125001,0.7832061194387067,0.3134765625,-0.3515625,-1.4228515625,42.55352941176471,322.6041986445452
-0.2037138671875,-0.0707744140625,0.8440478515625001,0.8711630921346752,0.3076171875,-0.26171875,-1.49853515625,43.30647058823529,322.6041986445452
-0.1714873046875,-0.0844462890625,0.9104541015625,0.9303041128885704,0.22412109375,-0.1865234375,-1.640625,43.87117647058824,322.6041986445452
-0.1543974609375,-0.0751689453125,1.0125048828125005,1.0269640130026445,0.173828125,-0.232421875,-1.78662109375,43.91823529411765,322.6041986445452
-0.1788115234375,-0.0766337890625,1.1316455078125005,1.148245554701749,0.2099609375,-0.173828125,-1.60791015625,42.60058823529412,322.38167633719075
-0.1817412109375,-0.1010478515625,1.2014697265625005,1.2193318005795613,0.24853515625,0.01171875,-1.23974609375,43.447647058823534,322.38167633719075
-0.1690458984375,-0.1327861328125,1.2576220703125005,1.2758612560082463,0.31884765625,0.22998046875,-1.14306640625,43.447647058823534,322.38167633719075
-0.1983427734375,-0.1669658203125,1.3167041015625005,1.3419862637147284,0.4765625,0.41845703125,-1.21484375,43.353529411764704,322.38167633719075
-0.2657255859375,-0.2030986328125,1.3191455078125005,1.360883541106304,0.5361328125,0.57421875,-1.06396484375,42.60058823529412,322.2869606005128
-0.3130888671875,-0.2128642578125,1.3572314453125005,1.4090468505893894,0.61181640625,0.8056640625,-0.63623046875,44.01235294117648,322.2869606005128
-0.3028349609375,-0.2123759765625,1.3718798828125005,1.4208683900532562,0.5625,1.06298828125,-0.2578125,44.01235294117648,322.2869606005128
-0.2618193359375,-0.1840556640625,1.4197314453125005,1.455356735976909,0.5283203125,1.4296875,-0.13330078125,43.87117647058824,322.2869606005128
-0.2388701171875,-0.1415751953125,1.5237353515625005,1.5488291998842991,0.5498046875,1.73046875,-0.3203125,43.16529411764706,322.2869606005128
-0.2115263671875,-0.1044658203125,1.6453173828125005,1.6621449400741442,0.6044921875,1.71142578125,-0.83642578125,42.60058823529412,321.7742530685064
-0.1363310546875,-0.0834697265625,1.7566455078125005,1.7639038499426385,0.42578125,1.00927734375,-1.67431640625,43.30647058823529,321.7742530685064
-0.0406279296875,-0.0527080078125,1.7698291015625005,1.7710798433429764,-0.0166015625,0.07666015625,-2.48046875,43.30647058823529,321.7742530685064
-0.0074248046875,0.0307880859375,1.6921923828125005,1.6924887280005707,-0.32666015625,-0.27001953125,-2.6845703125,43.353529411764704,321.7742530685064
0.0829072265625,0.1548115234375,1.5764697265625005,1.5862209854788107,-0.3544921875,-0.02294921875,-1.86474609375,43.49470588235295,322.52050814358785
0.2396455078125,0.2265888671875,1.4558642578125005,1.4927535701930066,-0.240234375,0.50390625,-0.0283203125,43.49470588235295,322.52050814358785
0.4037080078125,0.2378193359375,1.3484423828125005,1.4275276010931433,-0.04638671875,1.07177734375,1.6279296875,42.69470588235294,322.52050814358785
0.5287080078125,0.2641865234375,1.2786181640625005,1.408613178328818,0.1826171875,1.01904296875,2.96923828125,43.16529411764706,322.52050814358785
0.5750947265625,0.2807880859375,1.2239306640625005,1.3811524767949823,0.421875,0.4873046875,3.23681640625,43.447647058823534,322.52050814358785
0.4574189453125,0.2475849609375,1.1165087890625005,1.231715178305047,0.58935546875,-0.40283203125,2.85302734375,44.01235294117648,324.0241943629848
0.2518525390625,0.2588154296875,1.0662158203125005,1.1257136863169122,0.52392578125,-1.109375,2.34423828125,43.63588235294118,324.0241943629848
0.0506806640625,0.2905537109375,1.1165087890625005,1.154808150604757,0.50146484375,-1.08349609375,1.48193359375,43.91823529411765,324.0241943629848
0.0003876953125,0.2519794921875,1.1565478515625005,1.183679326399072,0.40625,-0.67822265625,0.0546875,43.91823529411765,324.0241943629848
-0.0840849609375,0.1328388671875,1.0920947265625005,1.1033527709110724,0.4150390625,-0.212890625,-1.17236328125,43.54176470588236,324.2688117275781
-0.1768583984375,-0.0439189453125,1.1824267578125005,1.1963865614617295,0.56298828125,-0.03955078125,-1.2763671875,43.353529411764704,324.2688117275781
-0.1470732421875,-0.1488994140625,1.1062548828125005,1.125878075025088,0.40283203125,0.28515625,-1.41845703125,42.60058823529412,324.2688117275781
-0.1475615234375,-0.1640361328125,1.0828173828125005,1.1050682063059225,0.1533203125,0.48095703125,-1.255859375,42.60058823529412,324.2688117275781
-0.0816435546875,-0.2035869140625,0.9827197265625,1.0069018634279,-0.015625,0.39892578125,-0.9111328125,43.353529411764704,324.2688117275781
0.0321259765625,-0.2035869140625,0.8611376953125001,0.885459112684324,-0.24267578125,0.3583984375,-1.1494140625,42.69470588235294,324.52145576819566
0.0262666015625,-0.1899150390625,0.7805712890625001,0.8037718542773484,-0.31591796875,0.29150390625,-1.2119140625,42.788823529411765,324.52145576819566
0.0457978515625,-0.1078837890625,0.7087939453125001,0.7184185493581594,-0.2978515625,0.314453125,-1.58740234375,43.54176470588236,324.52145576819566
0.0086884765625,-0.0927470703125,0.6682666015625001,0.6747279151186959,-0.267578125,0.46923828125,-2.00244140625,43.91823529411765,324.52145576819566
-0.0181669921875,-0.0888408203125,0.6394580078125001,0.6458554596149745,-0.208984375,0.76953125,-2.1845703125,42.55352941176471,323.91692350510027
-0.0640654296875,-0.0947001953125,0.6028369140625001,0.613583613886215,-0.29541015625,1.07421875,-1.82861328125,43.30647058823529,323.91692350510027
-0.0806669921875,-0.0976298828125,0.5427783203125001,0.5573572127889075,-0.37353515625,1.18212890625,-1.22509765625,44.01235294117648,323.91692350510027
-0.0777373046875,-0.1103251953125,0.4543994140625,0.474018527866962,-0.51708984375,1.126953125,-0.54248046875,43.118235294117646,323.91692350510027
-0.0840849609375,-0.0937236328125,0.4377978515625,0.4555451227224083,-0.5751953125,0.99560546875,0.13671875,43.447647058823534,323.91692350510027
-0.0679716796875,-0.0707744140625,0.4089892578125,0.4205964573453394,-0.56298828125,0.74072265625,0.6396484375,43.447647058823534,323.789103910447
-0.0499052734375,-0.0204814453125,0.3850634765625,0.388823747861881,-0.60986328125,0.474609375,0.697265625,44.01235294117648,323.789103910447
-0.0621123046875,0.0151630859375,0.4016650390625,0.4067218474262484,-0.669921875,0.24755859375,0.6708984375,43.73,323.789103910447
-0.0826201171875,0.0386005859375,0.4304736328125,0.4400268600274143,-0.58251953125,0.3046875,0.75634765625,43.353529411764704,323.789103910447
-0.0757841796875,0.0239521484375,0.4119189453125,0.4195165846698337,-0.46826171875,0.12255859375,1.18603515625,43.777058823529416,323.75601852439434
-0.0875029296875,0.0293232421875,0.4543994140625,0.4636760105252651,-0.3193359375,0.16748046875,1.60693359375,42.69470588235294,323.75601852439434
-0.0977568359375,0.0229755859375,0.5115283203125001,0.5212921436233338,-0.1494140625,0.1845703125,2.01708984375,43.447647058823534,323.75601852439434
-0.0909208984375,0.0210224609375,0.5388720703125001,0.5468927333576767,-0.140625,0.17822265625,2.251953125,43.353529411764704,323.75601852439434
-0.0816435546875,0.0195576171875,0.6379931640625001,0.6434931606493915,-0.15869140625,0.31494140625,2.09716796875,43.25941176470588,323.75601852439434
-0.1138701171875,0.0146748046875,0.7380908203125001,0.746967075921349,-0.13525390625,0.52001953125,1.8427734375,43.447647058823534,323.4688071720709
-0.1377958984375,0.0097919921875,0.8396533203125001,0.8509414145809355,-0.18212890625,0.701171875,1.57421875,43.87117647058824,323.4688071720709
-0.1475615234375,-0.0053447265624999,0.9402392578125,0.9517630121164746,-0.26220703125,0.49560546875,1.466796875,42.55352941176471,323.4688071720709
-0.1641630859375,0.0263935546875,1.0310595703125005,1.0443801875019283,-0.4189453125,0.35205078125,1.30078125,43.30647058823529,323.4688071720709
-0.1714873046875,0.0434833984375,1.1057666015625005,1.1198296650561366,-0.4033203125,0.1123046875,1.17431640625,43.49470588235295,323.0207078094548
-0.1700224609375,0.0512958984375,1.1692431640625005,1.1826531541946863,-0.400390625,-0.24755859375,1.35009765625,42.69470588235294,323.0207078094548
-0.1656279296875,0.0483662109375,1.2263720703125005,1.2384507888065583,-0.38525390625,-0.44140625,1.62158203125,43.777058823529416,323.0207078094548
-0.1187529296875,0.0952412109375,1.2712939453125005,1.2803755081843873,-0.376953125,-0.38720703125,1.29638671875,44.01235294117648,323.0207078094548
-0.1441435546875,0.1694599609375,1.2903369140625005,1.309375192414773,-0.26611328125,-0.35498046875,0.47216796875,43.353529411764704,323.0207078094548
-0.2964873046875,0.2309833984375,1.3167041015625005,1.3692946152184002,-0.08642578125,-0.28076171875,-0.0439453125,42.788823529411765,323.13900051474457
-0.4581083984375,0.2690693359375,1.3777392578125005,1.4766269247100154,0.0302734375,0.12353515625,-0.20703125,43.447647058823534,323.13900051474457
-0.5538115234375,0.2392841796875,1.4065478515625005,1.5304708363363118,0.14306640625,0.7412109375,0.23095703125,43.353529411764704,323.13900051474457
-0.5591826171875,0.1968037109375,1.4670947265625005,1.582334931899985,0.23974609375,1.5146484375,0.73291015625,42.60058823529412,323.13900051474457
-0.5269560546875,0.1264912109375,1.5686572265625005,1.6596289357754055,0.3310546875,1.97021484375,0.9541015625,42.69470588235294,322.8833813434916
-0.4502958984375,0.0439716796875,1.6946337890625005,1.7539907593247184,0.45751953125,1.7099609375,1.09912109375,44.01235294117648,322.8833813434916
-0.3121123046875,-0.0053447265624999,1.7756884765625005,1.80291769713324,0.59912109375,0.8017578125,1.1474609375,43.87117647058824,322.8833813434916
-0.1421904296875,-0.0405009765625,1.7410205078125005,1.747286712597829,0.70068359375,0.21875,0.6337890625,43.16529411764706,322.8833813434916
-0.0557646484375,-0.0658916015625,1.6668017578125005,1.6690354996280543,0.6083984375,0.2734375,-0.13525390625,43.777058823529416,322.8833813434916
0.0775361328125,-0.1005595703125,1.5627978515625005,1.5679480871257565,0.349609375,0.498046875,-0.9794921875,43.447647058823534,322.7856359622615
0.3622041015625,-0.1137431640625,1.3147509765625005,1.3684660934534312,0.0478515625,0.666015625,-1.59130859375,42.788823529411765,322.7856359622615
0.5316376953125,-0.0903056640625,1.1697314453125005,1.2880471288706117,-0.05126953125,0.90380859375,-2.2705078125,43.353529411764704,322.7856359622615
0.5008759765625,-0.1733134765625,1.1267626953125005,1.2451941521720655,-0.1796875,0.6123046875,-2.640625,42.55352941176471,322.7856359622615
0.4349580078125,-0.2504619140625,1.0779345703125005,1.189059534603236,-0.3046875,0.1650390625,-2.9375,42.69470588235294,323.55552640953607
0.3763642578125,-0.3095439453125,0.9919970703125,1.1052265361214255,-0.40625,-0.34375,-3.15380859375,43.30647058823529,323.55552640953607
0.2738251953125,-0.3378642578125,0.9519580078125,1.0465928257605557,-0.49169921875,-0.6689453125,-3.01513671875,43.02411764705882,323.55552640953607
0.1893525390625,-0.3940166015625,0.9939501953125,1.0858362938850563,-0.263671875,-1.44873046875,-2.3828125,44.01235294117648,323.55552640953607
0.1273408203125,-0.4584697265625,1.0217822265625005,1.1271420022389258,0.22216796875,-2.662109375,-1.0380859375,42.88294117647059,323.55552640953607
-0.0005888671874999,-0.4574931640625,1.0481494140625005,1.143642223830532,0.3369140625,-3.13818359375,1.259765625,43.30647058823529,324.4818546417726
-0.0870146484375,-0.3671611328125,1.0715869140625005,1.1360798215270145,0.19775390625,-2.7255859375,4.1123046875,43.25941176470588,324.4818546417726
-0.0420927734375,-0.1459697265625,1.0369189453125005,1.0479884836182027,-0.04052734375,-2.17236328125,5.31396484375,43.447647058823534,324.4818546417726
0.0208955078125,0.0688740234375,1.0549853515625005,1.0574376319020728,-0.27783203125,-1.5751953125,4.18212890625,44.01235294117648,324.4818546417726
-0.0230498046875,0.1587177734375,1.0667041015625005,1.0786937773953045,-0.61865234375,-1.2158203125,2.146484375,43.353529411764704,323.8537672531159
-0.0245146484375,0.2085224609375,1.0710986328125005,1.0914828747700316,-0.3154296875,-1.11279296875,0.80859375,43.30647058823529,323.8537672531159
-0.1016630859375,0.0610615234375,1.0784228515625005,1.0849238403957389,0.2421875,-1.12451171875,2.033203125,42.55352941176471,323.8537672531159
-0.0401396484375,0.0713154296875,0.8918994140625001,0.8956459382441422,0.19775390625,-0.9296875,3.30859375,42.60058823529412,323.8537672531159
-0.0142607421875,0.1313740234375,0.8181689453125001,0.8287719383978103,0.47998046875,-1.080078125,3.40087890625,42.69470588235294,323.8537672531159
-0.0088896484375,0.1318623046875,0.7229541015625001,0.7349349129092202,0.69482421875,-1.15087890625,3.08056640625,43.91823529411765,323.4166829218128
0.0497041015625,0.1318623046875,0.6448291015625001,0.6600475250552307,0.60498046875,-1.169921875,2.13916015625,42.97705882352941,323.4166829218128
0.0365205078125,0.1045185546875,0.5862353515625001,0.5965984941201703,0.60595703125,-1.11962890625,1.44140625,43.25941176470588,323.4166829218128
0.0121064453125,0.0796162109375,0.5745166015625001,0.5801332885924351,0.36962890625,-1.1376953125,0.9345703125,43.353529411764704,323.4166829218128
-0.0420927734375,0.0420185546875,0.6052783203125001,0.6081933948622005,0.54052734375,-1.0947265625,0.513671875,43.447647058823534,323.82068180024163
-0.0684599609375,-0.0502666015625,0.5457080078125001,0.5522777627923242,0.87451171875,-0.99853515625,0.60498046875,42.60058823529412,323.82068180024163
-0.0479521484375,-0.0883525390625,0.5154345703125001,0.525146052038663,0.650390625,-1.19189453125,0.62060546875,43.447647058823534,323.82068180024163
-0.0069365234375,-0.1020244140625,0.4851611328125,0.4958209568121377,0.56201171875,-1.7314453125,0.45751953125,43.30647058823529,323.82068180024163
-0.0298857421875,-0.1337626953125,0.5017626953125001,0.5201455744795174,0.4423828125,-2.130859375,0.23828125,43.25941176470588,323.82068180024163
0.0184541015625,-0.1454814453125,0.4622119140625,0.4849177850894035,0.28564453125,-3.099609375,-0.0390625,43.30647058823529,323.61868018375304
-0.0455107421875,-0.1669658203125,0.5642626953125001,0.59020437318645,0.2568359375,-2.8681640625,-0.12890625,43.353529411764704,323.61868018375304
-0.0831083984375,-0.1757548828125,0.6433642578125001,0.672096981806875,0.15869140625,-1.53759765625,0.06298828125,43.777058823529416,323.61868018375304
-0.0738310546875,-0.1503642578125,0.6633837890625001,0.6842064646396525,0.11328125,-0.587890625,0.24951171875,42.60058823529412,323.61868018375304
-0.0616240234375,-0.1200908203125,0.6794970703125001,0.6927738404062508,0.11376953125,0.08935546875,0.22216796875,43.91823529411765,323.18160430974035
-0.0792021484375,-0.0976298828125,0.7087939453125001,0.7198565351837529,0.10888671875,0.2138671875,0.2744140625,43.30647058823529,323.18160430974035
-0.0884794921875,-0.0663798828125,0.7595751953125001,0.767586729115337,0.1279296875,0.3935546875,0.28271484375,43.447647058823534,323.18160430974035
-0.0894560546875,-0.0195048828125,0.8279345703125001,0.8329816798059406,0.18701171875,0.548828125,0.09521484375,42.55352941176471,323.18160430974035
-0.0928740234375,-0.0195048828125,0.9002001953125001,0.9051886081495182,0.3173828125,0.52587890625,-0.13818359375,43.30647058823529,323.18160430974035
-0.0533232421875,-0.0292705078125,0.9832080078125,0.985087872939066,0.2060546875,0.55029296875,-0.52685546875,42.55352941176471,322.9465299258828
-0.0313505859375,-0.0341533203125,1.1179736328125005,1.118934471803855,0.17822265625,0.498046875,-0.6201171875,43.16529411764706,322.9465299258828
0.0008759765625,-0.0380595703125,1.2063525390625005,1.2069530838975686,0.2509765625,0.314453125,-0.46435546875,43.91823529411765,322.9465299258828
-0.0240263671875,-0.0541728515625,1.2835009765625005,1.284868367189236,0.3388671875,0.3212890625,-0.47802734375,43.91823529411765,322.9465299258828
-0.0992216796875,-0.1044658203125,1.3264697265625005,1.3342713310344214,0.37646484375,0.3173828125,-0.4619140625,43.777058823529416,322.5330501262262
-0.1670927734375,-0.1479228515625,1.3347705078125005,1.3532972598344597,0.3017578125,0.1650390625,-0.26123046875,42.55352941176471,322.5330501262262
-0.1993193359375,-0.1679423828125,1.4226611328125005,1.446339358670244,0.35546875,0.3330078125,-0.23193359375,42.55352941176471,322.5330501262262
-0.2227568359375,-0.1899150390625,1.4597705078125005,1.4888311742767082,0.4306640625,0.23876953125,0.138671875,43.30647058823529,322.5330501262262
-0.1949248046875,-0.1928447265625,1.4583056640625005,1.4838598915942824,0.4345703125,-0.28515625,0.490234375,44.01235294117648,322.5330501262262
-0.1758818359375,-0.1659892578125,1.5613330078125005,1.5799517762282238,0.59375,0.16552734375,0.13623046875,43.447647058823534,321.9461638254678
-0.1348662109375,-0.1488994140625,1.6799853515625005,1.6919547014696852,0.4423828125,0.97412109375,-0.37841796875,42.60058823529412,321.9461638254678
-0.0645537109375,-0.0927470703125,1.8269580078125005,1.830449333622096,0.1416015625,1.39208984375,-1.45703125,44.01235294117648,321.9461638254678
0.0326142578125,-0.0195048828125,1.8958056640625005,1.896186500890049,-0.4736328125,0.97265625,-2.302734375,43.02411764705882,321.9461638254678
0.1273408203125,0.0376240234375,1.8391650390625005,1.8439520852145956,-0.78125,0.51708984375,-2.2802734375,42.60058823529412,321.77728647011287
0.2474580078125,0.0835224609375,1.6726611328125005,1.6929284486750122,-0.9541015625,0.7265625,-1.43017578125,43.49470588235295,321.77728647011287
0.4227509765625,0.1313740234375,1.5437548828125005,1.6059752988219154,-0.6533203125,0.783203125,-0.60546875,43.447647058823534,321.77728647011287
0.5990205078125,0.1445576171875,1.3611376953125005,1.494127939323637,-0.220703125,0.6220703125,-0.046875,43.353529411764704,321.77728647011287
0.7015595703125,0.1660419921875,1.2385791015625005,1.4331203594583477,-0.17431640625,0.25390625,0.3876953125,43.447647058823534,321.77728647011287
0.6942353515625,0.2285419921875,1.1360400390625005,1.350844600946114,-0.0673828125,-0.546875,0.73583984375,44.01235294117648,323.0001615953112
0.5956025390625,0.2837177734375,1.0056689453125005,1.2027502596416209,-0.033203125,-1.1689453125,0.68701171875,42.60058823529412,323.0001615953112
0.4203095703125,0.3188740234375,0.9543994140625,1.0905131907878698,-0.2216796875,-1.48046875,0.009765625,42.93,323.0001615953112
0.2440400390625,0.3135029296875,0.9412158203125,1.0216295062275778,-0.5107421875,-1.4248046875,-0.90283203125,42.60058823529412,323.0001615953112
0.0692353515625,0.2632099609375,1.0042041015625005,1.040432071323088,-0.6875,-1.1171875,-1.533203125,42.60058823529412,324.172567322233
-0.0630888671875,0.1806904296875,1.0852587890625005,1.1020053882722445,-0.625,-0.08056640625,-1.5205078125,43.68294117647059,324.172567322233
-0.1426787109375,0.0722919921875,1.1130908203125005,1.1245241308896752,-0.04638671875,0.9208984375,-1.02978515625,43.353529411764704,324.172567322233
-0.1607451171875,-0.0458720703125,1.0852587890625005,1.098057320348889,0.41943359375,1.78466796875,-0.4658203125,43.73,324.172567322233
-0.0699248046875,-0.1908916015625,0.9753955078125,0.996356100256573,0.763671875,1.8876953125,-0.4267578125,43.447647058823534,324.172567322233
-0.0567412109375,-0.2084697265625,0.8987353515625001,0.9243399937576368,0.41552734375,1.40673828125,-0.67919921875,42.74176470588235,324.6081786300263
0.0155244140625,-0.2236064453125,0.8733447265625001,0.9016495223931548,0.2578125,2.01416015625,-0.98583984375,43.118235294117646,324.6081786300263
0.0916962890625,-0.2319072265625,0.7581103515625001,0.7980729768047291,0.11328125,2.5517578125,-1.486328125,43.353529411764704,324.6081786300263
0.0570283203125,-0.2529033203125,0.6516650390625001,0.7013413162498568,-0.26513671875,2.2578125,-1.3056640625,43.49470588235295,324.6081786300263
0.0643525390625,-0.2006572265625,0.6375048828125001,0.6714291082946319,-0.19970703125,2.31201171875,-1.23193359375,43.54176470588236,324.2893631359382
0.0912080078125,-0.1611064453125,0.5056689453125001,0.5384935186831972,-0.64111328125,1.734375,-1.7060546875,44.01235294117648,324.2893631359382
0.0384736328125,-0.1147197265625,0.5496142578125001,0.5627758598901974,-0.75390625,1.1337890625,-1.822265625,43.447647058823534,324.2893631359382
0.0038056640625,-0.0790751953125,0.5872119140625001,0.5925244312343683,-0.82568359375,1.11669921875,-2.0712890625,42.60058823529412,324.2893631359382
-0.0201201171875,-0.0634501953125,0.5535205078125001,0.5575084743480059,-0.884765625,1.337890625,-1.9892578125,43.447647058823534,324.2893631359382
-0.0220732421875,-0.0634501953125,0.5115283203125001,0.5159209026465105,-0.97412109375,1.50341796875,-1.611328125,43.30647058823529,323.8537672531159
-0.0318388671875,-0.0610087890625,0.4915087890625,0.4963030077808728,-1.052734375,1.6201171875,-0.880859375,43.353529411764704,323.8537672531159
-0.0118193359375,-0.0263408203125,0.5144580078125001,0.5152674813328949,-0.9912109375,1.81689453125,-0.20947265625,43.63588235294118,323.8537672531159
0.0360322265625,0.0234638671875,0.4807666015625,0.4826856115448229,-0.9375,1.5498046875,-0.07373046875,43.353529411764704,323.8537672531159
0.0155244140625,0.0302998046875,0.4919970703125,0.4931736030974972,-1.033203125,1.41064453125,-0.14453125,42.69470588235294,324.0021374251974
0.0023408203125,0.0537373046875,0.5027392578125001,0.5056084836122472,-0.88720703125,0.99951171875,-0.1787109375,43.353529411764704,324.0021374251974
-0.0738310546875,0.0180927734375,0.5432666015625001,0.548558997246602,-0.751953125,0.49462890625,0.1806640625,43.353529411764704,324.0021374251974
-0.1172880859375,0.0151630859375,0.6155322265625001,0.6267905042476467,-0.59375,0.54345703125,0.79248046875,43.87117647058824,324.0021374251974
-0.1299833984375,0.0161396484375,0.6663134765625001,0.6790654027189527,-0.45947265625,0.4970703125,1.3388671875,43.68294117647059,324.0021374251974
-0.1285185546875,0.0112568359375,0.7170947265625001,0.7286072893665245,-0.37939453125,0.38427734375,1.54638671875,43.49470588235295,323.4798356732268
-0.1309599609375,0.0078388671875,0.7986376953125001,0.8093417866276252,-0.404296875,0.173828125,1.5029296875,43.353529411764704,323.4798356732268
-0.1519560546875,0.0034443359375,0.9065478515625,0.9192015628679192,-0.42333984375,0.04248046875,1.19775390625,43.353529411764704,323.4798356732268
-0.1758818359375,0.0176044921875,0.9309619140625,0.9475940184450508,-0.53759765625,-0.18505859375,1.04541015625,43.447647058823534,323.4798356732268
-0.2061552734375,0.0239521484375,1.0095751953125005,1.0306870413326907,-0.42236328125,0.03955078125,0.74560546875,43.353529411764704,322.60571112920763
-0.2149443359375,0.0107685546875,1.0706103515625005,1.0920272680636005,-0.39892578125,0.25341796875,0.91943359375,43.353529411764704,322.60571112920763
-0.1568388671875,0.0097919921875,1.1531298828125005,1.1637881422350156,-0.4130859375,0.451171875,0.9921875,44.01235294117648,322.60571112920763
-0.0562529296875,0.0088154296875,1.1926806640625005,1.1940390572873103,-0.41650390625,0.49755859375,0.88037109375,42.69470588235294,322.60571112920763
-0.0254912109375,0.0346943359375,1.1902392578125005,1.1910176277533662,-0.388671875,0.41162109375,0.61962890625,43.87117647058824,322.60571112920763
-0.0713896484375,0.0737568359375,1.1995166015625005,1.2039005898227606,-0.2509765625,0.322265625,0.4228515625,44.01235294117648,322.46990563186404
-0.1348662109375,0.1396748046875,1.2092822265625005,1.2247699577459792,-0.12158203125,0.17626953125,0.02685546875,42.55352941176471,322.46990563186404
-0.2110380859375,0.1767841796875,1.2537158203125005,1.2835860228304885,-0.0068359375,0.4482421875,-0.49169921875,42.69470588235294,322.46990563186404
-0.2872099609375,0.1811787109375,1.3362353515625005,1.3787096147209728,0.0576171875,0.98095703125,-0.5810546875,43.16529411764706,322.46990563186404
-0.3130888671875,0.1626240234375,1.4114306640625005,1.4548566015974438,0.09765625,1.58056640625,-0.25537109375,42.69470588235294,322.7776313054668
-0.2906279296875,0.1543232421875,1.5349658203125005,1.5698408601260612,0.224609375,2.00634765625,0.0546875,42.60058823529412,322.7776313054668
-0.2691435546875,0.1391865234375,1.6912158203125005,1.7181449566936209,0.41064453125,1.78515625,0.236328125,43.447647058823534,322.7776313054668
-0.2071318359375,0.0835224609375,1.7771533203125005,1.7911319110656367,0.7294921875,0.75,0.13720703125,43.25941176470588,322.7776313054668
-0.1407255859375,-0.0180400390625,1.7634814453125005,1.76917945429747,0.9892578125,0.150390625,-0.30810546875,42.55352941176471,322.7776313054668
-0.0342802734375,-0.1283916015625,1.6907275390625005,1.6959419659419577,1.02294921875,0.3369140625,-1.09423828125,43.87117647058824,322.3421040980456
0.2010712890625,-0.2148173828125,1.5920947265625005,1.619055832759263,0.619140625,0.400390625,-1.7802734375,42.788823529411765,322.3421040980456
0.4159150390625,-0.2363017578125,1.4285205078125005,1.5064842122320838,0.25048828125,0.21630859375,-2.1025390625,43.447647058823534,322.3421040980456
0.4964814453125,-0.1601298828125,1.3547900390625005,1.4517546124783296,0.0224609375,0.4931640625,-2.61669921875,44.01235294117648,322.3421040980456
0.4491181640625,-0.1938212890625,1.2878955078125005,1.377660573736629,-0.06787109375,0.5302734375,-3.08740234375,43.87117647058824,323.0207078094548
0.4183564453125,-0.2651103515625,1.1853564453125005,1.2846694190662395,-0.1904296875,0.4619140625,-3.44873046875,44.01235294117648,323.0207078094548
0.3690400390625,-0.3354228515625,1.2029345703125005,1.3022098986854962,-0.20751953125,0.26904296875,-3.58251953125,43.353529411764704,323.0207078094548
0.2933564453125,-0.3403056640625,1.0686572265625005,1.1592645154940524,-0.04736328125,0.1396484375,-3.3271484375,42.60058823529412,323.0207078094548
0.2523408203125,-0.4062236328125,1.0530322265625005,1.156533786635975,0.61181640625,-0.24609375,-2.8427734375,44.01235294117648,323.0207078094548
0.2020478515625,-0.4867900390625,0.9827197265625,1.1151349413530935,0.6787109375,-0.57470703125,-1.70556640625,42.69470588235294,324.3334768549612
0.0741181640625,-0.4750712890625,1.0105517578125005,1.1191072724066429,0.71337890625,-0.650390625,0.37646484375,42.60058823529412,324.3334768549612
-0.0093779296875,-0.3466533203125,0.9778369140625,1.0375073496376677,0.53271484375,-0.75927734375,2.1748046875,42.69470588235294,324.3334768549612
-0.0884794921875,-0.1864970703125,0.9719775390625,0.9936549271326024,0.2763671875,-0.48779296875,3.03662109375,43.353529411764704,324.3334768549612
-0.0860380859375,-0.0185283203125,0.9783251953125,0.9822759483305252,-0.0634765625,0.2275390625,2.41796875,42.60058823529412,324.6648245745482
-0.0601591796875,0.1450458984375,0.9998095703125,1.012065519836873,-0.349609375,0.52197265625,0.70068359375,43.25941176470588,324.6648245745482
-0.0918974609375,0.1572529296875,0.9822314453125,0.9989755949885584,-0.1826171875,0.44580078125,-0.01123046875,43.353529411764704,324.6648245745482
-0.1246123046875,0.0552021484375,0.9036181640625,0.9138387659184356,0.259765625,0.1728515625,1.23828125,43.87117647058824,324.6648245745482
-0.0577177734375,0.0464130859375,0.9578173828125,0.960676665030754,0.2587890625,0.1279296875,2.63671875,43.25941176470588,324.6648245745482
0.0204072265625,0.0971943359375,0.7898486328125001,0.7960678718489275,0.4052734375,0.34619140625,2.94140625,43.353529411764704,323.5996406983041
0.0340791015625,0.0835224609375,0.7366259765625001,0.7421288405600609,0.65283203125,0.3349609375,2.66943359375,42.60058823529412,323.5996406983041
0.0179658203125,0.0483662109375,0.7009814453125001,0.7028776904500194,0.75537109375,0.4150390625,2.3544921875,43.447647058823534,323.5996406983041
0.0150361328125,0.0156513671875,0.6399462890625001,0.6403142224483679,0.84814453125,0.3203125,1.9208984375,43.353529411764704,323.5996406983041
0.0018525390625,-0.0273173828125,0.6101611328125001,0.6107751462688508,0.888671875,0.29052734375,1.63671875,43.25941176470588,323.4828544556129
-0.0054716796875,-0.0541728515625,0.5862353515625001,0.5887584602760484,0.94384765625,0.29833984375,1.390625,43.49470588235295,323.4828544556129
-0.0250029296875,-0.0859111328125,0.5735400390625001,0.5804774290546525,0.9013671875,0.44140625,1.3388671875,42.88294117647059,323.4828544556129
-0.0264677734375,-0.1078837890625,0.5584033203125001,0.5693449948047715,0.8251953125,0.5068359375,1.32421875,43.353529411764704,323.4828544556129
-0.0084013671875,-0.1054423828125,0.5427783203125001,0.5529891355759676,0.7646484375,0.537109375,1.15234375,43.447647058823534,323.4828544556129
0.0042939453125,-0.0937236328125,0.5276416015625001,0.5359181066295102,0.7333984375,0.47802734375,0.6953125,43.16529411764706,323.96103748113376
-0.0206083984375,-0.1152080078125,0.5335009765625001,0.546187589701034,0.669921875,0.4130859375,0.26123046875,43.30647058823529,323.96103748113376
-0.0406279296875,-0.1264384765625,0.5593798828125001,0.5749288393544584,0.51611328125,0.3740234375,0.017578125,43.447647058823534,323.96103748113376
-0.0728544921875,-0.1220439453125,0.5881884765625001,0.6051183236196486,0.42529296875,0.36328125,-0.07080078125,43.16529411764706,323.96103748113376
-0.0840849609375,-0.0859111328125,0.6365283203125001,0.6477802914235973,0.30029296875,0.427734375,-0.27783203125,42.69470588235294,323.6612858583386
-0.0879912109375,-0.0820048828125,0.6550830078125001,0.6660337837767777,0.326171875,0.45166015625,-0.59912109375,42.69470588235294,323.6612858583386
-0.1348662109375,-0.1044658203125,0.6990283203125001,0.7195433239667484,0.3671875,0.47900390625,-0.6083984375,43.25941176470588,323.6612858583386
-0.1436552734375,-0.0546611328125,0.7800830078125001,0.7950812386822781,0.4658203125,0.376953125,-0.65234375,42.69470588235294,323.6612858583386
-0.1578154296875,-0.0668681640625,0.8357470703125001,0.8531413873142404,0.51513671875,0.4453125,-0.45751953125,43.87117647058824,323.6612858583386
-0.1202177734375,-0.0893291015625,0.8635791015625001,0.8764706875256744,0.4375,0.31494140625,-0.3251953125,43.447647058823534,323.0553045479308
-0.1197294921875,-0.0815166015625,0.9597705078125,0.9706387254259128,0.484375,0.208984375,-0.53759765625,43.30647058823529,323.0553045479308
-0.1578154296875,-0.0961650390625,1.0501025390625005,1.066240482785592,0.51123046875,0.12060546875,-0.34326171875,43.73,323.0553045479308
-0.1290068359375,-0.0639384765625,1.1404345703125005,1.1494876692107645,0.435546875,0.126953125,-0.56982421875,43.447647058823534,323.0553045479308
-0.1407255859375,-0.0737041015625,1.2410205078125005,1.2511466284715729,0.41357421875,0.2685546875,-1.10302734375,44.01235294117648,322.92749580054345
-0.1949248046875,-0.1303447265625,1.3176806640625005,1.3383825161997989,0.48681640625,0.35791015625,-0.94921875,42.69470588235294,322.92749580054345
-0.2496123046875,-0.1664775390625,1.3069384765625005,1.3409359623722603,0.4296875,0.251953125,-0.4501953125,43.87117647058824,322.92749580054345
-0.3057646484375,-0.1718486328125,1.3230517578125005,1.3687548818851316,0.5771484375,0.3701171875,-0.1435546875,43.353529411764704,322.92749580054345
-0.3477568359375,-0.1957744140625,1.3391650390625005,1.3973637464848028,0.677734375,0.54150390625,0.265625,43.118235294117646,322.92749580054345
-0.3604521484375,-0.2304423828125,1.3704150390625005,1.435641606529355,0.7421875,0.9501953125,0.5302734375,44.01235294117648,322.5961954064313
-0.3282255859375,-0.2431376953125,1.4060595703125005,1.4641897040388114,0.685546875,1.31640625,0.65625,42.88294117647059,322.5961954064313
-0.2393583984375,-0.2231181640625,1.4924853515625005,1.5279354314452642,0.62890625,1.63427734375,0.40673828125,43.25941176470588,322.5961954064313
-0.1724638671875,-0.2133525390625,1.5764697265625005,1.6001624574329094,0.451171875,1.705078125,-0.09765625,43.30647058823529,322.5961954064313
-0.0948271484375,-0.1718486328125,1.6350634765625005,1.6468019653464598,0.18408203125,1.400390625,-0.896484375,42.74176470588235,322.1511625208775
-0.0640654296875,-0.0741923828125,1.6570361328125005,1.6599330210567675,-0.1181640625,0.94921875,-1.55419921875,42.69470588235294,322.1511625208775
0.0248017578125,0.0478779296875,1.5549853515625005,1.555919942322131,-0.2900390625,1.0322265625,-1.58544921875,42.93,322.1511625208775
0.2025361328125,0.1626240234375,1.4465869140625005,1.469721455933236,-0.19677734375,1.4931640625,-0.892578125,43.353529411764704,322.1511625208775
0.3280244140625,0.2060810546875,1.3743212890625005,1.427875492783797,-0.07373046875,1.81298828125,0.333984375,43.30647058823529,322.1511625208775
0.3734345703125,0.1938740234375,1.3362353515625005,1.4009159253979822,0.0908203125,1.61572265625,1.94287109375,43.353529411764704,323.06331127848364
0.4095673828125,0.2173115234375,1.2898486328125005,1.3706492019663106,0.2958984375,1.255859375,2.96923828125,43.91823529411765,323.06331127848364
0.4290986328125,0.2895771484375,1.2419970703125005,1.345562070007766,0.48291015625,0.75439453125,2.91796875,42.60058823529412,323.06331127848364
0.3705048828125,0.3374287109375,1.1751025390625005,1.277496763386891,0.4921875,0.09912109375,2.5166015625,42.55352941176471,323.06331127848364
0.2455048828125,0.4087177734375,1.1570361328125005,1.2514213832447456,0.37841796875,-0.47998046875,1.98876953125,42.60058823529412,324.0683084057416
0.1263642578125,0.4677998046875,1.1526416015625005,1.2503548474616046,0.3076171875,-0.34033203125,1.09375,42.74176470588235,324.0683084057416
0.0370087890625,0.4184833984375,1.1863330078125005,1.258524537170859,0.32763671875,-0.12353515625,-0.26123046875,43.16529411764706,324.0683084057416
-0.0596708984375,0.2104755859375,1.1624072265625005,1.1828149258277036,0.44970703125,0.205078125,-1.44677734375,43.447647058823534,324.0683084057416
-0.1490263671875,0.0312763671875,1.1604541015625005,1.1704019784222772,0.94384765625,0.560546875,-2.455078125,43.16529411764706,324.0683084057416
-0.1963896484375,-0.2143291015625,1.1052783203125005,1.1428674565070156,0.68212890625,0.78662109375,-1.9072265625,43.30647058823529,324.12995959086527
-0.1524443359375,-0.2363017578125,1.2766650390625005,1.307268686333899,0.93310546875,0.822265625,-0.58642578125,42.60058823529412,324.12995959086527
0.0013642578125,-0.1630595703125,0.9421923828125,0.9561991272218212,0.87548828125,0.59326171875,-0.51513671875,42.55352941176471,324.12995959086527
0.1634736328125,-0.3300517578125,0.8733447265625001,0.947833742211452,0.2373046875,0.455078125,-0.8994140625,42.88294117647059,324.12995959086527
0.2220673828125,-0.1816142578125,0.8132861328125001,0.8623989766779006,-0.08251953125,0.37353515625,-2.07421875,43.447647058823534,323.76855472656763
0.0926728515625,-0.1488994140625,0.7625048828125001,0.7824148447197212,-0.1689453125,-0.0712890625,-2.4970703125,43.87117647058824,323.76855472656763
0.0204072265625,-0.0917705078125,0.7376025390625001,0.7435696246025548,-0.40673828125,-0.05224609375,-2.54638671875,43.353529411764704,323.76855472656763
-0.0127958984375,-0.0868876953125,0.7029345703125001,0.7083997577314378,-0.56005859375,0.03466796875,-2.25634765625,42.69470588235294,323.76855472656763
-0.0420927734375,-0.1200908203125,0.6550830078125001,0.6673285201635413,-0.79296875,0.09375,-1.7578125,43.49470588235295,323.76855472656763
-0.0494169921875,-0.1274150390625,0.5837939453125001,0.599576518786128,-0.896484375,0.0888671875,-1.1474609375,43.353529411764704,323.3314738118109
-0.0840849609375,-0.1386455078125,0.5081103515625001,0.5333563413492094,-0.90087890625,0.09033203125,-0.53466796875,43.91823529411765,323.3314738118109
-0.0777373046875,-0.1113017578125,0.4509814453125,0.4709728589296639,-0.8310546875,0.0615234375,0.1259765625,42.74176470588235,323.3314738118109
-0.0748076171875,-0.0907939453125,0.4246142578125,0.4406097911217373,-0.80517578125,0.0517578125,0.9111328125,43.447647058823534,323.3314738118109
-0.0875029296875,-0.0746806640625,0.4163134765625,0.4319153563561578,-0.6455078125,-0.11474609375,1.5205078125,43.353529411764704,323.8111609041405
-0.0694365234375,-0.0483134765625,0.3801806640625,0.3894778044146357,-0.45263671875,-0.31494140625,2.0595703125,43.91823529411765,323.8111609041405
-0.0386748046875,-0.0019267578124999,0.3684619140625,0.3704910728045757,-0.49462890625,-0.603515625,2.01220703125,42.69470588235294,323.8111609041405
-0.0591826171875,0.0302998046875,0.3904345703125,0.396055316889408,-0.5146484375,-0.6591796875,1.8388671875,43.353529411764704,323.8111609041405
-0.0616240234375,0.0097919921875,0.4006884765625,0.4055177661035368,-0.31494140625,-0.67236328125,1.93896484375,42.69470588235294,323.8111609041405
-0.0542998046875,0.0117451171875,0.4099658203125,0.4137129323472374,-0.1650390625,-0.734375,2.42138671875,43.353529411764704,324.16153889660075
-0.0323271484375,0.0254169921875,0.4514697265625,0.4533387056278982,0.0322265625,-0.73876953125,2.7412109375,43.02411764705882,324.16153889660075
-0.0440458984375,0.0454365234375,0.5051806640625001,0.5091286892072393,0.1015625,-0.72509765625,2.57275390625,43.91823529411765,324.16153889660075
-0.0972685546875,0.0058857421875,0.5974658203125001,0.6053604051585977,0.181640625,-0.578125,2.453125,43.353529411764704,324.16153889660075
-0.1543974609375,-0.0141337890624999,0.5964892578125001,0.6163098040944321,0.03125,-0.55712890625,2.5947265625,43.25941176470588,323.5224408392468
-0.1905302734375,0.0068623046875,0.8635791015625001,0.8843742086793844,0.00439453125,-0.4775390625,2.7998046875,43.353529411764704,323.5224408392468
-0.1529326171875,0.0395771484375,0.9700244140625,0.9828031847504152,-0.09765625,-0.61376953125,2.861328125,43.447647058823534,323.5224408392468
-0.1304716796875,0.0805927734375,1.0735400390625005,1.0844382277479618,-0.2109375,-0.9482421875,2.66943359375,43.447647058823534,323.5224408392468
-0.1211943359375,0.1167255859375,1.1965869140625005,1.2083597032264035,-0.322265625,-1.34130859375,2.34765625,43.353529411764704,323.5224408392468
-0.1265654296875,0.1196552734375,1.2791064453125005,1.29091033418025,-0.3232421875,-1.73974609375,2.23974609375,42.60058823529412,323.20366143212846
-0.0821318359375,0.1181904296875,1.3020556640625005,1.309986094758803,-0.22216796875,-1.875,2.19482421875,43.353529411764704,323.20366143212846
-0.0318388671875,0.1216083984375,1.2957080078125005,1.3017916720980187,-0.11279296875,-1.5048828125,1.3759765625,43.49470588235295,323.20366143212846
-0.1192412109375,0.1499287109375,1.3240283203125005,1.3378146649438265,-0.03369140625,-1.23193359375,0.294921875,44.01235294117648,323.20366143212846
-0.2833037109375,0.1928974609375,1.3977587890625005,1.4391664446715535,0.1083984375,-0.7919921875,-0.392578125,43.91823529411765,322.7175112835076
-0.4346708984375,0.1928974609375,1.4373095703125005,1.5139375883095387,0.19970703125,-0.36865234375,-0.20849609375,42.69470588235294,322.7175112835076
-0.4776396484375,0.1894794921875,1.4382861328125005,1.5273208934470417,0.2470703125,0.33447265625,0.35498046875,43.87117647058824,322.7175112835076
-0.4830107421875,0.1631123046875,1.4929736328125005,1.577616958986668,0.1259765625,0.8955078125,0.79248046875,43.25941176470588,322.7175112835076
-0.4327177734375,0.1313740234375,1.5940478515625005,1.656952732745834,0.13916015625,1.1337890625,0.96875,42.69470588235294,322.7175112835076
-0.2950224609375,0.0996357421875,1.6951220703125005,1.7234861086876825,0.2705078125,0.65869140625,0.82421875,43.353529411764704,322.4508770612356
-0.0406279296875,0.0224873046875,1.6824267578125005,1.683067468328671,0.45703125,0.11181640625,0.255859375,43.02411764705882,322.4508770612356
0.2235322265625,-0.0463603515625,1.5642626953125005,1.580833235498076,0.33154296875,0.03759765625,-0.6728515625,43.777058823529416,322.4508770612356
0.3563447265625,-0.1113017578125,1.5335009765625005,1.578288595460031,0.05810546875,0.2802734375,-1.580078125,43.30647058823529,322.4508770612356
0.3856416015625,-0.1249736328125,1.4793017578125005,1.533842085881463,-0.009765625,0.525390625,-1.8369140625,43.353529411764704,322.5581358182156
0.3636689453125,-0.1381572265625,1.3416064453125005,1.3968716387485969,-0.0908203125,0.7763671875,-1.70068359375,42.60058823529412,322.5581358182156
0.3329072265625,-0.1830791015625,1.3142626953125005,1.3680758791881924,-0.12060546875,1.0634765625,-1.7919921875,43.447647058823534,322.5581358182156
0.3285126953125,-0.2582744140625,1.2654345703125005,1.3326480839602004,-0.05810546875,0.865234375,-1.8896484375,43.447647058823534,322.5581358182156
0.3329072265625,-0.3266337890625,1.1580126953125005,1.248403082405592,-0.0732421875,0.05517578125,-1.94873046875,42.74176470588235,322.5581358182156
0.2865205078125,-0.3715556640625,1.0632861328125005,1.1622069579577556,0.0966796875,-0.68408203125,-1.345703125,43.91823529411765,323.6627943163432
0.2206025390625,-0.4330791015625,1.0413134765625005,1.1491547958920438,0.74853515625,-1.921875,0.1865234375,43.91823529411765,323.6627943163432
0.1297822265625,-0.4530986328125,1.0955126953125005,1.1925979469120915,0.92919921875,-2.37548828125,1.39453125,43.447647058823534,323.6627943163432
0.0648408203125,-0.3857158203125,1.1585009765625005,1.2227450832918567,0.2890625,-1.51318359375,1.771484375,43.16529411764706,323.6627943163432
0.0931611328125,-0.2416728515625,1.0803759765625005,1.1109892054302934,-0.52294921875,-0.83447265625,1.359375,43.30647058823529,324.3254601916702
0.0985322265625,-0.0756572265625,1.0540087890625005,1.0613044535021474,-1.1181640625,-0.1767578125,0.25732421875,43.91823529411765,324.3254601916702
0.0067353515625,-0.0019267578124999,1.0994189453125005,1.0994412647651484,-1.21826171875,0.38427734375,-0.00390625,43.777058823529416,324.3254601916702
0.0345673828125,-0.0112041015624999,1.1072314453125005,1.1078275629966683,-0.91552734375,0.80029296875,0.900390625,43.73,324.3254601916702
0.0531220703125,0.0171162109375,1.1292041015625005,1.1305825144662005,-0.64111328125,0.884765625,1.64697265625,43.447647058823534,324.3254601916702
0.0599580078125,0.0635029296875,1.0554736328125005,1.0590808157747718,-0.26904296875,0.5458984375,2.06494140625,42.55352941176471,323.25880448190605
-0.0127958984375,0.0815693359375,0.9753955078125,0.9788838992663595,0.076171875,0.53759765625,3.0009765625,43.353529411764704,323.25880448190605
-0.0079130859375,0.0674091796875,0.8918994140625001,0.8944781602924841,0.40673828125,0.46533203125,3.84375,43.91823529411765,323.25880448190605
0.0057587890625,0.0986591796875,0.8210986328125001,0.8270246442486666,0.58837890625,0.6015625,4.06689453125,43.447647058823534,323.25880448190605
0.0272431640625,0.1074482421875,0.7717822265625001,0.7797019430366261,0.81982421875,0.7978515625,4.02685546875,43.447647058823534,323.52394981717526
0.0370087890625,0.0952412109375,0.7205126953125001,0.7277218444125458,0.9658203125,0.921875,3.73681640625,43.91823529411765,323.52394981717526
0.0287080078125,0.0888935546875,0.6511767578125001,0.6578429779915124,0.9716796875,1.00830078125,3.2119140625,43.353529411764704,323.52394981717526
-0.0079130859375,0.0478779296875,0.5974658203125001,0.5994333320077422,0.89599609375,0.90283203125,2.5712890625,43.87117647058824,323.52394981717526
-0.0181669921875,0.0180927734375,0.5339892578125001,0.5346044477133969,0.8515625,0.83447265625,2.150390625,42.74176470588235,323.52394981717526
-0.0308623046875,-0.0019267578124999,0.4885791015625,0.4895566695796431,0.64990234375,0.58154296875,1.5615234375,42.55352941176471,323.53648786627025
-0.0318388671875,-0.0488017578125,0.4548876953125,0.4586045577358462,0.49560546875,0.4169921875,1.3583984375,43.447647058823534,323.53648786627025
-0.0435576171875,-0.0898173828125,0.4797900390625,0.4900641895241228,0.45263671875,0.42626953125,1.24951171875,43.63588235294118,323.53648786627025
-0.0386748046875,-0.0927470703125,0.4695361328125,0.4801686574378692,0.31494140625,0.40576171875,1.0361328125,43.16529411764706,323.53648786627025
-0.0435576171875,-0.1127666015625,0.4680712890625,0.4834297302479843,0.31201171875,0.310546875,1.01025390625,43.25941176470588,323.5049117450009
-0.0425810546875,-0.1088603515625,0.5042041015625001,0.5175765628320692,0.42236328125,0.38037109375,1.30615234375,43.447647058823534,323.5049117450009
0.0062470703125,-0.0741923828125,0.5081103515625001,0.5135364299831642,0.42138671875,0.4580078125,0.927734375,43.353529411764704,323.5049117450009
-0.0254912109375,-0.0585673828125,0.5442431640625001,0.5479786143576475,0.3037109375,0.58447265625,0.4306640625,42.74176470588235,323.5049117450009
-0.0196318359375,-0.0312236328125,0.5671923828125001,0.5683902913921105,0.25927734375,0.65380859375,0.13818359375,43.91823529411765,323.5049117450009
-0.0440458984375,-0.0155986328124999,0.6174853515625001,0.6192507714238635,0.22216796875,0.55859375,-0.0947265625,44.01235294117648,323.014213202583
-0.0821318359375,-0.0121806640624999,0.6975634765625001,0.7024875877091563,0.2685546875,0.47998046875,-0.12646484375,43.30647058823529,323.014213202583
-0.1124052734375,-0.0199931640625,0.7703173828125001,0.7787320093388282,0.291015625,0.36181640625,-0.06884765625,43.02411764705882,323.014213202583
-0.1172880859375,-0.0209697265625,0.7151416015625001,0.7249991274617963,0.3115234375,0.25341796875,-0.34033203125,43.777058823529416,323.014213202583
-0.1724638671875,-0.0170634765625,0.9251025390625,0.9411958645773744,0.2255859375,-0.0400390625,-0.5126953125,42.55352941176471,322.40676192333
-0.1905302734375,-0.0029033203124999,1.0442431640625005,1.061486693301554,0.234375,-0.228515625,-0.41650390625,43.63588235294118,322.40676192333
-0.1734404296875,0.0058857421875,1.1628955078125005,1.175773016658307,0.31201171875,-0.416015625,-0.15283203125,42.97705882352941,322.40676192333
-0.1368193359375,-0.0072978515624999,1.2566455078125005,1.264092845335794,0.4443359375,-0.54345703125,-0.15771484375,43.353529411764704,322.40676192333
-0.1543974609375,-0.0488017578125,1.3142626953125005,1.3242003699590237,0.56005859375,-0.3759765625,-0.70263671875,42.60058823529412,322.40676192333
-0.2334990234375,-0.1103251953125,1.3308642578125005,1.3556891662139314,0.6123046875,-0.04052734375,-1.1845703125,43.447647058823534,322.1827332153533
-0.3003935546875,-0.1513408203125,1.3499072265625005,1.3911828966445476,0.646484375,0.3037109375,-1.27490234375,43.353529411764704,322.1827332153533
-0.3086943359375,-0.1669658203125,1.3709033203125005,1.415113314132956,0.68017578125,0.83447265625,-1.03271484375,43.30647058823529,322.1827332153533
-0.2803740234375,-0.1684306640625,1.4172900390625005,1.454541005417465,0.77001953125,1.41943359375,-0.60693359375,43.25941176470588,322.1827332153533
-0.2120146484375,-0.1762431640625,1.3396533203125005,1.3677290969541975,0.7841796875,1.833984375,-0.275390625,42.69470588235294,322.3421040980456
-0.1075224609375,-0.1825908203125,1.5173876953125005,1.5321115837804469,0.802734375,1.91259765625,-0.2568359375,42.74176470588235,322.3421040980456
-0.0396513671875,-0.1825908203125,1.6047900390625005,1.615630746196807,0.69287109375,1.6611328125,-0.6904296875,43.447647058823534,322.3421040980456
-0.0210966796875,-0.1567119140625,1.7161181640625005,1.7233877239113131,0.46044921875,1.0078125,-1.35107421875,43.30647058823529,322.3421040980456
0.0174775390625,-0.0903056640625,1.7293017578125005,1.731746270937765,0.06689453125,0.29736328125,-2.1123046875,42.60058823529412,322.3421040980456
0.0457978515625,-0.0082744140624999,1.6516650390625005,1.6523205834211316,-0.2900390625,0.2333984375,-2.388671875,43.353529411764704,321.98076634588466
0.0990205078125,-0.0326884765625,1.6135791015625005,1.6169449942612977,-0.4111328125,0.521484375,-2.10888671875,43.447647058823534,321.98076634588466
0.2186494140625,0.1636005859375,1.5320361328125005,1.55618361070667,-0.353515625,0.7177734375,-0.96728515625,42.74176470588235,321.98076634588466
0.3421845703125,0.2055927734375,1.4485400390625005,1.5025401536787173,-0.15234375,0.9296875,0.47900390625,43.63588235294118,321.98076634588466
0.4452119140625,0.2451435546875,1.3386767578125005,1.4319093800710314,0.0908203125,0.7763671875,1.50830078125,43.447647058823534,323.4197027244586
0.4940400390625,0.2871357421875,1.2263720703125005,1.3529637650288389,0.29443359375,0.28076171875,2.1279296875,42.69470588235294,323.4197027244586
0.4852509765625,0.3144794921875,1.1296923828125005,1.2690826375953428,0.296875,0.03662109375,2.42138671875,42.55352941176471,323.4197027244586
0.4295869140625,0.3481708984375,1.0916064453125005,1.223671738130905,0.10400390625,0.21240234375,1.9189453125,42.55352941176471,323.4197027244586
0.3387666015625,0.3437763671875,1.0974658203125005,1.1989062631102692,-0.27392578125,0.90380859375,0.62109375,43.447647058823534,323.4197027244586
0.2381806640625,0.3403583984375,1.1199267578125005,1.1944914445003834,-0.498046875,1.43896484375,-1.40234375,43.447647058823534,324.1961304707687
0.0892548828125,0.1118427734375,1.0940478515625005,1.1033657333742914,-0.24755859375,1.3857421875,-1.99609375,43.30647058823529,324.1961304707687
-0.0689482421875,0.0884052734375,1.1926806640625005,1.1979384453722457,0.47607421875,1.88916015625,-2.20947265625,43.16529411764706,324.1961304707687
-0.0826201171875,-0.2870830078125,0.9788134765625,1.023385830974377,0.2509765625,1.025390625,-1.38232421875,43.447647058823534,324.1961304707687
-0.0557646484375,-0.2255595703125,1.0252001953125005,1.0512003882437004,-0.046875,0.85205078125,-1.21826171875,43.25941176470588,324.4517792288558
0.0013642578125,-0.2587626953125,0.9788134765625,1.0124405244680483,-0.2021484375,0.67236328125,-1.24951171875,43.353529411764704,324.4517792288558
0.0643525390625,-0.2719462890625,0.8313525390625001,0.8770650361428856,0.28173828125,0.3564453125,-1.70361328125,43.353529411764704,324.4517792288558
0.0223603515625,-0.2289775390625,0.8235400390625001,0.8550724499457233,-0.2255859375,0.06884765625,-1.30908203125,43.447647058823534,324.4517792288558
0.0423798828125,-0.0893291015625,0.7913134765625001,0.7974664638983855,-0.42919921875,0.08447265625,-1.97119140625,43.30647058823529,324.4517792288558
-0.0469755859375,-0.0649150390625,0.7527392578125001,0.7569921123913846,-0.2607421875,0.11767578125,-2.40234375,42.60058823529412,324.4312276894891
-0.1251005859375,-0.0917705078125,0.6990283203125001,0.7160395068046073,-0.234375,0.27734375,-2.50927734375,43.54176470588236,324.4312276894891
-0.1260771484375,-0.0585673828125,0.6755908203125001,0.6897452734003721,-0.4677734375,0.57958984375,-2.62890625,43.447647058823534,324.4312276894891
-0.1158232421875,-0.0497783203125,0.6272509765625001,0.6397942577130309,-0.7236328125,0.8408203125,-2.75341796875,43.447647058823534,324.4312276894891
-0.1197294921875,-0.0717509765625,0.5798876953125001,0.5964504112765721,-0.79833984375,0.99072265625,-2.36865234375,43.353529411764704,323.53648786627025
-0.0909208984375,-0.0815166015625,0.5276416015625001,0.5415876898549501,-0.873046875,1.1650390625,-1.45751953125,43.91823529411765,323.53648786627025
-0.0523466796875,-0.0634501953125,0.4934619140625,0.5002706895169118,-0.8505859375,1.23486328125,-0.79296875,43.63588235294118,323.53648786627025
-0.0269560546875,-0.0385478515625,0.4739306640625,0.4762592152212094,-0.77490234375,1.19970703125,-0.31103515625,44.01235294117648,323.53648786627025
-0.0001005859374999,0.0073505859375,0.4529345703125,0.452994223158888,-0.55322265625,0.818359375,0.02978515625,42.69470588235294,323.53648786627025
-0.0533232421875,0.0127216796875,0.4836962890625,0.4867928813615619,-0.38671875,0.87109375,0.43408203125,43.447647058823534,323.8126689035088
-0.0718779296875,0.0342060546875,0.4529345703125,0.4598763050404038,-0.31689453125,0.38818359375,0.724609375,42.55352941176471,323.8126689035088
-0.1285185546875,0.0229755859375,0.4788134765625,0.496293503670966,-0.296875,0.14892578125,1.12890625,43.16529411764706,323.8126689035088
-0.1666044921875,0.0161396484375,0.5374072265625001,0.5628712750090726,-0.1796875,0.21533203125,1.94091796875,43.16529411764706,323.8126689035088
-0.1548857421875,0.0249287109375,0.5613330078125001,0.5828428428159742,-0.06103515625,0.12060546875,2.544921875,43.777058823529416,323.8552750587241
-0.1465849609375,0.0239521484375,0.6150439453125001,0.6327241980937556,-0.01123046875,0.09521484375,2.92138671875,43.25941176470588,323.8552750587241
-0.1065458984375,0.0371357421875,0.6960986328125001,0.7051839465168661,-0.02099609375,-0.00830078125,3.0849609375,43.16529411764706,323.8552750587241
-0.0538115234375,0.0488544921875,0.7546923828125001,0.7581840371155094,-0.0615234375,-0.23486328125,3.0146484375,43.87117647058824,323.8552750587241
-0.0372099609375,0.0644794921875,0.8191455078125001,0.8225214581244228,-0.02734375,-0.18994140625,2.84814453125,43.777058823529416,323.8552750587241
-0.0938505859375,0.0703388671875,0.8870166015625001,0.8947367993804209,0.07177734375,-0.29833984375,2.7861328125,43.447647058823534,323.35353095637936
-0.1827177734375,0.0825458984375,0.9612353515625,0.9819231187686208,0.04296875,-0.2470703125,2.58154296875,43.49470588235295,323.35353095637936
-0.2300810546875,0.0957294921875,1.0232470703125005,1.053155256504806,0.0654296875,-0.130859375,2.1025390625,43.447647058823534,323.35353095637936
-0.1973662109375,0.1157490234375,1.0852587890625005,1.109115817615079,0.029296875,0.033203125,1.71923828125,43.73,323.35353095637936
-0.1006865234375,0.1289326171875,1.1545947265625005,1.166126227465399,-0.00146484375,0.04931640625,1.29248046875,44.01235294117648,323.206683172164
-0.0591826171875,0.1362568359375,1.2317431640625005,1.2406690653560926,0.0341796875,-0.10498046875,0.759765625,42.69470588235294,323.206683172164
-0.1021513671875,0.1523701171875,1.2546923828125005,1.2680317543018067,0.04736328125,-0.1123046875,0.0341796875,43.73,323.206683172164
-0.2208037109375,0.1855732421875,1.2976611328125005,1.3293292002329495,0.1015625,0.294921875,-0.60546875,43.30647058823529,323.206683172164
-0.3628935546875,0.2002216796875,1.3372119140625005,1.3999700554516543,0.10498046875,0.89501953125,-0.66650390625,42.69470588235294,323.206683172164
-0.4532255859375,0.1841083984375,1.3821337890625005,1.4661524971816116,0.1591796875,1.37939453125,-0.10498046875,43.447647058823534,323.1199650738493
-0.4639677734375,0.1186787109375,1.4426806640625005,1.520091520165202,0.146484375,1.5810546875,0.28564453125,43.353529411764704,323.1199650738493
-0.4488310546875,0.0346943359375,1.5667041015625005,1.630096547585694,0.189453125,1.6748046875,0.103515625,43.30647058823529,323.1199650738493
-0.3970732421875,-0.0531962890625,1.6917041015625005,1.7384935352409856,0.19775390625,1.2724609375,-0.02490234375,43.447647058823534,323.1199650738493
-0.2999052734375,-0.0903056640625,1.7371142578125005,1.7651244235727024,0.109375,0.6767578125,-0.15283203125,43.353529411764704,322.5140206135721
-0.2579130859375,-0.0849345703125,1.6594775390625005,1.6815465333391475,-0.1669921875,0.43212890625,-0.529296875,43.447647058823534,322.5140206135721
0.0057587890625,-0.1093486328125,1.6150439453125005,1.61875175133187,-0.23193359375,0.68603515625,-1.056640625,43.25941176470588,322.5140206135721
0.1678681640625,-0.1034892578125,1.5310595703125005,1.5437076001736192,-0.25439453125,0.98486328125,-1.314453125,42.97705882352941,322.5140206135721
0.2630830078125,-0.0507548828125,1.3460009765625005,1.3724093252511027,-0.26123046875,1.3896484375,-1.31396484375,42.69470588235294,322.5140206135721
0.3216767578125,-0.0707744140625,1.2224658203125005,1.266059886433089,-0.37841796875,1.71630859375,-1.41943359375,42.69470588235294,322.8753768483842
0.3695283203125,-0.1772197265625,1.1409228515625005,1.21229656611465,-0.39208984375,1.71337890625,-1.74267578125,42.74176470588235,322.8753768483842
0.4144501953125,-0.2494853515625,1.0798876953125005,1.183287513466688,-0.43408203125,1.32763671875,-1.86669921875,44.01235294117648,322.8753768483842
0.4300751953125,-0.3080791015625,1.0227587890625005,1.1514829338931751,-0.5302734375,0.8095703125,-2.0927734375,43.16529411764706,322.8753768483842
0.3846650390625,-0.3310283203125,0.9939501953125,1.1160125142164072,-0.61962890625,0.2080078125,-2.2900390625,43.16529411764706,324.644272122164
0.2840791015625,-0.3661845703125,1.0432666015625005,1.1415766629601694,-0.56103515625,-0.46826171875,-2.15625,42.74176470588235,324.644272122164
0.1996064453125,-0.3647197265625,1.0798876953125005,1.157160596650897,-0.3876953125,-1.1201171875,-1.634765625,43.25941176470588,324.644272122164
0.0516572265625,-0.3129619140625,1.0686572265625005,1.1147384879845357,-0.4033203125,-1.4052734375,-0.345703125,43.30647058823529,324.644272122164
-0.1251005859375,-0.1664775390625,1.1091845703125005,1.1285633959302144,-0.35693359375,-1.0244140625,1.36962890625,43.25941176470588,324.644272122164
-0.1915068359375,0.0293232421875,1.1497119140625005,1.1659211834770125,-0.30126953125,-0.46826171875,1.892578125,43.353529411764704,324.42019917477114
-0.2256865234375,0.1240498046875,1.1843798828125005,1.2120554722104364,-0.49951171875,0.06396484375,2.0166015625,42.60058823529412,324.42019917477114
-0.1758818359375,0.1919208984375,1.1668017578125005,1.195489185858301,0.2216796875,0.14404296875,2.2724609375,43.25941176470588,324.42019917477114
-0.1231474609375,0.1313740234375,1.0652392578125005,1.0803513815210477,0.35498046875,-0.02392578125,3.06103515625,44.01235294117648,324.42019917477114
-0.0381865234375,0.1118427734375,0.9592822265625,0.9665347416110516,0.35107421875,-0.123046875,3.65185546875,43.777058823529416,323.0583280831141
0.0106416015625,0.1069599609375,0.8684619140625001,0.8750884373048633,0.39794921875,-0.08251953125,3.7021484375,43.30647058823529,323.0583280831141
0.0628876953125,0.0937763671875,0.7864306640625001,0.7944948449438721,0.38134765625,-0.17529296875,3.0673828125,42.74176470588235,323.0583280831141
0.0125947265625,0.0805927734375,0.7385791015625001,0.7430699237167402,0.43115234375,-0.15966796875,2.33447265625,43.02411764705882,323.0583280831141
-0.0386748046875,0.0600849609375,0.6751025390625001,0.678873612167325,0.552734375,-0.08837890625,1.9189453125,44.01235294117648,323.0583280831141
-0.0538115234375,0.0488544921875,0.6160205078125001,0.620293243157729,0.603515625,0.11328125,1.56982421875,43.353529411764704,323.34552307737886
-0.0669951171875,0.0219990234375,0.5667041015625001,0.5710742871876924,0.74267578125,0.36767578125,1.3564453125,44.01235294117648,323.34552307737886
-0.0723662109375,0.0073505859375,0.5442431640625001,0.5490824357305892,0.89599609375,0.5693359375,1.14013671875,44.01235294117648,323.34552307737886
-0.0835966796875,-0.0273173828125,0.5276416015625001,0.5349208389639902,0.96826171875,0.7265625,0.93017578125,43.353529411764704,323.34552307737886
-0.0997099609375,-0.0624736328125,0.5129931640625001,0.5263145613431229,0.87890625,0.84521484375,0.8427734375,43.447647058823534,323.70690867183447
-0.0982451171875,-0.0697978515625,0.4915087890625,0.5060679132879415,0.8271484375,0.853515625,0.58740234375,42.60058823529412,323.70690867183447
-0.0655302734375,-0.0922587890625,0.4714892578125,0.4848793882283042,0.6845703125,0.75927734375,0.09521484375,42.55352941176471,323.70690867183447
-0.0484404296875,-0.1117900390625,0.4817431640625,0.4969104186700594,0.4833984375,0.7822265625,-0.38134765625,44.01235294117648,323.70690867183447
-0.0347685546875,-0.1186259765625,0.4929736328125,0.5082361433023217,0.30517578125,0.59912109375,-0.6962890625,43.447647058823534,323.70690867183447
-0.0220732421875,-0.1200908203125,0.5022509765625001,0.516880137558005,0.10546875,0.31201171875,-0.8603515625,44.01235294117648,323.5901214510701
-0.0479521484375,-0.1044658203125,0.5378955078125001,0.5500400835195585,0.06103515625,0.10009765625,-0.94873046875,43.353529411764704,323.5901214510701
-0.1084990234375,-0.0746806640625,0.6101611328125001,0.6242161866426891,0.0849609375,0.091796875,-0.666015625,43.63588235294118,323.5901214510701
-0.0982451171875,-0.0312236328125,0.6467822265625001,0.6549460030371516,0.14013671875,-0.1123046875,-0.97998046875,43.447647058823534,323.5901214510701
-0.1226591796875,-0.0307353515625,0.7004931640625001,0.7118150104455324,0.25537109375,-0.08154296875,-1.31884765625,42.69470588235294,323.2603154390173
-0.1758818359375,-0.0497783203125,0.7585986328125001,0.7803103146126378,0.26416015625,-0.0810546875,-1.10498046875,43.49470588235295,323.2603154390173
-0.1661162109375,-0.0263408203125,0.8357470703125001,0.8525031377578,0.265625,0.072265625,-0.8427734375,42.69470588235294,323.2603154390173
-0.1753935546875,-0.0434306640625,0.9246142578125,0.9421043717959212,0.27001953125,0.197265625,-0.85791015625,42.60058823529412,323.2603154390173
-0.1358427734375,-0.0439189453125,1.0408251953125005,1.0505709019622895,0.31494140625,0.20751953125,-0.98291015625,43.353529411764704,323.2603154390173
-0.1075224609375,-0.0688212890625,1.1204150390625005,1.127664537525103,0.3662109375,0.072265625,-1.21484375,43.30647058823529,322.7255133258172
-0.1539091796875,-0.0990947265625,1.2009814453125005,1.214851526899266,0.392578125,0.0869140625,-1.3115234375,43.73,322.7255133258172
-0.2266630859375,-0.1191142578125,1.2478564453125005,1.273856376931435,0.466796875,0.1328125,-1.26611328125,43.353529411764704,322.7255133258172
-0.2896513671875,-0.1288798828125,1.3015673828125005,1.3396214355961662,0.51708984375,0.294921875,-1.39306640625,43.73,322.7255133258172
-0.3511748046875,-0.1547587890625,1.3460009765625005,1.3996401877434783,0.5625,0.53369140625,-1.51171875,43.91823529411765,323.023730098688
-0.3780302734375,-0.1850322265625,1.3914111328125005,1.453674225201944,0.6279296875,0.767578125,-1.4755859375,43.447647058823534,323.023730098688
-0.3697294921875,-0.2084697265625,1.4231494140625005,1.4850972288145676,0.5615234375,0.9072265625,-1.4697265625,43.447647058823534,323.023730098688
-0.3384794921875,-0.2001689453125,1.4783251953125005,1.5297324460162205,0.42431640625,0.9287109375,-1.455078125,43.353529411764704,323.023730098688
-0.2886748046875,-0.1869853515625,1.4641650390625005,1.504019922133085,0.31201171875,0.89208984375,-1.5224609375,42.69470588235294,323.023730098688
-0.2222685546875,-0.1606181640625,1.7048876953125005,1.72680154003222,0.11962890625,0.50390625,-1.80126953125,43.777058823529416,322.50299184724975
-0.1666044921875,-0.1078837890625,1.7786181640625005,1.7896587781732574,-0.2646484375,0.03515625,-2.21044921875,42.60058823529412,322.50299184724975
-0.0884794921875,-0.0185283203125,1.7683642578125005,1.7706733373211772,-0.5966796875,-0.2109375,-2.486328125,43.353529411764704,322.50299184724975
0.1029267578125,0.1523701171875,1.6502001953125005,1.6604129771520515,-0.65283203125,-0.23681640625,-1.96533203125,43.73,322.50299184724975
0.3514619140625,0.2842060546875,1.5305712890625005,1.5959157338217935,-0.31005859375,0.3623046875,-0.720703125,42.74176470588235,322.5771649517465
0.3993134765625,0.2783466796875,1.5598681640625005,1.6340492085347986,0.04296875,0.53173828125,1.27685546875,43.447647058823534,322.5771649517465
0.3602509765625,0.2466083984375,1.4319384765625005,1.4970117798315008,0.25732421875,0.02685546875,2.76416015625,43.63588235294118,322.5771649517465
0.4061494140625,0.1914326171875,1.2278369140625005,1.3073588952545097,0.361328125,-0.5068359375,3.28466796875,43.447647058823534,322.5771649517465
0.3846650390625,0.1816669921875,1.0813525390625005,1.1620212571482176,0.26513671875,-1.16455078125,2.6787109375,42.69470588235294,322.5771649517465
0.2591767578125,0.2397724609375,1.0413134765625005,1.0995440788276316,0.2314453125,-1.30517578125,1.986328125,43.91823529411765,323.4638175151563
0.1546845703125,0.2812763671875,1.0183642578125005,1.0677590892242337,0.1484375,-1.24462890625,1.189453125,43.87117647058824,323.4638175151563
0.0462861328125,0.2744404296875,1.0862353515625005,1.121323858000847,0.17529296875,-0.47509765625,0.00048828125,43.49470588235295,323.4638175151563
-0.0674833984375,0.2051044921875,1.1077197265625005,1.1285676117964163,0.11181640625,-0.2958984375,-0.86669921875,43.353529411764704,323.4638175151563
-0.1011748046875,0.1089130859375,1.1477587890625005,1.1573455142100824,0.15234375,0.20947265625,-1.39794921875,43.353529411764704,324.50692184417966
-0.1631865234375,-0.0014384765624999,1.1204150390625005,1.132237506181394,0.341796875,0.47265625,-1.4365234375,43.447647058823534,324.50692184417966
-0.1573271484375,-0.1498759765625,1.0627978515625005,1.0847828876194097,0.20263671875,0.42578125,-0.994140625,43.118235294117646,324.50692184417966
-0.0533232421875,-0.2162822265625,1.0295947265625005,1.0534166652609638,-0.109375,0.28271484375,-0.50537109375,43.30647058823529,324.50692184417966
0.0296845703125,-0.2402080078125,0.9856494140625,1.0149314401345726,-0.31201171875,-0.0419921875,-0.3759765625,43.447647058823534,324.50692184417966
0.0838837890625,-0.2074931640625,0.9002001953125001,0.9276046004849332,-0.3955078125,-0.5693359375,-0.72802734375,43.447647058823534,324.5274734657797
0.1371064453125,-0.0751689453125,0.8264697265625001,0.8411306418208273,-0.57177734375,-0.48388671875,-2.04638671875,42.88294117647059,324.5274734657797
0.0628876953125,-0.0776103515625,0.7869189453125001,0.7932336701017614,-0.513671875,-0.17578125,-2.52734375,43.91823529411765,324.5274734657797
0.0106416015625,-0.0561259765625,0.7668994140625001,0.7690241089967955,-0.4755859375,0.11474609375,-2.240234375,42.60058823529412,324.5274734657797
0.0008759765625,-0.0370830078125,0.7341845703125001,0.7351210105066447,-0.65185546875,0.150390625,-2.0517578125,43.87117647058824,323.739994584752
-0.0386748046875,-0.0478251953125,0.6897509765625001,0.6924878334622332,-0.7021484375,0.068359375,-1.64990234375,43.447647058823534,323.739994584752
-0.0689482421875,-0.0605205078125,0.6101611328125001,0.6170196106783498,-0.62451171875,0.072265625,-0.99072265625,43.353529411764704,323.739994584752
-0.0792021484375,-0.0600322265625,0.5457080078125001,0.5546837642601906,-0.5439453125,0.08056640625,-0.0146484375,42.55352941176471,323.739994584752
-0.0875029296875,-0.0346416015625,0.4905322265625,0.4994783964888516,-0.39501953125,0.10498046875,0.439453125,43.777058823529416,323.739994584752
-0.1070341796875,-0.0063212890624999,0.4558642578125,0.4683038499390425,-0.36083984375,0.0869140625,0.49267578125,42.69470588235294,324.00665946608365
-0.1094755859375,0.0151630859375,0.4529345703125,0.466223710331935,-0.3837890625,0.20166015625,0.45263671875,43.91823529411765,324.00665946608365
-0.0767607421875,0.0473896484375,0.4407275390625,0.4498652620599785,-0.44580078125,0.23583984375,0.2841796875,43.447647058823534,324.00665946608365
-0.0879912109375,0.0312763671875,0.4373095703125,0.4471692348916664,-0.49267578125,0.3154296875,0.42822265625,43.118235294117646,324.00665946608365
-0.0938505859375,0.0273701171875,0.4382861328125,0.4490565554709184,-0.38623046875,0.134765625,1.04150390625,43.30647058823529,323.93247536563496
-0.0752958984375,0.0381123046875,0.4729541015625,0.4804243980845423,-0.25341796875,0.11181640625,1.3037109375,42.60058823529412,323.93247536563496
-0.0689482421875,0.0508076171875,0.5432666015625001,0.5499762489765225,-0.07275390625,0.39111328125,1.21142578125,43.25941176470588,323.93247536563496
-0.0718779296875,0.0229755859375,0.5505908203125001,0.5557378570312844,-0.0244140625,0.45068359375,1.13671875,43.91823529411765,323.93247536563496
-0.0909208984375,0.0034443359375,0.6052783203125001,0.612078686332937,-0.03564453125,0.43603515625,1.1162109375,43.353529411764704,323.93247536563496
-0.0821318359375,-0.0019267578124999,0.6873095703125001,0.6922021354440377,-0.01416015625,0.56787109375,1.0224609375,42.55352941176471,323.7274571072614
-0.1050810546875,0.0024677734375,0.7996142578125001,0.8064930745251391,-0.013671875,0.7373046875,1.03955078125,43.49470588235295,323.7274571072614
-0.1265654296875,0.0254169921875,0.8831103515625001,0.8924957840352431,-0.083984375,0.6767578125,1.1962890625,43.447647058823534,323.7274571072614
-0.1358427734375,0.0610615234375,0.9602587890625,0.9717400427642566,-0.130859375,0.36328125,1.095703125,43.777058823529416,323.7274571072614
-0.1876005859375,0.0898701171875,1.0320361328125005,1.0527911460674282,-0.15185546875,-0.013671875,0.8076171875,42.788823529411765,323.048811706864
-0.1763701171875,0.1069599609375,1.1023486328125005,1.1214808780108882,-0.23046875,-0.28759765625,0.3837890625,42.60058823529412,323.048811706864
-0.1597685546875,0.1142841796875,1.1594775390625005,1.1759995868979756,-0.39697265625,-0.6298828125,0.08935546875,43.30647058823529,323.048811706864
-0.1832060546875,0.1333271484375,1.2483447265625005,1.268741558916172,-0.41552734375,-0.7275390625,0.02734375,43.16529411764706,323.048811706864
-0.2129912109375,0.1513935546875,1.2800830078125005,1.3064829777795948,-0.2333984375,-0.7236328125,-0.00048828125,42.60058823529412,323.048811706864
-0.2378935546875,0.1435810546875,1.2922900390625005,1.3218254074147568,-0.1162109375,-0.3349609375,-0.5556640625,43.353529411764704,322.75059772438186
-0.3111357421875,0.1601826171875,1.3460009765625005,1.3907489168871598,-0.09521484375,0.19775390625,-0.63134765625,43.447647058823534,322.75059772438186
-0.4131865234375,0.1611591796875,1.3806689453125005,1.4501524474682816,-0.00634765625,0.69482421875,-0.0712890625,42.69470588235294,322.75059772438186
-0.4654326171875,0.1577412109375,1.4241259765625005,1.506533971701312,0.0654296875,1.18017578125,0.4990234375,43.91823529411765,322.75059772438186
-0.4429716796875,0.1113544921875,1.4949267578125005,1.563147383697166,0.24951171875,1.70654296875,0.61767578125,43.447647058823534,322.86737387796023
-0.3902373046875,0.0439716796875,1.6365283203125005,1.682986513840547,0.05615234375,1.8369140625,0.486328125,43.30647058823529,322.86737387796023
-0.3106474609375,-0.0058330078124999,1.7688525390625005,1.7959329536246365,0.0087890625,1.31298828125,0.4619140625,42.60058823529412,322.86737387796023
-0.1944365234375,-0.0390361328125,1.7903369140625005,1.801287219508941,0.0859375,0.73486328125,0.54541015625,43.87117647058824,322.86737387796023
-0.0733427734375,-0.0575908203125,1.7454150390625005,1.747904323349914,0.30029296875,0.57080078125,0.4326171875,42.55352941176471,322.86737387796023
0.0648408203125,-0.0790751953125,1.6589892578125005,1.6621379533690273,0.158203125,0.638671875,-0.0615234375,43.777058823529416,322.50602129710217
0.2401337890625,-0.1030009765625,1.4597705078125005,1.482971130299409,-0.01611328125,0.84228515625,-0.607421875,44.01235294117648,322.50602129710217
0.3617158203125,-0.0883525390625,1.3113330078125005,1.3631723160340787,-0.04248046875,1.34521484375,-1.20703125,43.447647058823534,322.50602129710217
0.3758759765625,-0.1557353515625,1.2322314453125005,1.2976635096588185,-0.21484375,1.49755859375,-1.6767578125,43.353529411764704,322.50602129710217
0.3875947265625,-0.2431376953125,1.1472705078125005,1.235141784993644,-0.369140625,1.2197265625,-2.16943359375,43.87117647058824,323.62320745609856
0.3905244140625,-0.2875712890625,1.0789111328125005,1.1829014315566109,-0.41796875,0.85107421875,-2.58056640625,42.60058823529412,323.62320745609856
0.3441376953125,-0.3119853515625,1.0549853515625005,1.152718397934217,-0.37109375,0.513671875,-2.82568359375,42.60058823529412,323.62320745609856
0.2855439453125,-0.3407939453125,1.0642626953125005,1.15339973231318,-0.43017578125,0.087890625,-3.0361328125,42.69470588235294,323.62320745609856
0.2528291015625,-0.3515361328125,1.0574267578125005,1.1426511083473927,-0.5048828125,-0.462890625,-3.2724609375,42.60058823529412,323.62320745609856
0.1703095703125,-0.3154033203125,1.0378955078125005,1.0980490377672327,-0.51416015625,-0.68896484375,-3.12841796875,43.25941176470588,324.27182377985366
0.0267548828125,-0.2616923828125,1.0325244140625005,1.0655071058474948,-0.6220703125,-0.82470703125,-1.97265625,43.447647058823534,324.27182377985366
-0.0689482421875,-0.1313212890625,1.0735400390625005,1.0837376788375024,-0.5517578125,-0.51171875,-0.541015625,43.30647058823529,324.27182377985366
-0.1578154296875,-0.0531962890625,1.1345751953125005,1.1467329370153585,-0.3759765625,0.0419921875,0.6416015625,43.87117647058824,324.27182377985366
-0.1045927734375,0.0073505859375,1.0603564453125005,1.0655277896351338,0.00390625,0.3896484375,2.083984375,43.447647058823534,323.51745064429105
-0.0381865234375,0.1069599609375,1.0115283203125005,1.017884171509815,0.12451171875,0.3544921875,2.17041015625,43.87117647058824,323.51745064429105
-0.0347685546875,0.0786396484375,0.9207080078125,0.924714162512662,0.32080078125,0.52880859375,2.08203125,43.54176470588236,323.51745064429105
-0.0455107421875,0.0346943359375,0.8528369140625001,0.8547547757036805,0.2021484375,0.61376953125,2.30322265625,44.01235294117648,323.51745064429105
-0.0826201171875,0.0493427734375,0.7991259765625001,0.8048994468078295,0.12060546875,0.55078125,2.63232421875,43.447647058823534,323.51745064429105
-0.0948271484375,0.0537373046875,0.7429736328125001,0.7509258985082806,0.11279296875,0.4501953125,2.81591796875,43.30647058823529,323.39915584992
-0.0845732421875,0.0346943359375,0.6980517578125001,0.7040117803171839,0.1923828125,0.43701171875,2.78662109375,43.30647058823529,323.39915584992
-0.0962919921875,0.0288349609375,0.6399462890625001,0.6477922935760887,0.21875,0.34228515625,2.8984375,42.69470588235294,323.39915584992
-0.0508818359375,0.0205341796875,0.6008837890625001,0.6033837433357948,0.35009765625,0.482421875,2.677734375,43.25941176470588,323.39915584992
-0.0357451171875,0.0014912109375,0.5671923828125001,0.5683195722771914,0.47119140625,0.64208984375,2.42578125,43.353529411764704,323.79362885774486
-0.0230498046875,-0.0209697265625,0.5217822265625001,0.5227118851573571,0.62353515625,0.6318359375,2.05908203125,43.447647058823534,323.79362885774486
-0.0079130859375,-0.0419658203125,0.4822314453125,0.4841186981017548,0.64404296875,0.56201171875,1.69482421875,43.25941176470588,323.79362885774486
-0.0098662109375,-0.0673564453125,0.4490283203125,0.4541592950563317,0.61865234375,0.48876953125,1.40087890625,42.55352941176471,323.79362885774486
0.0116181640625,-0.0683330078125,0.4309619140625,0.4365003471536993,0.58154296875,0.34716796875,1.0009765625,43.54176470588236,323.79362885774486
-0.0020537109374999,-0.0663798828125,0.4500048828125,0.4548789961362339,0.54150390625,0.35791015625,0.52392578125,43.447647058823534,323.940487883338
-0.0264677734375,-0.0854228515625,0.4485400390625,0.457368312459441,0.52587890625,0.30517578125,0.0546875,43.777058823529416,323.940487883338
-0.0591826171875,-0.1020244140625,0.4915087890625,0.5054626128287272,0.494140625,0.3408203125,-0.06689453125,43.353529411764704,323.940487883338
-0.0445341796875,-0.0898173828125,0.5100634765625001,0.5198222826493202,0.4560546875,0.2099609375,-0.22607421875,43.353529411764704,323.940487883338
-0.0748076171875,-0.0966533203125,0.5535205078125001,0.5668535935192703,0.45166015625,0.11767578125,-0.13427734375,42.69470588235294,323.50642191737603
-0.0792021484375,-0.0834697265625,0.5974658203125001,0.6084452169351181,0.50244140625,0.12353515625,-0.0498046875,43.353529411764704,323.50642191737603
-0.0889677734375,-0.0600322265625,0.6814501953125001,0.6898503472695525,0.4697265625,-0.09716796875,-0.5986328125,43.777058823529416,323.50642191737603
-0.1426787109375,-0.0517314453125,0.7551806640625001,0.7702799441519852,0.41796875,-0.22314453125,-1.146484375,43.447647058823534,323.50642191737603
-0.1827177734375,-0.0522197265625,0.8215869140625001,0.8432779742949306,0.43017578125,-0.3388671875,-1.43798828125,42.69470588235294,323.50642191737603
-0.1802763671875,-0.0483134765625,0.9285205078125,0.9470924421682714,0.38671875,-0.31005859375,-1.4609375,43.91823529411765,322.804228043717
-0.1338896484375,-0.0707744140625,1.0520556640625005,1.062900078055598,0.49951171875,-0.48779296875,-1.345703125,44.01235294117648,322.804228043717
-0.0918974609375,-0.0888408203125,1.1960986328125005,1.202908880213497,0.33203125,-0.78173828125,-1.37158203125,43.63588235294118,322.804228043717
-0.1065458984375,-0.1215556640625,1.3040087890625005,1.3139888621642797,0.3857421875,-1.00927734375,-1.42724609375,43.30647058823529,322.804228043717
-0.1607451171875,-0.1391337890625,1.3352587890625005,1.3520773786019666,0.3486328125,-0.8271484375,-1.44091796875,42.69470588235294,322.75059772438186
-0.2623076171875,-0.1401103515625,1.3547900390625005,1.3870444284854475,0.38232421875,-0.34033203125,-1.3154296875,43.91823529411765,322.75059772438186
-0.3477568359375,-0.1435283203125,1.3767626953125005,1.427238842968173,0.33984375,0.189453125,-0.88818359375,43.30647058823529,322.75059772438186
-0.4004912109375,-0.1689189453125,1.4211962890625005,1.486178223554865,0.35498046875,0.56787109375,-0.0771484375,44.01235294117648,322.75059772438186
-0.3951201171875,-0.1840556640625,1.4280322265625005,1.493074825513043,0.40673828125,0.79931640625,0.3623046875,42.69470588235294,322.75059772438186
-0.3541044921875,-0.1762431640625,1.4187548828125005,1.4728601636850798,0.3935546875,1.09423828125,0.26806640625,43.118235294117646,322.3341054921803
-0.3389677734375,-0.1449931640625,1.4573291015625005,1.5032399273951569,0.4140625,1.45458984375,0.126953125,42.88294117647059,322.3341054921803
-0.3257841796875,-0.1171611328125,1.4719775390625005,1.5121441526127923,0.5546875,1.74267578125,-0.01416015625,43.118235294117646,322.3341054921803
-0.2383818359375,-0.0976298828125,1.7014697265625005,1.7208592981797162,0.44384765625,1.44775390625,-0.6083984375,43.353529411764704,322.3341054921803
-0.1465849609375,-0.0595439453125,1.7190478515625005,1.7263134559395852,0.158203125,0.85302734375,-1.5390625,44.01235294117648,321.7567461484137
-0.0992216796875,-0.0175517578125,1.6677783203125005,1.6708194192152253,-0.02587890625,0.3505859375,-1.96826171875,43.353529411764704,321.7567461484137
-0.0420927734375,0.0381123046875,1.5676806640625005,1.5687087090405585,-0.1357421875,0.3515625,-1.5556640625,42.69470588235294,321.7567461484137
0.1737275390625,0.0844990234375,1.4338916015625005,1.4468470782436116,-0.17919921875,0.673828125,-0.828125,42.74176470588235,321.7567461484137
0.3509736328125,0.1362568359375,1.3303759765625005,1.3826238300000215,-0.13818359375,0.91162109375,0.072265625,43.447647058823534,321.7567461484137
0.4334931640625,0.1894794921875,1.2122119140625005,1.3012595920275174,0.048828125,0.99169921875,1.30029296875,42.69470588235294,323.4638175151563
0.4725556640625,0.2329365234375,1.1433642578125005,1.2589082991353375,0.23046875,0.8505859375,2.14453125,43.353529411764704,323.4638175151563
0.4740205078125,0.2387958984375,1.0906298828125005,1.2129272295653195,0.37939453125,0.28466796875,2.376953125,43.353529411764704,323.4638175151563
0.3954072265625,0.2431904296875,1.0466845703125005,1.145005261839308,0.40625,-0.43115234375,2.39794921875,43.02411764705882,323.4638175151563
0.2547822265625,0.2636982421875,1.0427783203125005,1.105367527666107,0.32861328125,-1.00634765625,2.11474609375,42.60058823529412,324.6141965335649
0.1385712890625,0.2817646484375,1.0691455078125005,1.1143004245432198,0.2568359375,-1.119140625,1.4677734375,44.01235294117648,324.6141965335649
0.0394501953125,0.2612568359375,1.1086962890625005,1.1397451090551902,0.18408203125,-0.74658203125,0.38623046875,43.353529411764704,324.6141965335649
-0.0752958984375,0.2138935546875,1.2014697265625005,1.2226812458300544,0.400390625,-0.07470703125,-0.63525390625,43.87117647058824,324.6141965335649
-0.1558623046875,0.1933857421875,1.1404345703125005,1.167168416496851,0.77880859375,0.36181640625,-1.740234375,43.353529411764704,324.6141965335649
-0.2398466796875,-0.1088603515625,1.1218798828125005,1.1523851254501765,0.533203125,0.482421875,-1.1650390625,43.353529411764704,324.8162148581289
-0.1070341796875,-0.0258525390625,1.1702197265625005,1.1753888198521232,0.50390625,1.48681640625,-2.06396484375,43.447647058823534,324.8162148581289
-0.1421904296875,-0.2616923828125,1.0071337890625005,1.0502473473368972,0.15234375,0.8486328125,-1.2822265625,43.87117647058824,324.8162148581289
0.0321259765625,-0.2397197265625,0.8835986328125001,0.9161027068955824,-0.13671875,0.4580078125,-1.0341796875,42.69470588235294,324.8162148581289
0.0584931640625,-0.2094462890625,0.8489306640625001,0.8763403851413515,-0.04150390625,0.5712890625,-1.1337890625,42.60058823529412,323.8898692495613
0.0814423828125,-0.0932353515625,0.8323291015625001,0.8414852499045954,-0.029296875,0.7822265625,-1.80908203125,43.49470588235295,323.8898692495613
-0.0015654296874999,-0.0512431640625,0.7791064453125001,0.7807913713411044,-0.07177734375,0.8291015625,-2.74658203125,43.25941176470588,323.8898692495613
-0.0655302734375,-0.0741923828125,0.7214892578125001,0.7282482238516084,-0.3720703125,0.8447265625,-2.92138671875,42.69470588235294,323.8898692495613
-0.0679716796875,-0.0361064453125,0.6907275390625001,0.6950024157166521,-0.5068359375,0.9296875,-2.8408203125,43.16529411764706,323.8898692495613
-0.1080107421875,-0.0370830078125,0.6233447265625001,0.6337192738347118,-0.50048828125,1.10546875,-2.46484375,43.353529411764704,323.5490264909738
-0.1099638671875,-0.0439189453125,0.5715869140625001,0.5837229875306303,-0.765625,1.2607421875,-2.02099609375,43.353529411764704,323.5490264909738
-0.1187529296875,-0.0600322265625,0.5212939453125001,0.538008832599324,-0.81787109375,1.29052734375,-1.55810546875,43.447647058823534,323.5490264909738
-0.1109404296875,-0.0551494140625,0.4768603515625,0.4926916192741615,-0.90283203125,1.30517578125,-1.08935546875,43.30647058823529,323.5490264909738
-0.0792021484375,-0.0375712890625,0.4670947265625,0.4752494772868565,-0.85791015625,1.17041015625,-0.857421875,43.447647058823534,323.8141773419204
-0.0474638671875,-0.0155986328124999,0.4539111328125,0.4566524417159497,-0.7568359375,0.982421875,-0.60302734375,43.447647058823534,323.8141773419204
-0.0054716796875,0.0161396484375,0.4338916015625,0.4342261501070151,-0.693359375,0.6064453125,-0.2802734375,43.25941176470588,323.8141773419204
-0.0123076171875,0.0205341796875,0.4617236328125,0.4623438580470654,-0.498046875,0.388671875,0.13916015625,43.447647058823534,323.8141773419204
-0.0132841796875,-0.0112041015624999,0.4656298828125,0.4659540632828252,-0.50927734375,0.04931640625,0.91650390625,43.54176470588236,323.8141773419204
-0.0127958984375,-0.0009501953124999,0.5042041015625001,0.5043673402594607,-0.47021484375,-0.20947265625,1.28759765625,43.25941176470588,323.5790928105844
-0.0391630859375,0.0107685546875,0.5413134765625001,0.542835139778539,-0.40673828125,-0.4365234375,1.39111328125,43.353529411764704,323.5790928105844
-0.0743193359375,0.0024677734375,0.5935595703125001,0.598199312194096,-0.34619140625,-0.54833984375,1.521484375,43.447647058823534,323.5790928105844
-0.1133818359375,-0.0185283203125,0.6580126953125001,0.6679666507892305,-0.322265625,-0.5732421875,1.64990234375,44.01235294117648,323.5790928105844
-0.1792998046875,-0.0317119140625,0.7273486328125001,0.7497933709420856,-0.328125,-0.45947265625,1.6474609375,43.49470588235295,324.0081676911275
-0.2378935546875,-0.0380595703125,0.8181689453125001,0.8529022788854509,-0.36181640625,-0.19287109375,1.7412109375,42.60058823529412,324.0081676911275
-0.2564482421875,-0.0131572265624999,0.9172900390625,0.952554370781615,-0.431640625,-0.06103515625,1.8349609375,42.55352941176471,324.0081676911275
-0.2476591796875,0.0332294921875,1.0032275390625005,1.0338785052257953,-0.44580078125,-0.10400390625,1.69921875,43.353529411764704,324.0081676911275
-0.2437529296875,0.0537373046875,1.1091845703125005,1.1369228644308471,-0.3310546875,-0.1826171875,1.52294921875,43.25941176470588,324.0081676911275
-0.2042021484375,0.0473896484375,1.1458056640625005,1.1648239849879585,-0.3427734375,-0.3583984375,1.40576171875,43.353529411764704,323.0472993420811
-0.1993193359375,0.0820576171875,1.2205126953125005,1.239400213666288,-0.283203125,-0.3408203125,1.263671875,42.55352941176471,323.0472993420811
-0.2232451171875,0.1396748046875,1.2698291015625005,1.2968474777658237,-0.1650390625,-0.19775390625,0.9287109375,43.353529411764704,323.0472993420811
-0.2754912109375,0.1709248046875,1.3279345703125005,1.3669385206337243,-0.10986328125,0.19775390625,0.7763671875,42.69470588235294,323.0472993420811
-0.3370146484375,0.1919208984375,1.3914111328125005,1.4444505685668425,-0.083984375,0.53515625,0.95556640625,43.30647058823529,322.5581358182156
-0.4043974609375,0.1870380859375,1.4236376953125005,1.4917321607844178,0.0380859375,0.73193359375,1.2431640625,43.02411764705882,322.5581358182156
-0.4590849609375,0.1299091796875,1.4592822265625005,1.5352980209351126,0.2197265625,0.9423828125,1.58837890625,43.777058823529416,322.5581358182156
-0.4537138671875,0.0576435546875,1.4949267578125005,1.5633250026462957,0.23828125,1.40673828125,1.7138671875,42.93,322.5581358182156
-0.3975615234375,2.6367187500001e-05,1.5837939453125005,1.6329294004401138,0.2314453125,1.6708984375,1.79541015625,43.447647058823534,322.5581358182156
-0.2886748046875,-0.0190166015625,1.6277392578125005,1.6532482770051034,0.255859375,1.43310546875,1.8447265625,43.25941176470588,322.29453797025207
-0.1387724609375,-0.0380595703125,1.5608447265625005,1.5674637435184868,0.3203125,1.04931640625,1.4755859375,43.54176470588236,322.29453797025207
-0.0835966796875,-0.0551494140625,1.4841845703125005,1.4875596463604115,0.32275390625,1.1455078125,0.814453125,43.447647058823534,322.29453797025207
-0.0127958984375,-0.0488017578125,1.4627001953125005,1.463570021539673,0.27734375,1.283203125,0.3935546875,43.447647058823534,322.29453797025207
0.1078095703125,-0.0405009765625,1.3923876953125005,1.397142343002723,0.26025390625,1.2099609375,0.24365234375,43.447647058823534,323.18613721040185
0.2840791015625,-0.0497783203125,1.2268603515625005,1.2603035901534807,0.27685546875,1.1142578125,-0.01318359375,43.30647058823529,323.18613721040185
0.4442353515625,-0.1332744140625,1.1121142578125005,1.2049503058016164,0.15234375,0.9619140625,-0.712890625,43.447647058823534,323.18613721040185
0.5008759765625,-0.2148173828125,1.0837939453125005,1.2131086380666347,0.19677734375,0.35498046875,-1.35205078125,43.30647058823529,323.18613721040185
0.4681611328125,-0.3178447265625,1.0452197265625005,1.1885640047028438,0.05712890625,-0.36962890625,-2.193359375,43.16529411764706,323.18613721040185
0.3402314453125,-0.3754619140625,1.0081103515625005,1.1282799148342475,-0.017578125,-0.7412109375,-2.40283203125,42.69470588235294,324.53850199717846
0.2430634765625,-0.4028056640625,1.0613330078125005,1.16093066550583,-0.1689453125,-1.19189453125,-2.09765625,42.788823529411765,324.53850199717846
0.2249970703125,-0.4467509765625,1.1365283203125005,1.2417353742167083,-0.05908203125,-2.0537109375,-2.0263671875,44.01235294117648,324.53850199717846
0.0702119140625,-0.4609111328125,1.1560595703125005,1.2465321958689817,-0.13671875,-2.4140625,-0.970703125,44.01235294117648,324.53850199717846
-0.0992216796875,-0.3212626953125,1.2434619140625005,1.2881196345229111,-0.24951171875,-1.90771484375,0.79443359375,42.69470588235294,324.7956622412633
-0.1451201171875,-0.1454814453125,1.2268603515625005,1.2439497665013606,-0.3779296875,-1.47607421875,2.19677734375,42.69470588235294,324.7956622412633
-0.0611357421875,0.0747333984375,1.2009814453125005,1.204856461077309,-0.5224609375,-1.03955078125,2.037109375,44.01235294117648,324.7956622412633
-0.1216826171875,0.1782490234375,1.2737353515625005,1.2918905214847225,-0.560546875,-0.51513671875,1.20849609375,43.777058823529416,324.7956622412633
-0.1441435546875,0.1933857421875,1.1726611328125005,1.197209063634441,-0.10302734375,-0.52001953125,1.125,43.63588235294118,324.7956622412633
-0.1763701171875,0.1440693359375,1.0745166015625005,1.098384413048378,0.15234375,-0.35009765625,2.69970703125,43.25941176470588,323.55703557142573
-0.0928740234375,0.1611591796875,0.9885791015625,1.0059256958012042,0.22021484375,-0.1142578125,3.61474609375,42.60058823529412,323.55703557142573
-0.0293974609375,0.1103779296875,0.8962939453125001,0.9035432111833488,0.28125,-0.0693359375,3.42138671875,43.54176470588236,323.55703557142573
0.0028291015625,0.0390888671875,0.8152392578125001,0.816180734171255,0.41162109375,-0.09619140625,2.8896484375,43.353529411764704,323.55703557142573
-0.0040068359375,0.0083271484375,0.7419970703125001,0.7420546128740548,0.453125,-0.17529296875,2.42236328125,43.353529411764704,323.50642191737603
-0.0103544921875,0.0078388671875,0.6785205078125001,0.6786447840139768,0.6357421875,-0.29345703125,1.82958984375,44.01235294117648,323.50642191737603
-0.0547880859375,-0.0126689453124999,0.6091845703125001,0.6117745313780653,0.75048828125,-0.17236328125,1.5224609375,43.49470588235295,323.50642191737603
-0.0582060546875,-0.0038798828124999,0.5618212890625001,0.5648417115765905,0.8974609375,-0.00244140625,1.27099609375,43.25941176470588,323.50642191737603
-0.0752958984375,-0.0546611328125,0.5081103515625001,0.5165592329315424,0.90234375,0.10546875,1.08154296875,43.447647058823534,323.50642191737603
-0.1016630859375,-0.0912822265625,0.4719775390625,0.4913559049284305,0.7607421875,0.1728515625,1.01611328125,43.87117647058824,323.89938943622366
-0.1031279296875,-0.1073955078125,0.4524462890625,0.4763158715247289,0.68212890625,0.21337890625,0.9716796875,42.55352941176471,323.89938943622366
-0.1094755859375,-0.1093486328125,0.4480517578125,0.4740173046347497,0.564453125,0.2451171875,0.73291015625,43.49470588235295,323.89938943622366
-0.0977568359375,-0.1235087890625,0.4392626953125,0.4666503353062105,0.38037109375,0.357421875,0.41748046875,42.69470588235294,323.89938943622366
-0.0660185546875,-0.1078837890625,0.4656298828125,0.482502382660947,0.25537109375,0.42236328125,0.146484375,43.16529411764706,324.0051516800733
-0.0582060546875,-0.0971416015625,0.5178759765625001,0.5301131602374863,0.1875,0.603515625,-0.22705078125,43.68294117647059,324.0051516800733
-0.0557646484375,-0.0624736328125,0.5618212890625001,0.5680280025280429,0.083984375,0.65185546875,-0.86083984375,43.777058823529416,324.0051516800733
-0.0713896484375,-0.0575908203125,0.5842822265625001,0.5914379973971314,0.0419921875,0.572265625,-1.22998046875,43.49470588235295,324.0051516800733
