AccX,AccY,AccZ,Magnitude,GyroX,GyroY,GyroZ,Temperature,Altitude
0.0086884765625,0.1860615234375,0.9880908203125,1.0054938335537864,-0.501953125,-0.94091796875,0.583984375,45.94176470588236,396.14119239870814
0.1175751953125,0.2182880859375,0.9666064453125,0.99789860964664,-0.5625,-0.05712890625,0.48046875,46.08294117647059,396.14119239870814
0.1830048828125,0.2304951171875,0.9607470703125,1.0048152662527317,-0.46826171875,0.78759765625,0.162109375,46.08294117647059,396.14119239870814
0.2005830078125,0.1992451171875,0.9700244140625,1.0103858290888024,-0.37451171875,1.14013671875,-0.005859375,46.03588235294118,396.14119239870814
0.1649384765625,0.1367451171875,0.9631884765625,0.9867299374743684,0.07177734375,0.8193359375,0.15185546875,46.08294117647059,396.25682618848384
0.1024384765625,0.0718037109375,0.9680712890625,0.9761206047881442,0.28271484375,0.609375,0.5341796875,46.08294117647059,396.25682618848384
0.0843720703125,0.0127216796875,0.9587939453125,0.9625831480712708,0.29248046875,0.38818359375,0.82470703125,45.94176470588236,396.25682618848384
0.0848603515625,-0.0258525390625,0.9539111328125,0.9580271824676564,0.0771484375,0.37841796875,0.67724609375,45.89470588235295,396.25682618848384
0.0785126953125,-0.0380595703125,0.9578173828125,0.9617831944026642,-0.0927734375,0.689453125,0.3095703125,45.89470588235295,396.62279131061166
0.0555634765625,-0.0361064453125,0.9099658203125,0.9123753446130696,-0.41943359375,1.25537109375,0.21728515625,45.89470588235295,396.62279131061166
0.0575166015625,-0.0214580078125,0.8713916015625001,0.8735513315359548,-0.69091796875,1.8876953125,0.3837890625,46.08294117647059,396.62279131061166
0.0697236328125,-0.0082744140624999,0.8245166015625001,0.827500741481737,-0.84423828125,1.95263671875,0.3759765625,46.224117647058826,396.62279131061166
0.0775361328125,0.0210224609375,0.7927783203125001,0.7968382903154788,-0.9306640625,1.86083984375,0.4990234375,46.13,396.62279131061166
0.0731416015625,0.0517841796875,0.7625048828125001,0.7677532099952036,-0.93359375,1.6689453125,0.4814453125,46.83588235294118,395.6807439044605
0.0711884765625,0.0674091796875,0.7273486328125001,0.73392631125723,-0.74072265625,1.51171875,0.3720703125,46.224117647058826,395.6807439044605
0.0760712890625,0.0825458984375,0.7000048828125001,0.7089481661798882,-0.65576171875,1.37939453125,0.19580078125,46.506470588235295,395.6807439044605
0.0623994140625,0.0996357421875,0.6829150390625001,0.6929602575720581,-0.501953125,1.03466796875,0.0849609375,46.08294117647059,395.6807439044605
0.0374970703125,0.1142841796875,0.6853564453125001,0.6958306986187454,-0.36572265625,0.80224609375,0.09033203125,46.03588235294118,395.51886757016615
0.0125947265625,0.1167255859375,0.6946337890625001,0.7044853372902538,-0.24267578125,0.57275390625,0.16845703125,46.08294117647059,395.51886757016615
-0.0054716796875,0.1255146484375,0.7249072265625001,0.7357134995183435,-0.1875,0.56689453125,0.21142578125,45.89470588235295,395.51886757016615
-0.0225615234375,0.1274677734375,0.7551806640625001,0.766195073710875,-0.10595703125,0.73974609375,0.2607421875,46.97705882352941,395.51886757016615
-0.0308623046875,0.1230732421875,0.7800830078125001,0.7903347416575867,-0.0302734375,1.03515625,0.310546875,46.08294117647059,395.51886757016615
-0.0376982421875,0.1235615234375,0.7932666015625001,0.8037166843438934,0.00146484375,1.4189453125,0.33642578125,46.08294117647059,395.3991820102513
-0.0445341796875,0.1094013671875,0.8020556640625001,0.8107066303896069,0.04296875,1.7021484375,0.3671875,45.65941176470588,395.3991820102513
-0.0181669921875,0.1045185546875,0.8103564453125001,0.8172709075567388,0.19482421875,1.7353515625,0.40234375,45.94176470588236,395.3991820102513
-0.0074248046875,0.0962177734375,0.7961962890625001,0.8020233901619165,0.26513671875,1.51513671875,0.34716796875,46.08294117647059,395.3991820102513
-0.0127958984375,0.0981708984375,0.8118212890625001,0.8178355982053778,0.3095703125,1.265625,0.466796875,46.13,395.1399839086681
-0.0191435546875,0.0908466796875,0.8381884765625001,0.8433146015209751,0.31103515625,0.810546875,0.603515625,46.08294117647059,395.1399839086681
-0.0357451171875,0.1123310546875,0.8845751953125001,0.8923952349783709,0.341796875,0.30126953125,0.73681640625,45.89470588235295,395.1399839086681
-0.0611357421875,0.1216083984375,0.9216845703125,0.9316805400433604,0.31298828125,0.0244140625,0.80224609375,46.224117647058826,395.1399839086681
-0.0674833984375,0.1201435546875,0.9504931640625,0.960429975441815,0.33056640625,-0.14697265625,0.83349609375,46.03588235294118,395.1399839086681
-0.0752958984375,0.1225849609375,0.9724658203125,0.9830494985735064,0.318359375,-0.21728515625,0.7861328125,46.03588235294118,395.04215271065897
-0.1026396484375,0.1191669921875,0.9832080078125,0.9957076157612808,0.34521484375,-0.37109375,0.8076171875,46.08294117647059,395.04215271065897
-0.1192412109375,0.1152607421875,0.9846728515625,0.9985410005000696,0.296875,-0.41064453125,0.85888671875,46.13,395.04215271065897
-0.1241240234375,0.1186787109375,0.9993212890625,1.013969648657018,0.26953125,-0.4580078125,0.8603515625,46.08294117647059,395.04215271065897
-0.1373076171875,0.1230732421875,0.9949267578125,1.0118693878616674,0.24072265625,-0.48779296875,0.8828125,46.13,394.95575505457856
-0.1456083984375,0.1245380859375,1.0007861328125005,1.0189624253005158,0.19921875,-0.4892578125,0.9345703125,46.03588235294118,394.95575505457856
-0.1485380859375,0.1181904296875,0.9983447265625,1.0162306498521116,0.15283203125,-0.47412109375,0.912109375,46.03588235294118,394.95575505457856
-0.1500029296875,0.1172138671875,0.9871142578125,1.005303201801628,0.12255859375,-0.4169921875,0.83154296875,45.84764705882353,394.95575505457856
-0.1563505859375,0.1108662109375,0.9924853515625,1.010823424499441,0.09375,-0.33935546875,0.72802734375,45.61235294117647,394.95575505457856
-0.1656279296875,0.1094013671875,1.0012744140625005,1.0207603648708472,0.03955078125,-0.22509765625,0.64501953125,46.08294117647059,395.1061925165364
-0.1631865234375,0.1035419921875,0.9998095703125,1.0183172209416085,-0.0517578125,0.05322265625,0.5390625,46.03588235294118,395.1061925165364
-0.1573271484375,0.0971943359375,1.0183642578125005,1.0350190008709073,-0.18505859375,0.60400390625,0.39111328125,45.94176470588236,395.1061925165364
-0.1500029296875,0.0898701171875,0.9998095703125,1.0149860559468755,-0.1806640625,0.98095703125,0.3134765625,45.61235294117647,395.1061925165364
-0.1382841796875,0.0815693359375,0.9871142578125,1.0000853108079593,-0.23583984375,1.13134765625,0.2568359375,45.84764705882353,395.117118815755
-0.1299833984375,0.0776630859375,0.9612353515625,0.9730881973799602,-0.22509765625,0.88671875,0.27001953125,46.27117647058824,395.117118815755
-0.1290068359375,0.0761982421875,0.9583056640625,0.96994777261734,-0.306640625,0.59912109375,0.29296875,46.03588235294118,395.117118815755
-0.1407255859375,0.0854755859375,0.9793017578125,0.9930466752290468,-0.3916015625,0.43798828125,0.3203125,46.08294117647059,395.117118815755
-0.1607451171875,0.0971943359375,1.0027392578125005,1.0201822145069568,-0.427734375,0.46826171875,0.2841796875,45.70647058823529,395.117118815755
-0.1783232421875,0.0967060546875,1.0168994140625005,1.0369357058362587,-0.45947265625,0.41259765625,0.2763671875,46.27117647058824,394.6205895594276
-0.1724638671875,0.0986591796875,1.0315478515625005,1.0505086336080671,-0.533203125,0.36572265625,0.21728515625,45.84764705882353,394.6205895594276
-0.1734404296875,0.0996357421875,1.0486376953125005,1.0675438538073043,-0.67041015625,0.36279296875,0.2353515625,46.224117647058826,394.6205895594276
-0.1763701171875,0.1103779296875,1.0647509765625005,1.0848890946496004,-0.6943359375,0.3408203125,0.265625,46.27117647058824,394.6205895594276
-0.1587919921875,0.1240498046875,1.0784228515625005,1.0970866408803257,-0.56640625,0.5556640625,0.22412109375,46.13,394.55452382631626
-0.1768583984375,0.1426044921875,1.0974658203125005,1.1207346523794657,-0.51806640625,0.220703125,0.08935546875,46.08294117647059,394.55452382631626
-0.1480498046875,0.1694599609375,1.1292041015625005,1.1514066727331915,-0.4560546875,-0.35205078125,0.33837890625,46.224117647058826,394.55452382631626
-0.1280302734375,0.2202412109375,1.1692431640625005,1.196673522151545,-0.43017578125,-0.2041015625,0.6962890625,46.03588235294118,394.55452382631626
-0.0704130859375,0.2695576171875,1.2341845703125005,1.2652394497692898,-0.3095703125,-0.20361328125,0.98193359375,46.08294117647059,394.55452382631626
0.0101533203125,0.2739521484375,1.2932666015625005,1.3220027882965713,-0.1904296875,-0.43359375,1.2841796875,46.03588235294118,394.6200816120208
0.0838837890625,0.2304951171875,1.3318408203125005,1.3542394395990078,-0.103515625,-0.6171875,1.52587890625,46.03588235294118,394.6200816120208
0.1317353515625,0.1455341796875,1.3684619140625005,1.3824696779850945,0.00634765625,-0.671875,1.4697265625,45.94176470588236,394.6200816120208
0.1449189453125,0.0283466796875,1.4226611328125005,1.4303040703903276,0.02685546875,-0.7041015625,1.1298828125,45.89470588235295,394.6200816120208
0.1483369140625,-0.0522197265625,1.4968798828125005,1.5051179766000446,0.021484375,-0.50439453125,0.5634765625,46.03588235294118,395.1061925165364
0.1585908203125,-0.1308330078125,1.4656298828125005,1.4799794855381072,-0.05029296875,-0.359375,-0.05029296875,46.224117647058826,395.1061925165364
0.1356416015625,-0.1659892578125,1.3923876953125005,1.4087918837930749,-0.251953125,0.00927734375,-0.6572265625,46.224117647058826,395.1061925165364
0.0843720703125,-0.1215556640625,1.3342822265625005,1.342461726022413,-0.6640625,0.85546875,-1.1650390625,46.27117647058824,395.1061925165364
0.0594697265625,-0.0795634765625,1.2629931640625005,1.266893337123823,-0.8681640625,1.7255859375,-1.2138671875,46.27117647058824,395.1061925165364
0.0443330078125,-0.0712626953125,1.1692431640625005,1.172251408202094,-0.86328125,2.4765625,-0.76611328125,46.13,395.1598132236696
0.1107392578125,-0.0531962890625,1.0383837890625005,1.045626090808124,-0.828125,2.8212890625,-0.33447265625,46.03588235294118,395.1598132236696
0.1302705078125,-0.0610087890625,1.0032275390625005,1.0134880229593242,-0.70947265625,3.06494140625,-0.12158203125,46.08294117647059,395.1598132236696
0.1825166015625,-0.0463603515625,0.9895556640625,1.0073142530119876,-0.57470703125,2.939453125,-0.11669921875,46.13,395.1598132236696
0.1644501953125,-0.0658916015625,0.9861376953125,1.0019247097517057,-0.23046875,2.7578125,-0.00390625,45.94176470588236,396.30442377125433
0.2298798828125,-0.0785869140625,0.9275439453125,0.9588318069764028,-0.126953125,2.171875,0.17431640625,46.03588235294118,396.30442377125433
0.1825166015625,-0.0424541015625,0.9841845703125,1.0018652249811868,-0.03515625,1.38037109375,0.43115234375,45.65941176470588,396.30442377125433
0.1229462890625,-0.0238994140625,1.0242236328125005,1.0318531978912533,0.14111328125,0.91015625,0.818359375,46.13,396.30442377125433
0.1063447265625,0.0136982421875,1.0305712890625005,1.0361341730425766,0.2578125,0.509765625,0.89208984375,46.03588235294118,396.30442377125433
0.0775361328125,0.0210224609375,1.0335009765625005,1.036618572239099,0.33447265625,0.27099609375,0.71240234375,46.08294117647059,397.1794794350645
0.0233369140625,0.0317646484375,1.0569384765625005,1.0576731762158749,0.27685546875,0.46337890625,0.61181640625,46.08294117647059,397.1794794350645
0.0038056640625,0.0219990234375,1.0325244140625005,1.032765755506189,0.25244140625,0.59716796875,0.49169921875,46.788823529411765,397.1794794350645
0.0189423828125,0.0249287109375,1.0203173828125005,1.0207976372254055,0.30029296875,0.52294921875,0.38037109375,46.03588235294118,397.1794794350645
0.0223603515625,0.0107685546875,1.0042041015625005,1.0045107389605177,0.32421875,0.474609375,0.19482421875,46.08294117647059,396.9093071428306
0.0311494140625,0.0156513671875,0.9900439453125,0.9906574912356014,0.33447265625,0.51123046875,0.009765625,46.13,396.9093071428306
0.0057587890625,0.0112568359375,0.9358447265625,0.9359301428213704,0.33544921875,0.48974609375,-0.0791015625,46.69470588235294,396.9093071428306
-0.0186552734375,0.0024677734375,0.8997119140625001,0.8999086828333052,0.2734375,0.40283203125,-0.12255859375,46.08294117647059,396.9093071428306
-0.0474638671875,-0.0038798828124999,0.8601611328125001,0.8614784074951123,0.20556640625,0.40869140625,-0.1083984375,46.08294117647059,396.9093071428306
-0.0621123046875,-0.0014384765624999,0.8191455078125001,0.8214982474587589,0.1630859375,0.4462890625,-0.1201171875,46.08294117647059,396.5954372501333
-0.0709013671875,-0.0146220703124999,0.7869189453125001,0.7902418840462823,0.17626953125,0.369140625,-0.07177734375,46.224117647058826,396.5954372501333
-0.0586943359375,-0.0082744140624999,0.7664111328125001,0.7686998864954785,0.255859375,0.3369140625,-0.07958984375,46.03588235294118,396.5954372501333
-0.0499052734375,-0.0185283203125,0.7419970703125001,0.7439042191860505,0.33544921875,0.212890625,-0.05517578125,46.788823529411765,396.5954372501333
-0.0503935546875,-0.0199931640625,0.7136767578125001,0.7157330169868049,0.47509765625,0.0107421875,0.04296875,46.83588235294118,396.413185172186
-0.0459990234375,-0.0136455078124999,0.6834033203125001,0.6850855481287094,0.5419921875,-0.29345703125,0.19677734375,46.08294117647059,396.413185172186
-0.0342802734375,-0.0063212890624999,0.6995166015625001,0.700384588425467,0.61572265625,-0.388671875,0.1298828125,46.224117647058826,396.413185172186
-0.0621123046875,-0.0219462890625,0.6912158203125001,0.6943478150376006,0.63037109375,-0.51806640625,0.12939453125,46.08294117647059,396.413185172186
-0.0743193359375,-0.0253642578125,0.7043994140625001,0.7087631789252058,0.6396484375,-0.44189453125,0.21240234375,45.70647058823529,396.413185172186
-0.0713896484375,-0.0121806640624999,0.7024462890625001,0.7061696959645823,0.623046875,-0.36376953125,0.19775390625,46.13,396.3252774983982
-0.0660185546875,-0.0004619140624999,0.7146533203125001,0.7176963363159299,0.58935546875,-0.1962890625,0.03515625,46.224117647058826,396.3252774983982
-0.0669951171875,0.0083271484375,0.7395556640625001,0.7426306399381811,0.513671875,0.08154296875,-0.2451171875,45.94176470588236,396.3252774983982
-0.0630888671875,0.0068623046875,0.7429736328125001,0.7456789627200366,0.51806640625,0.25341796875,-0.45947265625,46.27117647058824,396.3252774983982
-0.0679716796875,-0.0004619140624999,0.7468798828125001,0.7499666138930152,0.4423828125,0.23583984375,-0.6025390625,46.08294117647059,396.3684826915092
-0.0811552734375,0.0073505859375,0.7610400390625001,0.7653901949833115,0.3984375,0.08447265625,-0.66650390625,46.03588235294118,396.3684826915092
-0.0933623046875,0.0097919921875,0.7698291015625001,0.7755315910136013,0.39111328125,-0.19775390625,-0.68603515625,46.08294117647059,396.3684826915092
-0.1050810546875,0.0117451171875,0.7966845703125001,0.8036705048749757,0.31103515625,-0.3701171875,-0.73779296875,46.224117647058826,396.3684826915092
-0.1143583984375,0.0161396484375,0.8372119140625001,0.8451402963964451,0.27587890625,-0.41064453125,-0.7822265625,46.224117647058826,396.3684826915092
-0.1246123046875,0.0200458984375,0.8523486328125001,0.8616427661049764,0.2978515625,-0.6796875,-0.9091796875,45.61235294117647,395.9577903155174
-0.1519560546875,0.0215107421875,0.8840869140625001,0.8973087685976338,0.2705078125,-0.8369140625,-1.08544921875,46.13,395.9577903155174
-0.1749052734375,0.0151630859375,0.9016650390625,0.9185976358117706,0.32373046875,-1.15234375,-1.19580078125,46.27117647058824,395.9577903155174
-0.2076201171875,0.0024677734375,0.9324267578125,0.9552653357321308,0.2421875,-1.466796875,-1.044921875,46.224117647058826,395.9577903155174
-0.2022490234375,0.0029560546875,0.9788134765625,0.9994944860483752,0.17529296875,-1.4462890625,-0.826171875,46.08294117647059,395.8713832640808
-0.1724638671875,0.0205341796875,1.0066455078125005,1.0215187792790656,0.1875,-0.8916015625,-0.96337890625,46.08294117647059,395.8713832640808
-0.1646513671875,0.0161396484375,0.9475634765625,0.9618976572814858,0.2822265625,-0.75830078125,-1.19384765625,46.224117647058826,395.8713832640808
-0.2085966796875,-0.0068095703124999,0.9465869140625,0.9693223049630382,0.3095703125,-0.744140625,-1.25048828125,45.61235294117647,395.8713832640808
-0.2129912109375,0.0024677734375,0.9861376953125,1.0088800225788053,0.35986328125,-0.697265625,-1.06591796875,45.94176470588236,395.8713832640808
-0.1880888671875,0.0136982421875,0.9846728515625,1.00256954292614,0.416015625,-0.50146484375,-0.9775390625,46.03588235294118,396.0228460936801
-0.1670927734375,0.0210224609375,1.0027392578125005,1.0167831420500972,0.47265625,-0.2724609375,-0.90625,45.94176470588236,396.0228460936801
-0.1470732421875,0.0127216796875,1.0232470703125005,1.0338408710264502,0.611328125,-0.09912109375,-0.8095703125,46.03588235294118,396.0228460936801
-0.1397490234375,0.0068623046875,1.0359423828125005,1.0453485070944522,0.763671875,-0.0048828125,-0.7939453125,45.7535294117647,396.0228460936801
-0.1431669921875,-0.0014384765624999,1.0427783203125005,1.0525613911694631,0.751953125,-0.08642578125,-0.7880859375,46.27117647058824,396.25029307966776
-0.1524443359375,-0.0029033203124999,1.0413134765625005,1.0524169617119172,1.06591796875,-0.49609375,-0.7431640625,46.03588235294118,396.25029307966776
-0.1812529296875,-0.0087626953124999,1.0627978515625005,1.0781784094644578,0.97265625,-0.64306640625,-0.728515625,46.27117647058824,396.25029307966776
-0.1944365234375,0.0180927734375,1.1155322265625005,1.1324950589722729,1.07958984375,-0.748046875,-0.77490234375,46.08294117647059,396.25029307966776
-0.1817412109375,0.0302998046875,1.1633837890625005,1.1778836048483523,1.13525390625,-0.75244140625,-0.82080078125,46.08294117647059,396.25029307966776
-0.1763701171875,0.0288349609375,1.1892626953125005,1.2026153298835636,1.103515625,-0.71630859375,-0.951171875,46.27117647058824,395.7308480058592
-0.1734404296875,0.0195576171875,1.2390673828125005,1.2513001487213435,1.01611328125,-0.2529296875,-0.96240234375,46.224117647058826,395.7308480058592
-0.1548857421875,0.0219990234375,1.2795947265625005,1.2891222651136456,1.00244140625,-0.12451171875,-0.93212890625,46.03588235294118,395.7308480058592
-0.1329130859375,0.0205341796875,1.3103564453125005,1.3172401279648596,1.01806640625,-0.18310546875,-0.9599609375,46.08294117647059,395.7308480058592
-0.1075224609375,0.0039326171875,1.3259814453125005,1.3303395575555237,0.85693359375,-0.25830078125,-1.13232421875,46.03588235294118,395.61317089252697
-0.0464873046875,-0.0146220703124999,1.3435595703125005,1.3444430792769333,0.67138671875,-0.0673828125,-1.40625,45.94176470588236,395.61317089252697
0.0379853515625,-0.0258525390625,1.3806689453125005,1.3814333053968393,0.57958984375,-0.34765625,-1.63720703125,46.27117647058824,395.61317089252697
0.0667939453125,-0.0053447265624999,1.4441455078125005,1.4456992235480592,0.40625,-0.93017578125,-1.78466796875,46.224117647058826,395.61317089252697
0.0628876953125,0.0605732421875,1.5466845703125005,1.5491472299086315,0.3798828125,-1.29052734375,-1.74462890625,46.13,395.61317089252697
0.0760712890625,0.1401630859375,1.5725634765625005,1.5806291214252288,0.43115234375,-1.09423828125,-1.16357421875,46.224117647058826,394.9318784602563
0.1122041015625,0.2090107421875,1.5549853515625005,1.5729763807289574,0.40185546875,-0.63916015625,-0.79541015625,46.08294117647059,394.9318784602563
0.1229462890625,0.2505146484375,1.5286181640625005,1.5538812279507763,0.357421875,-0.255859375,-0.5322265625,46.224117647058826,394.9318784602563
0.1258759765625,0.2441669921875,1.4211962890625005,1.4475017007224813,0.38916015625,-0.1005859375,-0.365234375,46.224117647058826,394.9318784602563
0.1019501953125,0.1948505859375,1.2937548828125005,1.312311811257382,0.33935546875,0.2138671875,-0.18310546875,46.08294117647059,395.5913186175529
0.1610322265625,0.1284443359375,1.1589892578125005,1.1771514028156582,0.3095703125,0.34765625,-0.09375,46.224117647058826,395.5913186175529
0.2562470703125,0.0796162109375,1.0183642578125005,1.053122530229882,0.19921875,0.3837890625,-0.32177734375,46.03588235294118,395.5913186175529
0.3275361328125,0.0556904296875,0.9143603515625,0.972849523187448,0.0234375,0.0537109375,-0.7412109375,46.13,395.5913186175529
0.3148408203125,0.0630146484375,0.8840869140625001,0.9405877203479236,-0.0576171875,-0.29833984375,-1.04052734375,46.69470588235294,395.5913186175529
0.2420869140625,0.0903583984375,0.8494189453125001,0.887853174113994,-0.2021484375,-0.4853515625,-0.990234375,46.03588235294118,397.1789840369224
0.1703095703125,0.1391865234375,0.8752978515625001,0.9025101478634876,-0.4404296875,-0.26611328125,-0.861328125,45.94176470588236,397.1789840369224
0.1595673828125,0.1777607421875,0.8899462890625001,0.9214472467465497,-0.40673828125,-0.2021484375,-0.84326171875,46.03588235294118,397.1789840369224
0.1537080078125,0.1860615234375,0.9363330078125,0.9669356460948032,-0.19482421875,-0.13818359375,-0.76953125,46.224117647058826,397.1789840369224
0.1707978515625,0.1709248046875,0.9216845703125,0.9528324312847268,-0.01416015625,-0.103515625,-0.46337890625,46.08294117647059,397.373176745077
0.2308564453125,0.1152607421875,0.9514697265625,0.9858368919840924,0.0751953125,-0.0244140625,-0.41455078125,46.224117647058826,397.373176745077
0.1810517578125,0.0927998046875,0.9685595703125,0.9896965110582986,0.3857421875,-0.2236328125,-0.52587890625,45.94176470588236,397.373176745077
0.1024384765625,0.0869404296875,0.9631884765625,0.9725144323749044,0.4130859375,-0.33349609375,-0.4521484375,46.08294117647059,397.373176745077
0.0457978515625,0.0503193359375,0.9983447265625,1.0006606177081645,0.48828125,-0.24755859375,-0.21826171875,45.61235294117647,397.373176745077
0.0623994140625,0.0288349609375,0.9441455078125,0.9466445382349884,0.2685546875,0.0537109375,0.0966796875,46.03588235294118,397.1566374193756
0.1082978515625,0.0517841796875,0.9148486328125,0.9226906561127955,0.1572265625,0.1728515625,0.09765625,46.08294117647059,397.1566374193756
0.1141572265625,0.0312763671875,0.8689501953125001,0.8769746435641804,0.2119140625,0.32958984375,0.02880859375,46.03588235294118,397.1566374193756
0.1146455078125,0.0132099609375,0.8162158203125001,0.8243338891844516,0.0751953125,0.111328125,0.14306640625,46.03588235294118,397.1566374193756
0.1004853515625,0.0263935546875,0.8020556640625001,0.8087565850504213,0.00634765625,-0.2021484375,0.22119140625,46.224117647058826,396.49760157620585
0.0838837890625,0.0381123046875,0.7913134765625001,0.7966593098844105,-0.1103515625,-0.23486328125,0.1728515625,46.08294117647059,396.49760157620585
0.0692353515625,0.0644794921875,0.7854541015625001,0.7911316480081524,-0.1611328125,-0.1953125,-0.09033203125,45.94176470588236,396.49760157620585
0.0497041015625,0.0864521484375,0.7463916015625001,0.753023833995066,-0.2666015625,-0.208984375,-0.3701171875,45.7535294117647,396.49760157620585
0.0155244140625,0.0991474609375,0.7405322265625001,0.7473012812915223,-0.28515625,-0.3017578125,-0.51123046875,46.08294117647059,396.49760157620585
-0.0142607421875,0.1118427734375,0.7366259765625001,0.7452046726132272,-0.29345703125,-0.400390625,-0.5400390625,46.224117647058826,396.0129211803568
-0.0201201171875,0.1196552734375,0.7468798828125001,0.7566715026529381,-0.33203125,-0.39599609375,-0.5078125,46.08294117647059,396.0129211803568
-0.0245146484375,0.1279560546875,0.7483447265625001,0.7596009147526797,-0.31103515625,-0.2724609375,-0.4208984375,46.03588235294118,396.0129211803568
-0.0152373046875,0.1206318359375,0.7444384765625001,0.7543028971722749,-0.31787109375,-0.115234375,-0.4169921875,46.03588235294118,396.0129211803568
-0.0040068359375,0.1137958984375,0.7424853515625001,0.7511657996210405,-0.23291015625,-0.00146484375,-0.49462890625,45.89470588235295,395.6350232228758
-0.0118193359375,0.0927998046875,0.7332080078125001,0.7391518674619018,-0.16748046875,0.10498046875,-0.49365234375,45.89470588235295,395.6350232228758
0.0008759765625,0.0761982421875,0.7449267578125001,0.748814272001039,-0.17529296875,0.1396484375,-0.37255859375,46.224117647058826,395.6350232228758
0.0311494140625,0.0815693359375,0.7390673828125001,0.7442072553388877,-0.1142578125,0.125,-0.0732421875,45.89470588235295,395.6350232228758
0.0257783203125,0.0805927734375,0.7185595703125001,0.7235244107949411,-0.07568359375,0.041015625,-0.06591796875,46.08294117647059,395.6350232228758
0.0003876953125,0.0810810546875,0.7332080078125001,0.7376776195990142,0.05810546875,-0.1015625,-0.146484375,46.08294117647059,395.6990729339787
-0.0084013671875,0.0742451171875,0.7581103515625001,0.7617835818282134,0.0,-0.32177734375,-0.0927734375,46.27117647058824,395.6990729339787
0.0067353515625,0.0683857421875,0.7810595703125001,0.7840765441409103,0.09716796875,-0.3828125,0.04541015625,46.03588235294118,395.6990729339787
0.0106416015625,0.0761982421875,0.7932666015625001,0.7969889064163931,0.044921875,-0.431640625,0.17333984375,46.97705882352941,395.6990729339787
0.0028291015625,-0.0322001953125,0.8152392578125001,0.8158798342111968,0.07470703125,-0.5146484375,0.3603515625,46.03588235294118,395.8182564420056
-0.0225615234375,0.0898701171875,0.8435595703125001,0.8486332594053367,0.13037109375,-0.66943359375,0.52783203125,45.7535294117647,395.8182564420056
-0.0396513671875,0.0947529296875,0.8582080078125001,0.864332883371738,0.12841796875,-0.8310546875,0.662109375,45.61235294117647,395.8182564420056
-0.0479521484375,0.0942646484375,0.8782275390625001,0.8845726894114426,0.09619140625,-1.19970703125,0.79052734375,46.27117647058824,395.8182564420056
-0.0586943359375,0.0976826171875,0.9099658203125,0.9170739953290272,0.08154296875,-1.55126953125,0.86669921875,46.08294117647059,395.8182564420056
-0.0645537109375,0.1030537109375,0.9480517578125,0.9558186985119946,0.0302734375,-1.7607421875,0.90625,46.08294117647059,395.3107619791238
-0.0709013671875,0.1015888671875,0.9944384765625,1.0021253342139609,-0.06005859375,-1.673828125,0.94287109375,46.08294117647059,395.3107619791238
-0.0738310546875,0.1059833984375,1.0159228515625005,1.0241009450769551,-0.150390625,-1.39501953125,0.90283203125,46.224117647058826,395.3107619791238
-0.0796904296875,0.1094013671875,1.0281298828125005,1.03700061699997,-0.24755859375,-1.076171875,0.8505859375,46.08294117647059,395.3107619791238
-0.0787138671875,0.1177021484375,1.0457080078125005,1.055251110512376,-0.30517578125,-0.89599609375,0.78662109375,45.84764705882353,395.2988285929545
-0.0694365234375,0.1299091796875,1.0676806640625005,1.0777939627624138,-0.35595703125,-0.74658203125,0.67333984375,46.03588235294118,395.2988285929545
-0.0684599609375,0.1372333984375,1.0789111328125005,1.089756396817666,-0.412109375,-0.6337890625,0.5869140625,46.27117647058824,395.2988285929545
-0.0694365234375,0.1382099609375,1.0847705078125005,1.0957419763380525,-0.48388671875,-0.595703125,0.529296875,46.08294117647059,395.2988285929545
-0.0577177734375,0.1455341796875,1.0920947265625005,1.1032599107252643,-0.53955078125,-0.4921875,0.44384765625,46.03588235294118,395.2988285929545
-0.0626005859375,0.1460224609375,1.1072314453125005,1.1185717974036222,-0.6328125,-0.3466796875,0.306640625,46.08294117647059,395.0932476070678
-0.0538115234375,0.1592060546875,1.1126025390625005,1.1252229369472284,-0.67919921875,-0.126953125,0.2294921875,46.03588235294118,395.0932476070678
-0.0669951171875,0.1587177734375,1.0964892578125005,1.109940705546982,-0.6298828125,0.07470703125,0.26416015625,46.27117647058824,395.0932476070678
-0.0601591796875,0.1621357421875,1.0833056640625005,1.097022464485235,-0.56982421875,0.1455078125,0.275390625,45.94176470588236,395.0932476070678
-0.0484404296875,0.1572529296875,1.0833056640625005,1.0957308615319303,-0.5009765625,0.18359375,0.25634765625,46.08294117647059,395.1697301903095
-0.0479521484375,0.1738544921875,1.1223681640625005,1.1367651862608097,-0.46142578125,0.3564453125,0.0927734375,46.08294117647059,395.1697301903095
-0.0406279296875,0.1860615234375,1.1541064453125005,1.1697141558032162,-0.3701171875,0.12646484375,0.1708984375,46.224117647058826,395.1697301903095
-0.0254912109375,0.1894794921875,1.1965869140625005,1.211764219103828,-0.3291015625,-0.00244140625,0.43896484375,46.224117647058826,395.1697301903095
-0.0054716796875,0.2153583984375,1.2463916015625005,1.264872010719544,-0.37109375,0.099609375,0.6708984375,46.08294117647059,395.1697301903095
0.0072236328125,0.2387958984375,1.3733447265625005,1.393969655322027,-0.14404296875,-0.00439453125,0.91845703125,45.61235294117647,395.3321103813302
0.0501923828125,0.2553974609375,1.5168994140625005,1.5390682150992772,0.2255859375,-0.0849609375,0.77880859375,46.13,395.3321103813302
0.1117158203125,0.2007099609375,1.6287158203125005,1.6448343795847191,0.45947265625,0.25146484375,0.31396484375,46.08294117647059,395.3321103813302
0.1717744140625,0.0503193359375,1.5974658203125005,1.6074624511827316,0.35009765625,1.4794921875,-0.40625,46.03588235294118,395.3321103813302
0.2269501953125,-0.0898173828125,1.4627001953125005,1.482924615337845,-0.07958984375,2.375,-0.9638671875,46.08294117647059,394.8345537632096
0.2137666015625,-0.1723369140625,1.3626025390625005,1.389993471693928,-0.67578125,3.09228515625,-1.3017578125,46.03588235294118,394.8345537632096
0.2870087890625,-0.1322978515625,1.2571337890625005,1.2962492546303797,-0.93017578125,1.95849609375,-1.341796875,46.27117647058824,394.8345537632096
0.2235322265625,-0.0580791015625,1.2810595703125005,1.3017117426832807,-1.25732421875,1.75732421875,-1.2138671875,46.224117647058826,394.8345537632096
0.1908173828125,-0.0107158203124999,1.2117236328125005,1.2267030059084003,-1.1943359375,1.8203125,-0.4375,46.08294117647059,394.8345537632096
0.2791962890625,0.0029560546875,1.1448291015625005,1.1783857508770157,-1.06298828125,1.6884765625,0.0439453125,46.08294117647059,395.3316068182275
0.3416962890625,-0.0190166015625,1.0793994140625005,1.1323520124822224,-0.93798828125,1.69677734375,0.099609375,45.94176470588236,395.3316068182275
0.3358369140625,-0.0737041015625,1.0203173828125005,1.0766922908164192,-0.7001953125,1.39013671875,0.2568359375,46.13,395.3316068182275
0.3426728515625,-0.0995830078125,0.9919970703125,1.0542294086922177,-0.35546875,0.71435546875,0.4521484375,45.7535294117647,395.3316068182275
0.3080048828125,-0.1288798828125,1.0769580078125005,1.1275263112768477,0.19140625,-0.43212890625,0.82177734375,46.08294117647059,396.75733738055993
0.2552705078125,-0.1884501953125,0.9334033203125,0.9858591515234671,0.25341796875,-1.34033203125,1.4658203125,46.08294117647059,396.75733738055993
0.2337861328125,-0.1449931640625,0.9797900390625,1.0176775000786715,0.0478515625,-1.4609375,1.67822265625,46.03588235294118,396.75733738055993
0.2396455078125,-0.0854228515625,1.0203173828125005,1.051558174640438,0.16357421875,-1.1865234375,0.9921875,45.65941176470588,396.75733738055993
0.1522431640625,-0.0361064453125,1.0759814453125005,1.0872983615611875,-0.1396484375,-0.48828125,0.61181640625,46.788823529411765,396.75733738055993
0.0877900390625,-0.0082744140624999,1.0554736328125005,1.0591506722129245,-0.14111328125,-0.20556640625,0.689453125,45.94176470588236,397.00516060909007
0.0506806640625,0.0210224609375,1.0168994140625005,1.0183785602094837,-0.0029296875,0.21533203125,0.6416015625,46.08294117647059,397.00516060909007
0.0257783203125,0.0244404296875,0.9846728515625,0.985313392279669,-0.15478515625,0.3505859375,0.98681640625,45.84764705882353,397.00516060909007
0.0721650390625,0.0561787109375,0.9514697265625,0.955854843054326,-0.123046875,0.4541015625,1.025390625,46.788823529411765,397.00516060909007
0.0838837890625,0.0503193359375,0.9021533203125,0.907440983749104,0.1298828125,0.5908203125,0.9345703125,46.224117647058826,396.9728783795662
0.1043916015625,0.0459248046875,0.8723681640625001,0.8797914001808302,0.2578125,0.662109375,0.7060546875,46.08294117647059,396.9728783795662
0.0633759765625,0.0019794921875,0.8171923828125001,0.8196485974619504,0.31982421875,0.64013671875,0.658203125,46.08294117647059,396.9728783795662
0.0619111328125,0.0005146484375,0.7893603515625001,0.7917847042271118,0.24755859375,0.5859375,0.732421875,46.27117647058824,396.9728783795662
0.0614228515625,0.0014912109375,0.7712939453125001,0.7737372554555266,0.19775390625,0.50048828125,0.8974609375,46.27117647058824,396.9728783795662
0.0711884765625,0.0029560546875,0.7366259765625001,0.7400637586054745,0.19384765625,0.4453125,0.9736328125,45.94176470588236,396.789122136816
0.0428681640625,-0.0082744140624999,0.6965869140625001,0.6979537765936108,0.330078125,0.4287109375,0.88134765625,46.08294117647059,396.789122136816
0.0306611328125,-0.0170634765625,0.6907275390625001,0.6916182476750323,0.51220703125,0.47412109375,0.63916015625,46.224117647058826,396.789122136816
0.0272431640625,-0.0473369140625,0.6863330078125001,0.6885027022706955,0.58203125,0.40869140625,0.62158203125,46.27117647058824,396.789122136816
0.0457978515625,-0.0444072265625,0.6858447265625001,0.6888050768775623,0.580078125,0.3134765625,0.71337890625,46.224117647058826,396.6058657277104
0.0497041015625,-0.0424541015625,0.6697314453125001,0.6729138557735193,0.56787109375,0.33544921875,0.74853515625,45.84764705882353,396.6058657277104
0.0282197265625,-0.0531962890625,0.6716845703125001,0.6743784991628745,0.59228515625,0.39306640625,0.89404296875,46.27117647058824,396.6058657277104
0.0116181640625,-0.0766337890625,0.6692431640625001,0.6737166555805528,0.64599609375,0.47705078125,1.15673828125,46.224117647058826,396.6058657277104
0.0052705078125,-0.0668681640625,0.6541064453125001,0.6575365932151956,0.6494140625,0.43017578125,1.28271484375,46.08294117647059,396.6058657277104
-0.0030302734374999,-0.0590556640625,0.6648486328125001,0.6674731893998586,0.7041015625,0.33349609375,1.39501953125,46.224117647058826,396.59493983200906
-0.0084013671875,-0.0512431640625,0.6770556640625001,0.6790440464895252,0.669921875,0.18115234375,1.35693359375,46.60058823529412,396.59493983200906
-0.0137724609375,-0.0385478515625,0.7112353515625001,0.7124123404690521,0.57861328125,0.169921875,1.2431640625,46.08294117647059,396.59493983200906
-0.0225615234375,-0.0224345703125,0.7439501953125001,0.7446302608613448,0.53955078125,0.220703125,1.0791015625,46.13,396.59493983200906
-0.0313505859375,-0.0160869140625,0.7791064453125001,0.7799028793190588,0.5283203125,0.267578125,0.90234375,45.61235294117647,396.0869027959181
-0.0279326171875,0.0024677734375,0.8152392578125001,0.815721379202089,0.505859375,0.1826171875,0.6279296875,46.224117647058826,396.0869027959181
-0.0420927734375,0.0010029296875,0.8547900390625001,0.855826394968097,0.41552734375,0.03173828125,0.39892578125,46.27117647058824,396.0869027959181
-0.0562529296875,0.0024677734375,0.8831103515625001,0.884903596467439,0.369140625,-0.1513671875,0.20703125,46.08294117647059,396.0869027959181
-0.0796904296875,0.0122333984375,0.9182666015625,0.9217992038216632,0.26708984375,-0.3037109375,0.01904296875,46.08294117647059,396.0869027959181
-0.1128935546875,0.0229755859375,0.9514697265625,0.9584192573211734,0.20849609375,-0.34814453125,-0.1572265625,46.224117647058826,396.0327725465575
-0.1456083984375,0.0180927734375,0.9910205078125,1.0018237375163055,0.17529296875,-0.5458984375,-0.23876953125,46.13,396.0327725465575
-0.1763701171875,0.0156513671875,1.0354541015625005,1.050483974163421,0.11669921875,-0.5537109375,-0.26171875,46.08294117647059,396.0327725465575
-0.2022490234375,0.0185810546875,1.0691455078125005,1.088265610938052,0.10107421875,-0.39794921875,-0.13623046875,46.224117647058826,396.0327725465575
-0.2017607421875,0.0327412109375,1.0960009765625005,1.1148979884310757,0.14501953125,-0.23193359375,-0.0205078125,46.08294117647059,395.9468643370417
-0.1915068359375,0.0469013671875,1.1306689453125005,1.1477311838357147,0.20703125,0.134765625,0.06884765625,45.61235294117647,395.9468643370417
-0.1622099609375,0.0493427734375,1.1741259765625005,1.1863045939204209,0.2529296875,0.6669921875,-0.01123046875,46.03588235294118,395.9468643370417
-0.1221708984375,0.0273701171875,1.1736376953125005,1.1802966964277757,0.51611328125,1.39892578125,-0.14599609375,45.61235294117647,395.9468643370417
-0.0494169921875,0.0249287109375,1.1819384765625005,1.183233722526851,0.70166015625,1.64697265625,-0.37841796875,46.03588235294118,395.9468643370417
-0.0303740234375,0.0307880859375,1.2249072265625005,1.225670510871708,0.916015625,1.81494140625,-0.5625,45.94176470588236,395.8932352846269
-0.0142607421875,0.0190693359375,1.2405322265625005,1.2407607398209173,1.1552734375,2.16064453125,-0.763671875,46.13,395.8932352846269
-0.0147490234375,0.0078388671875,1.2659228515625005,1.2660330357614191,1.3232421875,2.3173828125,-0.9404296875,45.89470588235295,395.8932352846269
-0.0538115234375,-0.0058330078124999,1.2761767578125005,1.2773240862113382,1.3828125,2.34716796875,-0.9208984375,46.03588235294118,395.8932352846269
-0.0660185546875,-0.0131572265624999,1.2922900390625005,1.2940421582135575,1.326171875,2.40478515625,-0.64794921875,46.03588235294118,395.7417740119264
-0.0494169921875,-0.0009501953124999,1.3870166015625005,1.387896968437491,1.19921875,2.13818359375,-0.29638671875,46.08294117647059,395.7417740119264
0.0067353515625,0.0097919921875,1.5544970703125005,1.554542501728987,1.23876953125,1.73876953125,-0.380859375,46.224117647058826,395.7417740119264
0.0746064453125,-0.0649150390625,1.5935595703125005,1.5966252497418465,1.26416015625,1.51171875,-0.802734375,46.13,395.7417740119264
0.0775361328125,-0.1191142578125,1.5476611328125005,1.5541734267205225,0.8740234375,1.7724609375,-0.6875,46.224117647058826,395.7417740119264
0.1488251953125,-0.1488994140625,1.6052783203125005,1.619023921976844,0.10986328125,2.46435546875,-0.10498046875,46.27117647058824,395.4175065311242
0.3480439453125,0.1777607421875,1.6169970703125005,1.6635543257528291,0.064453125,2.51708984375,0.12353515625,46.03588235294118,395.4175065311242
0.4242158203125,0.3276630859375,1.5784228515625005,1.6669555658217732,0.2646484375,2.45947265625,-0.25634765625,46.03588235294118,395.4175065311242
0.4803681640625,0.3515888671875,1.4548876953125005,1.5719626301368252,0.427734375,2.49169921875,-0.3203125,46.224117647058826,395.4175065311242
0.2586884765625,0.2832294921875,1.3313525390625005,1.3855101069350533,0.3759765625,2.4306640625,-0.2412109375,46.224117647058826,395.5798901909671
0.1771455078125,0.2021748046875,1.2307666015625005,1.2597783972232115,0.23779296875,2.314453125,-0.27294921875,46.224117647058826,395.5798901909671
0.1209931640625,0.1606708984375,1.1091845703125005,1.127273211947261,0.23828125,2.20166015625,-0.2138671875,46.08294117647059,395.5798901909671
0.1009736328125,0.1128193359375,0.9504931640625,0.9624765617999612,0.15234375,1.83251953125,-0.0185546875,46.03588235294118,395.5798901909671
0.2289033203125,0.1123310546875,0.9187548828125,0.9534807447395588,0.03857421875,1.21533203125,-0.41162109375,46.224117647058826,395.5798901909671
0.1161103515625,0.1362568359375,0.9002001953125001,0.917827832831588,0.2568359375,0.515625,-0.21337890625,46.506470588235295,396.44346976970047
0.1571259765625,0.1562763671875,0.8967822265625001,0.9237582136741394,0.2275390625,0.27685546875,-0.03955078125,46.224117647058826,396.44346976970047
0.2025361328125,0.1743427734375,0.9255908203125,0.963397454009138,0.203125,0.18359375,-0.24658203125,45.84764705882353,396.44346976970047
0.1937470703125,0.1943623046875,0.9465869140625,0.9855665470238324,0.1279296875,0.17333984375,-0.384765625,45.94176470588236,396.44346976970047
0.1986298828125,0.1762958984375,0.9085009765625,0.9465242197466524,-0.00390625,-0.0048828125,-0.38623046875,46.08294117647059,397.58774844397135
0.1698212890625,0.1386982421875,0.9602587890625,0.9849738141577828,0.0517578125,-0.03466796875,-0.525390625,46.27117647058824,397.58774844397135
0.0770478515625,0.1025654296875,0.9490283203125,0.9576590163270764,-0.169921875,0.2958984375,-0.42236328125,46.224117647058826,397.58774844397135
0.1024384765625,0.1225849609375,0.9231494140625,0.9368700842765936,0.13134765625,-0.07470703125,-0.0908203125,46.08294117647059,397.58774844397135
0.0863251953125,0.0957294921875,0.8933642578125001,0.9026161266879166,0.17724609375,-0.24462890625,0.171875,46.27117647058824,397.58774844397135
0.1078095703125,0.0820576171875,0.8840869140625001,0.8944081996527148,0.09423828125,-0.0234375,0.29736328125,46.03588235294118,397.2107719815111
0.1082978515625,0.0766865234375,0.8630908203125001,0.873232507203945,-0.07470703125,0.26318359375,-0.11328125,46.03588235294118,397.2107719815111
0.0555634765625,0.0547138671875,0.8308642578125001,0.8345156212442277,0.02294921875,0.33349609375,-0.376953125,46.03588235294118,397.2107719815111
0.1068330078125,0.0312763671875,0.7659228515625001,0.7739698425961729,-0.0185546875,0.18798828125,-0.15966796875,46.03588235294118,397.2107719815111
-0.0479521484375,0.0400654296875,0.7395556640625001,0.7421908295329049,-0.0947265625,0.22705078125,0.15087890625,46.03588235294118,396.6599980727144
-0.0259794921875,0.0556904296875,0.7039111328125001,0.7065884522623306,-0.10498046875,0.408203125,0.3310546875,46.03588235294118,396.6599980727144
-0.0127958984375,0.0659443359375,0.6819384765625001,0.6852389920862969,0.005859375,0.52685546875,0.43310546875,46.03588235294118,396.6599980727144
-0.0196318359375,0.0732685546875,0.6438525390625001,0.6483053155308077,0.02783203125,0.52978515625,0.48779296875,45.61235294117647,396.6599980727144
-0.0123076171875,0.0698505859375,0.6311572265625001,0.6351299287852157,0.0048828125,0.46630859375,0.48681640625,45.89470588235295,396.6599980727144
-0.0118193359375,0.0727802734375,0.6243212890625001,0.6286602714346617,0.0439453125,0.2724609375,0.41748046875,46.08294117647059,396.3997663698775
-0.0196318359375,0.0742451171875,0.6213916015625001,0.6261192130104868,-0.0615234375,0.20751953125,0.27392578125,45.89470588235295,396.3997663698775
-0.0298857421875,0.0722919921875,0.6130908203125001,0.6180611973518395,-0.001953125,0.09375,0.20166015625,45.65941176470588,396.3997663698775
-0.0250029296875,0.0761982421875,0.6233447265625001,0.6284822724140283,-0.31103515625,0.0048828125,0.1708984375,45.94176470588236,396.3997663698775
-0.0215849609375,0.0791279296875,0.6360400390625001,0.64130653441699,-0.3671875,0.0419921875,0.09521484375,46.224117647058826,396.2383686949101
-0.0245146484375,0.0864521484375,0.6619189453125001,0.6679907425414563,-0.41357421875,0.13525390625,-0.00146484375,46.224117647058826,396.2383686949101
-0.0293974609375,0.0849873046875,0.6853564453125001,0.6912311551131095,-0.44091796875,0.29833984375,-0.0654296875,46.08294117647059,396.2383686949101
-0.0362333984375,0.0942646484375,0.7014697265625001,0.7087019545556825,-0.44775390625,0.388671875,-0.00048828125,45.94176470588236,396.2383686949101
-0.0508818359375,0.0962177734375,0.7195361328125001,0.7277218339286025,-0.447265625,0.37158203125,-0.0205078125,46.03588235294118,396.2383686949101
-0.0503935546875,0.1113544921875,0.7708056640625001,0.7804362273979917,-0.3994140625,-0.01611328125,0.11328125,46.03588235294118,396.04369845310055
-0.0640654296875,0.1264912109375,0.8152392578125001,0.8274777659877969,-0.27978515625,-0.2548828125,0.212890625,46.83588235294118,396.04369845310055
-0.0826201171875,0.1347919921875,0.8645556640625001,0.8788921783612037,-0.2236328125,-0.4521484375,0.35595703125,45.94176470588236,396.04369845310055
-0.1036162109375,0.1518818359375,0.9065478515625,0.9250045504911718,-0.18505859375,-0.72998046875,0.5625,46.08294117647059,396.04369845310055
-0.1251005859375,0.1499287109375,0.9343798828125,0.954565105359497,-0.14794921875,-0.79296875,0.779296875,46.224117647058826,396.1082555382448
-0.1417021484375,0.1592060546875,0.9543994140625,0.9779081287543356,-0.18505859375,-0.779296875,1.0107421875,46.13,396.1082555382448
-0.1514677734375,0.1650654296875,0.9744189453125,0.9998406690328004,-0.22705078125,-0.75,1.1484375,45.94176470588236,396.1082555382448
-0.1636748046875,0.1684833984375,0.9822314453125,1.0099280713987622,-0.25439453125,-0.72900390625,1.19140625,46.03588235294118,396.1082555382448
-0.1758818359375,0.1719013671875,1.0056689453125005,1.0353040750521725,-0.33154296875,-0.72412109375,1.18505859375,46.03588235294118,396.1082555382448
-0.1749052734375,0.1836201171875,1.0081103515625005,1.0395165621767004,-0.4580078125,-0.802734375,1.17431640625,46.03588235294118,395.903660717471
-0.1944365234375,0.1484638671875,1.0349658203125005,1.0634854633335875,-0.47509765625,-0.59326171875,1.38525390625,46.13,395.903660717471
-0.1622099609375,0.1538349609375,1.0369189453125005,1.060744156609866,-0.58251953125,-0.4580078125,1.33642578125,45.89470588235295,395.903660717471
-0.1314482421875,0.1528583984375,1.0398486328125005,1.0592117396956509,-0.63134765625,-0.26025390625,1.15625,46.08294117647059,395.903660717471
-0.1358427734375,0.1357685546875,1.0271533203125005,1.0449546894320914,-0.50146484375,0.01171875,1.0732421875,46.224117647058826,394.98499516018165
-0.1363310546875,0.1489521484375,1.0466845703125005,1.0659838126006491,-0.6787109375,0.31640625,1.0400390625,45.61235294117647,394.98499516018165
-0.1539091796875,0.1552998046875,1.0481494140625005,1.0707115667291622,-0.67041015625,0.451171875,0.8662109375,46.03588235294118,394.98499516018165
-0.1700224609375,0.1543232421875,1.0476611328125005,1.0725283910034629,-0.70263671875,0.61279296875,0.71923828125,46.13,394.98499516018165
-0.1807646484375,0.1675068359375,1.0588916015625005,1.0871917135768292,-0.68115234375,0.794921875,0.6982421875,46.13,394.98499516018165
-0.1685576171875,0.2016865234375,1.0652392578125005,1.0971890449841173,-0.64404296875,0.86279296875,0.66796875,45.94176470588236,394.74765031520224
-0.1583037109375,0.2378193359375,0.9714892578125,1.0126250438772582,-0.87109375,0.96240234375,0.77197265625,46.27117647058824,394.74765031520224
-0.1182646484375,0.2793232421875,1.1321337890625005,1.1720643826314303,-0.3486328125,1.02001953125,0.5302734375,45.89470588235295,394.74765031520224
-0.0718779296875,0.3359638671875,1.1775439453125005,1.2266409009868655,-0.12646484375,0.990234375,0.57421875,46.08294117647059,394.74765031520224
0.0023408203125,0.3481708984375,1.1775439453125005,1.227940632563578,-0.02685546875,1.19775390625,0.88427734375,46.03588235294118,394.672178855491
0.0770478515625,0.3198505859375,1.1877978515625005,1.2325195758816372,0.03515625,1.1845703125,1.1240234375,46.27117647058824,394.672178855491
0.1141572265625,0.2270771484375,1.2849658203125005,1.3098599402570967,0.09619140625,0.92919921875,0.85986328125,46.08294117647059,394.672178855491
0.1659150390625,0.0781513671875,1.4192431640625005,1.4310438830163537,0.2900390625,0.302734375,0.35107421875,46.13,394.672178855491
0.2469697265625,-0.0561259765625,1.5515673828125005,1.57210225955282,0.3798828125,-0.57666015625,-0.1962890625,46.08294117647059,394.672178855491
0.2889619140625,-0.1371806640625,1.6414111328125005,1.6722882614226853,0.2607421875,-1.26708984375,-0.74853515625,46.224117647058826,395.0718994358201
0.2157197265625,-0.1396220703125,1.6096728515625005,1.6300539905180746,-0.02197265625,-1.19384765625,-1.130859375,46.13,395.0718994358201
0.0956025390625,-0.0453837890625,1.5584033203125005,1.5619924591834278,-0.2119140625,-0.29443359375,-1.4873046875,46.03588235294118,395.0718994358201
0.0448212890625,-0.0058330078124999,1.4548876953125005,1.4555896323844448,-0.21533203125,0.89404296875,-1.5361328125,46.03588235294118,395.0718994358201
0.0907197265625,-0.0087626953124999,1.3225634765625005,1.325700193540682,-0.2021484375,1.85498046875,-1.08251953125,45.94176470588236,395.374807948033
0.1883759765625,-0.0238994140625,1.2146533203125005,1.2294061082834211,-0.14404296875,2.31884765625,-0.63720703125,46.08294117647059,395.374807948033
0.2894501953125,-0.0551494140625,1.0793994140625005,1.118894976535488,-0.095703125,2.40087890625,-0.62451171875,46.224117647058826,395.374807948033
0.2689423828125,-0.0707744140625,0.9924853515625,1.0307114998994116,0.16650390625,1.97998046875,-0.60986328125,46.08294117647059,395.374807948033
0.1971650390625,-0.0800517578125,0.9866259765625,1.0093132091602166,0.35107421875,1.5234375,-0.388671875,46.03588235294118,395.374807948033
0.1244111328125,-0.1191142578125,0.9504931640625,0.965972872968726,0.5029296875,1.087890625,0.14013671875,46.03588235294118,397.2534868414656
0.1014619140625,-0.1225322265625,0.8997119140625001,0.9136685366464128,0.12158203125,1.02197265625,0.41259765625,46.03588235294118,397.2534868414656
0.1468720703125,-0.0082744140624999,1.0383837890625005,1.0487520032656683,-0.13916015625,1.60205078125,-0.31787109375,45.89470588235295,397.2534868414656
0.1371064453125,0.0464130859375,1.0349658203125005,1.0450390428628005,0.60791015625,0.376953125,-0.8818359375,46.13,397.2534868414656
0.0721650390625,0.0342060546875,1.0349658203125005,1.0380424347083808,0.56005859375,-0.203125,-0.9384765625,46.224117647058826,397.38311524287406
0.0326142578125,0.0517841796875,1.1160205078125005,1.1176972152316738,0.169921875,0.658203125,-1.06640625,45.84764705882353,397.38311524287406
0.0462861328125,0.0561787109375,1.0427783203125005,1.0453157795456334,0.3916015625,0.44384765625,-1.1279296875,46.03588235294118,397.38311524287406
0.0228486328125,0.0254169921875,0.9949267578125,0.9955136045903908,0.46728515625,-0.0400390625,-0.884765625,46.224117647058826,397.38311524287406
0.0096650390625,0.0229755859375,0.9587939453125,0.9591178864441848,0.48681640625,-0.16455078125,-0.83837890625,46.08294117647059,397.38311524287406
-0.0005888671874999,0.0097919921875,0.8953173828125001,0.8953711218493644,0.53759765625,-0.21728515625,-0.88720703125,46.03588235294118,397.30762189222935
-0.0044951171875,0.0024677734375,0.8406298828125001,0.8406455233102866,0.47509765625,-0.0869140625,-0.81298828125,45.89470588235295,397.30762189222935
0.0062470703125,0.0039326171875,0.7903369140625001,0.7903713868146217,0.44873046875,0.00537109375,-0.68212890625,46.64764705882353,397.30762189222935
0.0155244140625,-0.0009501953124999,0.7473681640625001,0.747529987998654,0.45654296875,0.13037109375,-0.591796875,46.08294117647059,397.30762189222935
0.0160126953125,-0.0107158203124999,0.7097705078125001,0.7100319774323935,0.40185546875,0.25732421875,-0.5732421875,46.08294117647059,396.87603290052346
-0.0044951171875,-0.0224345703125,0.6731494140625001,0.6735381575503522,0.38671875,0.4375,-0.54833984375,46.27117647058824,396.87603290052346
0.0038056640625,-0.0307353515625,0.6350634765625001,0.6358181848439663,0.32861328125,0.44384765625,-0.50244140625,45.84764705882353,396.87603290052346
-0.0030302734374999,-0.0551494140625,0.5911181640625001,0.593692954575986,0.28466796875,-0.0458984375,-0.29248046875,46.03588235294118,396.87603290052346
0.0008759765625,-0.0522197265625,0.6130908203125001,0.615311320494475,0.42236328125,-0.48779296875,-0.13720703125,46.03588235294118,396.87603290052346
0.0013642578125,-0.0541728515625,0.6189501953125001,0.6213178762301739,0.6337890625,-1.16015625,-0.1044921875,46.08294117647059,396.6699305135463
-0.0250029296875,-0.0766337890625,0.6423876953125001,0.6474255441422891,0.6708984375,-1.5341796875,-0.03466796875,46.08294117647059,396.6699305135463
-0.0459990234375,-0.0751689453125,0.6687548828125001,0.6745364139778949,0.6474609375,-1.5546875,-0.05224609375,45.70647058823529,396.6699305135463
-0.0733427734375,-0.0629619140625,0.7092822265625001,0.7158384188875139,0.564453125,-1.09423828125,-0.11279296875,46.03588235294118,396.6699305135463
-0.0782255859375,-0.0405009765625,0.7180712890625001,0.7234541779364204,0.53271484375,-0.54150390625,-0.21240234375,46.08294117647059,396.7682633012357
-0.0826201171875,-0.0282939453125,0.7468798828125001,0.7519682110670881,0.4716796875,0.03515625,-0.21533203125,46.08294117647059,396.7682633012357
-0.0669951171875,-0.0180400390625,0.7307666015625001,0.7340528691419639,0.42626953125,0.19091796875,-0.19775390625,46.08294117647059,396.7682633012357
-0.0679716796875,-0.0112041015624999,0.7302783203125001,0.7335203516261899,0.384765625,0.18017578125,-0.23046875,46.224117647058826,396.7682633012357
-0.0728544921875,-0.0068095703124999,0.7561572265625001,0.7596893434571999,0.318359375,0.10888671875,-0.2958984375,46.08294117647059,396.7682633012357
-0.0591826171875,-0.0004619140624999,0.7908251953125001,0.7930367488854582,0.24609375,0.02685546875,-0.48193359375,46.224117647058826,396.3143515363917
-0.0679716796875,-0.0038798828124999,0.8323291015625001,0.8351089366292385,0.15478515625,-0.06689453125,-0.66259765625,45.89470588235295,396.3143515363917
-0.0796904296875,0.0014912109375,0.8547900390625001,0.8584979901981767,0.09033203125,-0.22802734375,-0.72998046875,46.224117647058826,396.3143515363917
-0.0821318359375,-0.0014384765624999,0.8826220703125001,0.8864363635885032,0.08447265625,-0.400390625,-0.83056640625,45.94176470588236,396.3143515363917
-0.0992216796875,0.0044208984375,0.9104541015625,0.9158554236968752,0.07421875,-0.560546875,-0.9482421875,46.08294117647059,396.2815737334125
-0.1255888671875,0.0029560546875,0.9099658203125,0.9185962638492255,0.0224609375,-0.77685546875,-0.9853515625,46.03588235294118,396.2815737334125
-0.1319365234375,0.0210224609375,0.9226611328125,0.9322836242707948,0.0478515625,-0.912109375,-1.041015625,45.89470588235295,396.2815737334125
-0.1451201171875,0.0219990234375,0.9373095703125,0.9487323310840212,0.0966796875,-1.03271484375,-0.9677734375,45.94176470588236,396.2815737334125
-0.1417021484375,0.0259052734375,0.9412158203125,0.9521753002836228,0.1640625,-1.08544921875,-0.87548828125,46.224117647058826,396.2815737334125
-0.1324248046875,0.0351826171875,0.9636767578125,0.9733689120763496,0.2431640625,-1.080078125,-0.8134765625,46.08294117647059,396.1941668679336
-0.1329130859375,0.0356708984375,0.9876025390625,0.9971444612349128,0.37939453125,-1.00341796875,-0.73291015625,46.03588235294118,396.1941668679336
-0.1153349609375,0.0395771484375,1.0291064453125005,1.0363052541006577,0.546875,-0.8671875,-0.64794921875,46.08294117647059,396.1941668679336
-0.0889677734375,0.0405537109375,1.0559619140625005,1.0604788692528333,0.65869140625,-0.62890625,-0.57470703125,45.89470588235295,396.1941668679336
-0.0655302734375,0.0244404296875,1.0588916015625005,1.0611988386724234,0.8291015625,-0.46533203125,-0.4287109375,46.08294117647059,395.8922346523443
-0.0279326171875,0.0239521484375,1.0769580078125005,1.0775864174669172,0.87890625,-0.81787109375,-0.2978515625,45.61235294117647,395.8922346523443
-0.0020537109374999,0.0058857421875,1.0603564453125005,1.060374769034738,1.2548828125,-1.818359375,-0.0498046875,46.224117647058826,395.8922346523443
-0.0386748046875,0.0058857421875,1.1072314453125005,1.1079223149515145,1.38818359375,-2.958984375,0.2275390625,46.60058823529412,395.8922346523443
-0.0933623046875,0.0268818359375,1.2219775390625005,1.2258336995747736,1.3212890625,-3.35791015625,0.3564453125,46.224117647058826,395.8922346523443
-0.0728544921875,0.0283466796875,1.3713916015625005,1.3736179367339971,1.2880859375,-3.1748046875,0.25537109375,46.13,395.7308480058592
-0.0206083984375,-0.0116923828124999,1.4397509765625005,1.4399459338512215,1.17822265625,-2.9541015625,0.14794921875,46.13,395.7308480058592
0.0877900390625,-0.0595439453125,1.5168994140625005,1.5206039605252677,1.2587890625,-2.947265625,0.0966796875,46.13,395.7308480058592
0.1786103515625,-0.0898173828125,1.5315478515625005,1.544541239839933,1.00244140625,-3.14111328125,-0.04248046875,46.03588235294118,395.7308480058592
0.2240205078125,0.0078388671875,1.6565478515625005,1.6716451239050976,0.7392578125,-3.326171875,-0.361328125,46.27117647058824,394.8553958776837
0.2386689453125,0.1738544921875,1.7390673828125005,1.7639568055575154,0.5556640625,-3.607421875,-0.40478515625,46.03588235294118,394.8553958776837
0.2977509765625,0.3296162109375,1.7639697265625005,1.8190359223461472,0.236328125,-3.3720703125,-0.15283203125,46.03588235294118,394.8553958776837
0.3197236328125,0.4116474609375,1.7293017578125005,1.806145454565749,0.20947265625,-2.51708984375,0.18017578125,45.94176470588236,394.8553958776837
0.2249970703125,0.3628193359375,1.6106494140625005,1.6662692121020577,0.26416015625,-1.37353515625,0.2744140625,46.27117647058824,394.8553958776837
0.1683564453125,0.2353779296875,1.4500048828125005,1.4786009680242764,0.2353515625,0.056640625,-0.02880859375,45.94176470588236,394.8658174364322
0.2215791015625,0.1147724609375,1.2678759765625005,1.2921994845933071,0.00244140625,1.0361328125,-0.21484375,46.224117647058826,394.8658174364322
0.3451142578125,0.0566669921875,1.1052783203125005,1.1592908023019388,0.02587890625,1.1923828125,0.03759765625,46.224117647058826,394.8658174364322
0.4315400390625,0.0249287109375,0.9558642578125,1.049058971319778,-0.04052734375,0.44287109375,0.21435546875,46.788823529411765,394.8658174364322
0.4115205078125,0.0635029296875,0.9119189453125,1.0024858668574914,-0.25390625,-0.22021484375,0.22607421875,46.08294117647059,396.6490721686899
0.3709931640625,0.0879169921875,0.8601611328125001,0.9408732644185854,-0.4599609375,-0.44775390625,-0.0546875,46.224117647058826,396.6490721686899
0.3553681640625,0.1294208984375,0.9031298828125,0.9791219976133932,-0.5234375,-0.525390625,-0.7275390625,46.03588235294118,396.6490721686899
0.2621064453125,0.1870380859375,0.9460986328125,0.9993926441970644,-0.48046875,-0.173828125,-0.5830078125,46.224117647058826,396.6490721686899
0.2943330078125,0.2451435546875,1.0032275390625005,1.073868137634308,-0.09130859375,0.18505859375,-0.43701171875,45.89470588235295,396.6490721686899
0.2933564453125,0.2636982421875,0.9851611328125,1.0611961291597194,-0.07275390625,-0.013671875,0.09814453125,45.89470588235295,397.7938614037016
0.3221650390625,0.2300068359375,0.9377978515625,1.0179185956486712,0.07421875,-0.4091796875,0.26953125,46.08294117647059,397.7938614037016
0.2835908203125,0.1787373046875,0.9729541015625,1.0290823393683135,0.4794921875,-0.36865234375,0.3046875,45.94176470588236,397.7938614037016
0.1839814453125,0.1225849609375,0.9890673828125,1.0134744854266895,0.64208984375,-0.03466796875,0.57080078125,46.08294117647059,397.7938614037016
0.1825166015625,0.1211201171875,0.9812548828125,1.0054071502017536,0.4580078125,0.0458984375,0.8974609375,46.08294117647059,397.6846048916746
0.2284150390625,0.1255146484375,0.9636767578125,0.9982986780469684,0.53662109375,-0.02734375,0.6513671875,46.224117647058826,397.6846048916746
0.2220673828125,0.0864521484375,0.9221728515625,0.9524655713660026,0.51220703125,-0.04296875,0.4677734375,46.03588235294118,397.6846048916746
0.1952119140625,0.0434833984375,0.8684619140625001,0.8911927925587821,0.37744140625,-0.00439453125,0.5908203125,45.65941176470588,397.6846048916746
0.1815400390625,0.0356708984375,0.8132861328125001,0.8340644654960814,0.28271484375,-0.00537109375,0.76708984375,46.03588235294118,397.6846048916746
0.1624970703125,0.0351826171875,0.7839892578125001,0.8014251498285428,0.21728515625,0.150390625,0.798828125,46.08294117647059,397.0587999126641
0.1751923828125,0.0469013671875,0.7429736328125001,0.7647888128720123,-0.015625,0.3876953125,0.58251953125,46.08294117647059,397.0587999126641
0.1698212890625,0.0737568359375,0.7239306640625001,0.7472315219771799,-0.14453125,0.5791015625,0.18798828125,46.08294117647059,397.0587999126641
0.1263642578125,0.0810810546875,0.6931689453125001,0.7092427298375255,-0.2392578125,0.56982421875,0.0283203125,46.224117647058826,397.0587999126641
0.1214814453125,0.1074482421875,0.6804736328125001,0.6995335812221161,-0.26171875,0.41259765625,-0.0869140625,46.08294117647059,396.5293847485422
0.0946259765625,0.1064716796875,0.6755908203125001,0.6904442414173654,-0.27197265625,0.0556640625,-0.0546875,46.03588235294118,396.5293847485422
0.1009736328125,0.1045185546875,0.6614306640625001,0.6772077422471463,-0.35498046875,-0.2431640625,-0.06640625,46.03588235294118,396.5293847485422
0.0877900390625,0.0957294921875,0.6609423828125001,0.673584486186356,-0.40673828125,-0.4853515625,0.0185546875,46.08294117647059,396.5293847485422
0.0794892578125,0.1020771484375,0.6804736328125001,0.6926634473492553,-0.39453125,-0.5361328125,0.09130859375,46.03588235294118,396.5293847485422
0.0785126953125,0.0971943359375,0.6765673828125001,0.6880075622762595,-0.427734375,-0.4638671875,0.11181640625,46.08294117647059,396.5517335622059
0.0677705078125,0.0957294921875,0.6843798828125001,0.6943578338307216,-0.44921875,-0.29296875,0.16259765625,45.65941176470588,396.5517335622059
0.0814423828125,0.1050068359375,0.6897509765625001,0.7024355536137855,-0.4052734375,-0.0185546875,0.04150390625,46.03588235294118,396.5517335622059
0.0819306640625,0.0913349609375,0.6863330078125001,0.6972142471408126,-0.3408203125,0.255859375,-0.1298828125,46.788823529411765,396.5517335622059
0.0750947265625,0.0761982421875,0.6936572265625001,0.7018587735665496,-0.37841796875,0.39599609375,-0.11279296875,45.94176470588236,396.1951638330936
0.0794892578125,0.0747333984375,0.7146533203125001,0.7229336008121915,-0.3349609375,0.4111328125,0.052734375,46.03588235294118,396.1951638330936
0.0653291015625,0.0713154296875,0.7293017578125001,0.7356866425122034,-0.29052734375,0.4345703125,0.1708984375,46.13,396.1951638330936
0.0482392578125,0.0732685546875,0.7668994140625001,0.7719002645353231,-0.220703125,0.431640625,0.3369140625,46.224117647058826,396.1951638330936
0.0301728515625,0.0781513671875,0.7893603515625001,0.7937932991551149,-0.1396484375,0.380859375,0.5693359375,46.13,396.1951638330936
0.0335908203125,0.0791279296875,0.8323291015625001,0.836756419619076,-0.04443359375,0.2119140625,0.78857421875,46.03588235294118,396.1191814199119
0.0282197265625,0.0854755859375,0.8704150390625001,0.8750570089912969,-0.00439453125,0.1376953125,0.978515625,46.08294117647059,396.1191814199119
0.0262666015625,0.1030537109375,0.9016650390625,0.9079151085664412,-0.02587890625,0.20654296875,0.98046875,46.08294117647059,396.1191814199119
-0.0040068359375,0.1201435546875,0.9236376953125,0.9314274639870594,-0.07861328125,0.19921875,1.07666015625,45.89470588235295,396.1191814199119
-0.0137724609375,0.1445576171875,0.9465869140625,0.9576603631985452,-0.154296875,0.02392578125,1.2294921875,46.03588235294118,395.66579328798326
-0.0113310546875,0.1567646484375,0.9832080078125,0.9956914855650264,-0.2041015625,-0.28564453125,1.42529296875,45.89470588235295,395.66579328798326
0.0028291015625,0.1650654296875,1.0125048828125005,1.0258755955829757,-0.24609375,-0.52294921875,1.54638671875,46.08294117647059,395.66579328798326
0.0106416015625,0.1679951171875,1.0281298828125005,1.0418189185336877,-0.365234375,-0.568359375,1.53173828125,46.08294117647059,395.66579328798326
0.0135712890625,0.1660419921875,1.0510791015625005,1.0641998876140912,-0.45849609375,-0.33740234375,1.43359375,46.03588235294118,395.66579328798326
-0.0049833984375,0.1596943359375,1.0593798828125005,1.0713602808104905,-0.521484375,-0.00341796875,1.369140625,46.27117647058824,395.3519506367612
-0.0079130859375,0.1753193359375,1.0798876953125005,1.0940552641297256,-0.56396484375,0.33935546875,1.26171875,46.08294117647059,395.3519506367612
-0.0079130859375,0.1753193359375,1.0920947265625005,1.1061059525507684,-0.62353515625,0.72021484375,1.0830078125,46.03588235294118,395.3519506367612
-0.0123076171875,0.1836201171875,1.1043017578125005,1.1195312399323938,-0.6572265625,1.1875,0.94677734375,46.08294117647059,395.3519506367612
-0.0235380859375,0.1953388671875,1.1169970703125005,1.1341930036860597,-0.697265625,1.6298828125,0.955078125,46.27117647058824,395.29782315901787
-0.0225615234375,0.1982685546875,1.1126025390625005,1.1303556307844065,-0.6845703125,2.12646484375,0.99365234375,46.224117647058826,395.29782315901787
-0.0289091796875,0.1938740234375,1.0891650390625005,1.1066631646305332,-0.6337890625,2.50732421875,1.12451171875,46.224117647058826,395.29782315901787
-0.0308623046875,0.1738544921875,1.0779345703125005,1.092300693114855,-0.6044921875,2.60302734375,0.93310546875,46.08294117647059,395.29782315901787
-0.0416044921875,0.1601826171875,1.0701220703125005,1.0828437791247307,-0.63134765625,2.41943359375,0.82421875,46.08294117647059,395.29782315901787
-0.0420927734375,0.1831318359375,1.1511767578125005,1.1664120192441434,-0.54150390625,2.021484375,0.58349609375,46.03588235294118,395.0495435783521
-0.0289091796875,0.2046162109375,1.2390673828125005,1.256181321942992,-0.45947265625,1.9814453125,0.45361328125,46.03588235294118,395.0495435783521
-0.0113310546875,0.2280537109375,1.2649462890625005,1.2853894359631584,-0.419921875,2.1767578125,0.75439453125,46.03588235294118,395.0495435783521
0.0877900390625,0.2495380859375,1.2883837890625005,1.3152601017331105,-0.35595703125,2.2421875,1.3154296875,46.08294117647059,395.0495435783521
0.1976533203125,0.2583271484375,1.3523486328125005,1.390915732645312,-0.21826171875,1.8056640625,1.3564453125,46.97705882352941,394.9303652421595
0.2415986328125,0.1948505859375,1.4172900390625005,1.4508782530049995,0.02294921875,1.591796875,1.2529296875,46.03588235294118,394.9303652421595
0.3006806640625,0.1098896484375,1.4500048828125005,1.4849238218692822,0.28125,2.03271484375,1.2607421875,46.08294117647059,394.9303652421595
0.4432587890625,0.0141865234375,1.4246142578125005,1.4920473836614765,0.1298828125,2.8916015625,1.14794921875,46.27117647058824,394.9303652421595
0.5804658203125,-0.0370830078125,1.3484423828125005,1.4685409690521196,-0.26416015625,3.033203125,0.755859375,46.08294117647059,394.9303652421595
0.6307587890625,-0.1000712890625,1.3098681640625005,1.4572664547359508,-0.4716796875,2.4677734375,0.220703125,46.08294117647059,395.5466104216782
0.5580048828125,-0.1601298828125,1.2581103515625005,1.3855874874293772,-0.6044921875,1.89208984375,-0.234375,45.94176470588236,395.5466104216782
0.3949189453125,-0.1923564453125,1.2336962890625005,1.3095680620214372,-0.69873046875,1.81884765625,-0.26220703125,46.27117647058824,395.5466104216782
0.2621064453125,-0.1977275390625,1.1653369140625005,1.210704791290915,-0.69921875,2.01220703125,-0.06201171875,46.03588235294118,395.5466104216782
0.1278291015625,-0.1928447265625,1.1111376953125005,1.1349697554180094,-0.60986328125,2.2529296875,0.26611328125,46.03588235294118,396.1082555382448
0.1024384765625,-0.1791728515625,1.0501025390625005,1.0701924568800667,-0.470703125,2.83740234375,0.96435546875,46.03588235294118,396.1082555382448
0.0775361328125,-0.1694072265625,0.9807666015625,0.9983054577851268,-0.3583984375,2.7802734375,1.56689453125,45.89470588235295,396.1082555382448
0.2723603515625,-0.0751689453125,0.9954150390625,1.0347374698127254,-0.4462890625,2.83984375,0.74072265625,46.08294117647059,396.1082555382448
0.1019501953125,-0.0907939453125,1.0168994140625005,1.0260223200059162,-0.068359375,2.69921875,0.49560546875,46.08294117647059,396.1082555382448
0.1717744140625,-0.0805400390625,1.0291064453125005,1.0464479074480653,-0.2626953125,2.54248046875,0.705078125,46.27117647058824,397.1993519702309
0.1698212890625,0.0068623046875,1.0032275390625005,1.017522410847974,-0.3857421875,2.01806640625,0.95751953125,46.03588235294118,397.1993519702309
0.1410126953125,0.0908466796875,0.9998095703125,1.0137834464706974,-0.45068359375,1.68212890625,0.83642578125,45.94176470588236,397.1993519702309
0.0843720703125,0.1006123046875,0.9822314453125,0.9909692700906676,-0.18359375,1.3505859375,1.12158203125,45.94176470588236,397.1993519702309
0.1019501953125,0.1094013671875,0.9695361328125,0.9810009247170814,0.0947265625,1.244140625,1.24951171875,46.08294117647059,397.3394123840289
0.0765595703125,0.0766865234375,0.9451220703125,0.9513137854962216,0.3349609375,1.29248046875,1.1259765625,45.94176470588236,397.3394123840289
0.1048798828125,0.0591083984375,0.9153369140625,0.9232200489753624,0.48095703125,1.31298828125,0.9716796875,46.03588235294118,397.3394123840289
0.0897431640625,0.0483662109375,0.8835986328125001,0.8894603250086643,0.60302734375,1.162109375,0.89453125,46.08294117647059,397.3394123840289
0.0721650390625,0.0425068359375,0.8577197265625001,0.8617991374437315,0.60205078125,1.01953125,0.91845703125,46.224117647058826,397.3394123840289
0.0531220703125,0.0259052734375,0.8318408203125001,0.8339377601981642,0.57470703125,0.85693359375,0.97802734375,46.64764705882353,397.16657478064405
0.0428681640625,0.0136982421875,0.8054736328125001,0.806729877025317,0.48291015625,0.7744140625,0.98388671875,46.224117647058826,397.16657478064405
0.0326142578125,-0.0014384765624999,0.7795947265625001,0.7802779611853332,0.47265625,0.75732421875,0.9541015625,45.89470588235295,397.16657478064405
0.0287080078125,-0.0165751953125,0.7551806640625001,0.7559078794311438,0.4560546875,0.84912109375,0.87255859375,46.03588235294118,397.16657478064405
0.0409150390625,-0.0292705078125,0.7424853515625001,0.7441876781659158,0.46337890625,1.0087890625,0.45068359375,46.08294117647059,396.9833090249703
0.0335908203125,-0.0409892578125,0.8337939453125001,0.8354763944631054,0.3896484375,1.1875,0.22021484375,46.03588235294118,396.9833090249703
0.0169892578125,-0.0561259765625,0.6897509765625001,0.6922392431775567,0.34228515625,1.26220703125,0.1708984375,46.27117647058824,396.9833090249703
0.0072236328125,-0.0492900390625,0.6760791015625001,0.6779119709751037,0.3505859375,1.1533203125,0.1611328125,45.84764705882353,396.9833090249703
-0.0137724609375,-0.0512431640625,0.6760791015625001,0.678158163051193,0.404296875,1.0400390625,0.1767578125,46.224117647058826,396.9833090249703
-0.0274443359375,-0.0522197265625,0.6829150390625001,0.6854582715198998,0.4873046875,0.70947265625,0.29150390625,46.224117647058826,396.8869587907989
-0.0518583984375,-0.0541728515625,0.6858447265625001,0.689932591119238,0.5458984375,0.484375,0.52197265625,46.224117647058826,396.8869587907989
-0.0538115234375,-0.0453837890625,0.7000048828125001,0.7035355032446309,0.57568359375,0.306640625,0.64404296875,46.08294117647059,396.8869587907989
-0.0611357421875,-0.0351298828125,0.7468798828125001,0.7502008044445502,0.5322265625,0.4609375,0.68994140625,46.08294117647059,396.8869587907989
-0.0674833984375,-0.0278056640625,0.7576220703125001,0.7611296640147655,0.51171875,0.49462890625,0.62646484375,46.13,396.6485753307933
-0.0674833984375,-0.0253642578125,0.7693408203125001,0.7727112348336627,0.45849609375,0.45947265625,0.43603515625,46.03588235294118,396.6485753307933
-0.0699248046875,-0.0185283203125,0.7849658203125001,0.7882918977276525,0.36328125,0.4521484375,0.19140625,46.13,396.6485753307933
-0.0743193359375,-0.0170634765625,0.8196337890625001,0.8231731738216089,0.2666015625,0.4990234375,-0.0390625,46.08294117647059,396.6485753307933
-0.0899443359375,-0.0087626953124999,0.8479541015625001,0.8527560769370361,0.10595703125,0.3232421875,-0.3193359375,46.224117647058826,396.6485753307933
-0.1016630859375,-0.0009501953124999,0.8645556640625001,0.8705129419922589,0.04248046875,0.12060546875,-0.4375,46.224117647058826,396.1728134296268
-0.1221708984375,-0.0009501953124999,0.8914111328125001,0.8997446521087094,-0.06787109375,-0.1201171875,-0.50390625,46.224117647058826,396.1728134296268
-0.1485380859375,0.0058857421875,0.9153369140625,0.9273294296961218,-0.1083984375,-0.2861328125,-0.5283203125,45.84764705882353,396.1728134296268
-0.1607451171875,0.0107685546875,0.9319384765625,0.9457612164639204,-0.0712890625,-0.43359375,-0.5361328125,46.27117647058824,396.1728134296268
-0.1788115234375,0.0156513671875,0.9387744140625,0.9557802711435656,-0.01904296875,-0.568359375,-0.48828125,46.224117647058826,396.2160185012399
-0.1846708984375,0.0107685546875,0.9465869140625,0.9644926585382276,0.0068359375,-0.6513671875,-0.5537109375,46.13,396.2160185012399
-0.1758818359375,0.0161396484375,0.9460986328125,0.9624435211866272,-0.00439453125,-0.5458984375,-0.7294921875,46.08294117647059,396.2160185012399
-0.1949248046875,0.0293232421875,0.9631884765625,0.9831518567330464,0.0498046875,-0.32421875,-0.873046875,46.13,396.2160185012399
-0.1983427734375,0.0288349609375,0.9753955078125,0.9957749280876436,0.23046875,-0.14404296875,-0.56787109375,45.65941176470588,396.2160185012399
-0.1807646484375,0.0361591796875,0.9807666015625,0.99794111606891,0.4267578125,-0.0087890625,-0.4287109375,46.08294117647059,396.06455215004087
-0.1578154296875,0.0425068359375,1.0100634765625005,1.023201235160705,0.60107421875,0.24560546875,-0.482421875,46.03588235294118,396.06455215004087
-0.1290068359375,0.0566669921875,1.0330126953125005,1.042578121964479,0.79541015625,0.28076171875,-0.49169921875,46.224117647058826,396.06455215004087
-0.1060576171875,0.0635029296875,1.0486376953125005,1.055898601321499,0.90966796875,0.15478515625,-0.3486328125,46.08294117647059,396.06455215004087
-0.0767607421875,0.0810810546875,1.0798876953125005,1.0856444093061763,1.009765625,0.21923828125,-0.392578125,46.13,395.83760531373815
-0.0538115234375,0.0742451171875,1.0798876953125005,1.0837737088378707,1.33154296875,0.2705078125,-0.66796875,45.94176470588236,395.83760531373815
-0.1148466796875,0.0635029296875,1.0681689453125005,1.076200389167444,1.3876953125,0.34130859375,-0.98974609375,46.08294117647059,395.83760531373815
-0.1412138671875,0.0683857421875,1.0994189453125005,1.1105584105902016,1.42236328125,-0.0068359375,-1.0146484375,46.08294117647059,395.83760531373815
-0.1900419921875,0.0864521484375,1.1140673828125005,1.1334619826931769,1.3671875,-0.515625,-0.845703125,46.03588235294118,395.83760531373815
-0.2105498046875,0.1015888671875,1.1663134765625005,1.1895119351236834,1.341796875,-1.24853515625,-0.4423828125,45.94176470588236,395.4492801800245
-0.1822294921875,0.1103779296875,1.2478564453125005,1.2659133395667184,1.4306640625,-1.91552734375,-0.0283203125,46.83588235294118,395.4492801800245
-0.1343779296875,0.0600849609375,1.3147509765625005,1.3229655176496504,1.48974609375,-2.3681640625,-0.0244140625,46.03588235294118,395.4492801800245
-0.0958037109375,-0.0063212890624999,1.4246142578125005,1.4278459627310884,1.24072265625,-1.6455078125,-0.54541015625,45.84764705882353,395.4492801800245
-0.0450224609375,-0.0497783203125,1.5344775390625005,1.5359447324201836,1.08447265625,-0.43310546875,-1.078125,46.224117647058826,395.5133315846604
0.0775361328125,-0.0165751953125,1.5393603515625005,1.5414009474999648,1.02978515625,-0.16015625,-1.21923828125,46.03588235294118,395.5133315846604
0.1546845703125,0.0278583984375,1.5061572265625005,1.5143358272796388,0.7822265625,-0.775390625,-1.0224609375,46.08294117647059,395.5133315846604
0.1971650390625,0.0888935546875,1.5706103515625005,1.5854314848421478,0.4970703125,-1.31005859375,-0.4609375,46.03588235294118,395.5133315846604
0.2874970703125,0.1694599609375,1.5725634765625005,1.6075842533495863,0.49755859375,-1.46875,-0.05712890625,46.13,395.5133315846604
0.3412080078125,0.2055927734375,1.4812548828125005,1.5338863455096574,0.3525390625,-1.49853515625,0.01123046875,46.08294117647059,395.5461091791123
0.3246064453125,0.2373310546875,1.4041064453125005,1.4605513628851274,0.0966796875,-1.03857421875,-0.3427734375,46.03588235294118,395.5461091791123
0.3021455078125,0.2524677734375,1.3030322265625005,1.3612218290845135,0.1533203125,-0.59814453125,-0.716796875,46.27117647058824,395.5461091791123
0.2762666015625,0.1933857421875,1.1575244140625005,1.2056467349812872,0.2734375,-0.232421875,-0.77490234375,46.08294117647059,395.5461091791123
0.2684541015625,0.1338154296875,1.0300830078125005,1.0728677350224616,0.16943359375,0.02587890625,-0.61376953125,46.13,396.7558490211844
0.2616181640625,0.1279560546875,0.9417041015625,0.9857096076422605,0.08203125,0.04248046875,-0.3583984375,45.61235294117647,396.7558490211844
0.2625947265625,0.1357685546875,0.8845751953125001,0.9326641233705276,0.06591796875,-0.23974609375,-0.22216796875,46.08294117647059,396.7558490211844
0.2762666015625,0.1860615234375,0.8923876953125001,0.9525218760679106,0.123046875,-0.4248046875,-0.3369140625,46.224117647058826,396.7558490211844
0.2313447265625,0.2339130859375,0.9553759765625,1.0104350404028122,0.4482421875,-0.20263671875,-0.3828125,46.08294117647059,396.7558490211844
0.3602509765625,0.2241474609375,0.9744189453125,1.0627864937713916,0.333984375,0.06689453125,-0.60400390625,46.224117647058826,397.43675792898847
0.1908173828125,0.1919208984375,1.0198291015625005,1.0551285709496478,0.482421875,0.28857421875,-0.52978515625,47.02411764705882,397.43675792898847
0.1927705078125,0.1137958984375,0.9900439453125,1.0150354618600417,0.4716796875,0.18896484375,-0.287109375,46.27117647058824,397.43675792898847
0.2054658203125,0.0776630859375,0.9778369140625,1.0022039656363857,0.40087890625,0.04052734375,-0.0703125,46.03588235294118,397.43675792898847
0.1620087890625,0.0693623046875,0.9939501953125,1.009452806131528,0.4111328125,-0.2490234375,-0.0615234375,46.03588235294118,397.6205254264818
0.0692353515625,0.0478779296875,0.9807666015625,0.9843723669412912,0.302734375,0.1240234375,0.1533203125,46.03588235294118,397.6205254264818
0.1165986328125,0.0381123046875,0.9460986328125,0.9540180354437848,0.05419921875,0.2998046875,0.29736328125,45.61235294117647,397.6205254264818
0.1385712890625,0.0429951171875,0.9177783203125,0.9291757785747774,0.005859375,0.35546875,0.3330078125,46.08294117647059,397.6205254264818
0.1375947265625,0.0327412109375,0.8943408203125001,0.9054555751381173,-0.08203125,0.30517578125,0.38427734375,45.94176470588236,397.6205254264818
0.1283173828125,0.0215107421875,0.8665087890625001,0.8762223144179033,-0.13818359375,0.18115234375,0.33154296875,46.03588235294118,396.907323677146
0.0707001953125,0.0136982421875,0.8298876953125001,0.8330064503275746,-0.2763671875,0.087890625,0.43212890625,46.13,396.907323677146
0.0575166015625,0.0312763671875,0.7888720703125001,0.7915841799321641,-0.36083984375,0.1416015625,0.52490234375,46.83588235294118,396.907323677146
0.0633759765625,0.0469013671875,0.7551806640625001,0.759285248126938,-0.453125,0.318359375,0.41552734375,46.224117647058826,396.907323677146
0.0760712890625,0.0620380859375,0.7112353515625001,0.7179772213926094,-0.5654296875,0.4326171875,0.13037109375,45.89470588235295,396.5939463227979
0.0750947265625,0.0913349609375,0.6858447265625001,0.6959628452730374,-0.5888671875,0.50537109375,-0.30810546875,46.13,396.5939463227979
0.0384736328125,0.1108662109375,0.6790087890625001,0.6890750850042048,-0.5791015625,0.23876953125,-0.3427734375,46.03588235294118,396.5939463227979
0.0135712890625,0.1050068359375,0.6711962890625001,0.6794961912562086,-0.60791015625,-0.02587890625,-0.20654296875,46.03588235294118,396.5939463227979
-0.0005888671874999,0.1142841796875,0.6956103515625001,0.704936154337621,-0.58837890625,-0.1875,-0.0693359375,46.08294117647059,396.5939463227979
0.0067353515625,0.1284443359375,0.6995166015625001,0.7112431287939767,-0.59814453125,-0.20166015625,0.02197265625,46.08294117647059,396.2920012867712
0.0018525390625,0.1318623046875,0.7097705078125001,0.721917774444494,-0.57275390625,-0.04736328125,0.0615234375,46.03588235294118,396.2920012867712
0.0038056640625,0.1372333984375,0.7170947265625001,0.7301180285333385,-0.4560546875,0.111328125,0.0419921875,46.13,396.2920012867712
0.0101533203125,0.1264912109375,0.7205126953125001,0.7316021189583084,-0.443359375,0.19921875,0.05419921875,46.08294117647059,396.2920012867712
0.0091767578125,0.1269794921875,0.7400439453125001,0.7509148056296635,-0.35498046875,0.15234375,0.19580078125,46.224117647058826,396.2269443386592
0.0204072265625,0.1289326171875,0.7512744140625001,0.7625308648807236,-0.23388671875,0.03125,0.3125,46.224117647058826,396.2269443386592
0.0311494140625,0.1279560546875,0.7600634765625001,0.7713880517170989,-0.09375,-0.12744140625,0.44873046875,46.08294117647059,396.2269443386592
0.0301728515625,0.1362568359375,0.7742236328125001,0.7867010613419155,-0.01220703125,-0.12646484375,0.576171875,46.08294117647059,396.2269443386592
0.0218720703125,0.1347919921875,0.7800830078125001,0.7919449271858663,0.0693359375,-0.41015625,0.7333984375,45.89470588235295,396.2269443386592
0.0213837890625,0.1303974609375,0.7776416015625001,0.788788453727808,0.11865234375,-0.62939453125,0.8525390625,46.08294117647059,395.9130873781031
0.0047822265625,0.1230732421875,0.7952197265625001,0.8047013770011677,0.12548828125,-1.18994140625,0.8916015625,45.65941176470588,395.9130873781031
0.1107392578125,0.1245380859375,0.8054736328125001,0.8225330943044211,0.16748046875,-1.7470703125,0.892578125,45.7535294117647,395.9130873781031
-0.0259794921875,0.1123310546875,0.8372119140625001,0.8451135952697255,0.06787109375,-2.2568359375,0.9921875,45.61235294117647,395.9130873781031
-0.0220732421875,0.1103779296875,0.8811572265625001,0.888317833495469,-0.1005859375,-2.41455078125,1.18310546875,46.224117647058826,395.88130875692826
-0.0245146484375,0.1230732421875,0.9168017578125,0.9253504493210382,-0.1240234375,-2.12744140625,1.31201171875,46.27117647058824,395.88130875692826
-0.0420927734375,0.1255146484375,0.9251025390625,0.9345268515820904,-0.13232421875,-1.76025390625,1.13720703125,46.03588235294118,395.88130875692826
-0.0655302734375,0.1079365234375,0.9324267578125,0.940937919585186,-0.16943359375,-1.775390625,1.0419921875,46.08294117647059,395.88130875692826
-0.0542998046875,0.1123310546875,0.9797900390625,0.9877020073293372,-0.23828125,-1.8642578125,1.0537109375,46.08294117647059,395.88130875692826
-0.0313505859375,0.1050068359375,0.9871142578125,0.9931786610720916,-0.42236328125,-1.60888671875,1.029296875,46.08294117647059,395.858957537661
-0.0088896484375,0.1084248046875,0.9983447265625,1.0042545280834028,-0.54736328125,-1.12890625,0.998046875,46.224117647058826,395.858957537661
0.0218720703125,0.0971943359375,0.9617236328125,0.9668699355694949,-0.71337890625,-0.99609375,0.9765625,46.788823529411765,395.858957537661
0.0272431640625,0.1001240234375,0.9841845703125,0.9896394689474796,-0.80908203125,-1.009765625,0.81884765625,46.03588235294118,395.858957537661
0.0384736328125,0.1152607421875,1.0051806640625005,1.012498605686217,-0.85498046875,-0.92041015625,0.7568359375,46.08294117647059,395.7735501666676
0.0365205078125,0.1313740234375,0.9885791015625,0.9979386361751706,-0.9384765625,-0.7255859375,0.68798828125,46.88294117647059,395.7735501666676
0.0311494140625,0.1636005859375,1.0115283203125005,1.0251463215120846,-1.10107421875,-0.83251953125,0.5185546875,46.224117647058826,395.7735501666676
0.0150361328125,0.1709248046875,1.0754931640625005,1.0890945413932545,-1.119140625,-0.95263671875,0.5478515625,46.69470588235294,395.7735501666676
-0.0040068359375,0.1875263671875,1.1199267578125005,1.135525488920962,-1.01123046875,-0.87744140625,0.681640625,45.94176470588236,395.7735501666676
-0.0347685546875,0.1870380859375,1.1536181640625005,1.169199284314336,-0.89013671875,-0.603515625,0.69189453125,46.08294117647059,395.6002376753445
-0.0254912109375,0.1933857421875,1.2122119140625005,1.2278051847551146,-0.95751953125,-0.72314453125,0.51220703125,46.27117647058824,395.6002376753445
-0.0044951171875,0.2412373046875,1.3840869140625005,1.4049598673736108,-0.90087890625,-1.32421875,0.5693359375,46.03588235294118,395.6002376753445
0.0907197265625,0.3032490234375,1.5369189453125005,1.5691749053129356,-0.61083984375,-1.32958984375,0.806640625,45.94176470588236,395.6002376753445
0.1654267578125,0.2969013671875,1.5154345703125005,1.5530802847684322,-0.24169921875,0.01953125,1.24560546875,46.08294117647059,395.8048278766988
0.3040986328125,0.3095966796875,1.5110400390625005,1.572122158803812,-0.3076171875,-0.37548828125,1.88818359375,46.08294117647059,395.8048278766988
0.3700166015625,0.2202412109375,1.5735400390625005,1.6313941065726247,0.0244140625,-1.08251953125,1.9267578125,46.224117647058826,395.8048278766988
0.3553681640625,0.0263935546875,1.6204150390625005,1.6591347294834493,0.26708984375,-0.78173828125,1.40576171875,46.08294117647059,395.8048278766988
0.4852509765625,-0.1742900390625,1.5549853515625005,1.6382383744575209,0.1533203125,-0.4140625,0.8037109375,45.61235294117647,395.8048278766988
0.6317353515625,-0.2822001953125,1.4363330078125005,1.5942957736818826,-0.04052734375,-0.5810546875,0.3359375,46.97705882352941,395.62158870664086
0.4945283203125,-0.2724345703125,1.3298876953125005,1.444776846726183,-0.7880859375,0.26318359375,-0.08544921875,46.13,395.62158870664086
0.2650361328125,-0.1689189453125,1.3020556640625005,1.3394501536447452,-1.1865234375,1.49462890625,-0.17626953125,46.224117647058826,395.62158870664086
0.1424775390625,-0.0883525390625,1.2415087890625005,1.2527769528593398,-0.82958984375,2.6640625,0.27392578125,46.03588235294118,395.62158870664086
0.1576142578125,-0.0780986328125,1.0867236328125005,1.1008677962526494,-0.38720703125,3.1884765625,1.17236328125,46.224117647058826,396.2050926776631
0.1317353515625,-0.0917705078125,0.9182666015625,0.932196106246214,-0.14453125,2.82080078125,1.86572265625,46.13,396.2050926776631
0.3763642578125,-0.0922587890625,0.8743212890625001,0.9563469324601532,-0.0029296875,1.9794921875,2.10888671875,46.224117647058826,396.2050926776631
0.4583955078125,-0.1156962890625,0.8665087890625001,0.9870914620277462,0.1640625,0.44091796875,2.02392578125,46.13,396.2050926776631
0.4198212890625,-0.1034892578125,0.9509814453125,1.04466532945309,0.3046875,-0.466796875,1.61328125,46.03588235294118,396.2050926776631
0.2953095703125,-0.0727275390625,1.0481494140625005,1.091381799122472,0.2392578125,-0.7939453125,1.45849609375,46.03588235294118,397.5658971915149
0.1937470703125,0.0132099609375,1.1404345703125005,1.156850655653747,0.10595703125,0.0478515625,1.3662109375,46.03588235294118,397.5658971915149
0.1498017578125,0.0649677734375,1.1516650390625005,1.163182591181613,-0.1875,1.337890625,0.95166015625,46.224117647058826,397.5658971915149
0.1664033203125,0.0923115234375,1.0764697265625005,1.093159894331987,-0.248046875,1.708984375,0.86181640625,46.224117647058826,397.5658971915149
0.1517548828125,0.0805927734375,1.0100634765625005,1.0245745293893014,0.10302734375,1.81982421875,0.98681640625,46.27117647058824,397.43675792898847
0.1620087890625,0.0737568359375,0.9783251953125,0.9943878048147264,0.2392578125,2.1162109375,0.90673828125,45.89470588235295,397.43675792898847
0.1707978515625,0.0542255859375,0.9832080078125,0.9994049764210984,0.43115234375,2.36767578125,0.75634765625,46.27117647058824,397.43675792898847
0.2157197265625,0.0444599609375,0.9353564453125,0.9609387953154976,0.44482421875,2.64404296875,0.443359375,46.03588235294118,397.43675792898847
0.1830048828125,0.0107685546875,0.8982470703125001,0.9167630818419032,0.38525390625,2.58056640625,0.48828125,46.224117647058826,397.43675792898847
0.1668916015625,-0.0131572265624999,0.8333056640625001,0.8499554394446555,0.33837890625,2.48974609375,0.6240234375,46.13,397.28478412195744
0.1639619140625,-0.0258525390625,0.7908251953125001,0.8080571468529132,0.28271484375,2.03369140625,0.67431640625,46.64764705882353,397.28478412195744
0.1336884765625,0.0908466796875,0.7668994140625001,0.7837476885230675,0.30859375,1.60009765625,0.65625,46.27117647058824,397.28478412195744
0.1156220703125,-0.0531962890625,0.7268603515625001,0.737918883744637,0.25146484375,1.232421875,0.6142578125,45.65941176470588,397.28478412195744
0.0887666015625,-0.0556376953125,0.7258837890625001,0.7334046208719811,0.265625,1.1298828125,0.51611328125,46.08294117647059,397.0359605476799
0.0619111328125,-0.0722392578125,0.6985400390625001,0.7049891381495654,0.24560546875,1.11962890625,0.4892578125,45.94176470588236,397.0359605476799
0.0467744140625,-0.0815166015625,0.6799853515625001,0.6864494740916962,0.2197265625,1.03515625,0.517578125,46.08294117647059,397.0359605476799
0.0399384765625,-0.0761455078125,0.6585009765625001,0.6640909248016593,0.05419921875,0.78857421875,0.6015625,46.08294117647059,397.0359605476799
0.0374970703125,-0.0658916015625,0.6560595703125001,0.6604255395100299,0.12744140625,0.3505859375,0.662109375,46.03588235294118,397.0359605476799
0.0238251953125,-0.0820048828125,0.6311572265625001,0.6369080666617731,0.232421875,-0.00390625,0.9453125,45.89470588235295,396.8844833852723
0.0296845703125,-0.0844462890625,0.6199267578125001,0.6263557571404474,0.16259765625,-0.4638671875,1.07373046875,46.08294117647059,396.8844833852723
0.0291962890625,-0.0512431640625,0.6516650390625001,0.654328364274763,0.103515625,-0.63330078125,1.0673828125,45.94176470588236,396.8844833852723
0.0228486328125,-0.1562236328125,0.6643603515625001,0.6828635004148222,0.16650390625,-0.5048828125,0.890625,46.03588235294118,396.8844833852723
0.0038056640625,-0.0258525390625,0.6868212890625001,0.6873182086664146,0.232421875,-0.22705078125,0.603515625,46.224117647058826,396.604375944725
-0.0230498046875,-0.0258525390625,0.7078173828125001,0.7086643032378922,0.18212890625,0.15283203125,0.435546875,46.03588235294118,396.604375944725
-0.0020537109374999,-0.0229228515625,0.7434619140625001,0.7438180506776153,0.1103515625,0.33935546875,0.3359375,45.70647058823529,396.604375944725
0.0165009765625,-0.0029033203124999,0.7400439453125001,0.7402335796828213,0.0830078125,0.4296875,0.1923828125,46.03588235294118,396.604375944725
-0.0108427734375,0.0068623046875,0.7498095703125001,0.749919361460722,0.0478515625,0.48828125,-0.1806640625,45.7535294117647,396.604375944725
-0.0440458984375,0.0122333984375,0.7791064453125001,0.7804463788973441,0.107421875,0.3701171875,-0.5498046875,45.61235294117647,396.7558490211844
-0.0591826171875,0.0068623046875,0.8064501953125001,0.8086480018662977,0.10107421875,0.10400390625,-0.70556640625,46.08294117647059,396.7558490211844
-0.0416044921875,0.0049091796875,0.8401416015625001,0.8411854400139047,0.05517578125,-0.1474609375,-0.8046875,45.94176470588236,396.7558490211844
-0.0337919921875,0.0132099609375,0.8787158203125001,0.8794645499799524,0.12451171875,-0.22314453125,-0.83544921875,45.65941176470588,396.7558490211844
-0.0557646484375,0.0244404296875,0.9109423828125,0.9129748383295035,0.0927734375,-0.34033203125,-0.7041015625,46.27117647058824,396.3555662284108
-0.0894560546875,0.0263935546875,0.9490283203125,0.953600418521542,0.3056640625,-0.42333984375,-0.51220703125,45.89470588235295,396.3555662284108
-0.0884794921875,0.0166279296875,0.9783251953125,0.9824588013584548,0.51025390625,-0.3828125,-0.57861328125,45.89470588235295,396.3555662284108
-0.0684599609375,0.0049091796875,0.9919970703125,0.99436867096935,0.62841796875,-0.16845703125,-0.79638671875,46.08294117647059,396.3555662284108
-0.0684599609375,-0.0048564453124999,1.0305712890625005,1.032854071567025,0.6943359375,0.00341796875,-0.7529296875,46.03588235294118,396.3555662284108
-0.0596708984375,-0.0053447265624999,1.0808642578125005,1.082523314316571,0.76611328125,0.1298828125,-0.88623046875,45.94176470588236,396.1936690488452
-0.0289091796875,0.0176044921875,1.1550830078125005,1.1555788219557144,0.974609375,0.3447265625,-0.974609375,45.89470588235295,396.1936690488452
-0.0064482421875,0.0249287109375,1.1853564453125005,1.185636083669943,1.17724609375,0.50048828125,-1.18310546875,46.03588235294118,396.1936690488452
-0.0303740234375,0.0215107421875,1.1990283203125005,1.1996058545375037,1.33154296875,0.81787109375,-1.228515625,46.224117647058826,396.1936690488452
-0.0762724609375,0.0244404296875,1.2136767578125005,1.2163166098327505,1.43310546875,1.06640625,-1.11474609375,46.27117647058824,396.0208489833311
-0.0806669921875,0.0371357421875,1.2332080078125005,1.2364013173356256,1.48974609375,1.23779296875,-1.083984375,46.27117647058824,396.0208489833311
-0.0303740234375,0.0464130859375,1.2703173828125005,1.271527824674562,1.52099609375,1.31982421875,-1.1845703125,46.27117647058824,396.0208489833311
0.0296845703125,0.0420185546875,1.3386767578125005,1.339664956084189,1.67138671875,0.923828125,-1.19482421875,45.89470588235295,396.0208489833311
0.0531220703125,0.0058857421875,1.4680712890625005,1.469043874799189,1.78564453125,0.34326171875,-1.14794921875,45.94176470588236,396.0208489833311
0.0897431640625,-0.0785869140625,1.5598681640625005,1.564422713915114,1.5107421875,0.283203125,-1.26904296875,46.27117647058824,396.0312765215733
0.1703095703125,-0.1332744140625,1.5960009765625005,1.6105857742983407,1.013671875,-0.19677734375,-1.2431640625,46.08294117647059,396.0312765215733
0.1761689453125,-0.1581767578125,1.6057666015625005,1.6231271554311986,0.6943359375,-0.59521484375,-0.419921875,46.03588235294118,396.0312765215733
0.2801728515625,-0.0619853515625,1.6516650390625005,1.6764058016549337,0.130859375,-0.521484375,0.27587890625,46.27117647058824,396.0312765215733
0.4139619140625,0.1191669921875,1.7034228515625005,1.7570471392500044,-0.2431640625,-0.41552734375,0.1552734375,46.224117647058826,396.0749795000767
0.4725556640625,0.2812763671875,1.6902392578125005,1.7774515461824267,-0.34814453125,0.12109375,-0.44482421875,46.08294117647059,396.0749795000767
0.4271455078125,0.3281513671875,1.6296923828125005,1.7164014295113217,-0.38330078125,1.57177734375,-0.76220703125,46.224117647058826,396.0749795000767
0.4007783203125,0.3042255859375,1.5022509765625005,1.5842772692160012,-0.3515625,3.14990234375,-0.9482421875,46.27117647058824,396.0749795000767
0.3568330078125,0.2466083984375,1.3362353515625005,1.404873806578293,-0.06298828125,4.0703125,-0.921875,47.02411764705882,396.0749795000767
0.2777314453125,0.1382099609375,1.1370166015625005,1.1785768966200096,-0.3779296875,4.61474609375,-0.73583984375,45.94176470588236,396.6585087033601
0.2845673828125,0.1445576171875,1.0095751953125005,1.0588283973515051,-0.201171875,4.10302734375,-0.37744140625,46.08294117647059,396.6585087033601
0.3148408203125,0.1601826171875,0.8728564453125001,0.9416270955679102,-0.216796875,3.0693359375,-0.10107421875,46.08294117647059,396.6585087033601
0.2767548828125,0.1968037109375,0.7654345703125001,0.8373858413114071,-0.0791015625,1.70556640625,-0.021484375,46.83588235294118,396.6585087033601
0.1922822265625,0.1699482421875,0.7830126953125001,0.8239925610677561,-0.255859375,1.439453125,0.06982421875,46.224117647058826,397.6314511150037
0.2137666015625,0.1972919921875,0.8201220703125001,0.8701841761021367,-0.26904296875,0.798828125,0.18701171875,45.70647058823529,397.6314511150037
0.2469697265625,0.2070576171875,0.8645556640625001,0.9226718804300216,-0.01611328125,0.33984375,-0.02197265625,45.94176470588236,397.6314511150037
0.2069306640625,0.1621357421875,0.9182666015625,0.9551554062921812,0.2646484375,0.32080078125,0.0537109375,46.03588235294118,397.6314511150037
0.2498994140625,0.0991474609375,0.8870166015625001,0.9268648162524138,0.0576171875,0.0673828125,0.12158203125,45.84764705882353,397.6314511150037
0.1830048828125,0.0967060546875,0.9666064453125,0.9885195335784244,0.20263671875,-0.11181640625,-0.16650390625,46.08294117647059,397.8246751561104
0.0897431640625,0.0420185546875,0.9221728515625,0.9274816238572536,0.1376953125,0.17236328125,0.1298828125,46.13,397.8246751561104
0.0956025390625,0.0444599609375,0.9124072265625,0.9184788950679456,-0.1748046875,0.677734375,0.396484375,46.13,397.8246751561104
0.1302705078125,0.0830341796875,0.9124072265625,0.9253929042766516,-0.10009765625,0.951171875,0.19140625,46.08294117647059,397.8246751561104
0.1161103515625,0.0449482421875,0.8362353515625001,0.8454534413074274,-0.005859375,0.98291015625,0.091796875,46.88294117647059,397.3389196114202
0.1122041015625,0.0263935546875,0.8088916015625001,0.8170630350314695,-0.095703125,0.94677734375,-0.09326171875,46.08294117647059,397.3389196114202
0.0448212890625,0.0219990234375,0.8054736328125001,0.8070196268626891,-0.220703125,0.97265625,0.115234375,46.224117647058826,397.3389196114202
0.0457978515625,0.0381123046875,0.7776416015625001,0.7799207981949344,-0.27587890625,0.92919921875,0.40234375,46.08294117647059,397.3389196114202
0.0272431640625,0.0503193359375,0.7610400390625001,0.7631881593772134,-0.30908203125,1.51806640625,0.36572265625,46.83588235294118,397.3389196114202
0.0277314453125,0.0727802734375,0.7253955078125001,0.7295646948799759,-0.20263671875,2.10107421875,0.27294921875,45.94176470588236,396.8854722204271
0.0492158203125,0.0898701171875,0.6609423828125001,0.6688375500300447,-0.24951171875,2.28759765625,0.177734375,45.94176470588236,396.8854722204271
0.0443330078125,0.0864521484375,0.6062548828125001,0.6139905312666971,-0.146484375,2.12451171875,0.173828125,46.03588235294118,396.8854722204271
0.0414033203125,0.0942646484375,0.5881884765625001,0.5971312609794095,-0.1376953125,1.43701171875,0.2451171875,46.03588235294118,396.8854722204271
0.0086884765625,0.0923115234375,0.7117236328125001,0.7177377212381635,-0.1640625,0.71875,0.40673828125,46.83588235294118,396.59245937654936
-0.0259794921875,0.0996357421875,0.6384814453125001,0.6467308336115678,-0.1455078125,0.287109375,0.51904296875,46.08294117647059,396.59245937654936
-0.0308623046875,0.1162373046875,0.6848681640625001,0.6953473915950058,-0.21484375,0.443359375,0.53125,46.13,396.59245937654936
-0.0269560546875,0.1142841796875,0.6902392578125001,0.7001555081813691,-0.40087890625,0.7705078125,0.5087890625,46.27117647058824,396.59245937654936
-0.0254912109375,0.1308857421875,0.7180712890625001,0.7303473526472957,-0.1845703125,1.18408203125,0.43017578125,46.03588235294118,396.59245937654936
-0.0533232421875,0.1118427734375,0.7297900390625001,0.7402335275049517,-0.06884765625,1.634765625,0.19287109375,46.08294117647059,396.4524082635567
-0.0420927734375,0.1001240234375,0.7371142578125001,0.7450731848049872,-0.12158203125,1.80517578125,0.1494140625,45.94176470588236,396.4524082635567
-0.0542998046875,0.0903583984375,0.7366259765625001,0.7441309953925771,-0.0634765625,1.759765625,0.17919921875,45.84764705882353,396.4524082635567
-0.0660185546875,0.1050068359375,0.7434619140625001,0.7537376883360071,-0.09130859375,1.51904296875,0.25,46.08294117647059,396.4524082635567
-0.0591826171875,0.1098896484375,0.7717822265625001,0.7818095178805703,0.03857421875,0.974609375,0.716796875,46.27117647058824,396.4419787458367
-0.0748076171875,0.1123310546875,0.8001025390625001,0.8114052738617966,0.09716796875,0.482421875,1.06494140625,46.27117647058824,396.4419787458367
-0.0787138671875,0.1054951171875,0.8147509765625001,0.825314634819693,0.09228515625,0.1201171875,1.3515625,45.89470588235295,396.4419787458367
-0.1036162109375,0.0962177734375,0.8601611328125001,0.8717060017549483,0.07373046875,-0.16162109375,1.55322265625,46.08294117647059,396.4419787458367
-0.1070341796875,0.0981708984375,0.8879931640625001,0.8997920317179587,0.0673828125,-0.21533203125,1.6181640625,46.03588235294118,396.4419787458367
-0.1104521484375,0.0913349609375,0.9177783203125,0.9289019310021636,-0.01806640625,-0.34423828125,1.646484375,46.27117647058824,396.1723152900021
-0.1192412109375,0.0888935546875,0.9407275390625,0.9524121131114454,0.00439453125,-0.4921875,1.7744140625,46.03588235294118,396.1723152900021
-0.1153349609375,0.0923115234375,0.9417041015625,0.9532209531233784,-0.07666015625,-0.68115234375,1.87646484375,46.03588235294118,396.1723152900021
-0.1138701171875,0.0923115234375,0.9646533203125,0.9757273437480256,-0.146484375,-0.80810546875,1.95361328125,46.08294117647059,396.1723152900021
-0.1197294921875,0.1045185546875,0.9963916015625,1.0089873652517778,-0.2578125,-0.74267578125,2.01318359375,46.03588235294118,396.1176865874411
-0.1236357421875,0.1103779296875,1.0198291015625005,1.033208827150702,-0.41650390625,-0.76953125,2.0146484375,46.224117647058826,396.1176865874411
-0.1260771484375,0.1240498046875,1.0403369140625005,1.0552652255059978,-0.5166015625,-0.830078125,1.9453125,46.08294117647059,396.1176865874411
-0.1343779296875,0.1303974609375,1.0530322265625005,1.0695502774461902,-0.65966796875,-0.8759765625,1.8642578125,46.224117647058826,396.1176865874411
-0.1426787109375,0.1323505859375,1.0784228515625005,1.0958420227957042,-0.76416015625,-0.73779296875,1.72900390625,45.84764705882353,396.1176865874411
-0.1500029296875,0.1494404296875,1.1047900390625005,1.124897484818834,-0.865234375,-0.34716796875,1.515625,46.08294117647059,396.3014345301413
-0.1543974609375,0.1557880859375,1.1296923828125005,1.150788157502762,-0.9306640625,0.09423828125,1.26025390625,45.84764705882353,396.3014345301413
-0.1465849609375,0.1709248046875,1.1409228515625005,1.162930519355312,-0.8994140625,0.4560546875,1.0126953125,46.08294117647059,396.3014345301413
-0.1656279296875,0.1841083984375,1.1438525390625005,1.1703534272122749,-0.865234375,0.798828125,0.8203125,46.03588235294118,396.3014345301413
-0.1983427734375,0.1948505859375,1.1541064453125005,1.187126064799742,-0.79931640625,1.123046875,0.61572265625,46.08294117647059,395.7829763212281
-0.2398466796875,0.2060810546875,1.1384814453125005,1.1815819193687207,-0.85107421875,1.31005859375,0.56103515625,46.224117647058826,395.7829763212281
-0.2510771484375,0.2041279296875,1.1702197265625005,1.2141343231216324,-0.8701171875,1.56396484375,0.455078125,46.788823529411765,395.7829763212281
-0.2535185546875,0.2314716796875,1.2092822265625005,1.257065749890653,-0.7333984375,1.94970703125,0.25830078125,46.13,395.7829763212281
-0.2090849609375,0.2856708984375,1.3005908203125005,1.3479098133723435,-0.60693359375,2.13232421875,0.1806640625,46.224117647058826,395.7829763212281
-0.1275419921875,0.3291279296875,1.3718798828125005,1.416561529456866,-0.3291015625,1.97900390625,0.36572265625,45.70647058823529,395.54510802089953
-0.0650419921875,0.3427998046875,1.3601611328125005,1.4042010091348356,0.005859375,1.82275390625,0.9443359375,46.08294117647059,395.54510802089953
0.0316376953125,0.3257099609375,1.3235400390625005,1.3633950848599092,0.076171875,1.35546875,1.8017578125,46.13,395.54510802089953
0.1336884765625,0.2373310546875,1.3884814453125005,1.4149485369658406,0.20947265625,0.98583984375,2.0859375,46.08294117647059,395.54510802089953
0.2909150390625,0.0898701171875,1.4104541015625005,1.442944548667935,0.31396484375,1.27490234375,1.25,46.08294117647059,396.258726007425
0.4911103515625,-0.0575908203125,1.3811572265625005,1.467004214200466,-0.025390625,0.84423828125,0.09033203125,46.27117647058824,396.258726007425
0.6102509765625,-0.1405986328125,1.3987353515625005,1.5325256322994734,-0.27099609375,0.37060546875,-0.9931640625,46.27117647058824,396.258726007425
0.5575166015625,-0.1801494140625,1.3479541015625005,1.4697818995769505,-0.37841796875,0.2783203125,-1.5048828125,46.03588235294118,396.258726007425
0.3714814453125,-0.1655009765625,1.2615283203125005,1.3254594450246613,-0.50732421875,0.603515625,-1.42919921875,45.84764705882353,396.258726007425
0.1844697265625,-0.1635478515625,1.2014697265625005,1.2265017258915385,-0.56494140625,1.271484375,-1.13232421875,45.94176470588236,396.80948721282056
0.0614228515625,-0.1689189453125,1.1726611328125005,1.1863559791178415,-0.3828125,1.83056640625,-0.88037109375,46.13,396.80948721282056
0.0238251953125,-0.1630595703125,1.1277392578125005,1.1397157088562326,-0.0205078125,2.126953125,-0.62353515625,46.08294117647059,396.80948721282056
0.0511689453125,-0.1694072265625,1.0691455078125005,1.0836923854358491,0.00341796875,2.2724609375,-0.13671875,46.13,396.80948721282056
0.0418916015625,-0.1708720703125,1.0627978515625005,1.0772610844081474,-0.07861328125,2.61572265625,0.1513671875,46.03588235294118,397.7486866445591
0.0672822265625,-0.1235087890625,1.0847705078125005,1.0938502519114224,-0.12109375,2.68505859375,0.38232421875,45.89470588235295,397.7486866445591
0.0262666015625,-0.0317119140625,1.0852587890625005,1.086039694987506,-0.03955078125,2.36083984375,0.68115234375,46.27117647058824,397.7486866445591
-0.0171904296875,0.0547138671875,1.0779345703125005,1.0794591497644763,-0.0302734375,1.755859375,0.94384765625,46.27117647058824,397.7486866445591
-0.0279326171875,0.1137958984375,1.0447314453125005,1.0512818510888915,0.048828125,1.18359375,0.9462890625,46.08294117647059,397.7486866445591
-0.0386748046875,0.1391865234375,1.0642626953125005,1.0740222127395975,0.16162109375,1.13623046875,0.86669921875,46.27117647058824,397.6841141519018
-0.0059599609375,0.1347919921875,1.0193408203125005,1.0282315450556907,0.31591796875,1.1689453125,0.7783203125,46.08294117647059,397.6841141519018
-0.0010771484374999,0.1015888671875,0.9895556640625,0.994757191712315,0.521484375,1.10791015625,0.82421875,46.08294117647059,397.6841141519018
0.0208955078125,0.0830341796875,0.9285205078125,0.9324599887778036,0.64453125,1.04150390625,0.75390625,46.224117647058826,397.6841141519018
0.0189423828125,0.0849873046875,0.8699267578125001,0.8742735383064213,0.6953125,0.990234375,0.46826171875,45.94176470588236,397.5445377121317
0.0086884765625,0.0649677734375,0.8210986328125001,0.8237106688740654,0.7880859375,0.73681640625,0.25439453125,46.03588235294118,397.5445377121317
-0.0098662109375,0.0537373046875,0.7747119140625001,0.776636072960639,0.80615234375,0.53369140625,0.25732421875,46.08294117647059,397.5445377121317
-0.0181669921875,0.0522724609375,0.7581103515625001,0.7601274596564845,0.76171875,0.58740234375,0.34765625,46.27117647058824,397.5445377121317
-0.0167021484375,0.0342060546875,0.6892626953125001,0.6903130297837097,0.77294921875,0.65966796875,0.3779296875,46.83588235294118,397.5445377121317
-0.0494169921875,0.0244404296875,0.6331103515625001,0.6355061691091295,0.86376953125,0.59521484375,0.18505859375,45.84764705882353,397.3061427953194
-0.0787138671875,-0.0146220703124999,0.5872119140625001,0.5926445054539694,0.861328125,0.41748046875,-0.015625,47.02411764705882,397.3061427953194
-0.0372099609375,-0.0322001953125,0.5291064453125001,0.5313897479650534,0.80517578125,-0.3203125,0.01025390625,46.224117647058826,397.3061427953194
-0.0210966796875,-0.0282939453125,0.5193408203125001,0.520538667995034,0.44677734375,-0.955078125,0.12890625,46.27117647058824,397.3061427953194
-0.0323271484375,-0.0185283203125,0.5627978515625001,0.5640299326304133,0.412109375,-1.2275390625,0.2392578125,45.89470588235295,396.7772051541336
-0.0660185546875,-0.0136455078124999,0.6052783203125001,0.6090209310744655,0.42529296875,-1.4912109375,0.3798828125,46.03588235294118,396.7772051541336
-0.1070341796875,-0.0243876953125,0.6428759765625001,0.65218141382994,0.3974609375,-1.26708984375,0.5029296875,46.224117647058826,396.7772051541336
-0.1265654296875,-0.0361064453125,0.6580126953125001,0.6710463401118488,0.65576171875,-1.30615234375,0.6279296875,46.88294117647059,396.7772051541336
-0.1324248046875,-0.0312236328125,0.6633837890625001,0.6771922147614013,0.6337890625,-1.09130859375,0.658203125,46.03588235294118,396.7772051541336
-0.1587919921875,-0.0361064453125,0.7039111328125001,0.7225022180404408,0.5673828125,-0.724609375,0.798828125,46.03588235294118,396.7871413504212
-0.1368193359375,-0.0102275390624999,0.7576220703125001,0.7699450205477351,0.43212890625,-0.27978515625,0.77685546875,46.13,396.7871413504212
-0.0958037109375,-0.0229228515625,0.7097705078125001,0.716573779811658,0.3955078125,-0.43212890625,0.62939453125,46.224117647058826,396.7871413504212
-0.0240263671875,0.0034443359375,0.7293017578125001,0.7297055459010034,0.42822265625,-1.16796875,0.333984375,46.08294117647059,396.7871413504212
-0.0806669921875,-0.0253642578125,0.7756884765625001,0.7802840007810037,0.12890625,-1.40966796875,0.24755859375,46.08294117647059,396.4961109659584
-0.0879912109375,0.0234638671875,0.8669970703125001,0.87176655487355,0.0390625,-1.69140625,0.009765625,46.224117647058826,396.4961109659584
-0.0445341796875,0.0141865234375,0.7961962890625001,0.797566976074472,0.29541015625,-3.0546875,0.1337890625,46.224117647058826,396.4961109659584
-0.0518583984375,0.0088154296875,0.8289111328125001,0.8305785160895868,-0.056640625,-3.59765625,0.0419921875,45.94176470588236,396.4961109659584
-0.0904326171875,0.0346943359375,0.9011767578125,0.9063670912047582,-0.158203125,-3.90283203125,-0.0654296875,46.08294117647059,396.4961109659584
-0.1319365234375,0.0566669921875,0.9724658203125,0.983009748627355,-0.14208984375,-3.87109375,-0.10693359375,45.61235294117647,396.3982760767327
-0.1807646484375,0.0503193359375,1.0154345703125005,1.032625421089204,-0.23046875,-2.8466796875,-0.24609375,46.27117647058824,396.3982760767327
-0.2066435546875,0.0620380859375,1.0969775390625005,1.1179937405944158,-0.20263671875,-1.52587890625,-0.3046875,45.84764705882353,396.3982760767327
-0.1685576171875,0.0635029296875,1.0027392578125005,1.018788649106961,0.10498046875,-1.35888671875,-0.0947265625,46.03588235294118,396.3982760767327
-0.1592802734375,0.0600849609375,0.9910205078125,1.005535705453631,0.158203125,-1.2060546875,0.046875,46.08294117647059,396.4414826225588
-0.1109404296875,0.0805927734375,0.9744189453125,0.9840199464713713,0.52197265625,-1.63037109375,0.1689453125,46.08294117647059,396.4414826225588
-0.0987333984375,0.0884052734375,1.0305712890625005,1.0390577261050131,0.66455078125,-1.96142578125,0.17431640625,46.03588235294118,396.4414826225588
-0.0767607421875,0.0840107421875,1.0505908203125005,1.056736054116146,0.837890625,-2.28466796875,0.2353515625,45.94176470588236,396.4414826225588
-0.0923857421875,0.0825458984375,1.1511767578125005,1.1578242001427026,0.759765625,-1.96630859375,0.19873046875,46.224117647058826,396.4414826225588
-0.0499052734375,0.1152607421875,1.1672900390625005,1.174027942725819,1.154296875,-2.365234375,0.04150390625,46.27117647058824,396.2478002502517
-0.0835966796875,0.0971943359375,1.2434619140625005,1.2500530690803022,1.10595703125,-2.091796875,-0.169921875,46.03588235294118,396.2478002502517
-0.1329130859375,0.1064716796875,1.3040087890625005,1.3150821377165591,1.0771484375,-1.4814453125,-0.27392578125,46.08294117647059,396.2478002502517
-0.1470732421875,0.1137958984375,1.3430712890625005,1.355883672212608,1.0205078125,-0.47265625,-0.38623046875,46.13,396.2478002502517
-0.1358427734375,0.1186787109375,1.2874072265625005,1.2999827931670205,1.234375,-0.693359375,-0.55810546875,45.89470588235295,395.5128309670814
-0.1456083984375,0.1079365234375,1.3420947265625005,1.3542785362894076,1.16455078125,-1.00048828125,-0.67041015625,46.27117647058824,395.5128309670814
-0.1382841796875,0.1294208984375,1.4778369140625005,1.4899242356140088,1.1923828125,-0.93505859375,-0.69775390625,46.08294117647059,395.5128309670814
-0.0665068359375,0.1030537109375,1.6174853515625005,1.622128875608739,1.0693359375,-0.5341796875,-0.81982421875,46.224117647058826,395.5128309670814
0.0335908203125,0.0732685546875,1.7092822265625005,1.7111815667420336,0.9423828125,0.33349609375,-0.91796875,46.08294117647059,395.5128309670814
0.1610322265625,0.0552021484375,1.6301806640625005,1.6390447378479474,0.78271484375,-0.0341796875,-0.533203125,46.13,395.3181698527562
0.3060517578125,0.0722919921875,1.5535205078125005,1.5850298983894808,0.59130859375,-0.3056640625,-0.0263671875,45.61235294117647,395.3181698527562
0.4696259765625,0.0962177734375,1.5076220703125005,1.5820021253718028,0.447265625,-0.505859375,0.25390625,46.13,395.3181698527562
0.5999970703125,0.1142841796875,1.4260791015625005,1.5513732503893882,0.19970703125,-0.82275390625,0.5771484375,46.13,395.3181698527562
0.6512666015625,0.1499287109375,1.3259814453125005,1.4848749435515356,-0.40625,-1.34814453125,0.3173828125,46.83588235294118,396.7553537860823
0.6175751953125,0.2417255859375,1.2805712890625005,1.4421141449737236,-0.65087890625,-1.82666015625,-0.21240234375,46.13,396.7553537860823
0.5448212890625,0.3135029296875,1.1990283203125005,1.3538032489434295,-0.40771484375,-2.14208984375,-0.89599609375,46.03588235294118,396.7553537860823
0.3802705078125,0.2724873046875,1.1013720703125005,1.1966099730456363,-0.2724609375,-1.6904296875,-1.154296875,46.08294117647059,396.7553537860823
0.2762666015625,0.2109638671875,1.0247119140625005,1.0820644598263225,-0.20947265625,-1.15234375,-0.93505859375,45.89470588235295,396.7553537860823
0.2249970703125,0.1631123046875,1.0051806640625005,1.0428890031996718,-0.060546875,-0.6240234375,-0.736328125,46.03588235294118,397.5649148396921
0.2230439453125,0.1601826171875,1.0032275390625005,1.040131033823625,0.103515625,0.212890625,-0.8896484375,46.13,397.5649148396921
0.2074189453125,0.1533466796875,1.0828173828125005,1.113117831842902,0.17919921875,0.50732421875,-0.9521484375,45.65941176470588,397.5649148396921
0.2123017578125,0.1660419921875,0.9509814453125,0.9884369928672858,0.166015625,0.63916015625,-1.01953125,46.224117647058826,397.5649148396921
0.2113251953125,0.1343037109375,0.9495166015625,0.9819763752699192,0.140625,0.57666015625,-0.93505859375,46.224117647058826,398.181303017538
0.2142548828125,0.0825458984375,0.9377978515625,0.965496654863751,0.134765625,0.3076171875,-0.80908203125,46.08294117647059,398.181303017538
0.1864228515625,0.0141865234375,0.8972705078125001,0.9165419255124332,0.09375,-0.1103515625,-0.35986328125,45.94176470588236,398.181303017538
0.2411103515625,0.0068623046875,0.9670947265625,0.996721376815614,0.30615234375,-0.59423828125,-0.302734375,46.08294117647059,398.181303017538
0.2000947265625,-0.0268291015625,0.9627001953125,0.9836408726478878,0.35791015625,-0.54541015625,-0.4560546875,46.13,398.181303017538
0.1341767578125,-0.0478251953125,0.9133837890625,0.9244244683942128,0.21337890625,-0.18017578125,0.56005859375,46.224117647058826,398.36459640315184
0.1581025390625,-0.0702861328125,0.8455126953125001,0.8630343395591825,-0.16357421875,0.4638671875,1.0322265625,46.224117647058826,398.36459640315184
0.1590791015625,-0.0409892578125,0.7810595703125001,0.798148064075018,-0.26220703125,0.353515625,1.05615234375,46.13,398.36459640315184
0.2616181640625,0.0117451171875,0.7708056640625001,0.8140782415075427,-0.6171875,0.556640625,-0.189453125,46.08294117647059,398.36459640315184
0.1429658203125,0.0073505859375,0.7898486328125001,0.8027167119519976,-0.705078125,0.984375,-0.72998046875,46.08294117647059,397.381145832376
0.0921845703125,0.0239521484375,0.7444384765625001,0.7505067260226042,-0.853515625,1.02392578125,-0.4873046875,46.08294117647059,397.381145832376
0.0824189453125,0.0293232421875,0.7073291015625001,0.7127181722083598,-0.9208984375,0.96240234375,-0.1689453125,45.94176470588236,397.381145832376
0.0726533203125,0.0415302734375,0.7058642578125001,0.7108077229612912,-0.83740234375,1.01904296875,-0.044921875,46.03588235294118,397.381145832376
0.0643525390625,0.0459248046875,0.6736376953125001,0.6782610717970716,-0.72119140625,1.35400390625,-0.14111328125,46.03588235294118,397.381145832376
0.0677705078125,0.0449482421875,0.6355517578125001,0.6407333478627978,-0.7060546875,1.3662109375,-0.3056640625,45.94176470588236,397.0250349507378
0.0560517578125,0.0586201171875,0.6106494140625001,0.6160120328271372,-0.66552734375,1.244140625,-0.341796875,46.03588235294118,397.0250349507378
0.0536103515625,0.0547138671875,0.4627001953125,0.4689980253684357,-0.638671875,0.640625,-0.2470703125,46.03588235294118,397.0250349507378
0.0409150390625,0.0600849609375,0.5691455078125001,0.5737689883703156,-0.50048828125,0.1923828125,-0.07568359375,46.08294117647059,397.0250349507378
0.0228486328125,0.0659443359375,0.5955126953125001,0.5995882635125515,-0.595703125,-0.07177734375,0.0849609375,46.13,396.8959032422193
0.0208955078125,0.0801044921875,0.5979541015625001,0.6036575680721448,-0.595703125,-0.18798828125,0.13134765625,46.08294117647059,396.8959032422193
0.0389619140625,0.0952412109375,0.6155322265625001,0.6240743873491716,-0.58837890625,-0.138671875,0.1083984375,46.224117647058826,396.8959032422193
0.0536103515625,0.1147724609375,0.6516650390625001,0.6638630210522608,-0.5,0.0029296875,0.0439453125,46.03588235294118,396.8959032422193
0.0702119140625,0.1098896484375,0.6526416015625001,0.6655422659757247,-0.48974609375,0.06591796875,0.02099609375,46.03588235294118,396.8959032422193
0.0687470703125,0.1167255859375,0.6721728515625001,0.6856875122580747,-0.5234375,0.10498046875,0.013671875,45.94176470588236,396.5601777096427
0.0916962890625,0.1318623046875,0.6853564453125001,0.7039242387904528,-0.49072265625,-0.33056640625,0.1259765625,46.13,396.5601777096427
0.0794892578125,0.1416279296875,0.7297900390625001,0.7476433064570263,-0.44287109375,-0.97119140625,0.19970703125,45.94176470588236,396.5601777096427
0.0316376953125,0.1509052734375,0.7971728515625001,0.8119469813874678,-0.43408203125,-1.2265625,0.28662109375,46.08294117647059,396.5601777096427
0.0018525390625,0.1660419921875,0.8591845703125001,0.875083710814941,-0.42333984375,-1.35693359375,0.361328125,46.03588235294118,396.66893880589737
-0.0079130859375,0.1816669921875,0.9060595703125,0.9241263214162768,-0.357421875,-1.376953125,0.380859375,45.89470588235295,396.66893880589737
-0.0113310546875,0.1816669921875,0.9617236328125,0.9787970345075924,-0.37646484375,-1.62353515625,0.3291015625,46.08294117647059,396.66893880589737
-0.0191435546875,0.1806904296875,0.9959033203125,1.0123432868726836,-0.33447265625,-1.66064453125,0.2216796875,46.03588235294118,396.66893880589737
-0.0381865234375,0.1660419921875,1.0320361328125005,1.0460051305669669,-0.41845703125,-1.513671875,0.23046875,45.94176470588236,396.66893880589737
-0.0474638671875,0.1596943359375,1.0598681640625005,1.07288192491631,-0.45166015625,-1.39501953125,0.26708984375,46.27117647058824,396.72208222776766
-0.0250029296875,0.1616474609375,1.1003955078125005,1.1124860995690815,-0.49609375,-1.26513671875,0.34765625,46.224117647058826,396.72208222776766
0.0052705078125,0.1401630859375,1.1257861328125005,1.134490143520449,-0.5859375,-1.1142578125,0.46240234375,46.08294117647059,396.72208222776766
0.0248017578125,0.1548115234375,1.1433642578125005,1.1540639328142783,-0.67919921875,-0.837890625,0.49267578125,46.03588235294118,396.72208222776766
