AccX,AccY,AccZ,Magnitude,GyroX,GyroY,GyroZ,Temperature,Altitude
-0.0303740234375,-0.1322978515625,1.1262744140625005,1.1344246817659,-0.009765625,0.380859375,0.6416015625,45.47117647058823,215.8291600105268
-0.0333037109375,-0.0834697265625,1.0115283203125005,1.015512616961924,0.07177734375,0.16162109375,0.97509765625,45.04764705882353,215.8291600105268
-0.0352568359375,-0.1552470703125,0.9285205078125,0.9420695466627296,0.173828125,0.2666015625,1.47900390625,45.04764705882353,215.8291600105268
-0.0313505859375,0.0293232421875,0.8899462890625001,0.8909809813835121,0.291015625,0.4033203125,1.8486328125,45.18882352941176,215.8291600105268
-0.0333037109375,0.0483662109375,0.8899462890625001,0.8918816204736895,0.31396484375,0.47998046875,1.943359375,45.00058823529412,216.5569633194909
-0.0962919921875,0.0322529296875,0.9207080078125,0.9262913336974102,0.3486328125,0.5009765625,2.3125,44.85941176470588,216.5569633194909
-0.0586943359375,0.0185810546875,0.9744189453125,0.976361900961098,0.34619140625,0.47216796875,2.24169921875,45.00058823529412,216.5569633194909
-0.0518583984375,0.0151630859375,1.0193408203125005,1.0207717279681152,0.44140625,0.4033203125,1.35888671875,45.04764705882353,216.5569633194909
-0.0928740234375,0.0039326171875,1.0549853515625005,1.0590727745149835,0.33935546875,0.20703125,0.65234375,45.235882352941175,216.5569633194909
-0.1446318359375,2.6367187500001e-05,1.0916064453125005,1.1011462210395462,0.29833984375,0.05859375,0.0849609375,45.04764705882353,216.54899682808264
-0.1719755859375,-0.0204814453125,1.0916064453125005,1.1052600251562652,0.203125,0.0322265625,-0.25732421875,45.04764705882353,216.54899682808264
-0.1719755859375,-0.0434306640625,1.1160205078125005,1.1300281406219612,0.16064453125,0.0830078125,-0.45703125,45.00058823529412,216.54899682808264
-0.1563505859375,-0.0815166015625,1.1096728515625005,1.1235943661073375,0.212890625,0.28466796875,-0.80029296875,45.235882352941175,216.54899682808264
-0.1480498046875,-0.1025126953125,1.1052783203125005,1.119851669963957,0.14453125,0.4169921875,-1.21337890625,44.85941176470588,216.77798102094283
-0.1436552734375,-0.1181376953125,1.0691455078125005,1.0852029623604065,0.05810546875,0.47265625,-1.55615234375,45.04764705882353,216.77798102094283
-0.1412138671875,-0.1347392578125,1.0408251953125005,1.0589679462000805,-0.0537109375,0.25732421875,-1.87353515625,45.04764705882353,216.77798102094283
-0.1631865234375,-0.1322978515625,1.0051806640625005,1.026898597897962,-0.1298828125,-0.0322265625,-1.693359375,45.235882352941175,216.77798102094283
-0.1861357421875,-0.1108134765625,0.9729541015625,0.9967777208860814,-0.15625,-0.28662109375,-1.3212890625,45.00058823529412,216.77798102094283
-0.1919951171875,-0.0859111328125,0.9407275390625,0.963955989926696,-0.0986328125,-0.46630859375,-0.99853515625,45.00058823529412,216.922260952876
-0.2071318359375,-0.0737041015625,0.8928759765625001,0.9195452145318428,-0.11328125,-0.505859375,-0.15966796875,44.906470588235294,216.922260952876
-0.1973662109375,-0.0502666015625,0.8567431640625001,0.8806185335434934,-0.0576171875,-0.5087890625,0.33642578125,45.09470588235294,216.922260952876
-0.1841826171875,-0.0346416015625,0.8176806640625001,0.8388831536123152,-0.0244140625,-0.42578125,0.6044921875,45.09470588235294,216.922260952876
-0.1959013671875,-0.0473369140625,0.8025439453125001,0.8274629376936741,0.08740234375,-0.3125,0.77734375,44.85941176470588,216.6681129552056
-0.2071318359375,-0.0561259765625,0.7820361328125001,0.8109465060830239,0.15087890625,-0.22412109375,1.01953125,45.00058823529412,216.6681129552056
-0.1998076171875,-0.0551494140625,0.7708056640625001,0.7981891464486442,0.20263671875,-0.11865234375,1.05859375,45.04764705882353,216.6681129552056
-0.1880888671875,-0.0610087890625,0.7634814453125001,0.7886719290295641,0.15185546875,-0.0615234375,0.97314453125,44.85941176470588,216.6681129552056
-0.2100615234375,-0.0619853515625,0.7869189453125001,0.8168289012571406,0.09619140625,0.02392578125,0.849609375,45.235882352941175,216.6681129552056
-0.2281279296875,-0.0971416015625,0.7844775390625001,0.8227295134800919,0.14794921875,0.12841796875,0.99609375,45.09470588235294,216.3998040660983
-0.1866240234375,-0.0795634765625,0.7839892578125001,0.8098135768756329,-0.01220703125,0.07177734375,0.9375,45.04764705882353,216.3998040660983
-0.1641630859375,-0.0844462890625,0.8044970703125001,0.8254067062135769,0.0146484375,-0.1474609375,0.9609375,45.235882352941175,216.3998040660983
-0.1470732421875,-0.0780986328125,0.8030322265625001,0.8201162673137579,-0.11279296875,-0.3232421875,1.1552734375,45.00058823529412,216.3998040660983
-0.1524443359375,-0.0717509765625,0.8220751953125001,0.839163336273209,-0.13818359375,-0.48583984375,1.06494140625,45.00058823529412,216.2413646114552
-0.1773466796875,-0.0697978515625,0.8469775390625001,0.8681558250425383,-0.134765625,-0.65087890625,1.1953125,45.18882352941176,216.2413646114552
-0.1846708984375,-0.0673564453125,0.8435595703125001,0.8661599044752989,-0.17919921875,-0.77880859375,1.41845703125,45.00058823529412,216.2413646114552
-0.1753935546875,-0.0468486328125,0.8557666015625001,0.8748109337291963,-0.150390625,-0.8603515625,1.5009765625,45.00058823529412,216.2413646114552
-0.2027373046875,-0.0395244140625,0.8645556640625001,0.888887557726784,-0.1376953125,-0.91015625,1.55419921875,45.04764705882353,216.2413646114552
-0.2393583984375,-0.0405009765625,0.8655322265625001,0.8989320370435799,-0.1337890625,-0.9296875,1.7099609375,45.04764705882353,216.2805411482792
-0.2701201171875,-0.0458720703125,0.8757861328125001,0.9176439805124956,-0.1435546875,-0.8935546875,1.8564453125,45.00058823529412,216.2805411482792
-0.2828154296875,-0.0488017578125,0.8933642578125001,0.9383314318362111,-0.16943359375,-0.78955078125,1.9814453125,45.09470588235294,216.2805411482792
-0.2945341796875,-0.0551494140625,0.9021533203125,0.9506168808865608,-0.21044921875,-0.72021484375,2.0244140625,45.00058823529412,216.2805411482792
-0.2984404296875,-0.0585673828125,0.9099658203125,0.9594449554500596,-0.2822265625,-0.6162109375,1.974609375,45.33,216.35585764189037
-0.3042998046875,-0.0619853515625,0.9163134765625,0.9675075928752356,-0.349609375,-0.5859375,1.93701171875,45.09470588235294,216.35585764189037
-0.3126005859375,-0.0688212890625,0.9329150390625,0.9862991261608612,-0.41650390625,-0.6220703125,1.890625,44.906470588235294,216.35585764189037
-0.3204130859375,-0.0658916015625,0.9573291015625,1.0116744819826813,-0.49072265625,-0.37939453125,1.89306640625,45.235882352941175,216.35585764189037
-0.2945341796875,-0.0546611328125,0.9729541015625,1.018026476174282,-0.546875,-0.2412109375,1.91259765625,45.09470588235294,216.35585764189037
-0.2681669921875,-0.0409892578125,0.9812548828125,1.0180642415870835,-0.560546875,-0.1416015625,1.99560546875,44.906470588235294,216.37783082615445
-0.2413115234375,-0.0195048828125,0.9856494140625,1.0149465302364489,-0.5458984375,-0.1240234375,2.07080078125,45.09470588235294,216.37783082615445
-0.2212919921875,-0.0116923828124999,0.9841845703125,1.0088241303930765,-0.50341796875,0.09228515625,2.06884765625,45.09470588235294,216.37783082615445
-0.2217802734375,-0.0043681640624999,0.9758837890625,1.0007770682316173,-0.4775390625,0.17724609375,2.03076171875,44.81235294117647,216.37783082615445
-0.2432646484375,0.0058857421875,0.9753955078125,1.005290369893855,-0.44091796875,0.2998046875,2.0009765625,45.09470588235294,216.3213089481072
-0.2671904296875,0.0127216796875,0.9939501953125,1.0293150915110587,-0.42431640625,0.4287109375,1.97021484375,45.235882352941175,216.3213089481072
-0.2764677734375,0.0195576171875,1.0095751953125005,1.0469283667614584,-0.35205078125,0.4951171875,1.88232421875,45.18882352941176,216.3213089481072
-0.2916044921875,0.0215107421875,1.0242236328125005,1.0651431555922528,-0.29052734375,0.55810546875,1.71875,45.00058823529412,216.3213089481072
-0.3184599609375,0.0190693359375,1.0442431640625005,1.091890183115808,-0.236328125,0.72216796875,1.53564453125,45.09470588235294,216.3213089481072
-0.3418974609375,0.0093037109375,1.1008837890625005,1.1527903321304034,-0.1689453125,0.97998046875,1.39794921875,45.235882352941175,216.33070678329503
-0.3414091796875,0.0014912109375,1.1453173828125005,1.1951210646028405,-0.1181640625,1.109375,1.3447265625,45.09470588235294,216.33070678329503
-0.3228544921875,-0.0136455078124999,1.1672900390625005,1.2111924943226997,-0.08837890625,0.86279296875,1.41357421875,45.00058823529412,216.33070678329503
-0.3326201171875,-0.0097392578124999,1.1653369140625005,1.211916300235819,-0.0029296875,0.71044921875,1.36474609375,45.00058823529412,216.33070678329503
-0.3375029296875,-0.0102275390624999,1.2156298828125005,1.2616532178414377,0.03662109375,1.01318359375,1.26123046875,45.235882352941175,216.0671694054005
-0.3082060546875,-0.0307353515625,1.3030322265625005,1.3393388732662588,0.09375,1.3291015625,1.02392578125,45.00058823529412,216.0671694054005
-0.2374052734375,-0.0595439453125,1.4221728515625005,1.4430808587881436,0.12255859375,1.3388671875,0.9189453125,45.09470588235294,216.0671694054005
-0.1304716796875,-0.0702861328125,1.5032275390625005,1.5105151551249378,0.193359375,0.80712890625,0.58056640625,45.09470588235294,216.0671694054005
-0.0391630859375,-0.0844462890625,1.4749072265625005,1.4778417540463735,0.244140625,-0.0107421875,0.1103515625,44.906470588235294,216.0671694054005
0.0291962890625,-0.0995830078125,1.3494189453125005,1.3534033725051473,0.18115234375,-0.38134765625,-0.44140625,44.906470588235294,216.0248134060779
0.0868134765625,-0.1264384765625,1.2312548828125005,1.2407706695912577,0.06787109375,-0.24169921875,-1.06591796875,45.04764705882353,216.0248134060779
0.1097626953125,-0.1757548828125,1.1565478515625005,1.174964067990394,-0.04541015625,-0.04541015625,-1.7294921875,45.04764705882353,216.0248134060779
0.0838837890625,-0.2240947265625,1.0896533203125005,1.1156161055706662,-0.2373046875,0.02978515625,-2.47705078125,45.00058823529412,216.0248134060779
0.0540986328125,-0.2738994140625,1.0007861328125005,1.0389997279719383,-0.40380859375,-0.07373046875,-3.2451171875,45.00058823529412,216.5534817151796
-0.0323271484375,-0.3066142578125,0.9163134765625,0.966792498393562,-0.5634765625,-0.28564453125,-3.60009765625,45.09470588235294,216.5534817151796
-0.0923857421875,-0.2983134765625,0.8274462890625001,0.8844169926802871,-0.7724609375,-0.591796875,-3.32080078125,45.04764705882353,216.5534817151796
-0.1856474609375,-0.2905009765625,0.7576220703125001,0.8323743139723292,-0.93212890625,-0.83935546875,-2.505859375,45.04764705882353,216.5534817151796
-0.2471708984375,-0.2543681640625,0.7459033203125001,0.8259348516536519,-0.9765625,-0.6826171875,-1.34716796875,45.09470588235294,216.5534817151796
-0.3111357421875,-0.2538798828125,0.8088916015625001,0.9030869659350652,-0.6591796875,-0.18603515625,-0.28564453125,45.235882352941175,216.8374204191329
-0.2701201171875,-0.2416728515625,0.8479541015625001,0.9221696173960654,-0.380859375,0.201171875,0.7392578125,45.00058823529412,216.8374204191329
-0.2100615234375,-0.1957744140625,0.8752978515625001,0.9211947643035792,-0.20556640625,0.49609375,1.341796875,45.18882352941176,216.8374204191329
-0.1822294921875,-0.1889384765625,0.8943408203125001,0.9320680439892294,-0.04150390625,0.68896484375,2.1943359375,45.18882352941176,216.8374204191329
-0.1260771484375,-0.1459697265625,0.9407275390625,0.9602973035375296,0.05126953125,0.53076171875,2.81982421875,45.04764705882353,216.9143248610181
-0.0953154296875,-0.1073955078125,0.9929736328125,1.003302278326762,0.1083984375,0.150390625,2.7744140625,45.09470588235294,216.9143248610181
-0.0948271484375,-0.0668681640625,1.0232470703125005,1.0298048875146166,0.11962890625,-0.20947265625,2.38330078125,45.09470588235294,216.9143248610181
-0.1177763671875,-0.0614970703125,1.0208056640625005,1.0294160315960637,0.15576171875,-0.453125,2.29052734375,45.09470588235294,216.9143248610181
-0.0879912109375,-0.0502666015625,1.0110400390625005,1.0161058729396228,0.12158203125,-0.5703125,2.36865234375,45.09470588235294,216.9143248610181
0.0228486328125,-0.0375712890625,1.0203173828125005,1.0212645217829557,0.26220703125,-0.65234375,1.97509765625,45.00058823529412,216.60365239908563
-0.0201201171875,-0.1030009765625,0.9949267578125,1.000446537152166,0.423828125,-0.67431640625,1.42041015625,44.81235294117647,216.60365239908563
-0.0342802734375,-0.1581767578125,0.9475634765625,0.9612864120407796,0.3662109375,-0.80126953125,0.9677734375,45.04764705882353,216.60365239908563
-0.0411162109375,-0.1816142578125,0.9377978515625,0.9561062136801972,0.31982421875,-0.97802734375,0.6201171875,45.04764705882353,216.60365239908563
-0.0357451171875,-0.1899150390625,0.9021533203125,0.9226191244580438,0.24365234375,-1.18359375,-0.0888671875,45.09470588235294,216.54249530802943
-0.0577177734375,-0.1738017578125,0.8870166015625001,0.9057244856118136,0.1630859375,-1.1494140625,-0.71435546875,44.906470588235294,216.54249530802943
-0.0972685546875,-0.1523173828125,0.8669970703125001,0.8856329243926645,0.091796875,-1.1103515625,-1.0419921875,44.906470588235294,216.54249530802943
-0.1363310546875,-0.1391337890625,0.8445361328125001,0.8667096672802186,0.01611328125,-1.02880859375,-1.0888671875,45.00058823529412,216.54249530802943
-0.1592802734375,-0.1347392578125,0.8420947265625001,0.8675531116920507,-0.02685546875,-0.92578125,-1.001953125,44.81235294117647,216.54249530802943
-0.1773466796875,-0.1454814453125,0.8396533203125001,0.8704219632099137,-0.08349609375,-0.83935546875,-0.994140625,45.04764705882353,216.42323276617552
-0.1919951171875,-0.1493876953125,0.8557666015625001,0.8896714477178937,-0.14599609375,-0.74951171875,-1.01708984375,44.906470588235294,216.42323276617552
-0.1978544921875,-0.1611064453125,0.8816455078125001,0.9178237784269724,-0.18115234375,-0.650390625,-0.986328125,44.85941176470588,216.42323276617552
-0.1934599609375,-0.1767314453125,0.8899462890625001,0.9277204092097464,-0.0859375,-0.572265625,-0.83837890625,45.04764705882353,216.42323276617552
-0.1817412109375,-0.1723369140625,0.9021533203125,0.9362747956943424,-0.02978515625,-0.5947265625,-0.64306640625,44.85941176470588,216.25539034728217
-0.1583037109375,-0.1723369140625,0.9085009765625,0.938154625453707,0.0126953125,-0.60986328125,-0.517578125,44.15352941176471,216.25539034728217
-0.1543974609375,-0.1620830078125,0.9226611328125,0.9494277452067322,0.0595703125,-0.57421875,-0.5185546875,44.81235294117647,216.25539034728217
-0.1548857421875,-0.1645244140625,0.9255908203125,0.952772922895245,0.09326171875,-0.54443359375,-0.46435546875,45.09470588235294,216.25539034728217
-0.1690458984375,-0.1694072265625,0.9275439453125,0.957921236154632,0.10595703125,-0.4619140625,-0.4306640625,45.18882352941176,216.25539034728217
-0.1895537109375,-0.1752666015625,0.9275439453125,0.9628015171567416,0.11474609375,-0.40380859375,-0.41796875,45.235882352941175,215.9792777826923
-0.2027373046875,-0.1664775390625,0.9168017578125,0.9535945935523904,0.08935546875,-0.3564453125,-0.36328125,44.85941176470588,215.9792777826923
-0.2173857421875,-0.1694072265625,0.9085009765625,0.9493836915246778,0.0751953125,-0.29638671875,-0.3388671875,45.00058823529412,215.9792777826923
-0.2359404296875,-0.1698955078125,0.9099658203125,0.9552853835755002,0.0576171875,-0.2275390625,-0.34765625,45.09470588235294,215.9792777826923
-0.2442412109375,-0.1796611328125,0.9075244140625,0.9568346011109606,0.0908203125,-0.162109375,-0.37646484375,44.81235294117647,216.0891424502758
-0.2491240234375,-0.1811259765625,0.9089892578125,0.9597556299693828,0.11767578125,-0.05126953125,-0.4228515625,44.85941176470588,216.0891424502758
-0.2491240234375,-0.1752666015625,0.9085009765625,0.9582041458332208,0.14208984375,0.0517578125,-0.43310546875,44.906470588235294,216.0891424502758
-0.2432646484375,-0.1698955078125,0.8987353515625001,0.9464498956112036,0.19775390625,0.1123046875,-0.45556640625,45.04764705882353,216.0891424502758
-0.2354521484375,-0.1586650390625,0.8992236328125001,0.9429822111965044,0.28564453125,0.146484375,-0.4970703125,45.235882352941175,216.0891424502758
-0.2369169921875,-0.1474345703125,0.9016650390625,0.943857222453684,0.36767578125,0.20263671875,-0.55078125,45.00058823529412,216.16908782361747
-0.2359404296875,-0.1401103515625,0.9011767578125,0.9420288455230758,0.48876953125,0.27685546875,-0.63671875,45.09470588235294,216.16908782361747
-0.2276396484375,-0.1279033203125,0.9211962890625,0.9574871653814644,0.5966796875,0.38720703125,-0.7421875,45.33,216.16908782361747
-0.2051787109375,-0.1293681640625,0.9387744140625,0.9696039530619016,0.68017578125,0.43212890625,-0.875,45.00058823529412,216.16908782361747
-0.1758818359375,-0.1274150390625,0.9500048828125,0.9745143866355366,0.779296875,0.46435546875,-0.98583984375,45.09470588235294,216.1267309243475
-0.1617216796875,-0.1342509765625,0.9553759765625,0.9782231253562156,0.82666015625,0.5126953125,-1.12744140625,45.04764705882353,216.1267309243475
-0.1583037109375,-0.1547587890625,0.9680712890625,0.9930621170882542,0.80859375,0.62841796875,-1.1962890625,45.37705882352941,216.1267309243475
-0.1783232421875,-0.1835673828125,0.9851611328125,1.017859823522523,0.767578125,0.7431640625,-1.1806640625,45.00058823529412,216.1267309243475
-0.1841826171875,-0.2118876953125,1.0090869140625005,1.0474139735706507,0.67578125,0.744140625,-1.1103515625,44.81235294117647,216.1267309243475
-0.1929716796875,-0.2406962890625,1.0154345703125005,1.061263463667531,0.5927734375,0.77392578125,-1.13720703125,45.09470588235294,216.4358065967025
-0.2300810546875,-0.2592509765625,1.0203173828125005,1.0775880113680143,0.4619140625,0.7998046875,-1.29052734375,45.00058823529412,216.4358065967025
-0.2764677734375,-0.2646220703125,1.0447314453125005,1.1126199093449247,0.34326171875,0.802734375,-1.46337890625,45.00058823529412,216.4358065967025
-0.3428740234375,-0.2480205078125,1.0608447265625005,1.142133224330356,0.28173828125,0.748046875,-1.40283203125,45.04764705882353,216.4358065967025
-0.3980498046875,-0.2236064453125,1.0667041015625005,1.1603021717153297,0.33056640625,0.77197265625,-1.10546875,45.04764705882353,216.1173333146433
-0.4205107421875,-0.2006572265625,1.0554736328125005,1.1537405238740872,0.421875,0.970703125,-0.74072265625,45.00058823529412,216.1173333146433
-0.4376005859375,-0.1811259765625,1.0769580078125005,1.1764945570592462,0.4716796875,1.34375,-0.421875,45.04764705882353,216.1173333146433
-0.4336943359375,-0.1440166015625,1.1443408203125005,1.232212429568606,0.560546875,1.82861328125,-0.23583984375,45.235882352941175,216.1173333146433
-0.3824248046875,-0.1132548828125,1.2000048828125005,1.2645501644833976,0.599609375,2.0263671875,-0.29052734375,45.09470588235294,216.1173333146433
-0.3394560546875,-0.1073955078125,1.2439501953125005,1.2938996470284376,0.61474609375,2.1142578125,-0.53466796875,45.18882352941176,215.5964885070196
-0.2813505859375,-0.1357158203125,1.2913134765625005,1.3285584032485738,0.50146484375,2.11083984375,-0.796875,45.00058823529412,215.5964885070196
-0.2388701171875,-0.1635478515625,1.3372119140625005,1.3681895101726864,0.341796875,2.02685546875,-0.99853515625,45.235882352941175,215.5964885070196
-0.1866240234375,-0.1620830078125,1.4070361328125005,1.4285832515417165,0.234375,1.84716796875,-0.70361328125,45.00058823529412,215.5964885070196
-0.1104521484375,-0.1645244140625,1.4294970703125005,1.443166599512714,0.16455078125,1.5283203125,-0.603515625,44.906470588235294,215.5321610372032
-0.0562529296875,-0.1669658203125,1.4080126953125005,1.418993209078967,0.13427734375,1.1513671875,-0.65673828125,45.09470588235294,215.5321610372032
0.0052705078125,-0.1606181640625,1.3611376953125005,1.3705917694485237,0.12744140625,0.869140625,-0.70361328125,45.235882352941175,215.5321610372032
0.0931611328125,-0.1264384765625,1.2771533203125005,1.2867735964837008,0.123046875,0.2412109375,-0.716796875,45.18882352941176,215.5321610372032
0.1156220703125,-0.0776103515625,1.1687548828125005,1.177021582602063,0.22705078125,-0.05908203125,-0.74267578125,45.04764705882353,215.5321610372032
0.0946259765625,-0.0121806640624999,1.0598681640625005,1.0641536398521716,0.2822265625,-0.00537109375,-0.53369140625,45.09470588235294,216.03103128122527
0.0731416015625,0.0595966796875,0.9880908203125,0.99258497232969,0.37451171875,0.1298828125,0.07373046875,45.235882352941175,216.03103128122527
0.0394501953125,0.1108662109375,0.9514697265625,0.9587190804415812,0.52734375,0.20263671875,0.83056640625,45.09470588235294,216.03103128122527
-0.0074248046875,0.1201435546875,0.9543994140625,0.96196041655592,0.71728515625,0.24658203125,1.4482421875,45.00058823529412,216.03103128122527
-0.0513701171875,0.0859638671875,0.9788134765625,0.9839230139101612,0.8349609375,0.32275390625,1.6962890625,45.04764705882353,216.67738378941883
-0.0748076171875,0.0293232421875,1.0168994140625005,1.0200688459326237,0.8671875,0.42626953125,1.455078125,44.906470588235294,216.67738378941883
-0.0894560546875,-0.0190166015625,1.0642626953125005,1.0681849565918198,0.806640625,0.490234375,1.05517578125,45.00058823529412,216.67738378941883
-0.1075224609375,-0.0590556640625,1.0725634765625005,1.079555956085536,0.6513671875,0.61279296875,0.55419921875,45.00058823529412,216.67738378941883
-0.1163115234375,-0.0956767578125,1.0637744140625005,1.0743828072358006,0.35546875,0.79931640625,-0.03369140625,45.04764705882353,216.67738378941883
-0.1495146484375,-0.1293681640625,1.0618212890625005,1.0800718503306348,0.109375,0.9375,-0.412109375,45.00058823529412,216.285173216854
-0.1524443359375,-0.1557353515625,1.0710986328125005,1.0930439407903636,0.021484375,1.05029296875,-0.6796875,45.235882352941175,216.285173216854
-0.1182646484375,-0.1645244140625,1.0427783203125005,1.0622812411063345,-0.10009765625,0.94873046875,-0.85888671875,45.04764705882353,216.285173216854
-0.0845732421875,-0.1655009765625,1.0149462890625005,1.0318232291526428,-0.2412109375,0.8212890625,-1.58837890625,45.235882352941175,216.285173216854
-0.0850615234375,-0.1523173828125,0.9714892578125,0.9870295972874572,-0.4306640625,0.6630859375,-1.95556640625,45.09470588235294,216.5393212330007
-0.0816435546875,-0.1215556640625,0.9275439453125,0.9390310005391538,-0.50732421875,0.5107421875,-1.95654296875,45.00058823529412,216.5393212330007
-0.0821318359375,-0.1005595703125,0.8948291015625001,0.9041996387187125,-0.5390625,0.29150390625,-1.640625,45.235882352941175,216.5393212330007
-0.0704130859375,-0.0624736328125,0.8640673828125001,0.8691797279668206,-0.58740234375,0.12646484375,-1.19287109375,45.04764705882353,216.5393212330007
-0.1001982421875,-0.0414775390625,0.8381884765625001,0.8451745359547405,-0.45166015625,0.09521484375,-0.728515625,45.18882352941176,216.5393212330007
-0.1299833984375,-0.0385478515625,0.8123095703125001,0.8235462699513154,-0.33837890625,0.11083984375,0.01708984375,45.04764705882353,216.7401296484947
-0.1475615234375,-0.0365947265625,0.7805712890625001,0.7952390298017779,-0.21875,0.0498046875,0.82958984375,44.81235294117647,216.7401296484947
-0.1373076171875,-0.0375712890625,0.7771533203125001,0.7900837087121024,-0.10498046875,0.02587890625,1.38134765625,45.00058823529412,216.7401296484947
-0.1348662109375,-0.0385478515625,0.7795947265625001,0.7921128514276119,0.0478515625,0.0205078125,1.72509765625,45.235882352941175,216.7401296484947
-0.1353544921875,-0.0502666015625,0.7825244140625001,0.7957336416112103,0.15966796875,0.07080078125,1.93603515625,45.04764705882353,216.35890225363804
-0.1309599609375,-0.0595439453125,0.7717822265625001,0.7850756638884558,0.25537109375,0.08544921875,1.9775390625,45.00058823529412,216.35890225363804
-0.1299833984375,-0.0663798828125,0.7693408203125001,0.7830627500466828,0.2646484375,0.052734375,1.93994140625,45.18882352941176,216.35890225363804
-0.1524443359375,-0.0707744140625,0.7947314453125001,0.8123092781778445,0.2470703125,0.10205078125,1.91259765625,45.235882352941175,216.35890225363804
-0.1719755859375,-0.0824931640625,0.8069384765625001,0.8291745469034837,0.31005859375,0.21875,1.99658203125,45.04764705882353,216.35890225363804
-0.1270537109375,-0.0605205078125,0.8020556640625001,0.814308704106502,0.1259765625,0.04248046875,1.91357421875,45.04764705882353,216.36830139869036
-0.1241240234375,-0.0463603515625,0.8215869140625001,0.8322025671373848,-0.00927734375,-0.11962890625,1.8310546875,44.906470588235294,216.36830139869036
-0.1319365234375,-0.0507548828125,0.8455126953125001,0.8572485183893253,-0.078125,-0.2470703125,1.83154296875,45.09470588235294,216.36830139869036
-0.1329130859375,-0.0478251953125,0.8533251953125001,0.86493758542176,-0.08642578125,-0.39453125,1.9404296875,45.235882352941175,216.36830139869036
-0.1534208984375,-0.0405009765625,0.8787158203125001,0.8929276533109252,-0.1181640625,-0.509765625,2.0263671875,45.00058823529412,216.35890225363804
-0.1602568359375,-0.0434306640625,0.8879931640625001,0.903382718158444,-0.08056640625,-0.580078125,2.0810546875,45.09470588235294,216.35890225363804
-0.1753935546875,-0.0385478515625,0.8879931640625001,0.9059694781325316,-0.0947265625,-0.74951171875,2.11181640625,45.00058823529412,216.35890225363804
-0.1880888671875,-0.0238994140625,0.9036181640625,0.9232953971379316,-0.05810546875,-0.6220703125,2.1650390625,45.04764705882353,216.35890225363804
-0.2222685546875,-0.0180400390625,0.9041064453125,0.9312020284921266,-0.02490234375,-0.564453125,2.2626953125,45.09470588235294,216.35890225363804
-0.2344755859375,-0.0038798828124999,0.9143603515625,0.943953762851164,-0.00439453125,-0.4873046875,2.3349609375,45.00058823529412,216.10317002466684
-0.2398466796875,2.6367187500001e-05,0.9231494140625,0.9537983388202582,-0.00341796875,-0.36865234375,2.3505859375,45.00058823529412,216.10317002466684
-0.2530302734375,-0.0038798828124999,0.9319384765625,0.9656856097426988,-0.02587890625,-0.2705078125,2.26123046875,45.04764705882353,216.10317002466684
-0.2632841796875,-0.0072978515624999,0.9397509765625,0.9759629684887232,-0.08984375,-0.1748046875,2.10693359375,44.906470588235294,216.10317002466684
-0.2813505859375,-0.0077861328124999,0.9436572265625,0.9847373951034752,-0.14794921875,-0.0703125,1.962890625,45.04764705882353,216.4106595080252
-0.3013701171875,-0.0048564453124999,0.9583056640625,1.0045881137903985,-0.189453125,0.02099609375,1.87158203125,45.235882352941175,216.4106595080252
-0.3116240234375,2.6367187500001e-05,0.9661181640625,1.0151324246669002,-0.2236328125,0.14892578125,1.82666015625,45.04764705882353,216.4106595080252
-0.2999052734375,0.0024677734375,0.9900439453125,1.0344739129583216,-0.244140625,0.2421875,1.845703125,45.18882352941176,216.4106595080252
-0.2715849609375,0.0063740234375,0.9822314453125,1.0191062905030506,-0.2421875,0.25341796875,1.84619140625,45.00058823529412,216.4106595080252
-0.2432646484375,0.0180927734375,1.0032275390625005,1.032458489607927,-0.2265625,0.28759765625,1.81591796875,45.235882352941175,216.02944260457383
-0.2276396484375,0.0210224609375,1.0120166015625005,1.0375159542111771,-0.201171875,0.26513671875,1.8291015625,44.81235294117647,216.02944260457383
-0.1983427734375,0.0410419921875,0.9934619140625,1.0138988487962322,-0.13134765625,0.15966796875,1.7919921875,44.81235294117647,216.02944260457383
-0.1485380859375,0.0522724609375,0.9871142578125,0.9995951836234314,-0.14599609375,0.115234375,1.33984375,45.00058823529412,216.02944260457383
-0.1758818359375,0.0400654296875,1.0007861328125005,1.016913242365635,-0.126953125,0.26611328125,1.0166015625,45.04764705882353,216.49696280803397
-0.2042021484375,0.0322529296875,1.0237353515625005,1.0444007080324649,-0.09619140625,0.3642578125,0.685546875,45.00058823529412,216.49696280803397
-0.2457060546875,0.0151630859375,1.0354541015625005,1.0643150759656883,-0.10791015625,0.46533203125,0.37744140625,45.00058823529412,216.49696280803397
-0.2906279296875,0.0068623046875,1.0491259765625005,1.0886583483528185,-0.16845703125,0.5810546875,0.080078125,44.906470588235294,216.49696280803397
-0.3653349609375,-0.0263408203125,1.0877001953125005,1.1477173813185857,-0.26708984375,0.9306640625,-0.08984375,45.235882352941175,216.49696280803397
-0.4278349609375,-0.0658916015625,1.1360400390625005,1.2157184819315656,-0.291015625,1.38427734375,0.0859375,45.04764705882353,216.1235546489271
-0.4258818359375,-0.0990947265625,1.2146533203125005,1.2909600270961814,-0.3759765625,1.57763671875,0.33984375,45.00058823529412,216.1235546489271
-0.4058623046875,-0.1405986328125,1.2317431640625005,1.3044858788540767,-0.3984375,1.2392578125,0.92919921875,45.235882352941175,216.1235546489271
-0.3516630859375,-0.1166728515625,1.2371142578125005,1.2914066622043516,-0.4013671875,0.89599609375,1.09765625,44.906470588235294,216.1235546489271
-0.3077177734375,-0.1059306640625,1.2566455078125005,1.2981022555959878,-0.42529296875,0.90380859375,0.9248046875,44.906470588235294,215.4898064801585
-0.1695341796875,-0.1113017578125,1.2737353515625005,1.2897796963801655,-0.50537109375,1.01904296875,0.36083984375,45.00058823529412,215.4898064801585
-0.0347685546875,-0.1010478515625,1.2791064453125005,1.2835625497576792,-0.57177734375,1.0048828125,-0.255859375,45.09470588235294,215.4898064801585
0.0082001953125,-0.0683330078125,1.2087939453125005,1.2107516035025625,-0.55029296875,0.93359375,-1.1396484375,45.235882352941175,215.4898064801585
-0.0323271484375,-0.0302470703125,1.1941455078125005,1.1949658671348582,-0.4521484375,1.3349609375,-1.7958984375,45.09470588235294,215.4898064801585
-0.0367216796875,-0.0282939453125,1.2210009765625005,1.2218806872469168,-0.4169921875,1.74658203125,-1.892578125,45.235882352941175,215.5321610372032
0.0145478515625,-0.0502666015625,1.1980517578125005,1.199194056696142,-0.3076171875,1.48974609375,-1.74951171875,45.18882352941176,215.5321610372032
0.0331025390625,-0.0834697265625,1.1116259765625005,1.1152467373246762,-0.17431640625,0.7138671875,-1.47216796875,45.04764705882353,215.5321610372032
0.0243134765625,-0.1220439453125,1.0193408203125005,1.0269087484705526,-0.14892578125,0.5322265625,-1.52734375,45.00058823529412,215.5321610372032
0.0443330078125,-0.1669658203125,0.9758837890625,0.9910560884679088,-0.13916015625,0.61767578125,-1.611328125,45.18882352941176,216.34791597459716
0.0711884765625,-0.2148173828125,0.9465869140625,0.9732631160318718,-0.1279296875,0.62158203125,-1.73583984375,45.42411764705882,216.34791597459716
0.0731416015625,-0.2665751953125,0.9431689453125,0.982842656805716,-0.26220703125,0.40576171875,-1.6650390625,45.00058823529412,216.34791597459716
0.0750947265625,-0.2973369140625,0.9431689453125,0.9917742272430762,-0.568359375,0.1064453125,-1.51904296875,45.235882352941175,216.34791597459716
-0.0132841796875,-0.3046611328125,1.0164111328125005,1.0611722132536998,-0.8310546875,-0.13134765625,-0.9052734375,45.00058823529412,216.34791597459716
-0.0640654296875,-0.2446025390625,1.1155322265625005,1.143829939237628,-0.87255859375,-0.3486328125,-0.08984375,45.00058823529412,216.92055465891832
-0.0914091796875,-0.1581767578125,1.1526416015625005,1.1670296425094702,-0.48486328125,-0.4345703125,0.314453125,45.235882352941175,216.92055465891832
-0.1553740234375,-0.1230205078125,1.1653369140625005,1.1820682111360212,-0.02734375,-0.52001953125,0.63037109375,45.09470588235294,216.92055465891832
-0.1812529296875,-0.0903056640625,1.1277392578125005,1.1457764053660555,0.05615234375,-0.4423828125,1.3857421875,44.85941176470588,216.92055465891832
-0.1910185546875,-0.0209697265625,1.1340869140625005,1.1502525576215044,0.24755859375,-0.36181640625,1.10400390625,45.09470588235294,216.9441123643388
-0.2325224609375,0.0063740234375,1.1399462890625005,1.1634366613454203,0.4384765625,-0.11279296875,0.9833984375,45.04764705882353,216.9441123643388
-0.2378935546875,-0.0107158203124999,1.0950244140625005,1.1206188645385844,0.69091796875,-0.02587890625,1.34228515625,44.85941176470588,216.9441123643388
-0.1729521484375,-0.0102275390624999,1.0437548828125005,1.058036532261225,0.76171875,-0.2333984375,1.31396484375,45.235882352941175,216.9441123643388
-0.0914091796875,-0.0063212890624999,0.9597705078125,0.9641343394430144,0.74267578125,-0.431640625,0.90869140625,44.906470588235294,216.9441123643388
-0.0630888671875,-0.0488017578125,0.9089892578125,0.9124819382032237,0.60009765625,-0.498046875,0.54541015625,44.1064705882353,216.70875662199307
0.0121064453125,-0.0112041015624999,0.8694384765625001,0.8695949415890414,0.548828125,-0.5869140625,-0.3125,45.04764705882353,216.70875662199307
-0.0025419921874999,-0.0190166015625,0.8645556640625001,0.8647685176518736,0.53759765625,-0.4462890625,-1.08642578125,44.906470588235294,216.70875662199307
-0.0562529296875,-0.0619853515625,0.8225634765625001,0.8268114953732442,0.482421875,-0.15673828125,-1.65576171875,44.81235294117647,216.70875662199307
-0.0997099609375,-0.1020244140625,0.7957080078125001,0.8083948856047346,0.517578125,0.06201171875,-1.65185546875,45.04764705882353,216.3369297094676
-0.0894560546875,-0.1044658203125,0.7893603515625001,0.8012523060514024,0.544921875,0.1728515625,-1.52197265625,45.04764705882353,216.3369297094676
-0.0899443359375,-0.1103251953125,0.7898486328125001,0.8025724235505197,0.47998046875,0.1943359375,-1.73974609375,45.18882352941176,216.3369297094676
-0.0953154296875,-0.1108134765625,0.7888720703125001,0.8022990720694563,0.36962890625,0.18701171875,-2.04443359375,45.518235294117645,216.3369297094676
-0.1026396484375,-0.1161845703125,0.7976611328125001,0.8125866320644185,0.27978515625,0.154296875,-2.2646484375,45.04764705882353,216.3369297094676
-0.1021513671875,-0.1254619140625,0.7991259765625001,0.8153391442310807,0.18212890625,0.13134765625,-2.34033203125,45.33,216.314957220972
-0.1084990234375,-0.1322978515625,0.8191455078125001,0.8368238300767629,0.09130859375,0.07470703125,-2.34228515625,45.00058823529412,216.314957220972
-0.1060576171875,-0.1459697265625,0.8347705078125001,0.8540475279220475,-0.048828125,-0.025390625,-2.3701171875,44.906470588235294,216.314957220972
-0.1021513671875,-0.1464580078125,0.8401416015625001,0.8589078882782976,-0.18701171875,-0.14794921875,-2.40234375,45.09470588235294,216.314957220972
-0.1089873046875,-0.1352275390625,0.8650439453125001,0.8823070594899269,-0.2080078125,-0.171875,-2.5234375,44.906470588235294,215.93533230540456
-0.1294951171875,-0.1484111328125,0.8831103515625001,0.9048086774312768,-0.23876953125,-0.00146484375,-2.51123046875,45.09470588235294,215.93533230540456
-0.1587919921875,-0.1581767578125,0.9026416015625,0.9300519578852916,-0.22998046875,-0.1240234375,-2.4755859375,45.37705882352941,215.93533230540456
-0.1768583984375,-0.1567119140625,0.9089892578125,0.9392012499595226,-0.15185546875,-0.26904296875,-2.37158203125,45.00058823529412,215.93533230540456
-0.2002958984375,-0.1508525390625,0.9314501953125,0.9646110106256216,-0.12548828125,-0.24169921875,-2.24609375,45.33,215.93533230540456
-0.2120146484375,-0.1537822265625,0.9334033203125,0.9694539404886632,-0.05859375,-0.2919921875,-2.1640625,44.85941176470588,216.1047582579216
-0.2256865234375,-0.1596416015625,0.9168017578125,0.957572613924832,-0.03515625,-0.330078125,-2.02099609375,44.906470588235294,216.1047582579216
-0.2403349609375,-0.1537822265625,0.9177783203125,0.9611071282073522,-0.017578125,-0.29541015625,-1.84130859375,45.09470588235294,216.1047582579216
-0.2461943359375,-0.1498759765625,0.9099658203125,0.9545220026459688,-0.0244140625,-0.23193359375,-1.72314453125,45.00058823529412,216.1047582579216
-0.2579130859375,-0.1449931640625,0.9021533203125,0.949432878550942,0.01220703125,-0.14990234375,-1.5546875,45.04764705882353,215.82864766517503
-0.2618193359375,-0.1396220703125,0.8982470703125001,0.9459870435233728,0.09814453125,-0.01025390625,-1.38037109375,45.00058823529412,215.82864766517503
-0.2598662109375,-0.1235087890625,0.8953173828125001,0.9404137836765916,0.17822265625,0.09619140625,-1.1640625,44.906470588235294,215.82864766517503
-0.2437529296875,-0.1166728515625,0.8943408203125001,0.934277018822683,0.29052734375,0.2158203125,-0.9736328125,44.906470588235294,215.82864766517503
-0.2300810546875,-0.1103251953125,0.8938525390625001,0.9295597355927868,0.40576171875,0.2275390625,-0.80029296875,45.00058823529412,215.82864766517503
-0.2286162109375,-0.1098369140625,0.8792041015625001,0.9150570319922772,0.48291015625,0.29931640625,-0.67529296875,45.00058823529412,215.9023733435963
-0.2286162109375,-0.1171611328125,0.8889697265625001,0.9253427892894254,0.57177734375,0.4228515625,-0.57470703125,45.00058823529412,215.9023733435963
-0.2159208984375,-0.1200908203125,0.9104541015625,0.9433823777013038,0.609375,0.5107421875,-0.5244140625,45.04764705882353,215.9023733435963
-0.2027373046875,-0.1313212890625,0.9495166015625,0.979759905444078,0.63720703125,0.50146484375,-0.54541015625,44.85941176470588,215.9023733435963
-0.1719755859375,-0.1440166015625,0.9841845703125,1.0094234255877752,0.705078125,0.65625,-0.57568359375,45.33,216.65541126723696
-0.1109404296875,-0.1625712890625,0.9832080078125,1.0027139121371136,0.6875,0.5185546875,-0.83935546875,45.00058823529412,216.65541126723696
-0.1392607421875,-0.1850322265625,1.0007861328125005,1.027230919906079,0.60400390625,0.47021484375,-1.16552734375,45.00058823529412,216.65541126723696
-0.2027373046875,-0.2084697265625,1.0164111328125005,1.0571913887798112,0.52294921875,0.63525390625,-1.36572265625,45.235882352941175,216.65541126723696
-0.2447294921875,-0.2143291015625,1.0520556640625005,1.101204162909371,0.439453125,0.79248046875,-1.345703125,45.09470588235294,216.65541126723696
-0.2808623046875,-0.2314189453125,1.0969775390625005,1.1557673138013305,0.3662109375,0.93896484375,-1.27734375,45.09470588235294,216.071799362689
-0.2945341796875,-0.2289775390625,1.1311572265625005,1.1910909988761875,0.34033203125,1.078125,-1.32421875,45.18882352941176,216.071799362689
-0.3052763671875,-0.2348369140625,1.1902392578125005,1.2510042075899053,0.23583984375,1.05322265625,-1.38037109375,44.906470588235294,216.071799362689
-0.3199248046875,-0.2309306640625,1.2410205078125005,1.3022337551568377,0.21484375,1.001953125,-1.36181640625,45.00058823529412,216.071799362689
-0.3086943359375,-0.2226298828125,1.2844775390625005,1.3396786204597946,0.16162109375,0.8388671875,-1.2666015625,45.04764705882353,215.91335965027787
-0.2774443359375,-0.2089580078125,1.3181689453125005,1.3631610972144996,0.24853515625,0.58935546875,-1.181640625,45.00058823529412,215.91335965027787
-0.2740263671875,-0.1952861328125,1.3293994140625005,1.3713241504810447,0.13720703125,0.38818359375,-1.06591796875,44.34176470588236,215.91335965027787
-0.2715849609375,-0.1708720703125,1.3362353515625005,1.3742199860959896,0.13232421875,0.2802734375,-0.77294921875,45.09470588235294,215.91335965027787
-0.2251982421875,-0.1532939453125,1.3137744140625005,1.3417214662511283,0.16455078125,0.1171875,-0.328125,45.00058823529412,215.91335965027787
-0.1685576171875,-0.1449931640625,1.2703173828125005,1.289628218135903,0.26025390625,-0.103515625,0.15966796875,45.235882352941175,215.72196371179555
-0.1446318359375,-0.1347392578125,1.2107470703125005,1.226776876140408,0.33447265625,-0.16259765625,0.623046875,45.518235294117645,215.72196371179555
-0.1485380859375,-0.1283916015625,1.1902392578125005,1.2063239437082445,0.34716796875,0.19091796875,1.0078125,45.09470588235294,215.72196371179555
-0.0762724609375,-0.1318095703125,1.1721728515625005,1.182023876689296,0.43017578125,0.298828125,1.39794921875,45.00058823529412,215.72196371179555
0.0423798828125,-0.1303447265625,1.1179736328125005,1.126344017551402,0.47412109375,-0.09765625,1.412109375,45.235882352941175,216.05141519857523
0.1009736328125,-0.1020244140625,1.0276416015625005,1.0376183869082556,0.50244140625,-0.57421875,1.2734375,45.18882352941176,216.05141519857523
0.1107392578125,-0.0458720703125,0.9500048828125,0.957536791681244,0.4990234375,-0.77734375,1.18310546875,45.235882352941175,216.05141519857523
0.1019501953125,-0.0131572265624999,0.9104541015625,0.9162388476740402,0.46435546875,-0.677734375,1.40478515625,44.906470588235294,216.05141519857523
0.0887666015625,0.0112568359375,0.8904345703125001,0.894918962764722,0.39794921875,-0.443359375,1.494140625,45.00058823529412,216.05141519857523
0.0687470703125,0.0254169921875,0.9163134765625,0.919240213708292,0.33984375,-0.2392578125,1.34130859375,45.09470588235294,216.49537623342076
0.0067353515625,0.0166279296875,0.9558642578125,0.9560326000559836,0.26220703125,0.025390625,1.0654296875,45.09470588235294,216.49537623342076
-0.0577177734375,0.0010029296875,1.0168994140625005,1.0185365803736246,0.24658203125,0.423828125,0.9814453125,45.04764705882353,216.49537623342076
-0.0586943359375,0.0010029296875,1.0266650390625005,1.028341934072664,0.21728515625,0.7451171875,0.8623046875,44.85941176470588,216.49537623342076
-0.0792021484375,0.0034443359375,1.0730517578125005,1.0759762630800287,0.30810546875,0.99560546875,0.3896484375,45.09470588235294,216.7495304635665
-0.1084990234375,-0.0112041015624999,1.0813525390625005,1.0868398611182928,0.294921875,1.04541015625,0.11572265625,45.47117647058823,216.7495304635665
-0.1109404296875,-0.0219462890625,1.0823291015625005,1.0882213481787384,0.22216796875,0.9580078125,-0.02880859375,45.00058823529412,216.7495304635665
-0.1065458984375,-0.0351298828125,1.0979541015625005,1.1036708505157646,0.1484375,0.94140625,-0.13720703125,44.906470588235294,216.7495304635665
-0.1094755859375,-0.0605205078125,1.1252978515625005,1.132229168725758,0.1923828125,1.0927734375,-0.29052734375,45.04764705882353,216.7495304635665
-0.1041044921875,-0.0888408203125,1.1013720703125005,1.1098427248542284,0.17236328125,1.0869140625,-0.412109375,45.04764705882353,216.7699177545285
-0.0865263671875,-0.0927470703125,1.0657275390625005,1.0732492808226946,0.029296875,0.857421875,-0.31103515625,45.37705882352941,216.7699177545285
-0.0743193359375,-0.0927470703125,1.0569384765625005,1.06359970194806,-0.015625,0.60595703125,-0.4736328125,45.09470588235294,216.7699177545285
-0.0831083984375,-0.0927470703125,1.0198291015625005,1.0274047018269747,-0.09130859375,0.365234375,-0.65576171875,45.33,216.7699177545285
-0.1065458984375,-0.1010478515625,0.9880908203125,0.9989425238546412,-0.1220703125,0.24072265625,-0.4794921875,45.00058823529412,217.0790099304701
-0.1001982421875,-0.1044658203125,0.9421923828125,0.9532467055180024,-0.0859375,0.126953125,-0.13720703125,45.42411764705882,217.0790099304701
-0.0811552734375,-0.0824931640625,0.9036181640625,0.9109978523286656,-0.08642578125,0.04833984375,-0.01171875,45.42411764705882,217.0790099304701
-0.0860380859375,-0.0776103515625,0.8640673828125001,0.871801789939598,-0.02001953125,0.0009765625,0.052734375,45.00058823529412,217.0790099304701
-0.1128935546875,-0.0942119140625,0.8377001953125001,0.8505071761413305,0.04052734375,0.1337890625,0.3662109375,45.00058823529412,217.0790099304701
-0.1236357421875,-0.0893291015625,0.8162158203125001,0.8303455608724748,0.03857421875,0.19091796875,0.5263671875,45.04764705882353,216.7699177545285
-0.1358427734375,-0.0854228515625,0.8025439453125001,0.8184296590556907,-0.00244140625,0.26220703125,0.533203125,45.09470588235294,216.7699177545285
-0.2574248046875,-0.0751689453125,0.7820361328125001,0.8267396285603597,-0.0400390625,0.28369140625,0.486328125,45.235882352941175,216.7699177545285
-0.1490263671875,-0.0741923828125,0.7996142578125001,0.8167596519671717,-0.08056640625,0.2685546875,0.3525390625,45.33,216.7699177545285
-0.1514677734375,-0.0776103515625,0.7947314453125001,0.8127508371132347,-0.095703125,0.3642578125,0.41943359375,45.235882352941175,216.30555821417215
-0.1441435546875,-0.0654033203125,0.8040087890625001,0.8194419390997726,-0.11279296875,0.4189453125,0.44482421875,44.906470588235294,216.30555821417215
-0.1436552734375,-0.0395244140625,0.8001025390625001,0.8138569222582348,-0.13232421875,0.48974609375,0.4365234375,44.85941176470588,216.30555821417215
-0.1841826171875,-0.0737041015625,0.8137744140625001,0.8376063085029493,-0.11328125,0.60986328125,0.7490234375,45.235882352941175,216.30555821417215
-0.1558623046875,-0.0531962890625,0.8342822265625001,0.8503821122005113,-0.1513671875,0.6455078125,0.91064453125,45.04764705882353,216.30555821417215
-0.1392607421875,-0.0566142578125,0.8406298828125001,0.8539656482433184,-0.14892578125,0.47119140625,0.99951171875,45.00058823529412,216.314957220972
-0.1495146484375,-0.0566142578125,0.8679736328125001,0.8825746606054233,-0.13623046875,0.36572265625,1.18896484375,45.00058823529412,216.314957220972
-0.1622099609375,-0.0605205078125,0.8762744140625001,0.8932142251631497,-0.10546875,0.2158203125,1.36767578125,45.09470588235294,216.314957220972
-0.1822294921875,-0.0527080078125,0.8801806640625001,0.9003908725103672,-0.12841796875,0.0927734375,1.52880859375,45.04764705882353,216.314957220972
-0.1919951171875,-0.0546611328125,0.8904345703125001,0.9125369518390992,-0.10595703125,-0.03369140625,1.63720703125,45.04764705882353,215.943140972184
-0.1978544921875,-0.0624736328125,0.9006884765625001,0.92427760261084,-0.0771484375,-0.0966796875,1.69873046875,45.09470588235294,215.943140972184
-0.1998076171875,-0.0688212890625,0.8962939453125001,0.9208703981116004,-0.09765625,-0.25,1.7021484375,45.18882352941176,215.943140972184
-0.2105498046875,-0.0712626953125,0.8958056640625001,0.922972036284742,-0.13916015625,-0.1611328125,1.6689453125,44.906470588235294,215.943140972184
-0.2188505859375,-0.0776103515625,0.8816455078125001,0.9117114384940024,-0.16943359375,-0.13232421875,1.65576171875,44.906470588235294,215.943140972184
-0.2339873046875,-0.0751689453125,0.8792041015625001,0.91290759734961,-0.2294921875,-0.09619140625,1.634765625,45.00058823529412,216.52833496222397
-0.2447294921875,-0.0761455078125,0.8762744140625001,0.9129882318228164,-0.28564453125,-0.0498046875,1.61328125,45.09470588235294,216.52833496222397
-0.2505888671875,-0.0697978515625,0.8904345703125001,0.9276530841045384,-0.34716796875,0.142578125,1.60009765625,45.04764705882353,216.52833496222397
-0.2452177734375,-0.0624736328125,0.9246142578125,0.9586168353187818,-0.36328125,0.31494140625,1.6435546875,45.235882352941175,216.52833496222397
-0.2149443359375,-0.0497783203125,0.9514697265625,0.976715715697083,-0.388671875,0.29931640625,1.72265625,44.906470588235294,216.36830139869036
-0.1959013671875,-0.0199931640625,0.9685595703125,0.9883747839352724,-0.34912109375,0.23291015625,1.8037109375,45.235882352941175,216.36830139869036
-0.1944365234375,0.0112568359375,0.9690478515625,0.988426029918113,-0.2802734375,0.16162109375,1.826171875,45.09470588235294,216.36830139869036
-0.1900419921875,0.0337177734375,0.9670947265625,0.9861668505811646,-0.162109375,0.1640625,1.7666015625,45.09470588235294,216.36830139869036
-0.2017607421875,0.0425068359375,0.9758837890625,0.9974283923893738,-0.0771484375,0.3544921875,1.6806640625,45.235882352941175,216.36830139869036
-0.2076201171875,0.0386005859375,1.0017626953125005,1.023779573939349,-0.0146484375,0.57763671875,1.6494140625,45.00058823529412,216.2098569182672
-0.2212919921875,0.0307880859375,1.0217822265625005,1.0459239793412465,0.00732421875,0.6806640625,1.66796875,45.00058823529412,216.2098569182672
-0.2540068359375,0.0273701171875,1.0432666015625005,1.074092080761052,-0.00634765625,0.6474609375,1.66015625,45.235882352941175,216.2098569182672
-0.2881865234375,0.0386005859375,1.0642626953125005,1.1032663151567434,0.04150390625,0.65673828125,1.5224609375,45.235882352941175,216.2098569182672
-0.3194365234375,0.0449482421875,1.0935595703125005,1.1401458550569936,0.13818359375,0.77734375,1.27001953125,45.09470588235294,216.37928764434503
-0.3614287109375,0.0337177734375,1.1340869140625005,1.190764766855037,0.2275390625,1.0107421875,1.0380859375,45.18882352941176,216.37928764434503
-0.3843779296875,0.0127216796875,1.1785205078125005,1.2396849685704645,0.3076171875,1.22998046875,0.9296875,45.09470588235294,216.37928764434503
-0.3765654296875,-0.0092509765624999,1.2346728515625005,1.2908540404664532,0.3369140625,1.2607421875,0.91357421875,45.33,216.37928764434503
-0.3628935546875,-0.0365947265625,1.2595751953125005,1.3113201663561942,0.37109375,1.140625,0.88671875,45.04764705882353,216.37928764434503
-0.3423857421875,-0.0522197265625,1.2683642578125005,1.3148014248516018,0.4296875,1.130859375,0.81201171875,45.47117647058823,216.1361288615092
-0.3145537109375,-0.0629619140625,1.2654345703125005,1.305462711619504,0.455078125,1.2373046875,0.5888671875,45.09470588235294,216.1361288615092
-0.2686552734375,-0.0956767578125,1.3127978515625005,1.3434165016845692,0.376953125,1.37939453125,0.3349609375,45.42411764705882,216.1361288615092
-0.2168974609375,-0.1015361328125,1.3938525390625005,1.4142768454155752,0.1884765625,1.71337890625,0.25732421875,45.09470588235294,216.1361288615092
-0.0757841796875,-0.0820048828125,1.4392626953125005,1.4435875965157785,0.23291015625,1.39453125,-0.0673828125,44.906470588235294,215.74393635562788
-0.0098662109375,-0.0571025390625,1.3767626953125005,1.377981698459667,0.3291015625,0.79931640625,-0.470703125,44.906470588235294,215.74393635562788
-0.0084013671875,-0.0419658203125,1.2532275390625005,1.253958124384451,0.31201171875,0.6923828125,-0.81005859375,45.00058823529412,215.74393635562788
0.0165009765625,-0.0815166015625,1.1575244140625005,1.160508512553247,0.255859375,0.85693359375,-1.27099609375,45.09470588235294,215.74393635562788
0.0790009765625,-0.1547587890625,1.0930712890625005,1.1067955005612715,0.13232421875,0.712890625,-1.71142578125,45.00058823529412,215.74393635562788
0.0848603515625,-0.2035869140625,1.0178759765625005,1.0414991188224147,-0.02978515625,0.51708984375,-2.1640625,45.33,215.89138705082607
0.0340791015625,-0.2284892578125,0.9504931640625,0.9781645981267963,-0.232421875,0.3369140625,-2.55615234375,45.04764705882353,215.89138705082607
-0.0323271484375,-0.2475322265625,0.8806689453125001,0.9153660682759222,-0.40185546875,0.17626953125,-2.56201171875,45.00058823529412,215.89138705082607
-0.0972685546875,-0.2519267578125,0.8103564453125001,0.8541696737138494,-0.57080078125,-0.05859375,-2.28662109375,45.18882352941176,215.89138705082607
-0.1685576171875,-0.2699931640625,0.7698291015625001,0.8330335074682974,-0.68115234375,-0.26806640625,-1.66162109375,45.00058823529412,216.66481171117908
-0.2359404296875,-0.2890361328125,0.7756884765625001,0.8607568675904826,-0.5595703125,-0.2197265625,-0.4716796875,45.04764705882353,216.66481171117908
-0.2359404296875,-0.2699931640625,0.8040087890625001,0.880337621535823,-0.37841796875,0.15576171875,0.490234375,44.906470588235294,216.66481171117908
-0.1827177734375,-0.2363017578125,0.8567431640625001,0.9073219685663182,-0.173828125,0.50732421875,1.1787109375,45.18882352941176,216.66481171117908
-0.1529326171875,-0.2065166015625,0.8958056640625001,0.9319363067759512,-0.0927734375,0.68212890625,1.70166015625,44.906470588235294,216.66481171117908
-0.1216826171875,-0.1625712890625,0.9470751953125,0.9686007995708308,0.02587890625,0.7412109375,1.861328125,44.906470588235294,216.57069356164808
-0.1001982421875,-0.1303447265625,0.9934619140625,1.0069736889178604,0.1728515625,0.5126953125,1.72314453125,45.37705882352941,216.57069356164808
-0.0840849609375,-0.1176494140625,1.0164111328125005,1.026646607256022,0.208984375,0.1787109375,1.6455078125,45.18882352941176,216.57069356164808
-0.1016630859375,-0.1147197265625,1.0203173828125005,1.031767202606412,0.30126953125,-0.1982421875,1.80078125,44.906470588235294,216.57069356164808
-0.0860380859375,-0.0741923828125,1.0315478515625005,1.0377851569387544,0.1494140625,-0.34130859375,1.544921875,45.00058823529412,216.6961848155507
-0.0679716796875,-0.0614970703125,1.0017626953125005,1.005947581445637,0.1669921875,-0.41845703125,1.2197265625,45.09470588235294,216.6961848155507
-0.0123076171875,-0.0590556640625,0.9993212890625,1.0011403935873495,0.166015625,-0.599609375,0.6943359375,45.18882352941176,216.6961848155507
-0.0606474609375,-0.1078837890625,0.9724658203125,0.9803095420002352,0.29248046875,-0.52783203125,0.50146484375,44.906470588235294,216.6961848155507
-0.0352568359375,-0.0346416015625,0.9377978515625,0.9390995130625824,0.28271484375,-0.6552734375,0.34765625,45.18882352941176,216.6961848155507
-0.0191435546875,-0.1655009765625,0.9236376953125,0.938543361348532,0.2060546875,-0.8583984375,-0.06494140625,44.85941176470588,216.2616132149907
-0.0167021484375,-0.1440166015625,0.8845751953125001,0.8963777214155804,0.15673828125,-1.04638671875,-0.6513671875,45.235882352941175,216.2616132149907
-0.0660185546875,-0.1503642578125,0.8528369140625001,0.8685036911713032,0.10205078125,-1.1162109375,-1.02978515625,45.00058823529412,216.2616132149907
-0.1050810546875,-0.1454814453125,0.8210986328125001,0.8404819116382031,0.015625,-1.13525390625,-1.123046875,45.18882352941176,216.2616132149907
-0.1426787109375,-0.1308330078125,0.8147509765625001,0.8374327700165548,-0.04638671875,-1.14013671875,-1.15673828125,45.18882352941176,216.2318294957255
-0.1822294921875,-0.1376689453125,0.8157275390625001,0.8470960655742257,-0.07958984375,-0.98974609375,-1.0009765625,45.04764705882353,216.2318294957255
-0.2051787109375,-0.1440166015625,0.8157275390625001,0.8533759446648052,-0.09326171875,-0.89208984375,-0.80224609375,44.906470588235294,216.2318294957255
-0.2125029296875,-0.1498759765625,0.8240283203125001,0.8640850514581153,-0.13525390625,-0.74072265625,-0.7685546875,44.906470588235294,216.2318294957255
-0.2110380859375,-0.1591533203125,0.8689501953125001,0.9082627896243954,-0.13330078125,-0.58154296875,-0.759765625,45.09470588235294,216.2318294957255
-0.1978544921875,-0.1640361328125,0.8879931640625001,0.924438268554793,-0.10595703125,-0.4853515625,-0.703125,45.00058823529412,216.04042889460905
-0.1802763671875,-0.1679423828125,0.9099658203125,0.9427311422924692,-0.0791015625,-0.45166015625,-0.6123046875,45.18882352941176,216.04042889460905
-0.1661162109375,-0.1664775390625,0.9050830078125,0.9351388226244596,-0.033203125,-0.38818359375,-0.5869140625,45.235882352941175,216.04042889460905
-0.1504912109375,-0.1674541015625,0.9255908203125,0.9525790504447944,-0.037109375,-0.38134765625,-0.61767578125,45.00058823529412,216.04042889460905
-0.1480498046875,-0.1640361328125,0.9407275390625,0.9663306371458346,0.0078125,-0.345703125,-0.62890625,45.00058823529412,216.02004494387288
-0.1534208984375,-0.1606181640625,0.9441455078125,0.9699210826797722,0.056640625,-0.3671875,-0.6064453125,45.09470588235294,216.02004494387288
-0.1797880859375,-0.1669658203125,0.9373095703125,0.9688914137286486,0.06005859375,-0.38525390625,-0.5751953125,45.00058823529412,216.02004494387288
-0.2066435546875,-0.1694072265625,0.9280322265625,0.965735046813584,0.02099609375,-0.375,-0.53173828125,45.33,216.02004494387288
-0.2251982421875,-0.1698955078125,0.9280322265625,0.9699600741256098,-0.01025390625,-0.3134765625,-0.52587890625,45.09470588235294,216.02004494387288
-0.2403349609375,-0.1718486328125,0.9197314453125,0.9660221413326796,-0.04931640625,-0.19482421875,-0.556640625,45.04764705882353,215.6576357000028
-0.2520537109375,-0.1738017578125,0.9251025390625,0.9744500151346728,-0.0283203125,-0.10888671875,-0.56298828125,45.00058823529412,215.6576357000028
-0.2505888671875,-0.1767314453125,0.9251025390625,0.9745991442128626,-0.01806640625,0.00537109375,-0.52978515625,45.09470588235294,215.6576357000028
-0.2525419921875,-0.1767314453125,0.9260791015625,0.9760296941851124,0.02685546875,0.0,-0.43994140625,45.00058823529412,215.6576357000028
-0.2501005859375,-0.1698955078125,0.9334033203125,0.9811506230093052,0.13037109375,0.17578125,-0.375,44.906470588235294,216.3259434582641
-0.2496123046875,-0.1689189453125,0.9187548828125,0.9669283569265632,0.21435546875,0.2353515625,-0.353515625,45.04764705882353,216.3259434582641
-0.2559599609375,-0.1650126953125,0.9133837890625,0.962815993500104,0.302734375,0.3291015625,-0.3662109375,45.00058823529412,216.3259434582641
-0.2486357421875,-0.1567119140625,0.9358447265625,0.9809096332165884,0.4013671875,0.501953125,-0.44287109375,45.04764705882353,216.3259434582641
-0.2217802734375,-0.1479228515625,0.9470751953125,0.9838796091375224,0.5517578125,0.6689453125,-0.51171875,44.906470588235294,216.3259434582641
-0.1788115234375,-0.1435283203125,0.9529345703125,0.9801317436663484,0.63916015625,0.73828125,-0.59619140625,44.906470588235294,216.2616132149907
-0.1578154296875,-0.1523173828125,0.9553759765625,0.9802293361999784,0.64501953125,0.79931640625,-0.72607421875,45.00058823529412,216.2616132149907
-0.1666044921875,-0.1562236328125,0.9968798828125,1.0227083557996646,0.63427734375,0.93212890625,-0.75537109375,45.33,216.2616132149907
-0.1788115234375,-0.1640361328125,1.0281298828125005,1.0563770490285016,0.6103515625,0.9619140625,-0.66845703125,45.18882352941176,216.2616132149907
-0.1836943359375,-0.1850322265625,1.0559619140625005,1.0876746286793375,0.61083984375,0.89306640625,-0.58349609375,45.33,215.97609973367983
-0.1978544921875,-0.2094462890625,1.0691455078125005,1.1072877968064467,0.55517578125,0.86328125,-0.662109375,45.00058823529412,215.97609973367983
-0.2256865234375,-0.2172587890625,1.0886767578125005,1.1328516545811929,0.5068359375,0.90869140625,-0.82763671875,45.09470588235294,215.97609973367983
-0.2710966796875,-0.2138408203125,1.0911181640625005,1.144447532269012,0.49560546875,0.88671875,-0.95361328125,45.09470588235294,215.97609973367983
-0.3321318359375,-0.2079814453125,1.1052783203125005,1.1726926295454887,0.44482421875,0.970703125,-0.9052734375,45.00058823529412,215.97609973367983
-0.3824248046875,-0.1879619140625,1.1267626953125005,1.2046462484589413,0.43701171875,1.3125,-0.66552734375,45.09470588235294,215.91494896140532
-0.3931669921875,-0.1801494140625,1.1843798828125005,1.2608686695860831,0.42578125,1.70654296875,-0.45458984375,45.00058823529412,215.91494896140532
-0.3653349609375,-0.1733134765625,1.2546923828125005,1.3182413171832743,0.38427734375,1.9052734375,-0.47265625,45.18882352941176,215.91494896140532
-0.3038115234375,-0.1650126953125,1.2854541015625005,1.3311359354369354,0.35009765625,1.7236328125,-0.82373046875,45.235882352941175,215.91494896140532
-0.2789091796875,-0.1723369140625,1.3010791015625005,1.3417515310165375,0.25927734375,1.45361328125,-1.201171875,45.33,215.2968257582164
-0.2828154296875,-0.1703837890625,1.3435595703125005,1.3835344310218414,0.142578125,1.39794921875,-1.32421875,45.235882352941175,215.2968257582164
-0.2525419921875,-0.1713603515625,1.3982470703125005,1.4311662019287437,0.0810546875,1.40185546875,-1.05322265625,45.04764705882353,215.2968257582164
-0.1739287109375,-0.1860087890625,1.4285205078125005,1.4510414561058418,0.0224609375,1.20751953125,-0.60595703125,45.00058823529412,215.2968257582164
-0.0748076171875,-0.1957744140625,1.4148486328125005,1.4302868434556015,-0.06005859375,0.8759765625,-0.1875,45.00058823529412,215.2968257582164
0.0121064453125,-0.2123759765625,1.3679736328125005,1.3844139487556493,-0.12158203125,0.482421875,0.01953125,45.04764705882353,215.31879839055264
0.0418916015625,-0.1816142578125,1.2805712890625005,1.2940639363236464,-0.123046875,0.2783203125,0.09326171875,45.235882352941175,215.31879839055264
0.0448212890625,-0.1181376953125,1.1902392578125005,1.1969272968083835,-0.068359375,0.15478515625,0.25732421875,45.00058823529412,215.31879839055264
0.0482392578125,-0.0507548828125,1.0715869140625005,1.0738722449684617,-0.00146484375,0.0810546875,0.6162109375,45.235882352941175,215.31879839055264
0.0472626953125,0.0078388671875,0.9788134765625,0.9799852203514874,0.130859375,0.1328125,1.1650390625,45.235882352941175,216.51417661924745
0.0360322265625,0.0361591796875,0.9080126953125,0.9094464593781182,0.24609375,0.3251953125,1.599609375,44.85941176470588,216.51417661924745
0.0165009765625,0.0420185546875,0.8840869140625001,0.8852386756022903,0.32666015625,0.48583984375,1.7294921875,45.33,216.51417661924745
0.0013642578125,0.0268818359375,0.8630908203125001,0.8635104275053394,0.38232421875,0.4375,1.43798828125,44.85941176470588,216.51417661924745
-0.0293974609375,0.0215107421875,0.8582080078125001,0.8589807375095958,0.34716796875,0.3681640625,0.97314453125,44.906470588235294,216.51417661924745
-0.0660185546875,0.0351826171875,0.8635791015625001,0.8668132040818733,0.390625,0.5068359375,0.59716796875,45.00058823529412,216.5487210729508
-0.1041044921875,0.0283466796875,0.8855517578125001,0.8921004401454646,0.4013671875,0.85986328125,0.3779296875,45.09470588235294,216.5487210729508
-0.1192412109375,0.0112568359375,0.9226611328125,0.9304024660027568,0.32763671875,1.2177734375,0.3115234375,45.235882352941175,216.5487210729508
-0.1207060546875,-0.0165751953125,0.9475634765625,0.9553644492302824,0.1572265625,1.20947265625,0.2861328125,44.85941176470588,216.5487210729508
-0.0601591796875,-0.0580791015625,0.9773486328125,0.980919292806214,0.02783203125,1.09814453125,-0.05126953125,45.00058823529412,216.5894940347601
-0.0450224609375,-0.0834697265625,0.9885791015625,0.9931177459331836,-0.18701171875,0.91259765625,-0.6494140625,45.00058823529412,216.5894940347601
-0.0372099609375,-0.1034892578125,1.0120166015625005,1.017974562311684,-0.216796875,0.77880859375,-0.8466796875,45.09470588235294,216.5894940347601
-0.0381865234375,-0.1269267578125,1.0120166015625005,1.0206596956180587,-0.27978515625,0.783203125,-1.32861328125,45.00058823529412,216.5894940347601
-0.0542998046875,-0.1362041015625,1.0081103515625005,1.0187180704193954,-0.3681640625,0.73193359375,-1.8046875,45.04764705882353,216.5894940347601
-0.0792021484375,-0.1376689453125,0.9841845703125,0.9969177434782532,-0.51416015625,0.6435546875,-2.01025390625,45.235882352941175,216.7699177545285
-0.1050810546875,-0.1283916015625,0.9700244140625,0.9841106621124058,-0.640625,0.42529296875,-1.97119140625,45.00058823529412,216.7699177545285
-0.1290068359375,-0.1015361328125,0.9602587890625,0.974191609467512,-0.623046875,0.2822265625,-1.6650390625,45.00058823529412,216.7699177545285
-0.1426787109375,-0.0780986328125,0.9368212890625,0.9508368622653902,-0.5283203125,0.11279296875,-1.05859375,45.00058823529412,216.7699177545285
-0.1377958984375,-0.0458720703125,0.9036181640625,0.9152145884352128,-0.4541015625,-0.0908203125,-0.451171875,45.09470588235294,216.5691074304612
-0.1514677734375,-0.0302470703125,0.8821337890625001,0.8955542381443832,-0.357421875,-0.05078125,0.0283203125,45.04764705882353,216.5691074304612
-0.1592802734375,-0.0419658203125,0.8728564453125001,0.8882621852270867,-0.2041015625,0.0654296875,0.46826171875,45.04764705882353,216.5691074304612
-0.1675810546875,-0.0527080078125,0.8704150390625001,0.8879661503705594,-0.1171875,0.1083984375,1.06005859375,44.81235294117647,216.5691074304612
-0.1626982421875,-0.0405009765625,0.8699267578125001,0.8859365728265126,0.05224609375,0.00048828125,1.34716796875,45.04764705882353,216.5691074304612
-0.1729521484375,-0.0429423828125,0.8626025390625001,0.8808175942201848,0.21044921875,0.16162109375,1.52392578125,45.04764705882353,216.28199859262256
-0.1758818359375,-0.0375712890625,0.8728564453125001,0.8911926818023906,0.296875,0.2099609375,1.537109375,45.33,216.28199859262256
-0.1753935546875,-0.0365947265625,0.8684619140625001,0.8867514698128233,0.31005859375,0.20361328125,1.4990234375,44.85941176470588,216.28199859262256
-0.2032255859375,-0.0473369140625,0.9148486328125,0.9383439897881274,0.25537109375,0.388671875,1.49951171875,45.235882352941175,216.28199859262256
-0.1988310546875,-0.0463603515625,0.8899462890625001,0.9130648760746726,0.43212890625,0.54736328125,1.5849609375,45.00058823529412,216.4106595080252
-0.1646513671875,-0.0527080078125,0.8772509765625001,0.8941238631666955,0.35400390625,0.52001953125,1.57958984375,44.906470588235294,216.4106595080252
-0.1534208984375,-0.0434306640625,0.8870166015625001,0.9012339574748426,0.25146484375,0.4091796875,1.56201171875,44.85941176470588,216.4106595080252
-0.1504912109375,-0.0497783203125,0.9041064453125,0.9178964811993636,0.13427734375,0.365234375,1.55322265625,45.00058823529412,216.4106595080252
-0.1558623046875,-0.0517314453125,0.9138720703125,0.9285102914636296,0.0537109375,0.2666015625,1.55029296875,45.235882352941175,216.4106595080252
-0.1729521484375,-0.0575908203125,0.9177783203125,0.9357062538366664,0.03515625,0.18701171875,1.57373046875,44.906470588235294,216.13454088056716
-0.1876005859375,-0.0575908203125,0.9251025390625,0.9456877868558125,0.0302734375,0.1318359375,1.62060546875,45.33,216.13454088056716
-0.1900419921875,-0.0561259765625,0.9373095703125,0.9580267817963608,0.013671875,0.078125,1.607421875,45.235882352941175,216.13454088056716
-0.2042021484375,-0.0575908203125,0.9363330078125,0.9600701648993998,0.005859375,0.0478515625,1.6025390625,44.85941176470588,216.13454088056716
-0.2144560546875,-0.0571025390625,0.9519580078125,0.9774846024351772,-0.03271484375,0.02197265625,1.5009765625,45.04764705882353,216.05922510375385
-0.2315458984375,-0.0624736328125,0.9465869140625,0.9764953884962218,-0.029296875,0.0009765625,1.673828125,45.04764705882353,216.05922510375385
-0.2486357421875,-0.0571025390625,0.9387744140625,0.97281952733223,-0.08251953125,-0.0078125,1.6845703125,45.09470588235294,216.05922510375385
-0.2598662109375,-0.0619853515625,0.9358447265625,0.973230693941668,-0.11376953125,0.0322265625,1.720703125,45.235882352941175,216.05922510375385
-0.2681669921875,-0.0624736328125,0.9241259765625,0.9642744998460118,-0.1552734375,0.0947265625,1.75732421875,44.906470588235294,216.05922510375385
-0.2720732421875,-0.0619853515625,0.9202197265625,0.9615978255370106,-0.20654296875,0.001953125,1.79541015625,45.04764705882353,216.2412280841325
-0.2730498046875,-0.0546611328125,0.9187548828125,0.9600284214397188,-0.2470703125,0.18115234375,1.7890625,45.04764705882353,216.2412280841325
-0.2735380859375,-0.0483134765625,0.9163134765625,0.9574902943664556,-0.296875,0.26953125,1.79052734375,45.04764705882353,216.2412280841325
-0.2676787109375,-0.0473369140625,0.9163134765625,0.9557840043922986,-0.3271484375,0.28662109375,1.8251953125,45.09470588235294,216.2412280841325
-0.2549833984375,-0.0370830078125,0.9114306640625,0.9471523311171064,-0.32763671875,0.2802734375,1.83935546875,45.18882352941176,215.88040077198195
-0.2515654296875,-0.0253642578125,0.9089892578125,0.9434987979890356,-0.34814453125,0.29833984375,1.81884765625,45.33,215.88040077198195
-0.2452177734375,-0.0229228515625,0.9177783203125,0.9502495770948995,-0.3515625,0.3408203125,1.810546875,45.235882352941175,215.88040077198195
-0.2354521484375,-0.0195048828125,0.9202197265625,0.9500644713976658,-0.345703125,0.3505859375,1.7685546875,45.235882352941175,215.88040077198195
-0.2315458984375,-0.0116923828124999,0.9158251953125,0.944714773499516,-0.33203125,0.29833984375,1.70166015625,45.09470588235294,215.88040077198195
-0.2168974609375,-0.0033916015624999,0.9158251953125,0.9411651289181256,-0.32568359375,0.23095703125,1.634765625,45.00058823529412,216.04982683545512
-0.2100615234375,-0.0009501953124999,0.9138720703125,0.937704061736575,-0.3046875,0.22314453125,1.59423828125,45.00058823529412,216.04982683545512
-0.2032255859375,0.0039326171875,0.9133837890625,0.9357275513629773,-0.3076171875,0.1875,1.52197265625,45.00058823529412,216.04982683545512
-0.2159208984375,0.0136982421875,0.9343798828125,0.9591012676593572,-0.29150390625,0.2255859375,1.45361328125,45.09470588235294,216.04982683545512
-0.2461943359375,0.0117451171875,0.9509814453125,0.9824028237714436,-0.28662109375,0.26416015625,1.357421875,45.09470588235294,216.2632006226558
-0.2872099609375,0.0078388671875,0.9729541015625,1.014490361338044,-0.279296875,0.32666015625,1.1513671875,45.00058823529412,216.2632006226558
-0.3306669921875,0.0107685546875,0.9885791015625,1.0424707485289482,-0.25341796875,0.41064453125,0.90869140625,45.18882352941176,216.2632006226558
-0.3594755859375,-0.0029033203124999,0.9954150390625,1.0583393719151453,-0.25830078125,0.5654296875,0.69091796875,45.04764705882353,216.2632006226558
-0.3863310546875,-0.0185283203125,1.0095751953125005,1.0811276786114727,-0.27099609375,0.74072265625,0.5830078125,45.47117647058823,216.2632006226558
-0.4068388671875,-0.0356181640625,1.0486376953125005,1.1253566250286633,-0.29248046875,1.01220703125,0.52783203125,45.235882352941175,215.9557158961627
-0.4175810546875,-0.0566142578125,1.1003955078125005,1.1783248215307678,-0.3466796875,1.28271484375,0.61767578125,45.235882352941175,215.9557158961627
-0.3794951171875,-0.0722392578125,1.1316455078125005,1.1957661183068649,-0.30029296875,1.23681640625,0.76025390625,45.235882352941175,215.9557158961627
-0.3296904296875,-0.0590556640625,1.1335986328125005,1.1820445047458077,-0.2880859375,0.90087890625,0.82421875,45.00058823529412,215.9557158961627
-0.2911162109375,-0.0463603515625,1.1096728515625005,1.1481601665109518,-0.22021484375,0.69189453125,0.76611328125,45.04764705882353,215.63566315643243
-0.2837919921875,-0.0322001953125,1.1243212890625005,1.160031511833655,-0.18359375,0.89404296875,0.6044921875,44.906470588235294,215.63566315643243
-0.2422880859375,-0.0395244140625,1.1726611328125005,1.1980817285575045,-0.20703125,1.22265625,0.42919921875,45.04764705882353,215.63566315643243
-0.1636748046875,-0.0624736328125,1.1990283203125005,1.2117595922449709,-0.22119140625,1.20458984375,0.22265625,45.18882352941176,215.63566315643243
-0.1211943359375,-0.0702861328125,1.1731494140625005,1.1814854020445007,-0.20947265625,0.97802734375,-0.0849609375,44.906470588235294,215.63566315643243
-0.1338896484375,-0.0683330078125,1.1580126953125005,1.1677282391123125,-0.1845703125,1.005859375,-0.42138671875,44.906470588235294,215.74393635562788
-0.1177763671875,-0.0737041015625,1.1897509765625005,1.1978359459819377,-0.189453125,1.06298828125,-0.57470703125,44.81235294117647,215.74393635562788
-0.0748076171875,-0.0780986328125,1.2141650390625005,1.218971828270898,-0.15966796875,0.8720703125,-0.58984375,44.85941176470588,215.74393635562788
-0.0552763671875,-0.0849345703125,1.1746142578125005,1.1789775284796684,-0.109375,0.314453125,-0.60009765625,45.235882352941175,215.74393635562788
-0.0518583984375,-0.0917705078125,1.1008837890625005,1.1059187296602198,-0.04638671875,0.13720703125,-0.6357421875,45.00058823529412,215.94472959502997
-0.0406279296875,-0.1142314453125,1.0598681640625005,1.0667801914931163,-0.01025390625,0.15478515625,-0.79443359375,44.906470588235294,215.94472959502997
-0.0225615234375,-0.1542705078125,1.0144580078125005,1.0263690669225445,-0.07470703125,0.18408203125,-1.16015625,45.00058823529412,215.94472959502997
-0.0001005859374999,-0.2001689453125,0.9583056640625,0.978987927688242,-0.24755859375,0.15478515625,-1.61572265625,45.18882352941176,215.94472959502997
0.0033173828125,-0.2260478515625,0.9392626953125,0.9660864593971128,-0.43212890625,0.044921875,-1.98876953125,45.18882352941176,215.94472959502997
-0.0308623046875,-0.2582744140625,0.9119189453125,0.9482902074944222,-0.61181640625,-0.10595703125,-2.14208984375,45.235882352941175,216.506362462434
-0.0982451171875,-0.2533916015625,0.9251025390625,0.96419609757221,-0.72265625,-0.22021484375,-1.958984375,45.00058823529412,216.506362462434
-0.1959013671875,-0.2358134765625,0.9739306640625,1.0210417620233008,-0.65283203125,-0.20458984375,-1.09619140625,44.81235294117647,216.506362462434
-0.2012724609375,-0.1747783203125,1.0335009765625005,1.0673248490214862,-0.40576171875,-0.15283203125,-0.3369140625,45.09470588235294,216.506362462434
-0.1841826171875,-0.1249736328125,1.0496142578125005,1.0729546754526385,-0.09619140625,-0.10302734375,0.17578125,45.00058823529412,216.51734870537328
-0.1807646484375,-0.1093486328125,1.0623095703125005,1.0831133850157262,0.04443359375,-0.10986328125,0.5361328125,45.00058823529412,216.51734870537328
-0.1768583984375,-0.0907939453125,1.0745166015625005,1.092752652999164,0.20166015625,-0.2099609375,0.84375,44.85941176470588,216.51734870537328
-0.1880888671875,-0.0815166015625,1.0623095703125005,1.0819075752889915,0.39013671875,-0.41455078125,1.09033203125,45.47117647058823,216.51734870537328
-0.1392607421875,-0.0527080078125,1.0398486328125005,1.050455552398197,0.41455078125,-0.56591796875,1.02294921875,45.04764705882353,216.51734870537328
-0.1226591796875,-0.0624736328125,1.0222705078125005,1.0314965924818311,0.3916015625,-0.5341796875,0.8876953125,45.18882352941176,216.22084320003825
-0.1089873046875,-0.0605205078125,1.0168994140625005,1.0245122657975283,0.38525390625,-0.482421875,0.6953125,45.04764705882353,216.22084320003825
-0.1011748046875,-0.0810283203125,0.9939501953125,1.002366659739826,0.4716796875,-0.42919921875,0.296875,45.00058823529412,216.22084320003825
-0.0806669921875,-0.1020244140625,0.9460986328125,0.9549967370117326,0.45458984375,-0.4921875,-0.11767578125,45.33,216.22084320003825
-0.0718779296875,-0.1181376953125,0.9114306640625,0.9218615987355804,0.48046875,-0.58203125,-0.53515625,45.00058823529412,216.46400402082577
-0.0748076171875,-0.1235087890625,0.8723681640625001,0.8842379850666526,0.47021484375,-0.673828125,-0.88818359375,45.00058823529412,216.46400402082577
-0.0904326171875,-0.1205791015625,0.8640673828125001,0.8771144851303302,0.40478515625,-0.66650390625,-1.21435546875,45.00058823529412,216.46400402082577
-0.1045927734375,-0.0844462890625,0.8645556640625001,0.8749441812220514,0.37060546875,-0.5810546875,-1.869140625,45.00058823529412,216.46400402082577
-0.1475615234375,-0.1137431640625,0.8420947265625001,0.8624589492112169,0.3173828125,-0.58251953125,-2.13818359375,45.235882352941175,216.46400402082577
-0.1763701171875,-0.1283916015625,0.8474658203125001,0.8750937882229852,0.125,-0.47607421875,-1.89306640625,45.37705882352941,216.44044529712303
-0.1641630859375,-0.1283916015625,0.8528369140625001,0.8779320726137956,0.20068359375,-0.453125,-1.81396484375,45.00058823529412,216.44044529712303
-0.1568388671875,-0.1244853515625,0.8669970703125001,0.889819618206272,0.181640625,-0.3916015625,-1.92724609375,45.235882352941175,216.44044529712303
-0.1685576171875,-0.1269267578125,0.8923876953125001,0.9169939317715664,0.18798828125,-0.19580078125,-2.11279296875,45.09470588235294,216.44044529712303
-0.1719755859375,-0.1342509765625,0.8918994140625001,0.9181957806870832,0.18603515625,-0.07666015625,-2.19873046875,45.09470588235294,215.86941450705405
-0.1797880859375,-0.1337626953125,0.9045947265625,0.931937677007974,0.203125,-0.0009765625,-2.2255859375,45.04764705882353,215.86941450705405
-0.1744169921875,-0.1445048828125,0.8967822265625001,0.9249439497606242,0.20849609375,0.02685546875,-2.0966796875,45.09470588235294,215.86941450705405
-0.1709990234375,-0.1410869140625,0.9163134765625,0.9427494739676672,0.17041015625,0.02880859375,-2.0166015625,45.00058823529412,215.86941450705405
-0.1734404296875,-0.1449931640625,0.9089892578125,0.9366782110701408,0.1630859375,0.06103515625,-2.02294921875,44.906470588235294,215.86941450705405
-0.1714873046875,-0.1425517578125,0.9251025390625,0.9516005501807476,0.12060546875,0.09228515625,-2.08056640625,44.906470588235294,215.92116853411943
-0.1973662109375,-0.1557353515625,0.9446337890625,0.9775172205054482,0.171875,0.05615234375,-2.0322265625,45.00058823529412,215.92116853411943
-0.2061552734375,-0.1640361328125,0.9470751953125,0.9830357446249758,0.185546875,-0.01806640625,-1.98291015625,45.00058823529412,215.92116853411943
-0.2134794921875,-0.1655009765625,0.9392626953125,0.9773323271198372,0.197265625,-0.091796875,-1.91162109375,45.09470588235294,215.92116853411943
-0.2237333984375,-0.1625712890625,0.9236376953125,0.9641538517301182,0.22509765625,-0.15966796875,-1.7900390625,44.81235294117647,215.9557158961627
-0.2276396484375,-0.1557353515625,0.9197314453125,0.9601975009151316,0.2060546875,-0.162109375,-1.69287109375,45.04764705882353,215.9557158961627
-0.2300810546875,-0.1581767578125,0.9089892578125,0.9509041220105772,0.22119140625,-0.12451171875,-1.60546875,45.235882352941175,215.9557158961627
-0.2242216796875,-0.1581767578125,0.8992236328125001,0.940158704774076,0.2333984375,-0.109375,-1.501953125,44.906470588235294,215.9557158961627
-0.2261748046875,-0.1567119140625,0.8997119140625001,0.9408481251459072,0.26025390625,-0.0791015625,-1.40087890625,45.37705882352941,215.9557158961627
-0.2374052734375,-0.1528056640625,0.8870166015625001,0.9308648055829604,0.3076171875,0.00732421875,-1.32275390625,45.04764705882353,216.314957220972
-0.2486357421875,-0.1542705078125,0.8835986328125001,0.930787658804077,0.32177734375,0.14013671875,-1.20947265625,45.09470588235294,216.314957220972
-0.2569365234375,-0.0336650390625,0.8796923828125001,0.9170651014565776,0.35546875,0.27490234375,-1.1494140625,45.00058823529412,216.314957220972
-0.2559599609375,-0.1630595703125,0.8762744140625001,0.9273406999664154,0.396484375,0.3701171875,-1.0556640625,45.235882352941175,216.314957220972
-0.2608427734375,-0.1650126953125,0.8772509765625001,0.92996635312721,0.41650390625,0.44873046875,-1.00048828125,45.00058823529412,216.2945719434938
-0.1353544921875,-0.1659892578125,0.8679736328125001,0.8940086685945552,0.4658203125,0.51416015625,-0.98095703125,45.00058823529412,216.2945719434938
-0.2564482421875,-0.1821025390625,0.8626025390625001,0.9181558560784436,0.48095703125,0.57080078125,-0.97412109375,44.906470588235294,216.2945719434938
-0.2510771484375,-0.1879619140625,0.8757861328125001,0.9302530655860366,0.466796875,0.67431640625,-1.01171875,45.09470588235294,216.2945719434938
-0.2481474609375,-0.1923564453125,0.8987353515625001,0.9519996830730352,0.44921875,0.77490234375,-1.05126953125,45.04764705882353,216.2945719434938
-0.2417998046875,-0.2001689453125,0.9085009765625,0.9612017356566976,0.41943359375,0.8369140625,-1.03857421875,45.09470588235294,216.442031565618
-0.2178740234375,-0.2226298828125,0.9246142578125,0.9756765245510994,0.376953125,0.90478515625,-0.97216796875,45.00058823529412,216.442031565618
-0.2042021484375,-0.2406962890625,0.9578173828125,1.0084876597225851,0.34619140625,0.931640625,-0.9453125,45.09470588235294,216.442031565618
-0.1890654296875,-0.2426494140625,0.9749072265625,1.02228595571473,0.30224609375,0.8876953125,-0.91259765625,44.906470588235294,216.442031565618
-0.2007841796875,-0.2514384765625,0.9876025390625,1.0386984015928542,0.2177734375,0.85595703125,-0.83056640625,44.85941176470588,216.302384217038
-0.2374052734375,-0.2455791015625,1.0183642578125005,1.074121092135418,0.20556640625,0.85791015625,-0.68994140625,45.18882352941176,216.302384217038
-0.2647490234375,-0.2289775390625,1.0212939453125005,1.0796129313500282,0.20751953125,0.8056640625,-0.6396484375,45.00058823529412,216.302384217038
-0.3130888671875,-0.2172587890625,1.0344775390625005,1.1024381157264396,0.2421875,0.8642578125,-0.5859375,45.00058823529412,216.302384217038
-0.3555693359375,-0.2011455078125,1.0349658203125005,1.1126739491815696,0.3544921875,0.9345703125,-0.44482421875,45.00058823529412,216.302384217038
-0.3956083984375,-0.1762431640625,1.0183642578125005,1.1066315644255993,0.470703125,1.03173828125,-0.26123046875,44.48294117647059,216.34791597459716
-0.4258818359375,-0.1493876953125,1.0081103515625005,1.1045263702690595,0.56396484375,1.17041015625,-0.087890625,44.906470588235294,216.34791597459716
-0.4595732421875,-0.1244853515625,1.0115283203125005,1.117986453622135,0.6455078125,1.37890625,0.107421875,45.09470588235294,216.34791597459716
-0.5108427734375,-0.0893291015625,1.0798876953125005,1.19795553425268,0.67041015625,2.2763671875,0.44287109375,45.00058823529412,216.34791597459716
-0.4756865234375,-0.0488017578125,1.1775439453125005,1.2709323441032467,0.77490234375,2.79248046875,0.92431640625,45.04764705882353,215.7533329977317
-0.3399443359375,-0.0346416015625,1.2415087890625005,1.2876747514082267,0.88525390625,2.33349609375,1.09375,45.00058823529412,215.7533329977317
-0.2564482421875,-0.0727275390625,1.2185595703125005,1.2473742109965764,0.99462890625,1.67041015625,0.66259765625,45.00058823529412,215.7533329977317
-0.2803740234375,-0.1166728515625,1.1472705078125005,1.1867821052773797,0.986328125,1.79736328125,0.25244140625,45.04764705882353,215.7533329977317
-0.3824248046875,-0.1176494140625,1.1560595703125005,1.2233412630908207,0.8798828125,2.3125,0.28125,45.235882352941175,215.7533329977317
-0.1709990234375,-0.1161845703125,1.0911181640625005,1.1105306696991308,0.81005859375,2.42333984375,0.55126953125,45.04764705882353,215.37054781032424
-0.1226591796875,-0.1259501953125,1.2376025390625005,1.25002750799925,0.7861328125,2.33984375,0.6787109375,45.235882352941175,215.37054781032424
-0.0577177734375,-0.1523173828125,1.2253955078125005,1.2361739671439806,0.69140625,2.1611328125,0.69970703125,45.00058823529412,215.37054781032424
0.0594697265625,-0.1586650390625,1.1907275390625005,1.202723291235337,0.58984375,1.61279296875,0.5693359375,45.09470588235294,215.37054781032424
0.1014619140625,-0.1430400390625,1.0867236328125005,1.1007830062702757,0.5087890625,0.72314453125,0.30078125,44.81235294117647,216.28199859262256
0.0321259765625,-0.0961650390625,1.0027392578125005,1.0078520785642853,0.5126953125,0.6484375,0.2421875,45.235882352941175,216.28199859262256
-0.0337919921875,-0.0527080078125,1.0173876953125005,1.0193123934284545,0.54296875,0.93212890625,0.44677734375,45.00058823529412,216.28199859262256
-0.0855498046875,-0.0204814453125,1.0613330078125005,1.0649723058166758,0.5888671875,0.84130859375,0.73388671875,45.18882352941176,216.28199859262256
-0.1084990234375,-0.0082744140624999,1.0715869140625005,1.0770974971677176,0.625,0.3916015625,1.0029296875,44.85941176470588,216.28199859262256
-0.1016630859375,0.0019794921875,1.0891650390625005,1.0939011764083966,0.67724609375,-0.166015625,1.09326171875,44.85941176470588,216.7055858198324
-0.1036162109375,-0.0248759765625,1.1194384765625005,1.1244988377884408,0.771484375,-0.65771484375,1.00537109375,45.00058823529412,216.7055858198324
-0.0992216796875,-0.0282939453125,1.1453173828125005,1.1499553888885563,0.8583984375,-0.99755859375,0.87060546875,45.04764705882353,216.7055858198324
-0.1334013671875,-0.0536845703125,1.1189501953125005,1.1281522492319085,0.8076171875,-1.16015625,0.6220703125,45.04764705882353,216.7055858198324
-0.1412138671875,-0.0829814453125,1.1086962890625005,1.1207295561076096,0.83349609375,-1.00830078125,0.453125,45.235882352941175,216.11098100871183
-0.1573271484375,-0.1318095703125,1.0847705078125005,1.1040165981910013,0.4716796875,-0.82177734375,0.35009765625,45.33,216.11098100871183
-0.1631865234375,-0.1362041015625,1.1013720703125005,1.1216959641447002,0.3681640625,-0.53857421875,0.033203125,45.00058823529412,216.11098100871183
-0.1705107421875,-0.1488994140625,1.0769580078125005,1.1004923894788905,0.2412109375,-0.33544921875,-0.27978515625,45.04764705882353,216.11098100871183
-0.1817412109375,-0.1567119140625,1.0520556640625005,1.079078130650487,0.0546875,-0.3017578125,-0.6201171875,45.00058823529412,216.11098100871183
-0.1651396484375,-0.1596416015625,1.0066455078125005,1.0325171779852322,-0.08544921875,-0.43505859375,-0.75146484375,45.00058823529412,216.37611453405364
-0.1563505859375,-0.1401103515625,0.9587939453125,0.9815101863485046,-0.23974609375,-0.55224609375,-1.13330078125,45.18882352941176,216.37611453405364
-0.1495146484375,-0.1264384765625,0.9148486328125,0.9355689923312634,-0.42578125,-0.8623046875,-0.9287109375,45.47117647058823,216.37611453405364
-0.1675810546875,-0.0942119140625,0.8684619140625001,0.8894860262076049,-0.47998046875,-0.93701171875,-0.4931640625,45.09470588235294,216.37611453405364
-0.1543974609375,-0.0668681640625,0.8279345703125001,0.8448583194995362,-0.43359375,-0.8583984375,0.064453125,45.18882352941176,216.6334388007348
-0.1617216796875,-0.0483134765625,0.8010791015625001,0.8186671000221543,-0.47998046875,-0.71875,0.45556640625,45.00058823529412,216.6334388007348
-0.1812529296875,-0.0473369140625,0.8098681640625001,0.8312519781120685,-0.31689453125,-0.4599609375,0.74267578125,45.00058823529412,216.6334388007348
-0.2217802734375,-0.0439189453125,0.8010791015625001,0.8323719663729413,-0.13671875,-0.16650390625,1.17236328125,45.235882352941175,216.6334388007348
-0.2178740234375,-0.0512431640625,0.7981494140625001,0.8289375363200129,-0.05712890625,0.0185546875,1.6015625,45.00058823529412,216.6334388007348
-0.1924833984375,-0.0502666015625,0.8079150390625001,0.8320476550354875,0.044921875,0.0009765625,1.87353515625,44.24764705882353,216.38868706955725
-0.1670927734375,-0.0448955078125,0.8005908203125001,0.8190734174208193,0.06787109375,0.19970703125,2.03857421875,45.235882352941175,216.38868706955725
-0.1631865234375,-0.0468486328125,0.8132861328125001,0.8308182530813402,0.06884765625,0.24267578125,2.13916015625,45.00058823529412,216.38868706955725
-0.1709990234375,-0.0712626953125,0.8293994140625001,0.849836705377568,0.16357421875,0.2626953125,2.40185546875,45.47117647058823,216.38868706955725
-0.1402373046875,-0.0478251953125,0.8474658203125001,0.8603209096207253,0.1630859375,0.234375,2.3017578125,45.00058823529412,216.10158222740068
-0.1334013671875,-0.0551494140625,0.8401416015625001,0.8524525167508944,0.08837890625,0.03759765625,2.265625,45.235882352941175,216.10158222740068
-0.1373076171875,-0.0448955078125,0.8699267578125001,0.881839867729748,0.056640625,-0.048828125,2.12744140625,45.00058823529412,216.10158222740068
-0.1500029296875,-0.0414775390625,0.8801806640625001,0.893834026288448,0.03076171875,-0.1826171875,2.2822265625,45.37705882352941,216.10158222740068
-0.1587919921875,-0.0419658203125,0.8889697265625001,0.9040150450086448,0.01025390625,-0.3193359375,2.23388671875,45.04764705882353,216.10158222740068
-0.1744169921875,-0.0395244140625,0.8982470703125001,0.9158773202758697,-0.02099609375,-0.43359375,2.2802734375,45.09470588235294,216.02626655922663
-0.1871123046875,-0.0434306640625,0.8948291015625001,0.9152138319264675,-0.033203125,-0.5458984375,2.27880859375,44.906470588235294,216.02626655922663
-0.1900419921875,-0.0419658203125,0.8962939453125001,0.9171804213310168,-0.07373046875,-0.501953125,2.27001953125,45.00058823529412,216.02626655922663
-0.2046904296875,-0.0424541015625,0.8977587890625001,0.9217762017345094,-0.11865234375,-0.693359375,2.24267578125,44.85941176470588,216.02626655922663
-0.2266630859375,-0.0439189453125,0.8977587890625001,0.9269713434745648,-0.1572265625,-0.72802734375,2.1865234375,45.04764705882353,216.1862969814005
-0.2422880859375,-0.0492900390625,0.9026416015625,0.9358925608259504,-0.19775390625,-0.658203125,2.16015625,44.906470588235294,216.1862969814005
-0.2510771484375,-0.0463603515625,0.9002001953125001,0.9357079717011972,-0.24658203125,-0.501953125,2.1181640625,45.00058823529412,216.1862969814005
-0.2627958984375,-0.0517314453125,0.8992236328125001,0.9382648711734884,-0.310546875,-0.38720703125,2.09521484375,45.09470588235294,216.1862969814005
-0.2764677734375,-0.0488017578125,0.9089892578125,0.9513556181226862,-0.353515625,-0.24072265625,2.07080078125,45.09470588235294,216.1862969814005
-0.2828154296875,-0.0483134765625,0.9148486328125,0.9587840112589388,-0.390625,-0.0634765625,2.0654296875,45.18882352941176,216.13295333561857
-0.2901396484375,-0.0390361328125,0.9285205078125,0.973578537504178,-0.45068359375,0.119140625,2.0751953125,45.04764705882353,216.13295333561857
-0.2950224609375,-0.1567119140625,0.9285205078125,0.9867863040674684,-0.474609375,0.21435546875,2.13037109375,45.09470588235294,216.13295333561857
-0.2769560546875,-0.0155986328124999,0.9382861328125,0.978431827263362,-0.48828125,0.24609375,2.19970703125,45.09470588235294,216.13295333561857
-0.2623076171875,-0.0038798828124999,0.9441455078125,0.9799138122548056,-0.4150390625,0.310546875,2.18505859375,45.235882352941175,215.9854975835956
-0.2354521484375,0.0029560546875,0.9534228515625,0.9820700516484144,-0.35107421875,0.35888671875,2.23388671875,45.04764705882353,215.9854975835956
-0.2208037109375,0.0224873046875,0.9670947265625,0.9922359436045826,-0.2822265625,0.34619140625,2.2236328125,45.00058823529412,215.9854975835956
-0.2076201171875,0.0356708984375,0.9651416015625,0.9878647868625126,-0.20556640625,0.28173828125,2.1943359375,45.235882352941175,215.9854975835956
-0.2085966796875,0.0556904296875,0.9578173828125,0.98184934564994,-0.16015625,0.2529296875,2.0888671875,45.04764705882353,215.9854975835956
-0.2217802734375,0.0527607421875,0.9592822265625,0.985998263589189,-0.1611328125,0.310546875,1.8994140625,45.00058823529412,216.44044529712303
-0.2549833984375,0.0395771484375,0.9802783203125,1.013670789473524,-0.25537109375,0.4384765625,1.7109375,45.235882352941175,216.44044529712303
-0.2901396484375,0.0278583984375,1.0012744140625005,1.0428363046111992,-0.28271484375,0.599609375,1.47314453125,45.09470588235294,216.44044529712303
-0.3204130859375,0.0195576171875,0.9968798828125,1.0472900967670362,-0.2900390625,0.6904296875,1.1259765625,45.09470588235294,216.44044529712303
-0.3570341796875,2.6367187500001e-05,0.9959033203125,1.057968255464131,-0.349609375,0.744140625,0.77978515625,44.29470588235294,215.97609973367983
-0.3956083984375,-0.0248759765625,0.9963916015625,1.0723437148547594,-0.46142578125,0.85205078125,0.54345703125,45.00058823529412,215.97609973367983
-0.4258818359375,-0.0556376953125,1.0208056640625005,1.1074814197553224,-0.58984375,1.142578125,0.3759765625,45.09470588235294,215.97609973367983
-0.4380888671875,-0.0810283203125,1.0769580078125005,1.165472434181848,-0.77001953125,1.56591796875,0.33837890625,45.00058823529412,215.97609973367983
-0.4415068359375,-0.1103251953125,1.1472705078125005,1.2342323739866152,-0.81591796875,1.83349609375,0.4365234375,45.18882352941176,215.97609973367983
-0.3941435546875,-0.1322978515625,1.1858447265625005,1.2566143317445662,-0.841796875,1.626953125,0.56787109375,45.04764705882353,215.7627299672833
-0.3243193359375,-0.1357158203125,1.1624072265625005,1.2144102996560755,-0.84423828125,1.07421875,0.6005859375,45.09470588235294,215.7627299672833
-0.3135771484375,-0.0932353515625,1.1038134765625005,1.151272187557821,-0.74560546875,0.97802734375,0.6171875,44.906470588235294,215.7627299672833
-0.3008818359375,-0.0356181640625,1.0872119140625005,1.1286400129747969,-0.73193359375,1.5791015625,0.35302734375,44.85941176470588,215.7627299672833
-0.2867216796875,-0.0341533203125,1.1502001953125005,1.1858904924941862,-0.61767578125,2.33349609375,0.197265625,45.00058823529412,215.7627299672833
-0.2510771484375,-0.0458720703125,1.2244189453125005,1.2507380760744582,-0.65869140625,3.02587890625,0.28173828125,45.04764705882353,215.7627299672833
-0.1910185546875,-0.0805400390625,1.3606494140625005,1.3763508324971927,-0.6796875,3.27880859375,0.33642578125,45.04764705882353,215.7627299672833
-0.0679716796875,-0.0942119140625,1.4631884765625005,1.4677930889386797,-0.5849609375,2.4814453125,0.408203125,45.09470588235294,215.7627299672833
0.0184541015625,-0.0893291015625,1.3782275390625005,1.381242698326662,-0.49853515625,1.01123046875,0.3916015625,44.81235294117647,215.7627299672833
0.0238251953125,-0.0863994140625,1.1980517578125005,1.201399397818912,-0.1630859375,0.587890625,0.47265625,45.09470588235294,215.75174373302625
0.1063447265625,-0.1274150390625,1.0916064453125005,1.1041505443075883,-0.19677734375,0.544921875,0.30322265625,45.00058823529412,215.75174373302625
0.0902314453125,-0.2211650390625,1.0339892578125005,1.0612207468280788,-0.56884765625,0.16552734375,0.107421875,45.09470588235294,215.75174373302625
0.0448212890625,-0.2909892578125,0.9988330078125,1.0413217915761004,-0.8818359375,-0.08544921875,-0.13525390625,45.235882352941175,215.75174373302625
-0.0010771484374999,-0.3129619140625,0.9827197265625,1.0313507555034296,-1.0810546875,-0.22998046875,-0.47216796875,45.235882352941175,216.5251627536508
-0.0572294921875,-0.2890361328125,1.0247119140625005,1.0662324360423845,-1.1142578125,-0.33251953125,-0.609375,45.18882352941176,216.5251627536508
-0.1089873046875,-0.2533916015625,1.0652392578125005,1.100372760799894,-1.04833984375,-0.537109375,-0.6240234375,45.00058823529412,216.5251627536508
-0.1524443359375,-0.1669658203125,1.0979541015625005,1.1209906644794008,-0.8818359375,-0.8662109375,-0.4365234375,44.906470588235294,216.5251627536508
-0.2183623046875,-0.1064189453125,1.1282275390625005,1.1540816556591162,-0.58740234375,-0.9794921875,-0.2724609375,44.906470588235294,216.5251627536508
-0.2344755859375,-0.0317119140625,1.1350634765625005,1.159462609022124,-0.39599609375,-1.1083984375,-0.2333984375,45.18882352941176,216.302384217038
-0.2867216796875,-0.0243876953125,1.0891650390625005,1.1265365345169656,-0.01123046875,-1.158203125,0.4208984375,45.235882352941175,216.302384217038
-0.2735380859375,0.0185810546875,1.0369189453125005,1.0725526743240348,0.03955078125,-1.009765625,1.22998046875,45.18882352941176,216.302384217038
-0.2261748046875,0.0727802734375,1.0164111328125005,1.0438120527098047,0.140625,-0.7275390625,1.35107421875,45.09470588235294,216.302384217038
-0.1832060546875,0.0581318359375,0.9641650390625,0.9831368121345146,0.2685546875,-0.6142578125,1.28076171875,44.81235294117647,216.3463289491248
-0.1543974609375,0.0278583984375,0.9216845703125,0.9349423048828132,0.17041015625,-0.5185546875,1.19921875,45.04764705882353,216.3463289491248
-0.0948271484375,-0.0087626953124999,0.9124072265625,0.9173635702345068,0.2314453125,-0.2275390625,0.73681640625,45.00058823529412,216.3463289491248
-0.0865263671875,-0.0575908203125,0.8684619140625001,0.8746597115335963,0.2626953125,-0.06640625,0.02880859375,45.00058823529412,216.3463289491248
-0.1031279296875,-0.0995830078125,0.8377001953125001,0.8498786751961807,0.373046875,-0.0322265625,-0.36376953125,45.00058823529412,216.3463289491248
-0.1177763671875,-0.1357158203125,0.8191455078125001,0.8386235266914339,0.26318359375,-0.0859375,-0.48828125,45.09470588235294,216.17531080261668
-0.1158232421875,-0.1352275390625,0.7883837890625001,0.8082391413488144,0.26611328125,-0.04296875,-0.6552734375,44.906470588235294,216.17531080261668
-0.1133818359375,-0.1318095703125,0.7791064453125001,0.7982706662993472,0.27197265625,-0.01318359375,-1.037109375,44.906470588235294,216.17531080261668
-0.1226591796875,-0.1401103515625,0.7732470703125001,0.7953535168234577,0.224609375,-0.0068359375,-1.42431640625,45.18882352941176,216.17531080261668
-0.1353544921875,-0.1464580078125,0.7781298828125001,0.8032788439474411,0.14501953125,-0.0693359375,-1.66259765625,44.85941176470588,216.07021131310523
-0.1456083984375,-0.1459697265625,0.7883837890625001,0.8148975184799677,0.05908203125,-0.13818359375,-1.82177734375,45.00058823529412,216.07021131310523
-0.1543974609375,-0.1405986328125,0.8049853515625001,0.831629705892528,-0.029296875,-0.1640625,-1.9619140625,45.00058823529412,216.07021131310523
-0.1568388671875,-0.1430400390625,0.8225634765625001,0.8495113630848302,-0.001953125,-0.2041015625,-2.16943359375,45.04764705882353,216.07021131310523
-0.1587919921875,-0.1371806640625,0.8430712890625001,0.8687937786477348,-0.2294921875,-0.1552734375,-2.45947265625,45.04764705882353,216.07021131310523
-0.1680693359375,-0.1386455078125,0.8650439453125001,0.8920599227859493,-0.2001953125,0.033203125,-2.56640625,45.00058823529412,216.0482389083236
-0.1641630859375,-0.1366923828125,0.8723681640625001,0.8981428282702363,-0.259765625,0.04833984375,-2.56494140625,45.235882352941175,216.0482389083236
-0.1724638671875,-0.1410869140625,0.8972705078125001,0.9245234810403944,-0.3125,0.14404296875,-2.5263671875,44.906470588235294,216.0482389083236
-0.2002958984375,-0.1391337890625,0.9343798828125,0.9656823616461444,-0.263671875,0.16943359375,-2.44873046875,45.04764705882353,216.0482389083236
-0.2457060546875,-0.1493876953125,0.9617236328125,1.0037930537371484,-0.12890625,0.1640625,-2.302734375,45.00058823529412,215.91177077513404
-0.2750029296875,-0.1464580078125,0.9661181640625,1.015116183656142,0.00830078125,0.13232421875,-2.13916015625,44.906470588235294,215.91177077513404
-0.2828154296875,-0.1498759765625,0.9568408203125,1.0089557626755428,0.1728515625,0.01708984375,-1.974609375,45.09470588235294,215.91177077513404
-0.2945341796875,-0.1562236328125,0.9294970703125,0.987482156888338,0.189453125,-0.14013671875,-1.78076171875,44.906470588235294,215.91177077513404
-0.3003935546875,-0.2826884765625,0.9202197265625,1.008441077918676,0.21484375,-0.19091796875,-1.59130859375,45.04764705882353,215.91177077513404
-0.3038115234375,-0.1557353515625,0.9119189453125,0.9737305090832744,0.21923828125,-0.2138671875,-1.39013671875,45.09470588235294,215.7093879549716
-0.3145537109375,-0.1508525390625,0.8953173828125001,0.9608817521278984,0.2744140625,-0.15380859375,-1.25048828125,45.00058823529412,215.7093879549716
-0.3160185546875,-0.1493876953125,0.8772509765625001,0.9443271076790164,0.3203125,-0.017578125,-1.0927734375,45.235882352941175,215.7093879549716
-0.3047880859375,-0.1420634765625,0.8806689453125001,0.9426853133152654,0.4140625,0.1494140625,-1.04736328125,44.906470588235294,215.7093879549716
-0.2837919921875,-0.1391337890625,0.8611376953125001,0.91730814690417,0.4921875,0.3173828125,-1.03369140625,45.235882352941175,216.09059603752416
-0.2642607421875,-0.1366923828125,0.8533251953125001,0.9037048391679464,0.58642578125,0.40087890625,-1.04833984375,45.00058823529412,216.09059603752416
-0.2632841796875,-0.1279033203125,0.8533251953125001,0.9021317573258344,0.6884765625,0.5400390625,-1.15087890625,45.09470588235294,216.09059603752416
-0.2637724609375,-0.1142314453125,0.8591845703125001,0.9059927483762124,0.74560546875,0.6923828125,-1.20947265625,44.906470588235294,216.09059603752416
-0.2496123046875,-0.1054423828125,0.8777392578125001,0.9186134134933048,0.76806640625,0.8623046875,-1.10400390625,45.00058823529412,216.09059603752416
-0.2037138671875,-0.1093486328125,0.9050830078125,0.9341475869547442,0.8662109375,0.92041015625,-0.9228515625,45.235882352941175,216.302384217038
-0.1421904296875,-0.1362041015625,0.9168017578125,0.9377073843717206,0.8095703125,0.79345703125,-0.8935546875,45.235882352941175,216.302384217038
-0.1246123046875,-0.1830791015625,0.9509814453125,0.9764281300931033,0.78369140625,0.66650390625,-1.033203125,45.00058823529412,216.302384217038
-0.1680693359375,-0.2192119140625,0.9685595703125,1.007178636684353,0.6865234375,0.69189453125,-1.2001953125,45.00058823529412,216.302384217038
-0.2115263671875,-0.2558330078125,1.0027392578125005,1.0562575211851963,0.62060546875,0.833984375,-1.341796875,45.04764705882353,216.45143145654515
-0.2374052734375,-0.2680400390625,1.0286181640625005,1.089156579117929,0.53369140625,0.939453125,-1.5849609375,45.00058823529412,216.45143145654515
-0.2735380859375,-0.2680400390625,1.0466845703125005,1.1145479517406331,0.45263671875,0.90234375,-1.85888671875,45.04764705882353,216.45143145654515
-0.3282255859375,-0.2524150390625,1.0530322265625005,1.1315132599258904,0.369140625,0.9150390625,-1.98388671875,45.04764705882353,216.45143145654515
-0.4117216796875,-0.2060283203125,1.0911181640625005,1.1842724594630274,0.39794921875,1.05322265625,-1.8359375,45.04764705882353,216.45143145654515
-0.4737333984375,-0.1767314453125,1.1165087890625005,1.2256627646343832,0.52490234375,1.35693359375,-1.5263671875,45.235882352941175,216.071799362689
-0.5093779296875,-0.1635478515625,1.1477587890625005,1.2663190801980555,0.59912109375,1.79833984375,-1.09814453125,45.04764705882353,216.071799362689
-0.5137724609375,-0.1474345703125,1.2161181640625005,1.32839846548532,0.5810546875,2.25048828125,-0.7275390625,45.00058823529412,216.071799362689
-0.4737333984375,-0.1215556640625,1.3005908203125005,1.3895091198484308,0.58349609375,2.57666015625,-0.505859375,45.00058823529412,216.071799362689
-0.3726591796875,-0.1166728515625,1.3582080078125005,1.4132290723669276,0.5810546875,2.134765625,-0.5244140625,45.04764705882353,215.4662431063113
-0.2759794921875,-0.1230205078125,1.3596728515625005,1.3928420544794793,0.58642578125,1.53271484375,-0.6357421875,45.04764705882353,215.4662431063113
-0.2085966796875,-0.1313212890625,1.3293994140625005,1.3520579343531864,0.5830078125,1.337890625,-0.67578125,45.04764705882353,215.4662431063113
-0.1290068359375,-0.1503642578125,1.2869189453125005,1.3020800841539462,0.64111328125,1.333984375,-0.57080078125,45.00058823529412,215.4662431063113
-0.1006865234375,-0.1464580078125,1.2185595703125005,1.2314524556208095,0.67724609375,1.4111328125,-0.45263671875,44.906470588235294,215.4662431063113
-0.1104521484375,-0.1298564453125,1.1462939453125005,1.1589012824843,0.64453125,1.51953125,-0.302734375,45.09470588235294,215.5509527936088
-0.0796904296875,-0.0995830078125,1.1189501953125005,1.126195755461121,0.5947265625,1.44677734375,-0.0498046875,45.18882352941176,215.5509527936088
0.0091767578125,-0.0678447265625,1.0374072265625005,1.0396638271722205,0.5732421875,1.02783203125,0.0849609375,45.33,215.5509527936088
0.0379853515625,-0.0195048828125,0.9627001953125,0.9636467160954691,0.61669921875,0.87890625,0.10546875,45.00058823529412,215.5509527936088
0.0208955078125,0.0112568359375,0.9358447265625,0.9361456568488188,0.66943359375,1.02392578125,0.14208984375,45.235882352941175,216.00588194803169
-0.0147490234375,0.0268818359375,0.9568408203125,0.9573319811914928,0.7314453125,1.078125,0.30419921875,45.235882352941175,216.00588194803169
-0.0528349609375,0.0273701171875,1.0076220703125005,1.0093774779501343,0.77001953125,0.90576171875,0.40966796875,45.18882352941176,216.00588194803169
-0.0850615234375,0.0078388671875,1.0632861328125005,1.0667119155796725,0.79931640625,0.55224609375,0.390625,45.04764705882353,216.00588194803169
-0.1338896484375,-0.0204814453125,1.0994189453125005,1.1077309893980831,0.82080078125,0.2021484375,0.31982421875,45.42411764705882,216.00588194803169
-0.1558623046875,-0.0492900390625,1.1384814453125005,1.1501576271512186,0.78955078125,-0.02392578125,0.259765625,45.18882352941176,216.3965007986365
-0.1675810546875,-0.0717509765625,1.1409228515625005,1.1553945498163622,0.75341796875,-0.1123046875,0.08837890625,45.00058823529412,216.3965007986365
-0.1876005859375,-0.1103251953125,1.1223681640625005,1.1432742121931474,0.6083984375,0.138671875,-0.08642578125,45.518235294117645,216.3965007986365
-0.1832060546875,-0.1362041015625,1.1223681640625005,1.1453498642151378,0.45166015625,0.267578125,-0.18310546875,45.00058823529412,216.3965007986365
-0.1656279296875,-0.1503642578125,1.0960009765625005,1.1185974082510766,0.3779296875,0.34130859375,-0.2119140625,45.00058823529412,216.28041193450693
-0.1612333984375,-0.1630595703125,1.0750048828125005,1.099190670590376,0.25146484375,0.4619140625,-0.60791015625,45.235882352941175,216.28041193450693
-0.1563505859375,-0.1659892578125,1.0325244140625005,1.0574046553081056,0.15380859375,0.42578125,-0.978515625,45.18882352941176,216.28041193450693
-0.1548857421875,-0.1806376953125,0.9807666015625,1.0092188547789027,-0.017578125,0.28515625,-1.04638671875,45.235882352941175,216.28041193450693
-0.1485380859375,-0.1659892578125,0.9475634765625,0.973392284127182,-0.25,0.0869140625,-0.984375,45.00058823529412,216.28041193450693
-0.1431669921875,-0.1464580078125,0.8972705078125001,0.9203483579028778,-0.2109375,-0.10546875,-0.67724609375,44.906470588235294,216.1439395199512
-0.1294951171875,-0.1156962890625,0.8640673828125001,0.8813438935618045,-0.23974609375,-0.2607421875,-0.3359375,45.09470588235294,216.1439395199512
-0.1519560546875,-0.0922587890625,0.8269580078125001,0.8458497936399159,-0.19873046875,-0.33984375,0.068359375,45.235882352941175,216.1439395199512
-0.1695341796875,-0.0654033203125,0.7908251953125001,0.8114332516795617,-0.15966796875,-0.412109375,0.607421875,44.906470588235294,216.1439395199512
-0.1773466796875,-0.0541728515625,0.7703173828125001,0.7923227959018301,-0.1025390625,-0.4228515625,0.99560546875,45.235882352941175,216.5219922890958
-0.1871123046875,-0.0468486328125,0.7800830078125001,0.8035765726050415,0.00390625,-0.32470703125,1.30224609375,44.85941176470588,216.5219922890958
-0.1944365234375,-0.0497783203125,0.7849658203125001,0.8102189715616831,0.1083984375,-0.20849609375,1.60693359375,45.00058823529412,216.5219922890958
-0.1934599609375,-0.0536845703125,0.7986376953125001,0.8234870721205273,0.228515625,-0.04345703125,1.87353515625,45.00058823529412,216.5219922890958
-0.1866240234375,-0.0551494140625,0.8084033203125001,0.8314961889796683,0.3076171875,0.05224609375,1.9970703125,45.09470588235294,216.5219922890958
-0.1724638671875,-0.0512431640625,0.8005908203125001,0.8205579253879922,0.25537109375,0.01123046875,2.07275390625,45.09470588235294,216.11098100871183
-0.2159208984375,-0.0458720703125,0.8743212890625001,0.9017559524199016,0.40576171875,0.2197265625,2.2255859375,45.18882352941176,216.11098100871183
-0.1817412109375,-0.0639384765625,0.8391650390625001,0.8609970727725672,0.2578125,0.12841796875,2.2607421875,45.33,216.11098100871183
-0.1739287109375,-0.0507548828125,0.8533251953125001,0.8723480633169352,0.09765625,-0.0712890625,2.21923828125,45.09470588235294,216.11098100871183
-0.1792998046875,-0.0473369140625,0.8762744140625001,0.8956818922667321,0.09814453125,-0.1826171875,2.1845703125,45.235882352941175,215.9948957609689
-0.1890654296875,-0.0531962890625,0.8948291015625001,0.9161302870640676,0.07666015625,-0.28466796875,2.1015625,45.00058823529412,215.9948957609689
-0.2076201171875,-0.0629619140625,0.8894580078125001,0.9155358340038616,-0.0341796875,-0.41845703125,2.10791015625,45.00058823529412,215.9948957609689
-0.2085966796875,-0.0575908203125,0.9114306640625,0.9367684520490248,-0.05517578125,-0.56591796875,2.140625,44.81235294117647,215.9948957609689
-0.2081083984375,-0.0571025390625,0.8992236328125001,0.924755614892992,-0.03662109375,-0.669921875,2.19970703125,44.906470588235294,215.9948957609689
-0.2017607421875,-0.0531962890625,0.8943408203125001,0.9183587235581244,-0.10205078125,-0.71435546875,2.2578125,44.906470588235294,216.11098100871183
-0.2071318359375,-0.0512431640625,0.8904345703125001,0.9156435896840988,-0.140625,-0.75048828125,2.3017578125,45.00058823529412,216.11098100871183
-0.2178740234375,-0.0497783203125,0.8992236328125001,0.9265797931481604,-0.17236328125,-0.72216796875,2.36572265625,45.00058823529412,216.11098100871183
-0.2364287109375,-0.0478251953125,0.9060595703125,0.937619181553534,-0.216796875,-0.6513671875,2.3603515625,44.906470588235294,216.11098100871183
-0.1373076171875,-0.0468486328125,0.9187548828125,0.930139081442082,-0.28125,-0.61474609375,2.3896484375,44.906470588235294,215.89919615173463
-0.2784208984375,-0.0414775390625,0.9231494140625,0.9651131662231964,-0.32373046875,-0.5673828125,2.44287109375,45.04764705882353,215.89919615173463
-0.2847685546875,-0.0434306640625,0.9148486328125,0.9591284446197068,-0.35400390625,-0.45703125,2.4560546875,45.00058823529412,215.89919615173463
-0.2945341796875,-0.0380595703125,0.9202197265625,0.9669556655045376,-0.39501953125,-0.35791015625,2.43310546875,45.04764705882353,215.89919615173463
-0.2999052734375,-0.0361064453125,0.9280322265625,0.9759562807663454,-0.43359375,-0.21484375,2.43701171875,45.09470588235294,215.89919615173463
-0.2935576171875,-0.0356181640625,0.9441455078125,0.989371248896242,-0.49072265625,-0.15478515625,2.390625,45.47117647058823,216.14235234976755
-0.2857451171875,-0.0258525390625,0.9514697265625,0.99378733456278,-0.51025390625,-0.10009765625,2.37548828125,44.85941176470588,216.14235234976755
-0.2647490234375,-0.0097392578124999,0.9509814453125,0.9871943111072408,-0.50927734375,-0.06787109375,2.35546875,45.235882352941175,216.14235234976755
-0.2447294921875,0.0005146484375,0.9602587890625,0.9909539500810038,-0.4794921875,-0.07470703125,2.34521484375,45.235882352941175,216.14235234976755
-0.2222685546875,0.0136982421875,0.9656298828125,0.990975288704204,-0.43603515625,-0.08935546875,2.27197265625,45.04764705882353,216.0482389083236
-0.2178740234375,0.0288349609375,0.9724658203125,0.9969906302153372,-0.421875,-0.10107421875,2.1650390625,45.33,216.0482389083236
-0.2222685546875,0.0327412109375,0.9661181640625,0.9918969725873852,-0.462890625,-0.125,2.0654296875,45.235882352941175,216.0482389083236
-0.2378935546875,0.0356708984375,0.9661181640625,0.995615419370697,-0.47509765625,-0.13623046875,2.017578125,44.906470588235294,216.0482389083236
-0.2627958984375,0.0381123046875,0.9793017578125,1.014665543348555,-0.48291015625,-0.06591796875,1.9130859375,45.33,216.0482389083236
-0.2886748046875,0.0351826171875,0.9919970703125,1.0337452040624475,-0.4501953125,0.056640625,1.595703125,45.235882352941175,215.9839095878322
-0.3316435546875,0.0180927734375,0.9973681640625,1.0512174135267278,-0.44921875,0.189453125,1.328125,44.906470588235294,215.9839095878322
-0.3667998046875,-0.0087626953124999,1.0081103515625005,1.0728025738575555,-0.54638671875,0.32568359375,1.173828125,44.81235294117647,215.9839095878322
-0.3868193359375,-0.0287822265625,1.0212939453125005,1.092473769915322,-0.611328125,0.53076171875,1.046875,45.00058823529412,215.9839095878322
-0.4097685546875,-0.0502666015625,1.0647509765625005,1.1419858325452743,-0.734375,0.8369140625,0.9775390625,45.00058823529412,216.02785436390104
-0.4229521484375,-0.0922587890625,1.0950244140625005,1.177488289292126,-0.81396484375,0.95068359375,1.03125,45.235882352941175,216.02785436390104
-0.4048857421875,-0.1117900390625,1.1414111328125005,1.2162437466102891,-0.82373046875,0.9462890625,1.04150390625,45.04764705882353,216.02785436390104
-0.3624052734375,-0.1127666015625,1.1199267578125005,1.182493057699572,-0.79541015625,0.6142578125,1.03662109375,45.09470588235294,216.02785436390104
-0.3687529296875,-0.1098369140625,1.1028369140625005,1.1680291648168664,-0.7294921875,0.50927734375,1.1357421875,45.04764705882353,216.02785436390104
-0.3404326171875,-0.0522197265625,1.1116259765625005,1.1637583849132629,-0.6591796875,0.86328125,0.9619140625,45.33,215.59171823631632
-0.3311552734375,-0.0326884765625,1.1575244140625005,1.204406542981305,-0.6796875,1.40234375,0.85791015625,45.04764705882353,215.59171823631632
-0.2945341796875,-0.0238994140625,1.2332080078125005,1.268118115764299,-0.6298828125,1.806640625,0.935546875,45.04764705882353,215.59171823631632
-0.2364287109375,-0.0336650390625,1.2800830078125005,1.3021691046484498,-0.52197265625,1.720703125,1.041015625,45.235882352941175,215.59171823631632
-0.1973662109375,-0.0282939453125,1.2883837890625005,1.30372035210018,-0.4130859375,1.2685546875,0.9755859375,45.09470588235294,215.07407154965264
-0.1900419921875,-0.0121806640624999,1.2883837890625005,1.302381324839481,-0.28759765625,1.08984375,0.77587890625,45.00058823529412,215.07407154965264
-0.1597685546875,-0.0170634765625,1.3103564453125005,1.3201708855566172,-0.1982421875,1.1376953125,0.5712890625,45.235882352941175,215.07407154965264
-0.0167021484375,-0.0439189453125,1.2908251953125005,1.291680115343325,-0.14501953125,0.87060546875,0.3798828125,45.18882352941176,215.07407154965264
0.0790009765625,-0.0810283203125,1.1692431640625005,1.174706907997642,-0.12744140625,0.24560546875,-0.017578125,45.04764705882353,215.07407154965264
0.0902314453125,-0.1108134765625,1.0466845703125005,1.0563947794462607,-0.1533203125,-0.119140625,-0.5869140625,45.518235294117645,215.84585351115987
0.0780244140625,-0.1454814453125,0.9539111328125,0.9680904448571102,-0.244140625,-0.109375,-1.12548828125,45.04764705882353,215.84585351115987
0.0594697265625,-0.1943095703125,0.8757861328125001,0.8990518382824879,-0.4580078125,-0.09619140625,-1.75732421875,45.09470588235294,215.84585351115987
0.0306611328125,-0.2275126953125,0.8372119140625001,0.8681163059417206,-0.72265625,-0.216796875,-2.04638671875,45.00058823529412,215.84585351115987
-0.0206083984375,-0.2538798828125,0.8328173828125001,0.8708986703961086,-0.96240234375,-0.36328125,-1.9169921875,45.09470588235294,216.2913980688119
-0.0684599609375,-0.2699931640625,0.8816455078125001,0.924598224277986,-0.892578125,-0.53466796875,-1.49755859375,44.906470588235294,216.2913980688119
-0.0884794921875,-0.2192119140625,0.9158251953125,0.945842625479462,-0.73046875,-0.5810546875,-0.81591796875,45.18882352941176,216.2913980688119
-0.1182646484375,-0.1523173828125,0.9768603515625,0.9957124377207038,-0.39404296875,-0.529296875,-0.404296875,45.00058823529412,216.2913980688119
-0.1900419921875,-0.1298564453125,0.9993212890625,1.0254860769202714,-0.04150390625,-0.4736328125,0.30517578125,44.906470588235294,216.2913980688119
-0.2076201171875,-0.1142314453125,1.0149462890625005,1.042243208584673,0.10888671875,-0.607421875,1.03466796875,45.04764705882353,216.3651284108512
-0.1939482421875,-0.0590556640625,1.0471728515625005,1.066618241525534,0.26123046875,-0.640625,1.26416015625,45.09470588235294,216.3651284108512
-0.2164091796875,-0.0322001953125,1.0798876953125005,1.10182903397874,0.53759765625,-0.7099609375,1.04736328125,45.00058823529412,216.3651284108512
-0.2159208984375,-0.0458720703125,1.0217822265625005,1.045354006897105,0.74609375,-0.755859375,1.2958984375,45.09470588235294,216.3651284108512
-0.1753935546875,-0.0199931640625,1.0271533203125005,1.0422123435577515,0.49951171875,-0.76220703125,1.4580078125,45.00058823529412,216.47963309416025
-0.1148466796875,-0.0185283203125,1.0110400390625005,1.0177106755244083,0.564453125,-0.85205078125,1.24853515625,45.18882352941176,216.47963309416025
-0.0733427734375,-0.0434306640625,0.9876025390625,0.9912740086167452,0.560546875,-0.86767578125,0.736328125,45.04764705882353,216.47963309416025
-0.0728544921875,-0.0771220703125,0.9602587890625,0.966101719661529,0.5478515625,-0.72607421875,-0.001953125,44.906470588235294,216.47963309416025
-0.0904326171875,-0.1088603515625,0.9177783203125,0.9286256940389525,0.56982421875,-0.740234375,-0.56201171875,44.906470588235294,216.47963309416025
-0.1109404296875,-0.1254619140625,0.8845751953125001,0.9002898127723211,0.515625,-0.83056640625,-0.6416015625,45.00058823529412,216.13136622666343
-0.1055693359375,-0.1054423828125,0.8694384765625001,0.8821486526151834,0.431640625,-0.841796875,-0.888671875,45.04764705882353,216.13136622666343
-0.1246123046875,-0.1088603515625,0.8704150390625001,0.8860029022796793,0.41162109375,-0.7509765625,-1.48046875,44.906470588235294,216.13136622666343
-0.1392607421875,-0.1225322265625,0.8533251953125001,0.8732534510759712,0.42431640625,-0.705078125,-1.57177734375,45.235882352941175,216.13136622666343
-0.1514677734375,-0.1215556640625,0.8440478515625001,0.8661033665695229,0.37255859375,-0.6123046875,-1.634765625,44.85941176470588,215.93056662056728
-0.1641630859375,-0.1186259765625,0.8450244140625001,0.8689579399842097,0.341796875,-0.490234375,-1.732421875,45.37705882352941,215.93056662056728
-0.1817412109375,-0.1215556640625,0.8567431640625001,0.8842027461993817,0.30810546875,-0.3974609375,-1.8193359375,45.00058823529412,215.93056662056728
-0.1841826171875,-0.1166728515625,0.8704150390625001,0.8973060408756511,0.255859375,-0.26171875,-1.8779296875,45.00058823529412,215.93056662056728
-0.1846708984375,-0.1113017578125,0.8904345703125001,0.9161687322919684,0.2783203125,-0.13525390625,-2.0068359375,45.235882352941175,215.93056662056728
-0.1876005859375,-0.1069072265625,0.9016650390625,0.9271585504124732,0.328125,-0.07177734375,-2.11767578125,45.09470588235294,215.6764293190516
-0.1734404296875,-0.1059306640625,0.9050830078125,0.9276196091447338,0.3447265625,-0.0224609375,-2.21142578125,45.09470588235294,215.6764293190516
-0.1709990234375,-0.1156962890625,0.9177783203125,0.9407142725371218,0.345703125,-0.05615234375,-2.2236328125,45.00058823529412,215.6764293190516
-0.1778349609375,-0.1127666015625,0.9211962890625,0.9449572385786136,0.345703125,-0.09228515625,-2.13330078125,44.85941176470588,215.6764293190516
-0.1773466796875,-0.1098369140625,0.9168017578125,0.940234787494615,0.36083984375,-0.11572265625,-1.9755859375,45.00058823529412,215.6764293190516
-0.1822294921875,-0.1166728515625,0.9211962890625,0.9462677977703566,0.32080078125,-0.10546875,-1.84033203125,45.04764705882353,215.6764293190516
-0.1832060546875,-0.1249736328125,0.9114306640625,0.9380238391245302,0.31005859375,-0.12109375,-1.7119140625,45.04764705882353,215.6764293190516
-0.1973662109375,-0.1425517578125,0.9002001953125001,0.9325421258666672,0.37158203125,-0.14404296875,-1.62548828125,45.235882352941175,215.6764293190516
-0.2188505859375,-0.1381572265625,0.8977587890625001,0.934319988845147,0.20361328125,-0.10888671875,-1.50732421875,45.00058823529412,215.6764293190516
-0.2452177734375,-0.1391337890625,0.8923876953125001,0.935866318666127,0.18115234375,-0.07763671875,-1.40966796875,44.906470588235294,215.4097219586781
-0.2667021484375,-0.1327861328125,0.8865283203125001,0.9352511190929312,0.1982421875,-0.0283203125,-1.3134765625,45.09470588235294,215.4097219586781
-0.2808623046875,-0.1274150390625,0.8767626953125001,0.9294251181592372,0.2451171875,0.0595703125,-1.2041015625,45.00058823529412,215.4097219586781
-0.2730498046875,-0.1171611328125,0.8669970703125001,0.9164970522659898,0.29052734375,0.11279296875,-1.1005859375,45.04764705882353,215.4097219586781
-0.2725615234375,-0.1039775390625,0.8562548828125001,0.9045847318125112,0.33984375,0.16748046875,-1.0712890625,45.235882352941175,215.82388120119964
-0.2647490234375,-0.0947001953125,0.8484423828125001,0.8938202556196008,0.4150390625,0.22021484375,-1.0654296875,45.04764705882353,215.82388120119964
-0.2642607421875,-0.0922587890625,0.8547900390625001,0.8994506294962706,0.49365234375,0.2666015625,-1.09033203125,44.906470588235294,215.82388120119964
-0.2540068359375,-0.0971416015625,0.8689501953125001,0.9105110682417538,0.55419921875,0.30419921875,-1.1865234375,45.04764705882353,215.82388120119964
-0.2461943359375,-0.1005595703125,0.8972705078125001,0.9358516134619008,0.599609375,0.4208984375,-1.2568359375,45.18882352941176,215.82388120119964
-0.2198271484375,-0.1064189453125,0.9348681640625,0.9662439915927948,0.6337890625,0.46240234375,-1.3515625,45.00058823529412,215.8348673492192
-0.1924833984375,-0.1239970703125,0.9597705078125,0.986703886577324,0.66064453125,0.35986328125,-1.44677734375,45.235882352941175,215.8348673492192
-0.1792998046875,-0.1528056640625,0.9710009765625,0.9991700993403908,0.619140625,0.25927734375,-1.56982421875,45.00058823529412,215.8348673492192
-0.1617216796875,-0.1889384765625,0.9690478515625,1.0004525916926807,0.552734375,0.27392578125,-1.7607421875,45.235882352941175,215.8348673492192
-0.1631865234375,-0.2240947265625,0.9876025390625,1.0257714477735458,0.45361328125,0.32470703125,-1.94287109375,45.04764705882353,215.84585351115987
-0.1890654296875,-0.2338603515625,0.9915087890625,1.0361110362910146,0.3623046875,0.400390625,-1.99462890625,45.04764705882353,215.84585351115987
-0.2227568359375,-0.2338603515625,1.0012744140625005,1.0520749613245368,0.28955078125,0.4892578125,-1.96142578125,45.09470588235294,215.84585351115987
-0.2671904296875,-0.2148173828125,1.0042041015625005,1.061114089657635,0.23291015625,0.609375,-1.91259765625,45.235882352941175,215.84585351115987
