AccX,AccY,AccZ,Magnitude,GyroX,GyroY,GyroZ,Temperature,Altitude
0.0072236328125,-0.0512431640625,1.0759814453125005,1.0772251915875914,-0.0263671875,-0.310546875,1.60498046875,44.34176470588236,216.22925783503305
-0.0230498046875,-0.0566142578125,1.1003955078125005,1.1020919840456704,0.30078125,0.21826171875,1.6484375,44.34176470588236,216.22925783503305
0.0614228515625,-0.0292705078125,1.0652392578125005,1.0674100457212294,0.294921875,0.31005859375,0.951171875,44.76529411764706,216.22925783503305
0.0252900390625,-0.0556376953125,1.0735400390625005,1.0752782684895033,0.4794921875,0.3125,0.49169921875,44.34176470588236,216.22925783503305
-0.0113310546875,-0.0737041015625,1.0212939453125005,1.0240127001748751,0.5322265625,0.11865234375,0.28759765625,44.76529411764706,215.5491028292213
-0.0279326171875,-0.0673564453125,0.9876025390625,0.9902908143524184,0.484375,0.19580078125,-0.13427734375,44.34176470588236,215.5491028292213
-0.0250029296875,-0.0732158203125,0.9451220703125,0.9482834126086866,0.52783203125,0.28076171875,-0.65771484375,44.48294117647059,215.5491028292213
-0.0391630859375,-0.1015361328125,0.9158251953125,0.9222684652181514,0.5068359375,0.4453125,-0.8994140625,43.30647058823529,215.5491028292213
-0.0279326171875,-0.1230205078125,0.8669970703125001,0.8761268152361545,0.47216796875,0.4990234375,-1.09375,44.29470588235294,215.5491028292213
-0.0362333984375,-0.1288798828125,0.8494189453125001,0.8599043132883416,0.44677734375,0.5458984375,-1.25390625,44.34176470588236,215.03640977136985
-0.0420927734375,-0.1313212890625,0.8274462890625001,0.8388590130766909,0.4365234375,0.4697265625,-1.30810546875,44.20058823529412,215.03640977136985
-0.0513701171875,-0.1318095703125,0.8118212890625001,0.8240548872137842,0.4052734375,0.43896484375,-1.373046875,43.54176470588236,215.03640977136985
-0.0503935546875,-0.1220439453125,0.8001025390625001,0.810924354028008,0.421875,0.40185546875,-1.4833984375,44.20058823529412,215.03640977136985
-0.0474638671875,-0.1142314453125,0.7991259765625001,0.8086432886035378,0.400390625,0.32861328125,-1.60498046875,44.20058823529412,215.19865380921783
-0.0479521484375,-0.1015361328125,0.8020556640625001,0.8098779433106125,0.34814453125,0.26611328125,-1.6904296875,44.53,215.19865380921783
-0.0289091796875,-0.0971416015625,0.8269580078125001,0.8331457124114308,0.32861328125,0.19091796875,-1.70556640625,44.20058823529412,215.19865380921783
-0.0318388671875,-0.0907939453125,0.8279345703125001,0.83350639270958,0.330078125,0.0341796875,-1.66064453125,44.059411764705885,215.19865380921783
-0.0342802734375,-0.0727275390625,0.8323291015625001,0.8362034234520185,0.287109375,-0.0361328125,-1.83544921875,44.20058823529412,215.19865380921783
-0.0586943359375,-0.0785869140625,0.8562548828125001,0.8618546005407519,0.3154296875,-0.06005859375,-2.1171875,44.29470588235294,215.16218025906477
-0.0528349609375,-0.0746806640625,0.8552783203125001,0.8601568112144753,0.2939453125,-0.19287109375,-2.31396484375,44.29470588235294,215.16218025906477
-0.0459990234375,-0.0639384765625,0.8914111328125001,0.89488426438529,0.27001953125,-0.20654296875,-2.64501953125,44.76529411764706,215.16218025906477
-0.0411162109375,-0.0898173828125,0.8918994140625001,0.8973529238054418,0.4013671875,-0.0869140625,-2.90185546875,44.059411764705885,215.16218025906477
-0.0811552734375,-0.1054423828125,0.8977587890625001,0.907565489559216,0.4072265625,-0.13525390625,-2.98388671875,44.15352941176471,215.2780538920797
-0.1084990234375,-0.1059306640625,0.9260791015625,0.9384113415908936,0.45751953125,-0.12109375,-2.94677734375,44.53,215.2780538920797
-0.1006865234375,-0.1186259765625,0.9387744140625,0.9515814725054956,0.44921875,-0.08837890625,-3.2236328125,44.388823529411766,215.2780538920797
-0.1075224609375,-0.1166728515625,0.9744189453125,0.9872516978368314,0.47607421875,-0.134765625,-3.43798828125,44.29470588235294,215.2780538920797
-0.1163115234375,-0.1318095703125,0.9963916015625,1.011779796682362,0.50048828125,-0.1240234375,-3.69873046875,44.20058823529412,215.2780538920797
-0.1348662109375,-0.1537822265625,1.0198291015625005,1.0401390601515428,0.50537109375,-0.21875,-3.73095703125,44.76529411764706,215.2195742417148
-0.1368193359375,-0.1664775390625,1.0461962890625005,1.0681577490927223,0.521484375,-0.31103515625,-3.79248046875,44.20058823529412,215.2195742417148
-0.1299833984375,-0.1879619140625,1.0496142578125005,1.0742045686044563,0.5390625,-0.35546875,-3.95263671875,44.29470588235294,215.2195742417148
-0.1387724609375,-0.2001689453125,1.0491259765625005,1.077028652023886,0.5302734375,-0.34521484375,-4.060546875,44.29470588235294,215.2195742417148
-0.1500029296875,-0.2050517578125,1.0603564453125005,1.0903682375292258,0.51513671875,-0.2197265625,-4.099609375,44.20058823529412,215.53591864834908
-0.1495146484375,-0.2065166015625,1.0725634765625005,1.1024500660230152,0.49853515625,-0.0927734375,-4.10595703125,44.059411764705885,215.53591864834908
-0.1460966796875,-0.1987041015625,1.0930712890625005,1.1205500447397376,0.53662109375,0.0302734375,-4.15673828125,44.29470588235294,215.53591864834908
-0.1509794921875,-0.2128642578125,1.0754931640625005,1.1067030068001216,0.53857421875,0.13916015625,-4.16552734375,44.15352941176471,215.53591864834908
-0.1553740234375,-0.2113994140625,1.0754931640625005,1.107030417545197,0.52783203125,0.31787109375,-4.126953125,44.29470588235294,215.53591864834908
-0.1500029296875,-0.2182353515625,1.0925830078125005,1.1242175841655615,0.56298828125,0.513671875,-4.10205078125,43.73,215.15527069088628
-0.1392607421875,-0.2231181640625,1.0833056640625005,1.1147764041453017,0.59619140625,0.669921875,-4.1220703125,44.29470588235294,215.15527069088628
-0.1304716796875,-0.2338603515625,1.0657275390625005,1.0988579119930049,0.6083984375,0.810546875,-4.14697265625,44.20058823529412,215.15527069088628
-0.1255888671875,-0.2367900390625,1.0764697265625005,1.1093372608752508,0.55810546875,1.0263671875,-4.12548828125,44.76529411764706,215.15527069088628
-0.1119169921875,-0.2367900390625,1.0813525390625005,1.1126177463425762,0.51123046875,1.1171875,-4.15185546875,44.48294117647059,215.03766915222516
-0.0992216796875,-0.2299541015625,1.0979541015625005,1.1261558682897064,0.51708984375,1.1689453125,-4.23388671875,44.76529411764706,215.03766915222516
-0.1055693359375,-0.2494853515625,1.0964892578125005,1.1294585064679254,0.37158203125,1.244140625,-4.169921875,44.34176470588236,215.03766915222516
-0.0806669921875,-0.2406962890625,1.1287158203125005,1.1569102256531218,0.23046875,1.33837890625,-4.16455078125,44.76529411764706,215.03766915222516
-0.0445341796875,-0.2436259765625,1.1804736328125005,1.206173663856914,0.16796875,1.3671875,-4.1962890625,44.48294117647059,215.03766915222516
-0.0303740234375,-0.2465556640625,1.1902392578125005,1.2158872347463534,0.041015625,1.30224609375,-4.31103515625,44.48294117647059,215.44032408552195
-0.0342802734375,-0.2236064453125,1.1804736328125005,1.2019538166243258,-0.11279296875,1.22314453125,-4.2060546875,43.58882352941177,215.44032408552195
-0.0489287109375,-0.1435283203125,1.1804736328125005,1.1901732627022314,-0.2021484375,1.3232421875,-3.8232421875,44.34176470588236,215.44032408552195
-0.0547880859375,-0.0712626953125,1.2102587890625005,1.2135923708589005,-0.18212890625,1.509765625,-3.4267578125,44.15352941176471,215.44032408552195
-0.0860380859375,-0.0634501953125,1.2424853515625005,1.24707591122769,-0.06298828125,1.5107421875,-2.88671875,44.29470588235294,215.4826188137227
-0.0733427734375,-0.0688212890625,1.2473681640625005,1.2514163451706954,0.1025390625,1.33056640625,-2.41650390625,44.34176470588236,215.4826188137227
-0.0792021484375,-0.0776103515625,1.2097705078125005,1.214841976785329,0.00244140625,1.18994140625,-2.22998046875,44.388823529411766,215.4826188137227
-0.0743193359375,-0.0805400390625,1.1799853515625005,1.1850634968171356,0.0986328125,1.15185546875,-2.203125,44.20058823529412,215.4826188137227
-0.0523466796875,-0.0683330078125,1.1467822265625005,1.150008282574806,0.0830078125,1.18505859375,-2.23779296875,44.059411764705885,215.4826188137227
-0.0127958984375,-0.0590556640625,1.1062548828125005,1.1079039544207725,0.10791015625,1.15234375,-2.27685546875,43.73,215.43687470766665
0.0174775390625,-0.0610087890625,1.0706103515625005,1.0724896557017856,0.10986328125,1.12890625,-2.32861328125,44.15352941176471,215.43687470766665
0.0384736328125,-0.0654033203125,1.0413134765625005,1.0440745046213755,0.12158203125,1.05078125,-2.35888671875,44.53,215.43687470766665
0.0443330078125,-0.0575908203125,1.0007861328125005,1.0034216470635708,0.12646484375,1.03173828125,-2.4482421875,44.29470588235294,215.43687470766665
0.0321259765625,-0.0444072265625,0.9758837890625,0.9774217359441366,0.11083984375,0.9873046875,-2.5693359375,44.48294117647059,215.7896915307392
0.0082001953125,-0.0395244140625,0.9490283203125,0.9498864012424392,0.1552734375,1.00390625,-2.58447265625,44.20058823529412,215.7896915307392
-0.0054716796875,-0.0258525390625,0.9280322265625,0.9284083727504464,0.193359375,1.0048828125,-2.4873046875,44.388823529411766,215.7896915307392
-0.0035185546874999,-0.0160869140625,0.9294970703125,0.9296429275537268,0.19873046875,0.9912109375,-2.33837890625,44.059411764705885,215.7896915307392
0.0038056640625,-0.0043681640624999,0.9275439453125,0.9275620380449556,0.17724609375,0.982421875,-2.2900390625,44.34176470588236,215.7896915307392
-0.0167021484375,0.0029560546875,0.9358447265625,0.9359984253494148,0.2451171875,0.919921875,-2.26171875,44.48294117647059,215.83782388004903
-0.0396513671875,-0.0155986328124999,0.9270556640625,0.9280343487909378,0.28564453125,0.8251953125,-1.88037109375,44.48294117647059,215.83782388004903
-0.0328154296875,-0.0219462890625,0.9397509765625,0.9405798158473117,0.271484375,0.6611328125,-1.685546875,44.29470588235294,215.83782388004903
-0.0391630859375,-0.0190166015625,0.9368212890625,0.937832344332322,0.2958984375,0.5908203125,-1.7763671875,44.29470588235294,215.83782388004903
-0.0948271484375,-0.0419658203125,0.9358447265625,0.94157244564087,0.40185546875,0.55810546875,-1.7939453125,44.388823529411766,215.659356737704
-0.1124052734375,-0.0595439453125,0.9089892578125,0.9178463366699552,0.4140625,0.47509765625,-1.41015625,44.20058823529412,215.659356737704
-0.1226591796875,-0.0566142578125,0.9094775390625,0.9194562755283427,0.45556640625,0.484375,-1.34423828125,44.388823529411766,215.659356737704
-0.1167998046875,-0.0600322265625,0.9104541015625,0.9198764773887136,0.4189453125,0.52197265625,-1.4208984375,44.15352941176471,215.659356737704
-0.1441435546875,-0.0756572265625,0.9270556640625,0.941240449916726,0.42724609375,0.64453125,-1.3271484375,44.53,215.659356737704
-0.1485380859375,-0.0873759765625,0.9236376953125,0.9395768816102348,0.44091796875,0.63232421875,-0.94140625,44.48294117647059,215.45888437472928
-0.1280302734375,-0.0898173828125,0.9187548828125,0.9319707333728774,0.41552734375,0.5634765625,-0.6083984375,44.15352941176471,215.45888437472928
-0.0933623046875,-0.0766337890625,0.9060595703125,0.9140750530003046,0.4208984375,0.42431640625,-0.48291015625,44.34176470588236,215.45888437472928
-0.0723662109375,-0.0605205078125,0.8909228515625001,0.8959035259376927,0.4365234375,0.349609375,-0.5517578125,44.57705882352941,215.45888437472928
-0.0699248046875,-0.0556376953125,0.8523486328125001,0.8570199666913307,0.4931640625,0.2451171875,-0.5888671875,44.15352941176471,215.5324699104448
-0.0875029296875,-0.0507548828125,0.8543017578125001,0.8602699077816995,0.4755859375,0.2197265625,-0.48486328125,43.58882352941177,215.5324699104448
-0.0914091796875,-0.0429423828125,0.8362353515625001,0.8423118481747808,0.45556640625,0.130859375,-0.38525390625,44.48294117647059,215.5324699104448
-0.1031279296875,-0.0341533203125,0.8220751953125001,0.8292221933342614,0.39990234375,0.06884765625,-0.2666015625,44.48294117647059,215.5324699104448
-0.1182646484375,-0.0273173828125,0.8201220703125001,0.8290554726237753,0.3798828125,-0.052734375,-0.1787109375,44.29470588235294,215.5324699104448
-0.1421904296875,-0.0253642578125,0.8250048828125001,0.8375526971681017,0.32568359375,-0.1064453125,-0.037109375,44.71823529411765,215.53074619522457
-0.1543974609375,-0.0361064453125,0.8391650390625001,0.8540141767686404,0.3212890625,-0.07666015625,0.09326171875,44.34176470588236,215.53074619522457
-0.1568388671875,-0.0429423828125,0.8508837890625001,0.8662826911532001,0.2763671875,-0.099609375,0.2197265625,44.48294117647059,215.53074619522457
-0.1509794921875,-0.0619853515625,0.8611376953125001,0.8764674102085293,0.2880859375,-0.1298828125,0.39111328125,44.20058823529412,215.53074619522457
-0.1382841796875,-0.0712626953125,0.8728564453125001,0.8866111099115668,0.20556640625,-0.14306640625,0.521484375,44.29470588235294,215.48845073228588
-0.1465849609375,-0.0961650390625,0.8855517578125001,0.902738489971348,0.22119140625,-0.16796875,0.74755859375,44.29470588235294,215.48845073228588
-0.1402373046875,-0.1113017578125,0.8972705078125001,0.9149584400989308,0.2197265625,-0.18359375,0.82763671875,44.20058823529412,215.48845073228588
-0.1446318359375,-0.1161845703125,0.9016650390625,0.9205525867721692,0.1796875,-0.3076171875,0.765625,44.059411764705885,215.48845073228588
-0.1617216796875,-0.1191142578125,0.9055712890625,0.9275782811544732,0.072265625,-0.39599609375,0.71337890625,43.54176470588236,215.48845073228588
-0.1685576171875,-0.1108134765625,0.9109423828125,0.9330098186535396,0.037109375,-0.40576171875,0.81982421875,44.29470588235294,215.1188039669687
-0.1587919921875,-0.0971416015625,0.9104541015625,0.929289007031172,-0.03369140625,-0.44873046875,0.96337890625,44.29470588235294,215.1188039669687
-0.1597685546875,-0.0839580078125,0.8943408203125001,0.9123707804505864,-0.06884765625,-0.45361328125,1.09716796875,44.20058823529412,215.1188039669687
-0.1739287109375,-0.0829814453125,0.8933642578125001,0.913912913734898,-0.130859375,-0.42578125,1.27392578125,44.34176470588236,215.1188039669687
-0.1783232421875,-0.0844462890625,0.8953173828125001,0.9168007255706736,-0.169921875,-0.39599609375,1.41552734375,43.30647058823529,215.24568629783127
-0.1802763671875,-0.0873759765625,0.8997119140625001,0.9217459835293996,-0.232421875,-0.3798828125,1.54345703125,44.388823529411766,215.24568629783127
-0.1915068359375,-0.0922587890625,0.9021533203125,0.9268587625528172,-0.30517578125,-0.34716796875,1.68701171875,44.20058823529412,215.24568629783127
-0.2076201171875,-0.0854228515625,0.9119189453125,0.939148198874854,-0.373046875,-0.283203125,1.81298828125,43.58882352941177,215.24568629783127
-0.2232451171875,-0.0815166015625,0.9280322265625,0.957980768187395,-0.447265625,-0.1826171875,2.02587890625,44.29470588235294,215.24568629783127
-0.2232451171875,-0.0873759765625,0.9568408203125,0.9864163923235508,-0.50732421875,-0.0859375,2.1884765625,44.059411764705885,215.3302753603176
-0.2056669921875,-0.0780986328125,0.9397509765625,0.9651581249063842,-0.51806640625,-0.11865234375,2.2724609375,44.29470588235294,215.3302753603176
-0.2046904296875,-0.0717509765625,0.9324267578125,0.9573223246786092,-0.5703125,-0.03955078125,2.26611328125,44.15352941176471,215.3302753603176
-0.2081083984375,-0.0800517578125,0.9402392578125,0.9663163308983728,-0.6650390625,0.12109375,2.28271484375,44.48294117647059,215.3302753603176
-0.2012724609375,-0.0976298828125,0.9666064453125,0.9921543315782516,-0.77783203125,0.21484375,2.31689453125,44.059411764705885,215.2051173207364
-0.1885771484375,-0.0995830078125,0.9729541015625,0.9960511031594188,-0.85693359375,0.25390625,2.36328125,44.20058823529412,215.2051173207364
-0.1836943359375,-0.0961650390625,0.9695361328125,0.991459346933816,-0.96240234375,0.3408203125,2.43212890625,44.34176470588236,215.2051173207364
-0.1836943359375,-0.0922587890625,0.9998095703125,1.0207225235602788,-1.0146484375,0.4033203125,2.5458984375,44.48294117647059,215.2051173207364
-0.1797880859375,-0.0863994140625,1.0261767578125005,1.0453838304039278,-1.03564453125,0.37548828125,2.67333984375,44.29470588235294,215.2051173207364
-0.2081083984375,-0.0732158203125,1.0437548828125005,1.0668148467467022,-1.01513671875,0.345703125,2.779296875,44.059411764705885,215.6246194238344
-0.2476591796875,-0.0590556640625,1.0759814453125005,1.1056937692680218,-0.9443359375,0.40673828125,2.80078125,44.34176470588236,215.6246194238344
-0.2769560546875,-0.0527080078125,1.1296923828125005,1.164340014815351,-0.84619140625,0.619140625,2.771484375,44.29470588235294,215.6246194238344
-0.3013701171875,-0.0531962890625,1.1951220703125005,1.233681707593845,-0.7578125,0.939453125,2.80224609375,44.29470588235294,215.6246194238344
-0.3096708984375,-0.0644267578125,1.2659228515625005,1.3048400432886214,-0.65625,1.24169921875,2.87890625,44.34176470588236,215.0765101934359
-0.2730498046875,-0.0571025390625,1.3518603515625005,1.38034173519964,-0.48046875,1.3544921875,2.984375,44.15352941176471,215.0765101934359
-0.1954130859375,-0.0551494140625,1.3918994140625005,1.4066313343924148,-0.2919921875,1.146484375,2.9921875,44.15352941176471,215.0765101934359
-0.1099638671875,-0.0439189453125,1.3928759765625005,1.3979000006900106,-0.06103515625,0.77197265625,2.75927734375,44.059411764705885,215.0765101934359
-0.0372099609375,-0.0507548828125,1.3635791015625005,1.3650306243964918,0.21875,0.4873046875,2.33837890625,44.62411764705882,215.0765101934359
0.0062470703125,-0.0785869140625,1.3088916015625005,1.311263571365499,0.46435546875,0.349609375,1.6787109375,44.29470588235294,215.03249096002023
0.0072236328125,-0.1093486328125,1.2263720703125005,1.2312586077715522,0.49609375,0.33642578125,1.08251953125,44.15352941176471,215.03249096002023
-0.0054716796875,-0.1298564453125,1.1692431640625005,1.176444734092804,0.2578125,0.53955078125,0.6279296875,43.73,215.03249096002023
-0.0064482421875,-0.1503642578125,1.1438525390625005,1.1537112381244023,-0.08740234375,0.7216796875,0.32373046875,44.20058823529412,215.03249096002023
0.0042939453125,-0.1547587890625,1.1047900390625005,1.1155849367798756,-0.326171875,0.65966796875,0.1865234375,44.15352941176471,214.88532709399232
0.0033173828125,-0.1601298828125,1.0266650390625005,1.0390830990981783,-0.52978515625,0.41943359375,0.275390625,44.29470588235294,214.88532709399232
-0.0245146484375,-0.1371806640625,0.9866259765625,0.9964187474192512,-0.6494140625,0.39599609375,0.36328125,44.29470588235294,214.88532709399232
-0.0801787109375,-0.1415751953125,1.0847705078125005,1.096904378802073,-0.67822265625,0.57958984375,0.6435546875,44.34176470588236,214.88532709399232
-0.1285185546875,-0.1806376953125,0.9255908203125,0.9517695952874006,-0.77099609375,0.75244140625,1.15380859375,44.01235294117648,214.88532709399232
-0.1675810546875,-0.2153056640625,0.9143603515625,0.9541985073228042,-0.70751953125,1.03125,1.7451171875,44.29470588235294,215.29898556025807
-0.1641630859375,-0.2280009765625,0.9065478515625,0.949085334029855,-0.6572265625,1.392578125,2.30615234375,44.29470588235294,215.29898556025807
-0.1270537109375,-0.2446025390625,0.9226611328125,0.9629520307791336,-0.3779296875,1.66455078125,2.927734375,44.20058823529412,215.29898556025807
-0.0562529296875,-0.2480205078125,0.9587939453125,0.9919497940732216,-0.1298828125,1.55908203125,3.34130859375,44.29470588235294,215.29898556025807
0.0165009765625,-0.2343486328125,0.9900439453125,1.0175355411869134,0.2216796875,1.2109375,3.81201171875,44.34176470588236,215.8598333801412
0.1371064453125,-0.1874736328125,0.9978564453125,1.0245301487988747,0.36962890625,0.6435546875,3.4326171875,44.29470588235294,215.8598333801412
0.0233369140625,-0.1864970703125,1.0217822265625005,1.0389247746165873,0.42529296875,0.3623046875,3.0537109375,44.34176470588236,215.8598333801412
-0.0259794921875,-0.1767314453125,1.0447314453125005,1.0598927920319636,0.4462890625,0.12744140625,2.98193359375,44.20058823529412,215.8598333801412
-0.0015654296874999,-0.1620830078125,1.0501025390625005,1.0625387967209308,0.49951171875,0.12890625,2.6298828125,44.34176470588236,215.8598333801412
0.0282197265625,-0.1469462890625,1.0706103515625005,1.0810162300859698,0.37353515625,0.03662109375,2.32177734375,44.29470588235294,215.3505605774221
0.0409150390625,-0.1230205078125,1.0979541015625005,1.1055818806862965,0.275390625,-0.11328125,1.68310546875,44.20058823529412,215.3505605774221
-0.0206083984375,-0.1288798828125,1.0549853515625005,1.0630281380525046,0.3232421875,-0.41845703125,1.19189453125,44.62411764705882,215.3505605774221
-0.0469755859375,-0.0849345703125,1.0227587890625005,1.0273539446135067,0.390625,-0.7177734375,0.93310546875,43.58882352941177,215.3505605774221
-0.0782255859375,-0.0741923828125,0.9836962890625,0.989586853731392,0.4521484375,-0.74365234375,0.822265625,43.30647058823529,214.76772691431327
-0.1075224609375,-0.0785869140625,0.9661181640625,0.9752544742780824,0.42724609375,-0.77294921875,1.025390625,44.059411764705885,214.76772691431327
-0.1094755859375,-0.0859111328125,0.9353564453125,0.9456517892147838,0.52099609375,-0.78955078125,1.12890625,44.29470588235294,214.76772691431327
-0.0953154296875,-0.1005595703125,0.8826220703125001,0.8934310143042221,0.45654296875,-0.775390625,1.06640625,44.20058823529412,214.76772691431327
-0.0621123046875,-0.1137431640625,0.8674853515625001,0.8771124676688024,0.42919921875,-0.69384765625,0.82568359375,44.29470588235294,214.76772691431327
-0.0630888671875,-0.1332744140625,0.8254931640625001,0.8385590250665855,0.44189453125,-0.693359375,0.62890625,44.388823529411766,214.9496298830965
-0.0928740234375,-0.1454814453125,0.8147509765625001,0.8328322694091714,0.4765625,-0.74169921875,0.59619140625,44.29470588235294,214.9496298830965
-0.1001982421875,-0.1552470703125,0.8084033203125001,0.829251028863006,0.4892578125,-0.6943359375,0.48974609375,44.388823529411766,214.9496298830965
-0.1065458984375,-0.1567119140625,0.7820361328125001,0.8046683574661779,0.5087890625,-0.71337890625,0.40283203125,43.58882352941177,214.9496298830965
-0.1260771484375,-0.1645244140625,0.7771533203125001,0.8043202182299558,0.43017578125,-0.701171875,0.38818359375,43.58882352941177,215.21267191860736
-0.1407255859375,-0.1532939453125,0.7952197265625001,0.8219958258537946,0.32421875,-0.6962890625,0.5224609375,44.15352941176471,215.21267191860736
-0.1592802734375,-0.1440166015625,0.8181689453125001,0.845879075344523,0.32275390625,-0.70458984375,0.64599609375,44.29470588235294,215.21267191860736
-0.1539091796875,-0.1313212890625,0.8323291015625001,0.8565658467747558,0.287109375,-0.58154296875,0.6455078125,44.29470588235294,215.21267191860736
-0.1446318359375,-0.1274150390625,0.8552783203125001,0.8767291288320023,0.31396484375,-0.5693359375,0.3935546875,44.53,215.21267191860736
-0.1480498046875,-0.1279033203125,0.8713916015625001,0.8930852855627102,0.30419921875,-0.5703125,0.18115234375,44.48294117647059,215.0342165882804
-0.1597685546875,-0.1239970703125,0.8865283203125001,0.909303979552008,0.3134765625,-0.564453125,0.0810546875,44.34176470588236,215.0342165882804
-0.1675810546875,-0.1337626953125,0.8840869140625001,0.9097172858443408,0.34765625,-0.54736328125,0.080078125,44.34176470588236,215.0342165882804
-0.1695341796875,-0.1386455078125,0.8796923828125001,0.9065445953163218,0.3447265625,-0.5078125,-0.009765625,44.29470588235294,215.0342165882804
-0.1758818359375,-0.1469462890625,0.8889697265625001,0.9180385649996364,0.31103515625,-0.48193359375,-0.06787109375,44.34176470588236,214.8980585061818
-0.1861357421875,-0.1518291015625,0.8953173828125001,0.9269799386001792,0.2744140625,-0.408203125,-0.138671875,44.29470588235294,214.8980585061818
-0.1915068359375,-0.1415751953125,0.8943408203125001,0.9255073781530868,0.27734375,-0.341796875,-0.20068359375,44.15352941176471,214.8980585061818
-0.1876005859375,-0.1362041015625,0.9036181640625,0.9328833386604268,0.2998046875,-0.24609375,-0.19677734375,44.29470588235294,214.8980585061818
-0.2037138671875,-0.1332744140625,0.9021533203125,0.934420688169444,0.32763671875,-0.19482421875,-0.22314453125,44.34176470588236,214.8980585061818
-0.2164091796875,-0.1366923828125,0.9114306640625,0.94669086610434,0.34619140625,-0.08935546875,-0.31201171875,44.20058823529412,214.79146337529085
-0.2164091796875,-0.1362041015625,0.9329150390625,0.967323606888848,0.40185546875,0.0810546875,-0.43212890625,44.388823529411766,214.79146337529085
-0.2046904296875,-0.1362041015625,0.9617236328125,0.9926540561535896,0.49462890625,0.22705078125,-0.544921875,43.40058823529412,214.79146337529085
-0.1929716796875,-0.1347392578125,0.9939501953125,1.0214351313319097,0.54052734375,0.3212890625,-0.6552734375,43.447647058823534,214.79146337529085
-0.1705107421875,-0.1371806640625,1.0310595703125005,1.0540285979644757,0.6171875,0.34326171875,-0.72509765625,44.29470588235294,215.09679433351369
-0.1392607421875,-0.1381572265625,1.0247119140625005,1.043319452702617,0.6513671875,0.384765625,-0.849609375,44.29470588235294,215.09679433351369
-0.1236357421875,-0.1435283203125,1.0222705078125005,1.039674548414651,0.708984375,0.45654296875,-0.9326171875,44.53,215.09679433351369
-0.1172880859375,-0.1606181640625,1.0212939453125005,1.0404787419556745,0.68212890625,0.46630859375,-0.9462890625,44.20058823529412,215.09679433351369
-0.1329130859375,-0.1762431640625,1.0300830078125005,1.0534697642914286,0.6640625,0.43994140625,-0.86767578125,43.73,215.09679433351369
-0.1382841796875,-0.1821025390625,1.0315478515625005,1.0565863992821714,0.65234375,0.53466796875,-0.763671875,44.20058823529412,214.96063474296488
-0.1495146484375,-0.1869853515625,1.0584033203125005,1.0851431888211187,0.6474609375,0.6318359375,-0.66796875,43.73,214.96063474296488
-0.1666044921875,-0.1889384765625,1.0798876953125005,1.1088788208051217,0.65087890625,0.65087890625,-0.5263671875,44.29470588235294,214.96063474296488
-0.1929716796875,-0.1791728515625,1.1047900390625005,1.1357385307852217,0.6513671875,0.74365234375,-0.447265625,44.76529411764706,214.96063474296488
-0.2115263671875,-0.1781962890625,1.1536181640625005,1.1863103261398853,0.6904296875,0.85400390625,-0.439453125,44.059411764705885,215.0214861864976
-0.2247099609375,-0.1860087890625,1.2112353515625005,1.2458671329751676,0.642578125,0.80419921875,-0.4404296875,44.48294117647059,215.0214861864976
-0.2164091796875,-0.1796611328125,1.2454150390625005,1.2767809816955829,0.6064453125,0.60693359375,-0.49853515625,44.48294117647059,215.0214861864976
-0.2085966796875,-0.1679423828125,1.2683642578125005,1.2963275470411189,0.4755859375,0.4375,-0.67724609375,44.34176470588236,215.0214861864976
-0.2208037109375,-0.1430400390625,1.3167041015625005,1.3427302121462388,0.35693359375,0.45947265625,-0.79541015625,44.388823529411766,215.0214861864976
-0.2061552734375,-0.1303447265625,1.3704150390625005,1.3919508338290607,0.265625,0.6044921875,-0.69140625,44.48294117647059,214.71615633304532
-0.1509794921875,-0.1152080078125,1.4045947265625005,1.4173757575225088,0.22998046875,0.6669921875,-0.4775390625,44.29470588235294,214.71615633304532
-0.1138701171875,-0.1205791015625,1.4041064453125005,1.413867261481791,0.23779296875,0.91455078125,-0.28857421875,44.15352941176471,214.71615633304532
-0.0718779296875,-0.1352275390625,1.4211962890625005,1.4294235957693169,0.1904296875,1.271484375,-0.0751953125,44.20058823529412,214.71615633304532
0.0150361328125,-0.1689189453125,1.4397509765625005,1.44970430429385,0.11767578125,1.32275390625,0.06201171875,44.15352941176471,214.89460579273444
0.1141572265625,-0.1689189453125,1.3870166015625005,1.4019203028246352,0.03857421875,0.83251953125,0.11083984375,44.29470588235294,214.89460579273444
0.1717744140625,-0.1186259765625,1.2395556640625005,1.257011064371093,-0.01318359375,0.53759765625,0.18798828125,44.388823529411766,214.89460579273444
0.1629853515625,-0.0370830078125,1.1428759765625005,1.1550345761474252,-0.04443359375,0.67041015625,0.498046875,44.34176470588236,214.89460579273444
0.1317353515625,0.0361591796875,1.0745166015625005,1.0831655534406517,0.11767578125,0.71337890625,0.953125,44.15352941176471,214.89460579273444
0.1043916015625,0.0796162109375,0.9910205078125,0.9996789456749472,0.2998046875,0.64794921875,1.34912109375,44.20058823529412,215.3708460408969
0.0755830078125,0.0718037109375,0.9197314453125,0.9256211403544112,0.41455078125,0.71435546875,1.41845703125,44.059411764705885,215.3708460408969
0.0599580078125,0.0713154296875,0.8640673828125001,0.8690761159143657,0.41748046875,0.93310546875,0.95166015625,44.29470588235294,215.3708460408969
0.0355439453125,0.0547138671875,0.8420947265625001,0.8446185575840499,0.3310546875,1.10205078125,0.17822265625,44.29470588235294,215.3708460408969
-0.0054716796875,0.0376240234375,0.8484423828125001,0.8492938145134351,0.1728515625,1.1318359375,-0.38525390625,44.48294117647059,215.93170070338644
-0.0572294921875,2.6367187500001e-05,0.8860400390625001,0.88788634762178,0.03076171875,1.16259765625,-0.4140625,44.34176470588236,215.93170070338644
-0.0723662109375,-0.0282939453125,0.9031298828125,0.9064662161689854,0.009765625,1.32470703125,-0.26708984375,44.20058823529412,215.93170070338644
-0.0718779296875,-0.0600322265625,0.9050830078125,0.9099151367205266,-0.13134765625,1.39599609375,-0.24267578125,44.388823529411766,215.93170070338644
-0.0484404296875,-0.1000712890625,0.9519580078125,0.9584282898377344,-0.267578125,1.330078125,-0.375,44.76529411764706,215.93170070338644
-0.0152373046875,-0.1181376953125,0.9846728515625,0.991851458189236,-0.34765625,1.22216796875,-0.43701171875,44.29470588235294,215.8581112513839
-0.0186552734375,-0.1386455078125,1.0066455078125005,1.0163197205912615,-0.42919921875,1.22412109375,-0.7939453125,44.48294117647059,215.8581112513839
-0.0352568359375,-0.1542705078125,1.0237353515625005,1.0358940602686388,-0.44384765625,1.265625,-1.17431640625,44.76529411764706,215.8581112513839
-0.0362333984375,-0.1576884765625,1.0242236328125005,1.036924570455618,-0.4814453125,1.25,-1.55126953125,44.15352941176471,215.8581112513839
-0.0396513671875,-0.1689189453125,1.0027392578125005,1.0176403392965951,-0.564453125,1.12060546875,-1.47265625,44.29470588235294,216.02730019822
-0.0328154296875,-0.1410869140625,0.9890673828125,0.999618255880125,-0.65087890625,0.962890625,-1.1806640625,44.29470588235294,216.02730019822
-0.0279326171875,-0.0956767578125,0.9817431640625,0.986789700631246,-0.8251953125,0.82763671875,-1.123046875,44.29470588235294,216.02730019822
-0.0684599609375,-0.0888408203125,0.9636767578125,0.9701816073052374,-0.87109375,0.68115234375,-0.3115234375,44.29470588235294,216.02730019822
-0.0709013671875,-0.0624736328125,0.9358447265625,0.9406036949218776,-0.99755859375,0.60595703125,0.390625,44.53,216.02730019822
-0.0743193359375,-0.0351298828125,0.9192431640625,0.9229114080106754,-0.7177734375,0.63623046875,0.84765625,44.20058823529412,215.6779202810719
-0.0992216796875,-0.0243876953125,0.8972705078125001,0.9030692473962147,-0.552734375,0.8095703125,1.025390625,44.29470588235294,215.6779202810719
-0.1348662109375,-0.0356181640625,0.8826220703125001,0.8935766712859872,-0.3896484375,0.935546875,1.17529296875,44.388823529411766,215.6779202810719
-0.1587919921875,-0.0497783203125,0.8684619140625001,0.8842617678793481,-0.33984375,0.93798828125,1.490234375,44.34176470588236,215.6779202810719
-0.1578154296875,-0.0419658203125,0.8713916015625001,0.8865608626572742,-0.23828125,0.859375,1.662109375,44.76529411764706,215.563760541259
-0.1529326171875,-0.0370830078125,0.8728564453125001,0.8869283561775515,-0.10107421875,0.79541015625,1.74755859375,44.71823529411765,215.563760541259
-0.1417021484375,-0.0429423828125,0.8699267578125001,0.8824375961344727,-0.0234375,0.74560546875,1.7373046875,44.29470588235294,215.563760541259
-0.2535185546875,-0.0478251953125,0.8694384765625001,0.9069080280848985,0.0302734375,0.70068359375,1.80517578125,44.34176470588236,215.563760541259
-0.1138701171875,-0.0522197265625,0.8704150390625001,0.8793836726120918,0.04443359375,0.6279296875,1.86328125,44.15352941176471,215.563760541259
-0.1158232421875,-0.0634501953125,0.8796923828125001,0.8895502454017721,0.048828125,0.57958984375,2.072265625,44.48294117647059,215.29726101446028
-0.0948271484375,-0.0614970703125,0.8801806640625001,0.8874075045475511,-0.03125,0.5283203125,2.1826171875,44.48294117647059,215.29726101446028
-0.0826201171875,-0.0536845703125,0.8879931640625001,0.8934427660882616,-0.10693359375,0.46435546875,1.93896484375,44.34176470588236,215.29726101446028
-0.0987333984375,-0.0673564453125,0.8840869140625001,0.8921293887708824,-0.091796875,0.3759765625,1.94775390625,44.62411764705882,215.29726101446028
-0.1080107421875,-0.0678447265625,0.8748095703125001,0.8840593937403617,-0.12109375,0.18701171875,2.0458984375,43.63588235294118,215.09679433351369
-0.1246123046875,-0.0663798828125,0.8748095703125001,0.8861299564014707,-0.15185546875,-0.0068359375,2.0908203125,44.29470588235294,215.09679433351369
-0.1480498046875,-0.0649150390625,0.8699267578125001,0.8848193436643782,-0.1552734375,-0.11328125,2.17626953125,44.29470588235294,215.09679433351369
-0.1602568359375,-0.0556376953125,0.8718798828125001,0.8882298895317159,-0.1484375,-0.2138671875,2.19580078125,44.34176470588236,215.09679433351369
-0.1797880859375,-0.0668681640625,0.8723681640625001,0.8932084420111223,-0.24951171875,-0.32763671875,2.17041015625,44.29470588235294,215.09679433351369
-0.2056669921875,-0.0727275390625,0.8733447265625001,0.9001773258797784,-0.1162109375,-0.3974609375,2.125,44.15352941176471,215.20166715339803
-0.2427763671875,-0.0785869140625,0.8777392578125001,0.914080123529587,-0.1337890625,-0.39208984375,2.0234375,44.62411764705882,215.20166715339803
-0.2647490234375,-0.0800517578125,0.9002001953125001,0.941732828874859,-0.18212890625,-0.37109375,2.06298828125,44.76529411764706,215.20166715339803
-0.2549833984375,-0.0722392578125,0.9133837890625,0.9510546724401324,-0.1982421875,-0.29296875,2.18505859375,43.54176470588236,215.20166715339803
-0.2496123046875,-0.0654033203125,0.9275439453125,0.9627677120911268,-0.24755859375,-0.16943359375,2.25830078125,44.29470588235294,215.22540168610112
-0.2334990234375,-0.0654033203125,0.9446337890625,0.9752601620556136,-0.3037109375,-0.07861328125,2.37109375,44.20058823529412,215.22540168610112
-0.2173857421875,-0.0634501953125,0.9666064453125,0.9927791840642468,-0.35888671875,-0.1142578125,2.42724609375,44.76529411764706,215.22540168610112
-0.2046904296875,-0.0605205078125,0.9802783203125,1.0032479699188197,-0.4140625,-0.15966796875,2.49658203125,44.53,215.22540168610112
-0.1709990234375,-0.0507548828125,0.9905322265625,1.0064645130379677,-0.4345703125,-0.1787109375,2.5009765625,44.20058823529412,215.22540168610112
-0.1558623046875,-0.0453837890625,0.9915087890625,1.0047101199452275,-0.45263671875,-0.14501953125,2.50634765625,43.447647058823534,215.08751503662344
-0.1539091796875,-0.0380595703125,1.0046923828125005,1.0171250417553934,-0.44970703125,-0.10009765625,2.45556640625,44.388823529411766,215.08751503662344
-0.1485380859375,-0.0307353515625,1.0159228515625005,1.0271842410865388,-0.44970703125,-0.12158203125,2.427734375,44.34176470588236,215.08751503662344
-0.1495146484375,-0.0273173828125,1.0071337890625005,1.0185378434660652,-0.427734375,-0.111328125,2.35888671875,44.15352941176471,215.08751503662344
-0.1465849609375,-0.0322001953125,1.0198291015625005,1.0308129800041266,-0.4052734375,-0.04541015625,2.26025390625,44.29470588235294,215.30654161119463
-0.1646513671875,-0.0317119140625,1.0252001953125005,1.0388220052920565,-0.4140625,-0.0458984375,2.171875,44.29470588235294,215.30654161119463
-0.1910185546875,-0.0238994140625,1.0349658203125005,1.052717207726063,-0.416015625,-0.05078125,2.05712890625,44.29470588235294,215.30654161119463
-0.2237333984375,-0.0248759765625,1.0496142578125005,1.0734829006507822,-0.41259765625,-0.02099609375,1.89697265625,44.34176470588236,215.30654161119463
-0.2647490234375,-0.0287822265625,1.0505908203125005,1.0838180353278393,-0.408203125,0.07275390625,1.7705078125,44.388823529411766,215.30654161119463
-0.2964873046875,-0.0292705078125,1.0584033203125005,1.09953584430749,-0.4365234375,0.22412109375,1.6484375,44.29470588235294,215.36328983157375
-0.3257841796875,-0.0458720703125,1.0593798828125005,1.1092904555062388,-0.4482421875,0.390625,1.552734375,44.34176470588236,215.36328983157375
-0.3404326171875,-0.0575908203125,1.0569384765625005,1.1119037785112778,-0.4560546875,0.5234375,1.53515625,44.29470588235294,215.36328983157375
-0.3497099609375,-0.0732158203125,1.0574267578125005,1.116158125563218,-0.5576171875,0.63037109375,1.587890625,44.29470588235294,215.36328983157375
-0.3741240234375,-0.0893291015625,1.0549853515625005,1.122916989501218,-0.6201171875,0.79638671875,1.58203125,44.388823529411766,215.0342165882804
-0.3907255859375,-0.1049541015625,1.0662158203125005,1.1403938014675683,-0.599609375,1.09423828125,1.5732421875,44.48294117647059,215.0342165882804
-0.3848662109375,-0.1186259765625,1.0769580078125005,1.1497967964941738,-0.5712890625,1.271484375,1.671875,44.34176470588236,215.0342165882804
-0.3316435546875,-0.1122783203125,1.0696337890625005,1.1254822572045098,-0.587890625,1.31591796875,1.69189453125,44.15352941176471,215.0342165882804
-0.2994169921875,-0.0951884765625,1.0540087890625005,1.099839037633188,-0.6103515625,1.3212890625,1.548828125,44.48294117647059,215.0342165882804
-0.2857451171875,-0.0810283203125,1.0559619140625005,1.096937292938709,-0.69140625,1.380859375,1.43408203125,44.48294117647059,214.89460579273444
-0.2496123046875,-0.0761455078125,1.1145556640625005,1.1447002967175426,-0.775390625,1.7509765625,1.2578125,44.20058823529412,214.89460579273444
-0.1910185546875,-0.0849345703125,1.1780322265625005,1.1964371677145742,-0.85986328125,1.939453125,1.14111328125,44.34176470588236,214.89460579273444
-0.1490263671875,-0.0761455078125,1.2351611328125005,1.2464469585537068,-0.8603515625,1.77001953125,1.0322265625,44.29470588235294,214.89460579273444
-0.1182646484375,-0.0654033203125,1.2908251953125005,1.2978805053746278,-0.744140625,1.4599609375,0.7373046875,44.34176470588236,214.90561058294284
-0.0621123046875,-0.0820048828125,1.3723681640625005,1.3762184117831595,-0.6005859375,0.89599609375,0.60546875,44.29470588235294,214.90561058294284
0.0545869140625,-0.0907939453125,1.3938525390625005,1.397872731096524,-0.4326171875,-0.0703125,0.71337890625,44.059411764705885,214.90561058294284
0.1473603515625,-0.0844462890625,1.2620166015625005,1.273393949871136,-0.267578125,-0.4794921875,0.79638671875,44.34176470588236,214.90561058294284
0.1966767578125,-0.0849345703125,1.1311572265625005,1.1512655208518898,-0.0888671875,-0.15673828125,0.6962890625,44.34176470588236,214.90561058294284
0.1888642578125,-0.1264384765625,1.0584033203125005,1.0825312857756293,-0.05029296875,0.1513671875,0.2314453125,44.48294117647059,215.40213646027163
0.1654267578125,-0.1943095703125,0.9734423828125,1.006336074068232,-0.09130859375,0.197265625,-0.435546875,44.20058823529412,215.40213646027163
0.1087861328125,-0.2514384765625,0.8884814453125001,0.9297607266673286,-0.220703125,0.056640625,-0.91943359375,44.15352941176471,215.40213646027163
0.0487275390625,-0.2499736328125,0.8347705078125001,0.8727559744155896,-0.388671875,-0.18017578125,-0.99365234375,44.29470588235294,215.40213646027163
-0.0044951171875,-0.2221416015625,0.8479541015625001,0.8765804330350687,-0.3974609375,-0.43310546875,-0.73876953125,44.20058823529412,215.8581112513839
-0.0650419921875,-0.1860087890625,0.8552783203125001,0.8776848725783006,-0.27197265625,-0.642578125,-0.392578125,44.388823529411766,215.8581112513839
-0.0831083984375,-0.0947001953125,0.9236376953125,0.9321918928446324,-0.357421875,-0.94970703125,-0.6767578125,44.059411764705885,215.8581112513839
-0.1524443359375,-0.0805400390625,0.9456103515625,0.9611997245285548,0.0546875,-0.7900390625,-0.328125,44.34176470588236,215.8581112513839
-0.1373076171875,-0.0712626953125,0.9202197265625,0.9331324121665014,0.259765625,-0.79833984375,0.50732421875,43.54176470588236,215.8581112513839
-0.0933623046875,-0.0263408203125,0.9558642578125,0.9607740827659428,0.30810546875,-1.00537109375,1.0615234375,44.48294117647059,215.8471065556624
-0.0772490234375,-0.0087626953124999,0.9558642578125,0.9590206858116402,0.4326171875,-1.09619140625,1.1376953125,44.29470588235294,215.8471065556624
-0.0938505859375,-0.0263408203125,1.0833056640625005,1.087682367736759,0.52978515625,-0.97607421875,1.19091796875,44.15352941176471,215.8471065556624
-0.0953154296875,-0.0253642578125,0.9685595703125,0.9735687022264152,0.55908203125,-0.77880859375,1.31982421875,44.20058823529412,215.8471065556624
-0.0762724609375,-0.0195048828125,0.9988330078125,1.001930789150008,0.53857421875,-0.5810546875,1.2109375,44.20058823529412,215.42414592114343
-0.0445341796875,-0.0385478515625,1.0134814453125005,1.015191543509518,0.59326171875,-0.56005859375,0.95068359375,44.15352941176471,215.42414592114343
-0.0132841796875,-0.0478251953125,1.0085986328125005,1.0098192515732176,0.59130859375,-0.55322265625,0.55078125,44.29470588235294,215.42414592114343
-0.0020537109374999,-0.0683330078125,0.9949267578125,0.99727271651069,0.654296875,-0.59033203125,0.11474609375,44.48294117647059,215.42414592114343
-0.0001005859374999,-0.0986064453125,0.9729541015625,0.9779380987168818,0.6552734375,-0.63427734375,-0.30078125,44.29470588235294,215.42414592114343
-0.0245146484375,-0.0942119140625,0.9563525390625,0.961294456298706,0.6279296875,-0.61767578125,-0.7919921875,44.059411764705885,215.5823234390288
-0.0630888671875,-0.1122783203125,0.9280322265625,0.936926058936216,0.64013671875,-0.568359375,-1.21044921875,44.34176470588236,215.5823234390288
-0.0879912109375,-0.1186259765625,0.9124072265625,0.9242843299554137,0.61474609375,-0.4677734375,-1.5576171875,43.73,215.5823234390288
-0.0948271484375,-0.1327861328125,0.8967822265625001,0.911505736145682,0.58154296875,-0.41455078125,-1.9580078125,44.34176470588236,215.5823234390288
-0.0914091796875,-0.1337626953125,0.8909228515625001,0.9055338890536692,0.56494140625,-0.39208984375,-2.25732421875,44.48294117647059,215.19238720659067
-0.0796904296875,-0.1347392578125,0.9026416015625,0.9161152182181872,0.54248046875,-0.4072265625,-2.400390625,44.20058823529412,215.19238720659067
-0.0689482421875,-0.1357158203125,0.9065478515625,0.9192397136527696,0.50537109375,-0.4208984375,-2.44677734375,44.29470588235294,215.19238720659067
-0.0679716796875,-0.1313212890625,0.9216845703125,0.9334708765423346,0.42919921875,-0.4921875,-2.44921875,44.34176470588236,215.19238720659067
-0.0748076171875,-0.1205791015625,0.9343798828125,0.945093257159098,0.43359375,-0.49560546875,-2.47119140625,44.34176470588236,215.19238720659067
-0.0806669921875,-0.1220439453125,0.9402392578125,0.9515522845055964,0.384765625,-0.43408203125,-2.45849609375,44.15352941176471,215.0232117534652
-0.0689482421875,-0.1049541015625,0.9583056640625,0.9664983027971684,0.3583984375,-0.3486328125,-2.60888671875,44.15352941176471,215.0232117534652
-0.0557646484375,-0.1381572265625,0.9602587890625,0.9717479391480996,0.41796875,-0.13916015625,-2.9375,44.34176470588236,215.0232117534652
-0.1138701171875,-0.1401103515625,0.9558642578125,0.972766052844518,0.31982421875,-0.28515625,-2.716796875,44.20058823529412,215.0232117534652
-0.1548857421875,-0.1508525390625,0.9788134765625,1.002408052429221,0.37451171875,-0.33447265625,-2.33447265625,44.29470588235294,215.1077991432708
-0.1319365234375,-0.1542705078125,0.9832080078125,1.0039445315474984,0.21826171875,-0.30029296875,-2.30126953125,44.76529411764706,215.1077991432708
-0.1094755859375,-0.1596416015625,0.9885791015625,1.0073524630991473,0.2265625,-0.1767578125,-2.50830078125,44.34176470588236,215.1077991432708
-0.1163115234375,-0.1606181640625,0.9812548828125,1.0010932574713174,0.22265625,-0.24169921875,-2.6005859375,44.48294117647059,215.1077991432708
-0.1407255859375,-0.1601298828125,0.9758837890625,0.9988966110974548,0.17822265625,-0.3017578125,-2.53662109375,44.29470588235294,215.1077991432708
-0.1500029296875,-0.1464580078125,0.9695361328125,0.9919431131855582,0.13037109375,-0.345703125,-2.39599609375,44.059411764705885,215.04349574747397
-0.1426787109375,-0.1347392578125,0.9607470703125,0.9805849352629796,0.1953125,-0.30078125,-2.3232421875,44.20058823529412,215.04349574747397
-0.1412138671875,-0.1288798828125,0.9446337890625,0.963786478385326,0.2109375,-0.22119140625,-2.28369140625,44.48294117647059,215.04349574747397
-0.1495146484375,-0.1269267578125,0.9363330078125,0.9566527758102128,0.26806640625,-0.15380859375,-2.28515625,44.20058823529412,215.04349574747397
-0.1622099609375,-0.1249736328125,0.9334033203125,0.9556004597613474,0.2783203125,-0.0810546875,-2.2646484375,44.20058823529412,215.23468149081907
-0.1583037109375,-0.1230205078125,0.9260791015625,0.9475318530739936,0.314453125,-0.0048828125,-2.31103515625,44.48294117647059,215.23468149081907
-0.1602568359375,-0.1210673828125,0.9255908203125,0.9471314223974062,0.36572265625,0.03662109375,-2.33984375,44.388823529411766,215.23468149081907
-0.1602568359375,-0.1230205078125,0.9270556640625,0.948814261632648,0.38671875,0.09375,-2.35986328125,44.059411764705885,215.23468149081907
-0.1661162109375,-0.1264384765625,0.9197314453125,0.9431262987470438,0.44921875,0.1923828125,-2.3349609375,44.20058823529412,215.23468149081907
-0.1607451171875,-0.1259501953125,0.9280322265625,0.9502348435715412,0.48876953125,0.25732421875,-2.31884765625,44.34176470588236,215.26424679400665
-0.1475615234375,-0.1322978515625,0.9246142578125,0.9456154876467546,0.56787109375,0.30908203125,-2.29541015625,44.388823529411766,215.26424679400665
-0.1436552734375,-0.1401103515625,0.9265673828125,0.9480479223611938,0.64111328125,0.25,-2.2685546875,44.48294117647059,215.26424679400665
-0.1363310546875,-0.1435283203125,0.9470751953125,0.9675422268718528,0.6875,0.42041015625,-2.22021484375,44.48294117647059,215.26424679400665
-0.1153349609375,-0.1498759765625,0.9553759765625,0.9739138658822803,0.75439453125,0.4169921875,-2.16357421875,44.53,215.3302753603176
-0.1016630859375,-0.1586650390625,0.9602587890625,0.9785739213952204,0.7431640625,0.41796875,-2.1650390625,44.53,215.3302753603176
-0.1065458984375,-0.1821025390625,0.9607470703125,0.9836403287385664,0.76318359375,0.439453125,-2.10107421875,44.15352941176471,215.3302753603176
-0.1133818359375,-0.2084697265625,0.9636767578125,0.9924655969662696,0.70947265625,0.43115234375,-2.0048828125,44.48294117647059,215.3302753603176
-0.1197294921875,-0.2182353515625,0.9905322265625,1.021330461618544,0.65478515625,0.44873046875,-1.91357421875,44.48294117647059,215.3302753603176
-0.1348662109375,-0.2372783203125,1.0203173828125005,1.056190067086559,0.58642578125,0.4775390625,-1.8828125,44.388823529411766,215.6390706106516
-0.1548857421875,-0.2460673828125,1.0530322265625005,1.0924356366378494,0.5361328125,0.4921875,-1.95361328125,44.48294117647059,215.6390706106516
-0.1851591796875,-0.2387431640625,1.0706103515625005,1.112424714343358,0.44580078125,0.4716796875,-2.0224609375,44.15352941176471,215.6390706106516
-0.2320341796875,-0.2270244140625,1.0833056640625005,1.1308983627689837,0.3779296875,0.40478515625,-1.91015625,44.29470588235294,215.6390706106516
-0.2901396484375,-0.1996806640625,1.0960009765625005,1.1512043796919085,0.4208984375,0.51953125,-1.6865234375,44.29470588235294,215.1500930907445
-0.3267607421875,-0.1821025390625,1.0935595703125005,1.155770933701828,0.46826171875,0.72607421875,-1.38671875,44.29470588235294,215.1500930907445
-0.3414091796875,-0.1640361328125,1.1086962890625005,1.1716123685860995,0.52392578125,1.04296875,-1.1259765625,44.29470588235294,215.1500930907445
-0.3453154296875,-0.1620830078125,1.1262744140625005,1.189120558721292,0.5908203125,1.31591796875,-0.93603515625,44.29470588235294,215.1500930907445
-0.3536162109375,-0.1503642578125,1.1707080078125005,1.23215708179664,0.60302734375,1.6455078125,-0.76318359375,44.29470588235294,215.1500930907445
-0.3306669921875,-0.1445048828125,1.2527392578125005,1.3036786294726153,0.578125,1.978515625,-0.611328125,44.388823529411766,214.79728889506745
-0.2466826171875,-0.1415751953125,1.3274462890625005,1.3575748597760826,0.53369140625,1.8330078125,-0.662109375,44.29470588235294,214.79728889506745
-0.1763701171875,-0.1357158203125,1.3337939453125005,1.3522320402475725,0.43994140625,1.28955078125,-0.8740234375,44.29470588235294,214.79728889506745
-0.1783232421875,-0.1254619140625,1.2976611328125005,1.3158511641506836,0.34326171875,0.98486328125,-0.77099609375,44.059411764705885,214.79728889506745
-0.1661162109375,-0.1103251953125,1.3079150390625005,1.3230298536551754,0.34814453125,1.0498046875,-0.3330078125,44.34176470588236,214.6095622626921
-0.0933623046875,-0.1005595703125,1.3215869140625005,1.3286913556350244,0.365234375,1.20458984375,0.1015625,44.34176470588236,214.6095622626921
-0.0582060546875,-0.1156962890625,1.2898486328125005,1.296334475231371,0.37841796875,1.34765625,0.4208984375,44.34176470588236,214.6095622626921
-0.0220732421875,-0.1381572265625,1.2795947265625005,1.287220770310466,0.3212890625,1.60595703125,0.57763671875,44.15352941176471,214.6095622626921
0.0892548828125,-0.1479228515625,1.2327197265625005,1.244767258718103,0.24853515625,1.5146484375,0.5498046875,44.71823529411765,214.6095622626921
0.1605439453125,-0.1137431640625,1.1311572265625005,1.1481413401458982,0.15185546875,1.20068359375,0.3203125,44.29470588235294,215.1043492076437
0.1039033203125,-0.0610087890625,1.0393603515625005,1.0463211326906088,0.10791015625,1.12548828125,0.32373046875,44.29470588235294,215.1043492076437
0.0550751953125,-0.0151103515624999,0.9900439453125,0.9916897768521128,0.04345703125,1.03271484375,0.5322265625,44.34176470588236,215.1043492076437
0.0306611328125,0.0151630859375,0.9397509765625,0.9403732887479664,0.0302734375,0.904296875,0.67822265625,44.059411764705885,215.1043492076437
0.0277314453125,0.0176044921875,0.8772509765625001,0.8778657226957662,0.0380859375,0.80859375,0.6494140625,44.20058823529412,216.19649183964452
0.0296845703125,0.0063740234375,0.8401416015625001,0.8406900216877933,0.01171875,0.80224609375,0.484375,44.15352941176471,216.19649183964452
0.0287080078125,0.0073505859375,0.8293994140625001,0.8299286528813218,-0.07470703125,0.84765625,0.2060546875,44.34176470588236,216.19649183964452
0.0169892578125,-0.0029033203124999,0.8489306640625001,0.849105609765625,-0.10205078125,0.89453125,-0.0126953125,44.34176470588236,216.19649183964452
-0.0010771484374999,-0.0219462890625,0.8787158203125001,0.8789904963762926,-0.12255859375,0.99072265625,0.0029296875,44.388823529411766,216.19649183964452
-0.0132841796875,-0.0405009765625,0.8948291015625001,0.8958436914638831,-0.19384765625,0.9814453125,0.08740234375,44.48294117647059,216.0458679170105
-0.0210966796875,-0.0531962890625,0.9324267578125,0.934181231747132,-0.2568359375,0.92236328125,-0.03759765625,44.29470588235294,216.0458679170105
-0.0181669921875,-0.0771220703125,0.9710009765625,0.9742282842433572,-0.2939453125,0.82275390625,-0.34765625,44.48294117647059,216.0458679170105
-0.0440458984375,-0.1034892578125,0.9998095703125,1.006115920031193,-0.279296875,0.66455078125,-0.56787109375,44.48294117647059,216.0458679170105
-0.0464873046875,-0.1200908203125,1.0266650390625005,1.0347096100131876,-0.2392578125,0.537109375,-0.6357421875,44.48294117647059,216.02730019822
-0.0298857421875,-0.1259501953125,1.0681689453125005,1.0759839706126546,-0.18359375,0.4296875,-0.888671875,44.34176470588236,216.02730019822
-0.0220732421875,-0.1376689453125,1.0759814453125005,1.0849774362542757,-0.150390625,0.34716796875,-1.1728515625,44.20058823529412,216.02730019822
-0.0293974609375,-0.1454814453125,1.0652392578125005,1.0755295151806443,-0.17822265625,0.23486328125,-1.23974609375,44.20058823529412,216.02730019822
-0.0372099609375,-0.1269267578125,1.0442431640625005,1.0525867036653205,-0.23291015625,0.10009765625,-1.22265625,44.20058823529412,216.02730019822
-0.0679716796875,-0.1064189453125,1.0095751953125005,1.0174415050268188,-0.31494140625,0.07763671875,-1.0546875,44.15352941176471,215.93170070338644
-0.0982451171875,-0.0878642578125,0.9851611328125,0.993938976223659,-0.39990234375,0.10595703125,-0.87109375,44.29470588235294,215.93170070338644
-0.1070341796875,-0.0776103515625,0.9568408203125,0.9659316941209296,-0.42626953125,0.17919921875,-0.42041015625,44.53,215.93170070338644
-0.1319365234375,-0.0712626953125,0.9304736328125,0.9424790710245332,-0.3388671875,0.30078125,-0.0615234375,43.73,215.93170070338644
-0.1417021484375,-0.0571025390625,0.9050830078125,0.917886403576232,-0.26171875,0.4521484375,0.255859375,44.29470588235294,215.42242238305172
-0.1509794921875,-0.0483134765625,0.8718798828125001,0.8861735321774677,-0.18505859375,0.56005859375,0.64208984375,44.29470588235294,215.42242238305172
-0.1543974609375,-0.0527080078125,0.8552783203125001,0.8706995550866446,-0.1640625,0.6416015625,0.9853515625,44.34176470588236,215.42242238305172
-0.1495146484375,-0.0531962890625,0.8435595703125001,0.8583572822159896,-0.1162109375,0.68505859375,1.220703125,44.29470588235294,215.42242238305172
-0.1470732421875,-0.0453837890625,0.8352587890625001,0.8493217715232352,-0.10546875,0.68115234375,1.31494140625,44.20058823529412,215.42242238305172
-0.1324248046875,-0.0390361328125,0.8367236328125001,0.8480369014780106,-0.1220703125,0.70361328125,1.23681640625,44.059411764705885,215.94098407635715
-0.1148466796875,-0.0326884765625,0.8562548828125001,0.864540757093307,-0.11279296875,0.76953125,1.12646484375,44.15352941176471,215.94098407635715
-0.0962919921875,-0.0253642578125,0.8709033203125001,0.8765774846898325,-0.044921875,0.78466796875,1.04052734375,44.34176470588236,215.94098407635715
-0.1050810546875,-0.0414775390625,0.8923876953125001,0.8995099849618536,0.08642578125,0.5703125,1.0869140625,44.48294117647059,215.94098407635715
-0.1182646484375,-0.0829814453125,0.8933642578125001,0.9049707975802732,0.1796875,0.48779296875,1.44189453125,44.53,215.38185078386184
-0.1065458984375,-0.0741923828125,0.9207080078125,0.9298170646913904,0.06787109375,0.4658203125,1.390625,44.48294117647059,215.38185078386184
-0.1075224609375,-0.0629619140625,0.9504931640625,0.9586253372188804,0.158203125,0.3603515625,1.13134765625,44.20058823529412,215.38185078386184
-0.1226591796875,-0.0614970703125,0.9285205078125,0.9386040152519132,0.123046875,0.22900390625,1.12109375,44.29470588235294,215.38185078386184
-0.1006865234375,-0.0361064453125,0.9695361328125,0.9754187635185476,-0.0390625,0.07666015625,0.95263671875,44.29470588235294,215.38185078386184
-0.1500029296875,-0.0614970703125,0.9475634765625,0.9613320501715654,0.00634765625,-0.12841796875,1.0205078125,44.71823529411765,215.40213646027163
-0.1670927734375,-0.0566142578125,0.9460986328125,0.9624072901492268,-0.05615234375,-0.32568359375,1.03369140625,44.20058823529412,215.40213646027163
-0.1749052734375,-0.0551494140625,0.9519580078125,0.9694624083408432,0.0224609375,-0.2529296875,0.947265625,44.34176470588236,215.40213646027163
-0.1812529296875,-0.0517314453125,0.9475634765625,0.9661290333437008,0.0439453125,-0.2138671875,0.95068359375,44.48294117647059,215.40213646027163
-0.1851591796875,-0.0580791015625,0.9529345703125,0.9724923645754368,0.09765625,-0.21337890625,1.01806640625,44.29470588235294,215.3192705644276
-0.1802763671875,-0.0595439453125,0.9587939453125,0.9774102923325544,0.0537109375,-0.2431640625,1.05029296875,44.29470588235294,215.3192705644276
-0.1866240234375,-0.0556376953125,0.9739306640625,0.9932094530686412,0.04443359375,-0.3173828125,0.990234375,44.20058823529412,215.3192705644276
-0.2085966796875,-0.0595439453125,0.9675830078125,0.9916022051243696,-0.0009765625,-0.35205078125,1.03271484375,43.58882352941177,215.3192705644276
-0.2227568359375,-0.0492900390625,0.9670947265625,0.9936409442311976,-0.03173828125,-0.32373046875,1.03857421875,44.76529411764706,215.3192705644276
-0.2208037109375,-0.0473369140625,0.9734423828125,0.9992923170186035,-0.091796875,-0.24462890625,0.998046875,44.34176470588236,215.38185078386184
-0.2027373046875,-0.0463603515625,0.9934619140625,1.0149966855126558,-0.1279296875,-0.29150390625,0.98095703125,44.48294117647059,215.38185078386184
-0.1817412109375,-0.0492900390625,0.9910205078125,1.0087522107082378,-0.17529296875,-0.37939453125,0.98583984375,44.71823529411765,215.38185078386184
-0.1524443359375,-0.0488017578125,0.9954150390625,1.0082023542507792,-0.18603515625,-0.4326171875,0.943359375,44.48294117647059,215.38185078386184
-0.1368193359375,-0.0468486328125,1.0002978515625005,1.010697836607625,-0.20166015625,-0.3896484375,0.81494140625,44.388823529411766,215.26769595364877
-0.1534208984375,-0.0492900390625,0.9949267578125,1.0078922231267813,-0.20458984375,-0.29541015625,0.720703125,44.388823529411766,215.26769595364877
-0.1841826171875,-0.0463603515625,0.9827197265625,1.0009048804187692,-0.22119140625,-0.20751953125,0.67724609375,44.29470588235294,215.26769595364877
-0.1978544921875,-0.0536845703125,0.9846728515625,1.0057877796894514,-0.2978515625,-0.080078125,0.6845703125,44.20058823529412,215.26769595364877
-0.1915068359375,-0.0654033203125,0.9890673828125,1.009557700313489,-0.373046875,0.04736328125,0.66357421875,44.15352941176471,215.26769595364877
-0.1773466796875,-0.0722392578125,1.0037158203125005,1.0218198486578136,-0.45068359375,0.08349609375,0.65234375,44.15352941176471,215.4131411837371
-0.1978544921875,-0.0795634765625,1.0120166015625005,1.0342409529309875,-0.51611328125,0.09814453125,0.6005859375,44.20058823529412,215.4131411837371
-0.2159208984375,-0.0893291015625,1.0320361328125005,1.0581588265466584,-0.5380859375,0.14013671875,0.5712890625,44.20058823529412,215.4131411837371
-0.2378935546875,-0.0932353515625,1.0403369140625005,1.0712549037945749,-0.5361328125,0.12646484375,0.623046875,44.48294117647059,215.4131411837371
-0.2837919921875,-0.1030009765625,1.0686572265625005,1.110484292498923,-0.56787109375,0.51416015625,0.75537109375,44.059411764705885,215.21267191860736
-0.3028349609375,-0.1103251953125,1.1023486328125005,1.1485004007619444,-0.544921875,0.74365234375,0.8662109375,44.34176470588236,215.21267191860736
-0.3086943359375,-0.1220439453125,1.1150439453125005,1.163404451429253,-0.61474609375,0.96240234375,0.99853515625,44.29470588235294,215.21267191860736
-0.2730498046875,-0.1293681640625,1.1184619140625005,1.1585548631468152,-0.638671875,1.07666015625,1.09765625,44.34176470588236,215.21267191860736
-0.2403349609375,-0.1366923828125,1.1345751953125005,1.1677784784736305,-0.69140625,1.14501953125,0.89404296875,44.20058823529412,215.21267191860736
-0.2100615234375,-0.1440166015625,1.1531298828125005,1.1809213148172344,-0.72998046875,1.04150390625,0.560546875,44.20058823529412,215.09679433351369
-0.1661162109375,-0.1283916015625,1.1003955078125005,1.1202451841012064,-0.7294921875,0.7744140625,0.30419921875,44.20058823529412,215.09679433351369
-0.1724638671875,-0.1015361328125,1.0950244140625005,1.1131629885801573,-0.77978515625,0.80810546875,0.06982421875,44.29470588235294,215.09679433351369
-0.2032255859375,-0.0771220703125,1.1477587890625005,1.1681603872667243,-0.77978515625,0.98193359375,-0.10595703125,44.059411764705885,215.09679433351369
-0.2139677734375,-0.0688212890625,1.1946337890625005,1.2155938745600243,-0.74072265625,1.04736328125,-0.09423828125,44.76529411764706,214.93862503715417
-0.2144560546875,-0.0414775390625,1.2312548828125005,1.250480056653617,-0.658203125,1.11767578125,-0.01318359375,44.48294117647059,214.93862503715417
-0.1788115234375,-0.0126689453124999,1.2444384765625005,1.2572832556900482,-0.49755859375,1.0634765625,-0.08544921875,44.29470588235294,214.93862503715417
-0.1294951171875,-0.0234111328125,1.2205126953125005,1.2275863741236106,-0.36669921875,0.90966796875,-0.27197265625,44.059411764705885,214.93862503715417
-0.0953154296875,-0.0409892578125,1.1741259765625005,1.1787013867945424,-0.26025390625,0.82177734375,-0.52880859375,44.29470588235294,214.93862503715417
-0.0748076171875,-0.0658916015625,1.1506884765625005,1.154998637592041,-0.271484375,0.79052734375,-0.841796875,44.15352941176471,215.0840644745583
-0.0528349609375,-0.0912822265625,1.1204150390625005,1.1253683120387292,-0.3173828125,0.78662109375,-1.064453125,44.29470588235294,215.0840644745583
-0.0464873046875,-0.1073955078125,1.0740283203125005,1.0803849764915765,-0.35546875,0.7216796875,-1.19970703125,44.20058823529412,215.0840644745583
-0.0420927734375,-0.1142314453125,1.0266650390625005,1.0338576919030242,-0.46630859375,0.63671875,-1.26416015625,44.71823529411765,215.0840644745583
-0.0298857421875,-0.1166728515625,0.9753955078125,0.9828031891170418,-0.46484375,0.5361328125,-1.26708984375,43.777058823529416,215.5933281541809
-0.0137724609375,-0.1220439453125,0.9226611328125,0.9307996407769834,-0.3720703125,0.4111328125,-1.19482421875,44.71823529411765,215.5933281541809
-0.0152373046875,-0.1254619140625,0.8694384765625001,0.8785761958200818,-0.2841796875,0.36181640625,-1.18115234375,44.62411764705882,215.5933281541809
-0.0333037109375,-0.1435283203125,0.8293994140625001,0.8423852467494636,-0.14404296875,0.3173828125,-0.94921875,44.20058823529412,215.5933281541809
-0.0352568359375,-0.1518291015625,0.8259814453125001,0.840559616304594,-0.13623046875,0.45068359375,-0.701171875,44.059411764705885,215.5933281541809
-0.0220732421875,-0.1674541015625,0.8381884765625001,0.8550368567453317,-0.025390625,0.54248046875,-0.4599609375,44.15352941176471,215.90040823547892
-0.0015654296874999,-0.1694072265625,0.8586962890625001,0.8752488650843333,0.02587890625,0.43505859375,-0.2236328125,44.76529411764706,215.90040823547892
0.0355439453125,-0.1362041015625,0.8718798828125001,0.8831701191638929,0.0986328125,0.30322265625,-0.193359375,44.29470588235294,215.90040823547892
0.0677705078125,-0.0878642578125,0.9065478515625,0.9133137339943436,0.16748046875,0.150390625,-0.55712890625,43.58882352941177,215.90040823547892
0.0384736328125,-0.0624736328125,0.9465869140625,0.9494261219773495,0.2392578125,0.01953125,-0.9990234375,44.62411764705882,215.4757225638432
-0.0118193359375,-0.0536845703125,0.9793017578125,0.98084334256103,0.31689453125,-0.04248046875,-1.42626953125,44.15352941176471,215.4757225638432
-0.0352568359375,-0.0292705078125,1.0154345703125005,1.0164679895076172,0.41064453125,-0.22314453125,-1.64794921875,44.53,215.4757225638432
-0.0523466796875,-0.0380595703125,1.0442431640625005,1.046246859712343,0.4990234375,-0.34375,-1.5791015625,44.15352941176471,215.4757225638432
-0.0596708984375,-0.0268291015625,1.0808642578125005,1.0828425373190491,0.5693359375,-0.365234375,-1.6171875,44.29470588235294,215.4757225638432
-0.0684599609375,-0.0326884765625,1.0979541015625005,1.1005719021897018,0.69873046875,-0.3447265625,-1.72705078125,44.20058823529412,215.44443177706748
-0.0635771484375,-0.0365947265625,1.0960009765625005,1.098453170800459,0.8701171875,-0.4091796875,-1.81982421875,44.29470588235294,215.44443177706748
-0.0699248046875,-0.0536845703125,1.0754931640625005,1.079100114607255,0.9951171875,-0.43115234375,-2.06103515625,44.29470588235294,215.44443177706748
-0.0728544921875,-0.0824931640625,1.0466845703125005,1.052454981877707,1.07666015625,-0.42822265625,-2.3427734375,44.29470588235294,215.44443177706748
-0.0933623046875,-0.1127666015625,1.0203173828125005,1.030766893159587,1.005859375,-0.396484375,-2.7197265625,44.29470588235294,214.97746723175632
-0.1055693359375,-0.1264384765625,0.9793017578125,0.9930576548722552,0.9375,-0.28173828125,-3.20166015625,44.29470588235294,214.97746723175632
-0.1211943359375,-0.1357158203125,0.9543994140625,0.9715889524429916,0.908203125,-0.1533203125,-3.634765625,44.20058823529412,214.97746723175632
-0.1192412109375,-0.1445048828125,0.9270556640625,0.9457971938068216,0.869140625,-0.009765625,-3.91748046875,44.388823529411766,214.97746723175632
-0.1001982421875,-0.1454814453125,0.8933642578125001,0.9106614276472668,0.81787109375,0.0498046875,-4.11474609375,44.388823529411766,214.97746723175632
-0.0757841796875,-0.1547587890625,0.8782275390625001,0.894973259405427,0.80419921875,0.06640625,-4.26611328125,44.20058823529412,215.27352753283532
-0.0606474609375,-0.1547587890625,0.8572314453125001,0.8731976569728155,0.7783203125,0.0830078125,-4.4599609375,44.34176470588236,215.27352753283532
-0.0718779296875,-0.1611064453125,0.8586962890625001,0.8766305038880973,0.6923828125,0.05712890625,-4.6689453125,43.58882352941177,215.27352753283532
-0.0777373046875,-0.1635478515625,0.8709033203125001,0.8895299779221181,0.66748046875,-0.00830078125,-4.77294921875,44.29470588235294,215.27352753283532
-0.0772490234375,-0.1581767578125,0.8762744140625001,0.8937808160140267,0.6455078125,-0.11376953125,-4.8486328125,44.71823529411765,215.57131873780764
-0.0782255859375,-0.1518291015625,0.8958056640625001,0.911942490589729,0.6435546875,-0.07373046875,-4.861328125,44.34176470588236,215.57131873780764
-0.0626005859375,-0.1493876953125,0.9099658203125,0.9242690685117076,0.65185546875,-0.14111328125,-4.88623046875,44.059411764705885,215.57131873780764
-0.0709013671875,-0.1611064453125,0.9294970703125,0.9460164344818788,0.66015625,-0.2158203125,-4.92529296875,44.29470588235294,215.57131873780764
-0.0635771484375,-0.1557353515625,0.9431689453125,0.9580517798802072,0.60009765625,-0.22314453125,-5.21337890625,44.76529411764706,215.57131873780764
-0.0777373046875,-0.1723369140625,0.9431689453125,0.9619307458910732,0.63037109375,-0.2919921875,-5.24658203125,44.34176470588236,215.09506920908692
-0.0748076171875,-0.1835673828125,0.9573291015625,0.9776360121846812,0.63330078125,-0.357421875,-5.21533203125,44.71823529411765,215.09506920908692
-0.0782255859375,-0.1860087890625,0.9817431640625,1.002266507515447,0.6328125,-0.35498046875,-5.298828125,44.34176470588236,215.09506920908692
-0.0889677734375,-0.1918681640625,0.9876025390625,1.0099937783243211,0.6474609375,-0.31494140625,-5.47412109375,44.29470588235294,215.09506920908692
-0.1065458984375,-0.1996806640625,0.9949267578125,1.0203448679175038,0.673828125,-0.29345703125,-5.55810546875,44.20058823529412,215.27352753283532
-0.1143583984375,-0.1972392578125,0.9915087890625,1.017384316226568,0.68310546875,-0.26416015625,-5.6376953125,44.15352941176471,215.27352753283532
-0.1177763671875,-0.2050517578125,0.9900439453125,1.01789218962512,0.7099609375,-0.37451171875,-5.65087890625,44.20058823529412,215.27352753283532
-0.1124052734375,-0.2133525390625,0.9880908203125,1.0170927787605235,0.72412109375,-0.27294921875,-5.60595703125,44.15352941176471,215.27352753283532
-0.1075224609375,-0.2197001953125,0.9851611328125,1.0150722698561,0.73291015625,-0.2607421875,-5.51220703125,44.29470588235294,215.27352753283532
-0.0982451171875,-0.2236064453125,0.9724658203125,1.0026673013081364,0.76708984375,-0.2197265625,-5.515625,44.15352941176471,215.40213646027163
-0.0997099609375,-0.2372783203125,0.9670947265625,1.0007573570778665,0.7705078125,-0.13525390625,-5.56787109375,44.059411764705885,215.40213646027163
-0.1016630859375,-0.2494853515625,0.9597705078125,0.9968639582978532,0.76171875,-0.07421875,-5.58447265625,44.20058823529412,215.40213646027163
-0.0928740234375,-0.2597392578125,0.9548876953125,0.9939318774129722,0.78955078125,-0.0556640625,-5.53369140625,44.388823529411766,215.40213646027163
-0.0835966796875,-0.2695048828125,0.9485400390625,0.9896208831766048,0.7861328125,-0.06005859375,-5.474609375,44.15352941176471,215.26424679400665
-0.0850615234375,-0.2836650390625,0.9602587890625,1.0048871872641312,0.8173828125,0.0078125,-5.3203125,44.29470588235294,215.26424679400665
-0.0684599609375,-0.2851298828125,0.9695361328125,1.012909733961152,0.79638671875,0.03173828125,-5.21923828125,43.54176470588236,215.26424679400665
-0.0669951171875,-0.2861064453125,0.9802783203125,1.0233722827256062,0.81982421875,-0.02099609375,-5.1318359375,44.34176470588236,215.26424679400665
-0.0621123046875,-0.2919658203125,0.9802783203125,1.0247182851394037,0.83837890625,-0.06103515625,-5.02685546875,44.29470588235294,215.26424679400665
-0.0801787109375,-0.3046611328125,0.9758837890625,1.0254736472914243,0.8349609375,-0.1240234375,-4.77197265625,44.48294117647059,215.40213646027163
-0.0699248046875,-0.3095439453125,0.9841845703125,1.0340822988676548,0.81982421875,0.01025390625,-4.54443359375,44.34176470588236,215.40213646027163
-0.0582060546875,-0.3193095703125,0.9880908203125,1.040033660840488,0.78662109375,-0.087890625,-4.466796875,44.20058823529412,215.40213646027163
-0.0645537109375,-0.3373759765625,0.9710009765625,1.0299672944529024,0.72021484375,-0.17724609375,-4.17919921875,44.15352941176471,215.40213646027163
-0.0801787109375,-0.3583720703125,0.9768603515625,1.0436068766170898,0.57861328125,-0.18359375,-3.86474609375,44.48294117647059,215.56203707797764
-0.0782255859375,-0.3676494140625,0.9885791015625,1.0576265758772727,0.40185546875,-0.26611328125,-3.296875,44.48294117647059,215.56203707797764
-0.2222685546875,-0.3490947265625,1.0300830078125005,1.110108752105245,0.15673828125,0.4423828125,-2.96044921875,44.48294117647059,215.56203707797764
-0.0586943359375,-0.3173564453125,1.0330126953125005,1.0822547607330386,0.5517578125,0.1455078125,-2.978515625,44.059411764705885,215.56203707797764
-0.0958037109375,-0.3188212890625,1.0100634765625005,1.0635100338381367,0.5361328125,0.23193359375,-3.24853515625,44.059411764705885,215.56203707797764
-0.1158232421875,-0.3285869140625,1.0344775390625005,1.0915714188035284,0.4951171875,0.4052734375,-3.06103515625,44.20058823529412,215.11535390874675
-0.0982451171875,-0.3383525390625,1.0745166015625005,1.1308052311404695,0.4873046875,0.48779296875,-2.7529296875,44.29470588235294,215.11535390874675
-0.0440458984375,-0.3251689453125,1.1033251953125005,1.151087038749102,0.43017578125,0.3427734375,-2.62109375,44.76529411764706,215.11535390874675
-0.0254912109375,-0.3066142578125,1.1013720703125005,1.1435394799452328,0.38134765625,0.1611328125,-2.54052734375,44.29470588235294,215.11535390874675
-0.0523466796875,-0.2944072265625,1.0872119140625005,1.1275839374547574,0.24267578125,0.1025390625,-2.2080078125,44.48294117647059,215.15764823190528
-0.0806669921875,-0.2724345703125,1.1101611328125005,1.1459430612109265,0.1513671875,0.09521484375,-1.63818359375,44.57705882352941,215.15764823190528
-0.0738310546875,-0.2538798828125,1.1331103515625005,1.1635484899011517,0.13330078125,0.0546875,-1.0458984375,44.29470588235294,215.15764823190528
-0.0704130859375,-0.2343486328125,1.1267626953125005,1.1530270837756675,0.1171875,-0.0517578125,-0.552734375,44.34176470588236,215.15764823190528
-0.0655302734375,-0.2328837890625,1.1277392578125005,1.1533971170227493,0.146484375,-0.10888671875,-0.2509765625,44.76529411764706,215.15764823190528
-0.0689482421875,-0.2397197265625,1.1140673828125005,1.141650358406916,0.1669921875,-0.123046875,-0.0546875,44.29470588235294,215.1889380334701
-0.0904326171875,-0.2441142578125,1.1101611328125005,1.1402752167464936,0.158203125,-0.0234375,0.078125,44.48294117647059,215.1889380334701
-0.0997099609375,-0.2406962890625,1.1062548828125005,1.136519531563411,0.140625,0.18701171875,0.1123046875,44.34176470588236,215.1889380334701
-0.1109404296875,-0.2406962890625,1.1057666015625005,1.1370849834725578,0.12451171875,0.41943359375,0.05810546875,43.58882352941177,215.1889380334701
-0.1070341796875,-0.2431376953125,1.0974658203125005,1.1291605205892736,0.1337890625,0.70947265625,-0.05126953125,44.15352941176471,215.27352753283532
-0.1001982421875,-0.2270244140625,1.0867236328125005,1.1146963830707823,0.01025390625,0.94140625,-0.140625,44.48294117647059,215.27352753283532
-0.0738310546875,-0.1977275390625,1.0798876953125005,1.100320243759663,-0.125,1.15673828125,-0.17431640625,44.76529411764706,215.27352753283532
-0.0328154296875,-0.2797587890625,1.0901416015625005,1.1259442898920642,-0.2373046875,1.28125,-0.0625,44.48294117647059,215.27352753283532
-0.0162138671875,-0.1264384765625,1.0930712890625005,1.100479177820905,-0.35107421875,1.1904296875,0.048828125,44.76529411764706,215.27352753283532
-0.0108427734375,-0.0976298828125,1.1013720703125005,1.1057439111377656,-0.44873046875,1.06640625,0.14404296875,44.48294117647059,215.32682720838653
0.0003876953125,-0.0688212890625,1.0950244140625005,1.0971850288482805,-0.46875,0.88671875,0.2216796875,44.34176470588236,215.32682720838653
0.0130830078125,-0.0414775390625,1.0813525390625005,1.082226808518907,-0.49951171875,0.7294921875,0.34375,44.29470588235294,215.32682720838653
0.0204072265625,-0.0234111328125,1.0584033203125005,1.058858878455511,-0.482421875,0.69921875,0.49169921875,44.29470588235294,215.32682720838653
0.0331025390625,-0.0224345703125,1.0364306640625005,1.0372018171245778,-0.45654296875,0.7158203125,0.66650390625,44.059411764705885,215.74222603585352
0.0306611328125,-0.0155986328124999,1.0032275390625005,1.00381717336593,-0.47265625,0.74462890625,0.767578125,44.15352941176471,215.74222603585352
0.0238251953125,2.6367187500001e-05,0.9832080078125,0.9834966330666988,-0.4736328125,0.7978515625,0.8134765625,44.059411764705885,215.74222603585352
0.0130830078125,-0.0014384765624999,0.9817431640625,0.9818313880151172,-0.41064453125,0.8291015625,0.88671875,44.48294117647059,215.74222603585352
0.0052705078125,0.0034443359375,0.9724658203125,0.9724862021533855,-0.36767578125,0.859375,1.08447265625,44.29470588235294,215.74222603585352
0.0023408203125,0.0058857421875,0.9793017578125,0.9793222422959084,-0.318359375,0.84521484375,1.18017578125,44.20058823529412,215.4537132088264
0.0125947265625,0.0005146484375,0.9773486328125,0.977429916700252,-0.248046875,0.70166015625,1.26953125,44.76529411764706,215.4537132088264
0.0174775390625,-0.0097392578124999,0.9963916015625,0.9965924649417652,-0.2119140625,0.5654296875,1.29150390625,44.059411764705885,215.4537132088264
0.0096650390625,-0.0121806640624999,0.9939501953125,0.9940718144675664,-0.1474609375,0.42236328125,1.31884765625,44.48294117647059,215.4537132088264
-0.0118193359375,-0.0038798828124999,0.9812548828125,0.981333732853414,-0.10498046875,0.36083984375,1.3427734375,44.71823529411765,215.63217939949925
-0.0362333984375,-0.0019267578124999,0.9778369140625,0.9785098885863504,-0.02490234375,0.38427734375,1.3466796875,43.58882352941177,215.63217939949925
-0.0523466796875,-0.0004619140624999,0.9802783203125,0.9816750855112923,0.06591796875,0.43310546875,1.2236328125,44.29470588235294,215.63217939949925
-0.0611357421875,-0.0102275390624999,0.9573291015625,0.9593337220313664,0.08984375,0.52001953125,1.10888671875,44.48294117647059,215.63217939949925
-0.0787138671875,-0.0346416015625,0.9514697265625,0.9553483940486556,0.10986328125,0.587890625,1.095703125,44.53,215.63217939949925
-0.0782255859375,-0.0473369140625,0.9426806640625,0.947104461041939,0.10888671875,0.59814453125,1.1591796875,44.34176470588236,215.26424679400665
-0.0689482421875,-0.0561259765625,0.9377978515625,0.9420025455066888,0.078125,0.5927734375,1.17919921875,44.059411764705885,215.26424679400665
-0.0572294921875,-0.0712626953125,0.9270556640625,0.9315502084104776,0.07763671875,0.5205078125,1.21630859375,44.34176470588236,215.26424679400665
-0.0459990234375,-0.0859111328125,0.9265673828125,0.9316779206304808,0.0712890625,0.45654296875,1.349609375,44.15352941176471,215.26424679400665
-0.0333037109375,-0.0854228515625,0.9207080078125,0.9252618204494012,0.0830078125,0.35009765625,1.361328125,44.29470588235294,215.4629949677476
-0.0469755859375,-0.0844462890625,0.9119189453125,0.9170245603202029,0.14990234375,0.2548828125,1.32421875,44.34176470588236,215.4629949677476
-0.0669951171875,-0.0795634765625,0.8933642578125001,0.8993989046394028,0.18603515625,-0.03173828125,1.28759765625,44.20058823529412,215.4629949677476
-0.0879912109375,-0.0873759765625,0.8943408203125001,0.9028967368197394,0.2529296875,-0.24609375,1.54931640625,44.57705882352941,215.4629949677476
-0.0918974609375,-0.0785869140625,0.9011767578125,0.9092527675020162,0.26611328125,-0.37939453125,1.8447265625,44.53,215.4629949677476
-0.0845732421875,-0.0658916015625,0.9011767578125,0.9075317544152524,0.25439453125,-0.5146484375,1.9970703125,44.20058823529412,215.7294990446404
-0.0948271484375,-0.0610087890625,0.9070361328125,0.9140179465694946,0.27001953125,-0.7119140625,2.09423828125,44.15352941176471,215.7294990446404
-0.1158232421875,-0.0727275390625,0.9275439453125,0.9375724445901712,0.322265625,-0.74853515625,2.35888671875,44.34176470588236,215.7294990446404
-0.1128935546875,-0.0756572265625,0.9338916015625,0.9437279767444008,0.37109375,-0.80712890625,2.6025390625,44.20058823529412,215.7294990446404
-0.1207060546875,-0.0746806640625,0.9563525390625,0.966828491612824,0.3671875,-0.54052734375,2.7236328125,44.29470588235294,215.19066240212464
-0.1153349609375,-0.0678447265625,0.9568408203125,0.9661518594678028,0.42724609375,-0.40185546875,2.77294921875,44.29470588235294,215.19066240212464
-0.1241240234375,-0.0800517578125,0.9661181640625,0.9773430124857292,0.4599609375,-0.27783203125,2.90283203125,44.059411764705885,215.19066240212464
-0.1109404296875,-0.0658916015625,0.9451220703125,0.9538895166042578,0.46533203125,-0.376953125,2.80517578125,44.62411764705882,215.19066240212464
-0.1094755859375,-0.0468486328125,0.9460986328125,0.9535629613834848,0.44970703125,-0.79296875,2.58056640625,44.34176470588236,215.19066240212464
-0.1387724609375,-0.0590556640625,0.9734423828125,0.9850560593327624,0.48583984375,-0.82861328125,2.634765625,44.29470588235294,214.830303115162
-0.1504912109375,-0.0678447265625,0.9812548828125,0.9950435450447124,0.52587890625,-0.83056640625,2.787109375,44.20058823529412,214.830303115162
-0.1456083984375,-0.0614970703125,0.9734423828125,0.986191547321428,0.5712890625,-0.8544921875,2.8154296875,44.20058823529412,214.830303115162
-0.1475615234375,-0.0717509765625,0.9641650390625,0.9780270080050248,0.55908203125,-0.77880859375,2.73486328125,43.58882352941177,214.830303115162
-0.1475615234375,-0.0986064453125,0.9807666015625,0.9966949187172666,0.5341796875,-0.3232421875,2.7822265625,44.20058823529412,214.91488956146125
-0.1431669921875,-0.1288798828125,0.9480517578125,0.9674238715977348,0.470703125,-0.068359375,2.90625,44.059411764705885,214.91488956146125
-0.1343779296875,-0.1332744140625,0.9119189453125,0.9313515234596784,0.3349609375,-0.08642578125,2.96923828125,44.29470588235294,214.91488956146125
-0.1431669921875,-0.1322978515625,0.9006884765625001,0.9215417738727564,0.20166015625,-0.11376953125,2.94970703125,44.15352941176471,214.91488956146125
-0.1480498046875,-0.1347392578125,0.8977587890625001,0.919806640334172,0.099609375,-0.08056640625,2.9208984375,44.34176470588236,214.91488956146125
-0.1524443359375,-0.1449931640625,0.8889697265625001,0.913525844149407,-0.0087890625,-0.0703125,2.93408203125,44.059411764705885,214.883601016462
-0.1631865234375,-0.1454814453125,0.8777392578125001,0.9045556351419576,-0.06201171875,0.0634765625,2.8828125,44.48294117647059,214.883601016462
-0.1607451171875,-0.1547587890625,0.8743212890625001,0.9023452731630096,-0.185546875,0.181640625,2.900390625,44.71823529411765,214.883601016462
-0.1412138671875,-0.1586650390625,0.8835986328125001,0.908769769971951,-0.32763671875,0.26806640625,2.93017578125,44.15352941176471,214.883601016462
-0.1114287109375,-0.1606181640625,0.8962939453125001,0.9173643707120132,-0.41064453125,0.28759765625,2.96240234375,44.29470588235294,215.13563885475727
-0.0860380859375,-0.1581767578125,0.9177783203125,0.9352750847635668,-0.55126953125,0.28759765625,2.93115234375,44.76529411764706,215.13563885475727
-0.0586943359375,-0.1567119140625,0.9285205078125,0.9434797202423906,-0.60791015625,0.12060546875,2.92578125,44.388823529411766,215.13563885475727
-0.0440458984375,-0.1469462890625,0.9451220703125,0.9574909821142926,-0.65966796875,-0.02685546875,2.84765625,44.20058823529412,215.13563885475727
-0.0577177734375,-0.1347392578125,0.9763720703125,0.9873137437779156,-0.64794921875,-0.1044921875,2.72509765625,44.20058823529412,215.13563885475727
-0.0772490234375,-0.1279033203125,1.0056689453125005,1.016708757971016,-0.65185546875,-0.12109375,2.66259765625,43.63588235294118,215.14664353636576
-0.1001982421875,-0.1230205078125,1.0388720703125005,1.0509181279030688,-0.66162109375,-0.13671875,2.6611328125,44.34176470588236,215.14664353636576
-0.1050810546875,-0.1156962890625,1.0725634765625005,1.0838911710189856,-0.65673828125,-0.1162109375,2.72119140625,44.20058823529412,215.14664353636576
-0.1187529296875,-0.1142314453125,1.0877001953125005,1.1001103564144818,-0.7158203125,-0.0771484375,2.7880859375,44.29470588235294,215.14664353636576
-0.1470732421875,-0.1044658203125,1.1028369140625005,1.117494029156311,-0.78759765625,0.01318359375,2.8427734375,44.48294117647059,215.21267191860736
-0.1773466796875,-0.1113017578125,1.1062548828125005,1.1258951069415088,-0.89404296875,0.13623046875,2.91064453125,44.29470588235294,215.21267191860736
-0.2105498046875,-0.1215556640625,1.0984423828125005,1.1250256299651236,-0.96044921875,0.248046875,3.0224609375,44.29470588235294,215.21267191860736
-0.2354521484375,-0.1391337890625,1.0881884765625005,1.122029449696459,-1.04345703125,0.44873046875,3.09521484375,44.29470588235294,215.21267191860736
-0.2618193359375,-0.1596416015625,1.0920947265625005,1.1343305062484283,-1.0791015625,0.69921875,3.150390625,44.29470588235294,215.21267191860736
-0.2686552734375,-0.1894267578125,1.0920947265625005,1.1404950873663402,-1.18017578125,0.9765625,3.126953125,44.53,214.81929836119784
-0.2686552734375,-0.2060283203125,1.1077197265625005,1.1583032061305314,-1.265625,1.19921875,3.037109375,44.48294117647059,214.81929836119784
-0.2598662109375,-0.2143291015625,1.1057666015625005,1.1559356333700777,-1.32763671875,1.33349609375,2.90234375,44.29470588235294,214.81929836119784
-0.2481474609375,-0.2011455078125,1.0901416015625005,1.1359777238749575,-1.3544921875,1.404296875,2.59326171875,44.76529411764706,214.81929836119784
-0.2413115234375,-0.1884501953125,1.1057666015625005,1.1473728707739814,-1.37109375,1.638671875,2.32763671875,44.20058823529412,214.7237078261009
-0.2071318359375,-0.1821025390625,1.1492236328125005,1.18185442860219,-1.41357421875,1.75048828125,2.21142578125,44.388823529411766,214.7237078261009
-0.1485380859375,-0.1611064453125,1.2009814453125005,1.2208092732610232,-1.4208984375,1.97998046875,2.11767578125,44.059411764705885,214.7237078261009
-0.0879912109375,-0.1405986328125,1.2600634765625005,1.2709328832466986,-1.369140625,1.888671875,1.93896484375,44.48294117647059,214.7237078261009
-0.0464873046875,-0.1142314453125,1.3176806640625005,1.323439543401769,-1.240234375,1.65771484375,1.76123046875,44.20058823529412,214.7237078261009
0.0062470703125,-0.0668681640625,1.3557666015625005,1.3574289871536227,-1.0927734375,1.21240234375,1.63134765625,44.29470588235294,214.93517357654852
0.0916962890625,-0.0136455078124999,1.3513720703125005,1.3545482205266772,-0.79248046875,0.64697265625,1.4462890625,44.29470588235294,214.93517357654852
0.1444306640625,0.0019794921875,1.2717822265625005,1.2799586582820266,-0.62060546875,0.27001953125,1.0947265625,44.34176470588236,214.93517357654852
0.1678681640625,-0.0522197265625,1.1516650390625005,1.165006001077594,-0.4443359375,-0.06640625,0.54443359375,44.059411764705885,214.93517357654852
0.1507783203125,-0.1127666015625,1.0906298828125005,1.1067628244514822,-0.572265625,-0.3701171875,-0.09521484375,44.29470588235294,215.44443177706748
0.1273408203125,-0.1445048828125,1.0056689453125005,1.0239469582163283,-0.6015625,-0.630859375,-0.501953125,44.29470588235294,215.44443177706748
0.0965791015625,-0.1679423828125,0.9099658203125,0.9303601243284028,-0.6337890625,-0.70166015625,-0.9814453125,44.48294117647059,215.44443177706748
0.0399384765625,-0.1718486328125,0.8167041015625001,0.83554331067795,-0.669921875,-0.7158203125,-1.123046875,44.15352941176471,215.44443177706748
-0.0279326171875,-0.1791728515625,0.7976611328125001,0.8180137068776427,-0.64990234375,-0.638671875,-0.40087890625,44.01235294117648,215.44443177706748
-0.0704130859375,-0.1581767578125,0.8108447265625001,0.8291242729395465,-0.68212890625,-0.64794921875,0.23681640625,44.29470588235294,215.4537132088264
-0.0704130859375,-0.1469462890625,0.8626025390625001,0.8778578215961589,-0.6357421875,-0.64013671875,0.89794921875,44.20058823529412,215.4537132088264
-0.0870146484375,-0.1816142578125,0.8894580078125001,0.9119708522454368,-0.662109375,-0.56640625,1.8076171875,44.15352941176471,215.4537132088264
-0.0333037109375,-0.0492900390625,0.9729541015625,0.9747709109633316,-0.48388671875,0.07421875,2.408203125,43.54176470588236,215.4537132088264
0.0614228515625,-0.0063212890624999,0.9182666015625,0.920340304960412,-0.10595703125,-0.03466796875,1.72705078125,44.059411764705885,215.78452250917923
0.0868134765625,-0.0170634765625,0.9324267578125,0.9366148624861754,0.001953125,-0.32373046875,1.181640625,44.76529411764706,215.78452250917923
0.0843720703125,-0.0468486328125,0.9880908203125,0.9927924807486442,0.26953125,-0.654296875,0.9091796875,44.29470588235294,215.78452250917923
0.0101533203125,-0.0800517578125,1.0266650390625005,1.0298312853450533,0.44677734375,-0.7724609375,0.77294921875,44.48294117647059,215.78452250917923
0.0589814453125,-0.1069072265625,1.0183642578125005,1.0256577048764572,0.56298828125,-0.880859375,0.6533203125,44.059411764705885,215.78452250917923
0.0780244140625,-0.1073955078125,1.0256884765625005,1.0342429382119096,0.59130859375,-0.82958984375,0.20849609375,43.777058823529416,215.49600887908724
0.0931611328125,-0.1127666015625,1.0281298828125005,1.038482719657342,0.56689453125,-0.77490234375,-0.13671875,44.48294117647059,215.49600887908724
0.0824189453125,-0.1156962890625,1.0579150390625005,1.0674093608938746,0.61865234375,-0.708984375,-0.37451171875,44.34176470588236,215.49600887908724
0.0560517578125,-0.1259501953125,1.0535205078125005,1.0625020995906955,0.67822265625,-0.78857421875,-0.50146484375,44.059411764705885,215.49600887908724
0.0262666015625,-0.1269267578125,1.0217822265625005,1.029970511580529,0.7197265625,-0.9208984375,-0.89990234375,44.29470588235294,215.44443177706748
-0.0079130859375,-0.1347392578125,0.9924853515625,1.0016209151126272,0.7490234375,-0.9755859375,-1.11572265625,44.34176470588236,215.44443177706748
-0.0333037109375,-0.1440166015625,0.9749072265625,0.9860497041689158,0.7919921875,-0.94287109375,-1.24951171875,44.48294117647059,215.44443177706748
-0.0459990234375,-0.1562236328125,0.9509814453125,0.9648250841136904,0.7998046875,-0.89111328125,-1.3671875,44.29470588235294,215.44443177706748
-0.0538115234375,-0.1645244140625,0.9143603515625,0.9306013192483517,0.77587890625,-0.99755859375,-1.39208984375,44.48294117647059,215.44443177706748
-0.0528349609375,-0.1777080078125,0.9011767578125,0.9200495736423142,0.7783203125,-0.83642578125,-1.42626953125,44.48294117647059,215.4131411837371
-0.0416044921875,-0.1874736328125,0.8845751953125001,0.9051798566761434,0.7685546875,-0.77197265625,-1.4921875,43.73,215.4131411837371
-0.0313505859375,-0.1938212890625,0.8762744140625001,0.8980013363425756,0.74462890625,-0.759765625,-1.4833984375,44.29470588235294,215.4131411837371
-0.0167021484375,-0.2011455078125,0.8704150390625001,0.8935103901476189,0.71240234375,-0.71728515625,-1.4638671875,44.34176470588236,215.4131411837371
-0.0030302734374999,-0.2099345703125,0.8792041015625001,0.903925637745563,0.69677734375,-0.6728515625,-1.40869140625,44.20058823529412,215.3708460408969
0.0096650390625,-0.2138408203125,0.8845751953125001,0.9101069088706834,0.67529296875,-0.60986328125,-1.43359375,44.059411764705885,215.3708460408969
0.0179658203125,-0.2162822265625,0.8987353515625001,0.9245680095993504,0.60546875,-0.54443359375,-1.50390625,44.29470588235294,215.3708460408969
0.0082001953125,-0.2255595703125,0.9002001953125001,0.928065059466946,0.58544921875,-0.490234375,-1.68115234375,44.34176470588236,215.3708460408969
-0.0001005859374999,-0.2172587890625,0.9060595703125,0.9317431708884734,0.53271484375,-0.49658203125,-1.7197265625,44.34176470588236,215.3708460408969
-0.0274443359375,-0.2065166015625,0.9260791015625,0.9492232617497224,0.51708984375,-0.3759765625,-1.71826171875,44.53,214.9571830371744
-0.0455107421875,-0.2021220703125,0.9524462890625,0.9747196994576418,0.5419921875,-0.49658203125,-1.64599609375,44.29470588235294,214.9571830371744
-0.0464873046875,-0.1957744140625,0.9617236328125,0.9825482362758056,0.580078125,-0.45751953125,-1.54150390625,44.29470588235294,214.9571830371744
-0.0411162109375,-0.1913798828125,0.9705126953125,0.9900564095595346,0.6044921875,-0.4716796875,-1.41796875,44.29470588235294,214.9571830371744
-0.0328154296875,-0.1952861328125,0.9880908203125,1.0077385550232094,0.64013671875,-0.45947265625,-1.3388671875,44.29470588235294,214.78628418290612
-0.0269560546875,-0.1991923828125,0.9817431640625,1.0021097117772515,0.66796875,-0.4833984375,-1.33837890625,44.059411764705885,214.78628418290612
-0.0274443359375,-0.2065166015625,0.9832080078125,1.0050374544874434,0.6982421875,-0.44873046875,-1.34619140625,43.40058823529412,214.78628418290612
-0.0318388671875,-0.2221416015625,0.9866259765625,1.0118257865049909,0.7001953125,-0.412109375,-1.365234375,44.29470588235294,214.78628418290612
-0.0401396484375,-0.2260478515625,0.9880908203125,1.0144122888444014,0.70068359375,-0.37744140625,-1.326171875,44.15352941176471,214.78628418290612
-0.0469755859375,-0.2284892578125,0.9968798828125,1.0238083548038384,0.71875,-0.3388671875,-1.29541015625,44.29470588235294,215.29726101446028
-0.0586943359375,-0.2372783203125,0.9949267578125,1.024512215531254,0.71435546875,-0.259765625,-1.29443359375,44.76529411764706,215.29726101446028
-0.0591826171875,-0.2504619140625,0.9929736328125,1.0257828171859125,0.69384765625,-0.17626953125,-1.35546875,44.388823529411766,215.29726101446028
-0.0567412109375,-0.2607158203125,0.9915087890625,1.026782344398295,0.70068359375,-0.08447265625,-1.38134765625,44.48294117647059,215.29726101446028
-0.0513701171875,-0.2636455078125,1.0037158203125005,1.0390347880004616,0.701171875,0.02392578125,-1.4140625,44.059411764705885,215.1593728524839
-0.0513701171875,-0.2612041015625,1.0164111328125005,1.0506940860774463,0.689453125,0.1982421875,-1.40771484375,44.34176470588236,215.1593728524839
-0.0508818359375,-0.2489970703125,1.0374072265625005,1.0680834499123546,0.73291015625,0.33154296875,-1.345703125,44.48294117647059,215.1593728524839
-0.0464873046875,-0.2406962890625,1.0447314453125005,1.0731074344585974,0.787109375,0.50439453125,-1.2626953125,44.388823529411766,215.1593728524839
-0.0416044921875,-0.2392314453125,1.0525439453125005,1.0801904346042372,0.83935546875,0.62841796875,-1.26220703125,44.34176470588236,215.1593728524839
-0.0518583984375,-0.2323955078125,1.0642626953125005,1.0905741837095542,0.8671875,0.73828125,-1.28759765625,44.20058823529412,215.32682720838653
-0.0513701171875,-0.2377666015625,1.0437548828125005,1.071725758369824,0.8408203125,0.8935546875,-1.25634765625,44.15352941176471,215.32682720838653
-0.0626005859375,-0.2480205078125,1.0378955078125005,1.0689528010125875,0.81591796875,1.07763671875,-1.197265625,44.34176470588236,215.32682720838653
-0.0694365234375,-0.2533916015625,1.0408251953125005,1.073473717296702,0.76025390625,1.2607421875,-1.0595703125,44.48294117647059,215.32682720838653
-0.0806669921875,-0.2626689453125,1.0310595703125005,1.0670454423280935,0.7353515625,1.42822265625,-0.880859375,44.48294117647059,215.19066240212464
-0.0958037109375,-0.2675517578125,1.0198291015625005,1.0586848872689791,0.69677734375,1.54736328125,-0.6435546875,44.15352941176471,215.19066240212464
-0.1109404296875,-0.2753642578125,1.0120166015625005,1.0546614884682135,0.66845703125,1.68115234375,-0.36962890625,44.29470588235294,215.19066240212464
-0.1246123046875,-0.2880595703125,1.0227587890625005,1.06983273605398,0.7490234375,1.841796875,-0.07568359375,44.29470588235294,215.19066240212464
-0.1158232421875,-0.3007548828125,1.0471728515625005,1.095645701865308,0.57958984375,1.90673828125,0.240234375,44.29470588235294,215.19066240212464
-0.0948271484375,-0.3158916015625,1.0828173828125005,1.13193337990335,0.49609375,1.8583984375,0.40087890625,44.20058823529412,215.0933445204766
-0.0787138671875,-0.3295634765625,1.1160205078125005,1.1663231678354176,0.41650390625,1.70654296875,0.39453125,44.15352941176471,215.0933445204766
-0.0748076171875,-0.3261455078125,1.1238330078125005,1.1725901676649162,0.2861328125,1.48486328125,0.3505859375,44.059411764705885,215.0933445204766
-0.0967802734375,-0.3007548828125,1.1526416015625005,1.1951579738740663,0.15869140625,1.46240234375,0.3955078125,44.29470588235294,215.0933445204766
-0.1172880859375,-0.2748759765625,1.1931689453125005,1.2300265971320354,0.083984375,1.6357421875,0.68798828125,44.059411764705885,215.14836809564693
-0.0860380859375,-0.2524150390625,1.2688525390625005,1.2965734341185868,0.03271484375,1.7333984375,1.14404296875,44.059411764705885,215.14836809564693
-0.0264677734375,-0.2382548828125,1.3391650390625005,1.360451738968349,0.00439453125,1.49560546875,1.4423828125,44.20058823529412,215.14836809564693
0.0648408203125,-0.2206767578125,1.3420947265625005,1.3616610512474487,-0.02880859375,0.54150390625,1.3994140625,44.15352941176471,215.14836809564693
0.0921845703125,-0.1913798828125,1.2654345703125005,1.283140251995474,-0.009765625,-0.0302734375,1.32080078125,44.29470588235294,215.14836809564693
0.0975556640625,-0.1425517578125,1.1267626953125005,1.139926437448487,-0.12939453125,-0.28076171875,1.73046875,44.34176470588236,215.09506920908692
0.0360322265625,-0.0610087890625,1.1189501953125005,1.1211913009312044,-0.1162109375,0.291015625,2.703125,44.059411764705885,215.09506920908692
-0.0225615234375,0.0093037109375,1.1482470703125005,1.1485063847703545,0.07275390625,0.75439453125,3.65478515625,44.15352941176471,215.09506920908692
-0.0201201171875,0.0244404296875,1.1384814453125005,1.1389214876539069,0.36572265625,1.11376953125,4.1591796875,44.53,215.09506920908692
0.0331025390625,-0.0072978515624999,1.0803759765625005,1.0809076220765532,0.5078125,0.962890625,4.0439453125,44.29470588235294,215.03832129364056
0.0755830078125,0.0893818359375,0.9998095703125,1.0066385054000313,0.49072265625,0.7421875,3.35791015625,44.48294117647059,215.03832129364056
0.0677705078125,-0.0341533203125,0.9290087890625,0.9321033318108596,0.4892578125,0.53857421875,2.44384765625,44.53,215.03832129364056
0.0501923828125,-0.0043681640624999,0.8718798828125001,0.8733343496066167,0.40380859375,0.52099609375,1.73388671875,44.48294117647059,215.03832129364056
0.0204072265625,0.0317646484375,0.8215869140625001,0.8224539532065446,0.333984375,0.734375,1.28076171875,44.29470588235294,215.03832129364056
-0.0088896484375,0.0664326171875,0.7888720703125001,0.7917142551418747,0.28125,1.02783203125,1.197265625,44.388823529411766,215.6947634879525
-0.0079130859375,0.0771748046875,0.7952197265625001,0.7989949817875863,0.17138671875,1.2939453125,1.25,44.059411764705885,215.6947634879525
0.0062470703125,0.0810810546875,0.7166064453125001,0.7212059073386351,0.03173828125,1.4462890625,1.66259765625,44.34176470588236,215.6947634879525
0.0204072265625,0.0639912109375,0.8953173828125001,0.8978332506314552,0.03564453125,1.34033203125,1.96044921875,44.059411764705885,215.6947634879525
0.0199189453125,0.0288349609375,0.9382861328125,0.9389404061935273,-0.0595703125,1.06689453125,2.1435546875,44.059411764705885,215.6872025435068
0.0116181640625,-0.0014384765624999,0.9749072265625,0.9749775132559672,-0.03564453125,0.82275390625,2.03369140625,44.388823529411766,215.6872025435068
-0.0186552734375,-0.0527080078125,0.9968798828125,0.9984466205415562,-0.01904296875,0.82568359375,1.90771484375,44.20058823529412,215.6872025435068
-0.0293974609375,-0.0663798828125,1.0388720703125005,1.0414056260781164,-0.0166015625,0.92041015625,1.68701171875,44.34176470588236,215.6872025435068
-0.0323271484375,-0.0898173828125,1.0501025390625005,1.0544323351106497,0.0400390625,0.9482421875,1.70849609375,44.29470588235294,215.6872025435068
-0.0074248046875,-0.0829814453125,1.0608447265625005,1.0641111698813546,0.06884765625,0.9580078125,1.8388671875,44.20058823529412,215.75906949152477
0.0135712890625,-0.0600322265625,1.0686572265625005,1.0704280994056183,0.02099609375,0.8076171875,1.82080078125,44.29470588235294,215.75906949152477
-0.0152373046875,-0.0678447265625,1.0696337890625005,1.0718915640495923,-0.02490234375,0.54052734375,2.00390625,44.29470588235294,215.75906949152477
-0.0376982421875,-0.0546611328125,1.0408251953125005,1.0429410741272382,-0.1103515625,0.21533203125,2.51318359375,44.76529411764706,215.75906949152477
-0.0503935546875,-0.0326884765625,1.0256884765625005,1.0274458125892196,-0.11083984375,0.12353515625,2.9326171875,44.29470588235294,215.5273000722628
-0.0738310546875,-0.0336650390625,0.9807666015625,0.9841176180883076,-0.07568359375,0.05615234375,3.22216796875,44.34176470588236,215.5273000722628
-0.0835966796875,-0.0419658203125,0.9500048828125,0.9545987703202156,-0.009765625,0.29345703125,3.42822265625,44.388823529411766,215.5273000722628
-0.0743193359375,-0.0439189453125,0.9319384765625,0.9359281818329797,0.0244140625,0.47900390625,3.5634765625,44.20058823529412,215.5273000722628
-0.0713896484375,-0.0380595703125,0.9080126953125,0.911609602650758,0.06201171875,0.61279296875,3.681640625,44.34176470588236,215.5273000722628
-0.0733427734375,-0.0243876953125,0.8855517578125001,0.8889183527540472,0.06494140625,0.6884765625,3.70458984375,44.48294117647059,215.58060072480004
-0.0718779296875,-0.0097392578124999,0.8679736328125001,0.8709991487806565,0.0849609375,0.64794921875,3.61376953125,44.15352941176471,215.58060072480004
-0.0860380859375,-0.0033916015624999,0.8606494140625001,0.8649459342173198,0.078125,0.66162109375,3.53369140625,44.15352941176471,215.58060072480004
-0.0635771484375,0.0259052734375,0.8450244140625001,0.8478085853286619,-0.06005859375,0.6396484375,3.11083984375,44.34176470588236,215.58060072480004
-0.0977568359375,0.0180927734375,0.8489306640625001,0.8547321333662198,-0.07373046875,0.72607421875,2.79638671875,44.48294117647059,215.24051357986997
-0.1280302734375,0.0019794921875,0.8606494140625001,0.8701224530098772,-0.12109375,0.7978515625,2.80322265625,44.29470588235294,215.24051357986997
-0.1573271484375,-0.0204814453125,0.8689501953125001,0.883315211672026,-0.11279296875,0.75830078125,3.01123046875,43.54176470588236,215.24051357986997
-0.1407255859375,-0.0419658203125,0.8669970703125001,0.8793456320141767,-0.10400390625,0.57177734375,3.486328125,44.53,215.24051357986997
-0.1280302734375,-0.0536845703125,0.8655322265625001,0.8765955847620713,-0.1171875,0.419921875,3.7080078125,44.34176470588236,215.24051357986997
-0.1050810546875,-0.0478251953125,0.8674853515625001,0.8751343397081561,-0.20263671875,0.28173828125,3.69384765625,44.53,215.4299811818068
-0.0972685546875,-0.0351298828125,0.8884814453125001,0.8944800495606395,-0.2939453125,0.181640625,3.56298828125,44.34176470588236,215.4299811818068
-0.1031279296875,-0.0243876953125,0.9075244140625,0.9136906980394236,-0.3212890625,0.158203125,3.4306640625,44.388823529411766,215.4299811818068
-0.1124052734375,-0.0224345703125,0.9168017578125,0.9239392396525627,-0.35009765625,0.09912109375,3.38232421875,44.29470588235294,215.4299811818068
-0.1236357421875,-0.0229228515625,0.9236376953125,0.9321576294126424,-0.4990234375,0.017578125,3.35888671875,44.48294117647059,215.26079937763004
-0.1251005859375,-0.0229228515625,0.9177783203125,0.9265487893043172,-0.400390625,-0.0126953125,3.41796875,44.20058823529412,215.26079937763004
-0.1251005859375,-0.0131572265624999,0.9329150390625,0.94135739191962,-0.43701171875,0.00341796875,3.4208984375,44.71823529411765,215.26079937763004
-0.1309599609375,-0.0165751953125,0.9290087890625,0.9383403319818304,-0.45751953125,-0.05419921875,3.38232421875,44.29470588235294,215.26079937763004
-0.1465849609375,-0.0180400390625,0.9251025390625,0.9368176458427272,-0.37646484375,-0.0908203125,3.33154296875,44.388823529411766,215.26079937763004
-0.1500029296875,-0.0136455078124999,0.9334033203125,0.945478099782694,-0.556640625,-0.14404296875,3.28662109375,43.58882352941177,215.2625228679126
-0.1583037109375,-0.0141337890624999,0.9309619140625,0.9444310002984656,-0.57275390625,-0.169921875,3.2421875,44.29470588235294,215.2625228679126
-0.1656279296875,-0.0121806640624999,0.9270556640625,0.9418137734923684,-0.6494140625,-0.177734375,3.197265625,44.388823529411766,215.2625228679126
-0.1670927734375,-0.0116923828124999,0.9285205078125,0.9435078379002756,-0.65966796875,-0.19140625,3.1005859375,44.20058823529412,215.2625228679126
-0.1753935546875,-0.0082744140624999,0.9260791015625,0.942578308314382,-0.69873046875,-0.1826171875,3.0185546875,44.48294117647059,215.0307657675667
-0.1763701171875,-0.0072978515624999,0.9192431640625,0.9360382853012996,-0.7431640625,-0.1533203125,2.919921875,44.15352941176471,215.0307657675667
-0.1714873046875,-0.0019267578124999,0.9216845703125,0.9375041627730456,-0.791015625,-0.14697265625,2.81640625,43.54176470588236,215.0307657675667
-0.1753935546875,0.0083271484375,0.9192431640625,0.935863363479228,-0.80712890625,-0.05224609375,2.71142578125,44.15352941176471,215.0307657675667
-0.1802763671875,0.0146748046875,0.9299853515625,0.9474110367626954,-0.8251953125,0.0224609375,2.62841796875,44.48294117647059,215.0307657675667
-0.1709990234375,0.0259052734375,0.9431689453125,0.9588948892398708,-0.77587890625,0.0537109375,2.5791015625,44.388823529411766,215.0696110577264
-0.1597685546875,0.0405537109375,0.9436572265625,0.957945486852652,-0.7607421875,0.08447265625,2.49072265625,44.29470588235294,215.0696110577264
-0.1451201171875,0.0537373046875,0.9490283203125,0.9615624259936306,-0.68310546875,0.11767578125,2.4140625,44.48294117647059,215.0696110577264
-0.1319365234375,0.0586201171875,0.9602587890625,0.9710512377457892,-0.60888671875,0.11083984375,2.267578125,44.34176470588236,215.0696110577264
-0.1412138671875,0.0635029296875,0.9705126953125,0.9827862789679545,-0.5830078125,0.09033203125,2.15869140625,44.29470588235294,215.5365822487012
-0.1666044921875,0.0674091796875,0.9753955078125,0.9918152302641864,-0.5302734375,0.080078125,2.07958984375,44.34176470588236,215.5365822487012
-0.1880888671875,0.0683857421875,0.9890673828125,1.0091126396185812,-0.47900390625,0.1328125,1.9765625,44.20058823529412,215.5365822487012
-0.2022490234375,0.0713154296875,1.0066455078125005,1.029235510654399,-0.39208984375,0.23193359375,1.80078125,44.29470588235294,215.5365822487012
-0.2408232421875,0.0527607421875,1.0173876953125005,1.046832007758244,-0.3076171875,0.486328125,1.58251953125,44.29470588235294,215.5365822487012
-0.2632841796875,0.0415302734375,1.0330126953125005,1.066845139447291,-0.3369140625,0.775390625,1.37109375,44.15352941176471,215.2828085988117
-0.2862333984375,0.0190693359375,1.0505908203125005,1.0890520050388182,-0.28955078125,0.92822265625,1.296875,44.76529411764706,215.2828085988117
-0.3033232421875,-0.0092509765624999,1.0369189453125005,1.0804126382852457,-0.32275390625,1.0390625,1.2724609375,44.15352941176471,215.2828085988117
-0.3287138671875,-0.0317119140625,1.0466845703125005,1.0975459178117024,-0.4580078125,1.19091796875,1.26025390625,44.059411764705885,215.2828085988117
-0.3340849609375,-0.0370830078125,1.0916064453125005,1.1421876124528867,-0.564453125,1.35791015625,1.24462890625,44.53,215.1321911662193
-0.3467802734375,-0.0473369140625,1.1663134765625005,1.2176963772179228,-0.51123046875,1.66259765625,1.15283203125,44.15352941176471,215.1321911662193
-0.3384794921875,-0.0610087890625,1.2473681640625005,1.2939156756493186,-0.3564453125,1.78125,1.111328125,44.29470588235294,215.1321911662193
-0.3008818359375,-0.0649150390625,1.3054736328125005,1.3412700128841597,-0.18701171875,1.53076171875,1.15869140625,44.34176470588236,215.1321911662193
-0.2388701171875,-0.0424541015625,1.3543017578125005,1.3758613792234584,0.05322265625,1.2177734375,1.32470703125,44.20058823529412,215.1321911662193
-0.1465849609375,-0.0282939453125,1.3889697265625005,1.3969697918786583,0.244140625,0.99560546875,1.466796875,44.34176470588236,214.94445316200063
-0.1158232421875,-0.0507548828125,1.4446337890625005,1.4501578762538965,0.23193359375,0.744140625,1.33154296875,44.34176470588236,214.94445316200063
0.1732392578125,-0.1132548828125,1.4993212890625005,1.5135398365303558,0.1318359375,0.3408203125,0.70556640625,44.29470588235294,214.94445316200063
0.2376923828125,-0.1684306640625,1.4441455078125005,1.4732354887045869,0.00146484375,0.12646484375,0.1025390625,44.34176470588236,214.94445316200063
0.1971650390625,-0.1738017578125,1.3005908203125005,1.3268826570305208,-0.095703125,0.45166015625,-0.43701171875,44.388823529411766,215.22195214520085
0.1458955078125,-0.2045634765625,1.2073291015625005,1.2331971758899376,-0.330078125,0.63232421875,-1.21240234375,44.29470588235294,215.22195214520085
0.0990205078125,-0.2817119140625,1.1335986328125005,1.1722681108887048,-0.625,0.7197265625,-1.94921875,44.76529411764706,215.22195214520085
0.0497041015625,-0.3285869140625,1.0593798828125005,1.1102817632984336,-1.02880859375,0.5087890625,-2.58740234375,43.73,215.22195214520085
-0.0298857421875,-0.3588603515625,1.0129931640625005,1.075094907413766,-1.27197265625,0.17578125,-2.63525390625,44.388823529411766,215.22195214520085
-0.1153349609375,-0.3530009765625,0.9695361328125,1.038225483937642,-1.2275390625,-0.033203125,-1.955078125,44.20058823529412,215.75906949152477
-0.2061552734375,-0.4159892578125,0.9021533203125,1.0146071519225328,-1.2216796875,-0.234375,-0.52783203125,44.059411764705885,215.75906949152477
-0.1319365234375,-0.3300517578125,0.9631884765625,1.0266807928634318,-1.12109375,-0.23486328125,0.52294921875,44.059411764705885,215.75906949152477
-0.0445341796875,-0.2802470703125,0.9768603515625,1.017240315773018,-0.58935546875,-0.24365234375,0.89208984375,44.29470588235294,215.75906949152477
0.0116181640625,-0.2626689453125,0.9456103515625,0.9814830072649854,-0.50634765625,-0.45166015625,0.908203125,44.20058823529412,215.82165462377583
0.0296845703125,-0.1864970703125,0.9543994140625,0.9729031670791428,-0.6044921875,-0.7177734375,0.5947265625,44.20058823529412,215.82165462377583
-0.0381865234375,-0.1391337890625,1.0784228515625005,1.088031372986701,-0.3076171875,-0.70654296875,0.63330078125,44.29470588235294,215.82165462377583
-0.0699248046875,-0.0981181640625,0.9168017578125,0.9246848736502996,-0.25537109375,-0.6142578125,0.89208984375,44.48294117647059,215.82165462377583
-0.1148466796875,-0.0595439453125,0.9265673828125,0.93555457144446,-0.13671875,-0.498046875,1.169921875,44.388823529411766,215.82165462377583
-0.0899443359375,-0.0375712890625,0.9426806640625,0.9477069271279872,0.02001953125,-0.10400390625,1.603515625,44.15352941176471,215.3453899429342
-0.0406279296875,-0.0561259765625,0.9373095703125,0.939867003631466,0.13037109375,-0.06591796875,2.00732421875,44.059411764705885,215.3453899429342
0.0208955078125,-0.0829814453125,0.9387744140625,0.9426664007013744,0.26806640625,-0.17919921875,2.13037109375,44.29470588235294,215.3453899429342
0.0658173828125,-0.1171611328125,0.9236376953125,0.9333623364612385,0.35888671875,-0.29248046875,1.72412109375,44.059411764705885,215.3453899429342
0.0721650390625,-0.1586650390625,0.8899462890625001,0.9068554377075276,0.38916015625,-0.25927734375,1.0830078125,44.15352941176471,215.30654161119463
0.0540986328125,-0.1923564453125,0.8767626953125001,0.8992443983795965,0.2919921875,-0.27197265625,0.40185546875,44.76529411764706,215.30654161119463
0.0243134765625,-0.2182353515625,0.8679736328125001,0.8953189605229479,0.0908203125,-0.32568359375,-0.11865234375,44.059411764705885,215.30654161119463
-0.0152373046875,-0.2255595703125,0.8782275390625001,0.9068588123746024,0.04931640625,-0.33740234375,-0.560546875,44.34176470588236,215.30654161119463
-0.0508818359375,-0.2109111328125,0.8709033203125001,0.8975216211902417,0.01220703125,-0.36669921875,-1.0087890625,44.57705882352941,215.30654161119463
-0.0894560546875,-0.2133525390625,0.8543017578125001,0.885072417967138,-0.0078125,-0.439453125,-1.2041015625,44.15352941176471,215.0510503545732
-0.1084990234375,-0.2304423828125,0.8474658203125001,0.8849147114163787,-0.1474609375,-0.51025390625,-1.1611328125,44.29470588235294,215.0510503545732
-0.1036162109375,-0.2236064453125,0.8640673828125001,0.8985257946184851,-0.2421875,-0.55029296875,-1.1220703125,44.29470588235294,215.0510503545732
-0.1036162109375,-0.2182353515625,0.8762744140625001,0.9089663561327396,-0.24267578125,-0.4794921875,-1.21630859375,44.34176470588236,215.0510503545732
-0.0918974609375,-0.2084697265625,0.8894580078125001,0.9181722702639108,-0.24072265625,-0.3408203125,-1.3671875,44.15352941176471,215.14664353636576
-0.0748076171875,-0.1957744140625,0.8899462890625001,0.9142910905214496,-0.2197265625,-0.2412109375,-1.37841796875,44.15352941176471,215.14664353636576
-0.0733427734375,-0.1928447265625,0.9119189453125,0.93496760040032,-0.16650390625,-0.22900390625,-1.4140625,44.15352941176471,215.14664353636576
-0.0928740234375,-0.2021220703125,0.9207080078125,0.9471969970322665,-0.18212890625,-0.39599609375,-1.13134765625,44.20058823529412,215.14664353636576
-0.0923857421875,-0.1938212890625,0.9436572265625,0.9677762027953642,-0.091796875,-0.42529296875,-0.9365234375,43.30647058823529,215.14664353636576
-0.0933623046875,-0.1943095703125,0.9412158203125,0.9655878776466296,0.06884765625,-0.373046875,-0.8935546875,44.20058823529412,214.7990149180248
-0.0992216796875,-0.1982158203125,0.9412158203125,0.966965187350971,0.1142578125,-0.4130859375,-0.8701171875,44.29470588235294,214.7990149180248
-0.1153349609375,-0.1933330078125,0.9446337890625,0.9710884617597196,0.11962890625,-0.42724609375,-0.87451171875,44.48294117647059,214.7990149180248
-0.1197294921875,-0.1884501953125,0.9475634765625,0.9735117716432644,0.1796875,-0.46044921875,-0.8818359375,44.29470588235294,214.7990149180248
-0.1236357421875,-0.1874736328125,0.9382861328125,0.9647865187565624,0.18017578125,-0.4892578125,-0.884765625,44.388823529411766,215.0933445204766
-0.1299833984375,-0.1908916015625,0.9392626953125,0.9672381807094674,0.17236328125,-0.51611328125,-0.859375,44.20058823529412,215.0933445204766
-0.1334013671875,-0.1923564453125,0.9470751953125,0.9755759080650592,0.1708984375,-0.505859375,-0.8896484375,44.059411764705885,215.0933445204766
-0.1358427734375,-0.1874736328125,0.9456103515625,0.9735391923683724,0.18359375,-0.47705078125,-1.01513671875,44.34176470588236,215.0933445204766
-0.1519560546875,-0.1874736328125,0.9529345703125,0.9830164295945292,0.21142578125,-0.4189453125,-1.18310546875,44.48294117647059,215.0933445204766
-0.1636748046875,-0.1796611328125,0.9700244140625,1.0000074640772731,0.22412109375,-0.322265625,-1.37890625,44.34176470588236,215.0307657675667
-0.1851591796875,-0.1718486328125,0.9773486328125,1.0094682880024195,0.28857421875,-0.1611328125,-1.59130859375,44.29470588235294,215.0307657675667
-0.2071318359375,-0.1713603515625,0.9856494140625,1.0216519637274784,0.38623046875,0.1123046875,-1.71923828125,44.29470588235294,215.0307657675667
-0.2085966796875,-0.1625712890625,1.0046923828125005,1.0389171203159335,0.49560546875,0.43994140625,-1.87060546875,44.34176470588236,215.0307657675667
-0.1832060546875,-0.1488994140625,1.0100634765625005,1.0372867109280055,0.6142578125,0.7900390625,-2.06396484375,44.29470588235294,215.6008876454578
-0.1397490234375,-0.1440166015625,1.0237353515625005,1.0432184052805735,0.748046875,1.03955078125,-2.3017578125,44.20058823529412,215.6008876454578
-0.1124052734375,-0.1469462890625,1.0139697265625005,1.03070983489585,0.6484375,1.1044921875,-2.52490234375,44.15352941176471,215.6008876454578
-0.0850615234375,-0.1376689453125,1.0447314453125005,1.0571906138902811,0.87255859375,1.19677734375,-2.8447265625,44.29470588235294,215.6008876454578
-0.0992216796875,-0.1493876953125,1.0242236328125005,1.0398055949274485,0.95166015625,1.310546875,-3.11767578125,44.20058823529412,215.6008876454578
-0.1124052734375,-0.1640361328125,1.0149462890625005,1.0342430894361243,0.96240234375,1.33251953125,-3.22119140625,44.20058823529412,215.79208328607407
-0.1480498046875,-0.1947978515625,1.0105517578125005,1.0397498751427223,0.978515625,1.42578125,-3.16796875,44.059411764705885,215.79208328607407
-0.1543974609375,-0.2226298828125,1.0315478515625005,1.0665334550440808,0.98974609375,1.498046875,-3.12158203125,44.29470588235294,215.79208328607407
-0.1695341796875,-0.2568095703125,1.0432666015625005,1.0877031743183307,0.859375,1.5810546875,-3.099609375,44.29470588235294,215.79208328607407
-0.1724638671875,-0.2905009765625,1.0647509765625005,1.1170627757471072,0.8076171875,1.5009765625,-3.1015625,43.54176470588236,215.5898830389646
-0.1954130859375,-0.3149150390625,1.0544970703125005,1.11773065954236,0.72900390625,1.58642578125,-3.10498046875,44.059411764705885,215.5898830389646
-0.2125029296875,-0.3134501953125,1.0510791015625005,1.117217882871845,0.64013671875,1.66796875,-3.015625,44.76529411764706,215.5898830389646
-0.2364287109375,-0.2924541015625,1.0608447265625005,1.1255307506913186,0.56494140625,1.87451171875,-2.86279296875,44.76529411764706,215.5898830389646
-0.2417998046875,-0.2934306640625,1.0881884765625005,1.1527024163601325,0.54150390625,2.16552734375,-2.67431640625,44.34176470588236,215.5898830389646
-0.2437529296875,-0.2988017578125,1.1506884765625005,1.2135822803983285,0.47216796875,2.4619140625,-2.73583984375,44.53,215.6118922658918
-0.2457060546875,-0.3061259765625,1.2239306640625005,1.2853368621761825,0.4326171875,2.64794921875,-2.9755859375,44.48294117647059,215.6118922658918
-0.2232451171875,-0.2831767578125,1.2839892578125005,1.333662578275013,0.36865234375,2.51953125,-3.29150390625,44.29470588235294,215.6118922658918
-0.1934599609375,-0.2397197265625,1.2805712890625005,1.3171010326320196,0.27294921875,2.30126953125,-3.3984375,43.777058823529416,215.6118922658918
-0.1993193359375,-0.2143291015625,1.2771533203125005,1.310261716238553,0.0791015625,2.3173828125,-2.8037109375,44.57705882352941,214.9884719495402
-0.1246123046875,-0.2133525390625,1.3752978515625005,1.3973158958934,0.0400390625,2.13623046875,-1.97119140625,44.29470588235294,214.9884719495402
0.0243134765625,-0.2206767578125,1.4714892578125005,1.4881431424559852,0.04296875,1.55419921875,-1.6064453125,44.29470588235294,214.9884719495402
0.1957001953125,-0.1650126953125,1.3674853515625005,1.3912382767871438,0.04443359375,1.048828125,-1.501953125,44.15352941176471,214.9884719495402
0.1551728515625,-0.1161845703125,1.2112353515625005,1.226649316274,0.08740234375,1.21728515625,-1.2060546875,44.29470588235294,214.9884719495402
0.0213837890625,-0.0976298828125,1.1423876953125005,1.1467512837812992,0.11083984375,1.158203125,-0.43505859375,43.54176470588236,215.58060072480004
-0.0328154296875,-0.0531962890625,1.1018603515625005,1.103631701221487,0.23779296875,1.18408203125,0.125,44.29470588235294,215.58060072480004
-0.0010771484374999,-0.0072978515624999,1.0603564453125005,1.060382105659062,0.4072265625,1.2431640625,0.2412109375,44.388823529411766,215.58060072480004
0.0033173828125,0.0136982421875,1.0061572265625005,1.0062559373398472,0.55810546875,0.94482421875,-0.1142578125,44.15352941176471,215.58060072480004
-0.0010771484374999,0.0342060546875,0.9592822265625,0.9598924963894384,0.62060546875,0.84375,-0.529296875,44.01235294117648,215.77935741009455
-0.0372099609375,0.0649677734375,0.9392626953125,0.9422419029018496,0.666015625,0.9638671875,-0.89794921875,44.20058823529412,215.77935741009455
-0.0484404296875,0.0830341796875,0.9231494140625,0.9281411481604632,0.78515625,1.14208984375,-0.88671875,44.29470588235294,215.77935741009455
-0.0362333984375,0.0923115234375,0.9045947265625,0.9100142283757804,0.84326171875,1.28759765625,-0.87353515625,44.29470588235294,215.77935741009455
-0.0059599609375,0.0688740234375,0.8943408203125001,0.8970087263321809,0.8125,1.2529296875,-0.64404296875,44.29470588235294,215.77935741009455
-0.0162138671875,-0.0072978515624999,0.8865283203125001,0.8867066092246663,0.9189453125,1.1591796875,-0.23876953125,44.53,216.04414773579109
0.0370087890625,-0.0810283203125,0.8948291015625001,0.8992521115703253,0.59814453125,1.00830078125,-0.1416015625,44.388823529411766,216.04414773579109
-0.0074248046875,-0.0419658203125,0.9548876953125,0.9558382543392824,0.72265625,0.8203125,0.1005859375,44.29470588235294,216.04414773579109
0.0072236328125,-0.2074931640625,0.9177783203125,0.9409689895205428,0.38623046875,0.58056640625,-0.19873046875,44.20058823529412,216.04414773579109
-0.0328154296875,-0.2133525390625,1.0281298828125005,1.0505461504769966,0.35400390625,0.47802734375,-0.59619140625,44.76529411764706,215.83438030354552
-0.0225615234375,-0.1928447265625,1.0584033203125005,1.076064914097338,0.3330078125,0.17919921875,-1.06689453125,44.059411764705885,215.83438030354552
-0.0416044921875,-0.1655009765625,1.0730517578125005,1.0865365074206286,0.279296875,-0.08837890625,-1.55029296875,44.20058823529412,215.83438030354552
-0.0977568359375,-0.1376689453125,1.0627978515625005,1.076126577481401,0.3701171875,-0.18994140625,-1.5849609375,44.48294117647059,215.83438030354552
-0.1119169921875,-0.1230205078125,1.0237353515625005,1.0371564628933951,0.29638671875,-0.16552734375,-1.3740234375,44.34176470588236,215.83438030354552
-0.1407255859375,-0.0986064453125,0.9905322265625,1.005326321874387,0.29052734375,-0.16259765625,-0.931640625,44.53,215.4757225638432
-0.1612333984375,-0.0805400390625,0.9431689453125,0.9602346411506868,0.28662109375,-0.01025390625,-0.54052734375,44.57705882352941,215.4757225638432
-0.1587919921875,-0.0702861328125,0.8972705078125001,0.9139198003319072,0.3271484375,0.16552734375,-0.1953125,44.29470588235294,215.4757225638432
-0.1626982421875,-0.0663798828125,0.8533251953125001,0.8712295310698669,0.2900390625,0.3740234375,0.11865234375,44.34176470588236,215.4757225638432
-0.1470732421875,-0.0600322265625,0.8210986328125001,0.836323724164364,0.26220703125,0.41552734375,0.48974609375,44.48294117647059,215.24051357986997
-0.1451201171875,-0.0463603515625,0.7932666015625001,0.8077629799415362,0.2392578125,0.380859375,0.90380859375,44.34176470588236,215.24051357986997
-0.1236357421875,-0.0488017578125,0.7766650390625001,0.7879568460352373,0.26904296875,0.28759765625,1.34716796875,44.388823529411766,215.24051357986997
-0.0962919921875,-0.0346416015625,0.7610400390625001,0.7678893991809655,0.28662109375,0.16259765625,1.58349609375,44.059411764705885,215.24051357986997
