AccX,AccY,AccZ,Magnitude,GyroX,GyroY,GyroZ,Temperature,Altitude
-0.0293974609375,-0.0986064453125,1.0022509765625005,1.0075189634876478,0.23974609375,0.40234375,1.38134765625,45.00058823529412,221.0742153612433
-0.0352568359375,-0.0810283203125,1.0637744140625005,1.0674383528743028,0.2939453125,0.43310546875,1.638671875,44.906470588235294,221.0742153612433
-0.0269560546875,-0.1576884765625,1.0637744140625005,1.0757361612119083,0.41259765625,0.36181640625,1.08837890625,45.235882352941175,221.0742153612433
-0.0054716796875,-0.0356181640625,1.0784228515625005,1.079024763229269,0.466796875,0.35595703125,0.478515625,44.906470588235294,221.0742153612433
-0.0040068359375,-0.0888408203125,1.0764697265625005,1.080136944231412,0.48779296875,0.4326171875,0.24609375,45.04764705882353,220.76189730920944
0.0570283203125,-0.0776103515625,1.0442431640625005,1.0486750601013557,0.51953125,0.24560546875,-0.08984375,45.00058823529412,220.76189730920944
0.0765595703125,-0.0947001953125,1.0295947265625005,1.036771332437375,0.55908203125,-0.00390625,-0.24560546875,45.09470588235294,220.76189730920944
0.0545869140625,-0.1215556640625,0.9968798828125,1.005745997460992,0.5732421875,-0.13525390625,-0.56689453125,45.00058823529412,220.76189730920944
0.0116181640625,-0.1069072265625,0.9734423828125,0.9793641863388444,0.54638671875,-0.166015625,-0.9599609375,45.235882352941175,220.76189730920944
-0.0171904296875,-0.0956767578125,0.9485400390625,0.9535081324052992,0.51611328125,-0.0869140625,-1.23095703125,45.00058823529412,220.8529380999192
-0.0289091796875,-0.0868876953125,0.9143603515625,0.9189342004607408,0.52490234375,-0.0732421875,-1.42529296875,44.906470588235294,220.8529380999192
-0.0259794921875,-0.0863994140625,0.8816455078125001,0.8862497358028519,0.5576171875,-0.03271484375,-1.6396484375,45.09470588235294,220.8529380999192
-0.0542998046875,-0.1015361328125,0.8699267578125001,0.8775138853680815,0.552734375,0.03662109375,-1.64404296875,45.33,220.8529380999192
-0.0357451171875,-0.0800517578125,0.8640673828125001,0.8685035632466126,0.501953125,0.05419921875,-1.76953125,45.09470588235294,220.9643926949004
-0.0503935546875,-0.0907939453125,0.8684619140625001,0.8746480132239212,0.40966796875,0.140625,-1.90283203125,45.09470588235294,220.9643926949004
-0.0469755859375,-0.1098369140625,0.8723681640625001,0.880509549655608,0.42138671875,0.1708984375,-1.87158203125,44.85941176470588,220.9643926949004
-0.0264677734375,-0.1191142578125,0.8733447265625001,0.8818275119656279,0.439453125,0.11474609375,-1.77783203125,45.04764705882353,220.9643926949004
-0.0269560546875,-0.1269267578125,0.8801806640625001,0.8896937855928927,0.498046875,0.1123046875,-1.89306640625,45.00058823529412,220.9643926949004
-0.0298857421875,-0.1381572265625,0.8801806640625001,0.8914586800447025,0.34912109375,-0.07763671875,-2.03173828125,45.09470588235294,220.91888952640105
-0.0474638671875,-0.1396220703125,0.8962939453125001,0.9083446359232756,0.328125,-0.0673828125,-2.1103515625,45.00058823529412,220.91888952640105
-0.0704130859375,-0.1479228515625,0.9094775390625,0.9241150181361648,0.294921875,-0.07568359375,-2.0888671875,45.33,220.91888952640105
-0.0743193359375,-0.1552470703125,0.9202197265625,0.9361780608888288,0.27734375,-0.0595703125,-2.0546875,45.09470588235294,220.91888952640105
-0.0777373046875,-0.0346416015625,0.9329150390625,0.9367889832869932,0.25830078125,-0.0478515625,-2.08447265625,45.04764705882353,220.3365992134899
-0.0953154296875,-0.1689189453125,0.9397509765625,0.9595574704894816,0.12646484375,-0.072265625,-2.12255859375,45.04764705882353,220.3365992134899
-0.1089873046875,-0.1615947265625,0.9465869140625,0.966446001652561,0.25390625,-0.10888671875,-2.12646484375,45.235882352941175,220.3365992134899
-0.1211943359375,-0.1518291015625,0.9495166015625,0.9691862152277068,0.2626953125,-0.119140625,-2.03173828125,45.00058823529412,220.3365992134899
-0.1202177734375,-0.1322978515625,0.9412158203125,0.9580408420233744,0.228515625,-0.12841796875,-2.044921875,45.235882352941175,220.3365992134899
-0.1358427734375,-0.1283916015625,0.9514697265625,0.96965576521356,0.2802734375,-0.0546875,-1.88671875,45.04764705882353,220.40880129140257
-0.1236357421875,-0.1210673828125,0.9417041015625,0.957470481438962,0.330078125,-0.06396484375,-1.7001953125,45.09470588235294,220.40880129140257
-0.1265654296875,-0.1181376953125,0.9353564453125,0.9512449751948056,0.38134765625,-0.11572265625,-1.54736328125,45.04764705882353,220.40880129140257
-0.1343779296875,-0.1191142578125,0.9343798828125,0.9514785335497712,0.39990234375,-0.109375,-1.46142578125,45.04764705882353,220.40880129140257
-0.1460966796875,-0.1239970703125,0.9192431640625,0.9390034653490004,0.466796875,-0.099609375,-1.4326171875,44.34176470588236,220.41822238052
-0.1597685546875,-0.1254619140625,0.9114306640625,0.933794698175444,0.48193359375,-0.02490234375,-1.416015625,45.37705882352941,220.41822238052
-0.1675810546875,-0.1259501953125,0.9065478515625,0.9304707780269172,0.52001953125,0.091796875,-1.38427734375,45.00058823529412,220.41822238052
-0.1734404296875,-0.1254619140625,0.9016650390625,0.9267265601017328,0.56591796875,0.2099609375,-1.3203125,45.18882352941176,220.41822238052
-0.1685576171875,-0.1283916015625,0.9085009765625,0.932882681840931,0.5654296875,0.3720703125,-1.2607421875,44.906470588235294,220.41822238052
-0.1495146484375,-0.1322978515625,0.9124072265625,0.933993735904538,0.58642578125,0.4970703125,-1.2490234375,45.18882352941176,220.691328919842
-0.1094755859375,-0.1410869140625,0.9172900390625,0.9345113359394422,0.64208984375,0.390625,-1.39404296875,45.04764705882353,220.691328919842
-0.1099638671875,-0.1552470703125,0.8958056640625001,0.9157846322656332,0.626953125,0.234375,-1.6123046875,45.18882352941176,220.691328919842
-0.1636748046875,-0.1537822265625,0.8953173828125001,0.9230555946757684,0.59326171875,0.3720703125,-1.64697265625,45.04764705882353,220.691328919842
-0.1646513671875,-0.1464580078125,0.9446337890625,0.9699964001003794,0.611328125,0.546875,-1.466796875,45.00058823529412,220.75723859928
-0.1192412109375,-0.1430400390625,0.9802783203125,0.9978098538476854,0.64013671875,0.51708984375,-1.34326171875,44.906470588235294,220.75723859928
-0.0914091796875,-0.1567119140625,0.9836962890625,1.000286284648354,0.6376953125,0.38525390625,-1.3447265625,45.00058823529412,220.75723859928
-0.1055693359375,-0.1786845703125,0.9939501953125,1.0153866510447165,0.595703125,0.34765625,-1.37158203125,44.906470588235294,220.75723859928
-0.0118193359375,-0.1923564453125,1.0139697265625005,1.0321217491848993,0.53564453125,0.31201171875,-1.39013671875,45.00058823529412,220.75723859928
-0.1641630859375,-0.2065166015625,1.0300830078125005,1.0633295013726909,0.45654296875,0.3212890625,-1.3798828125,45.00058823529412,220.77764644977995
-0.1797880859375,-0.2162822265625,1.0364306640625005,1.0739135341269044,0.380859375,0.34716796875,-1.31640625,45.04764705882353,220.77764644977995
-0.1924833984375,-0.2245830078125,1.0510791015625005,1.0919041458908338,0.29833984375,0.36962890625,-1.275390625,45.00058823529412,220.77764644977995
-0.2183623046875,-0.2319072265625,1.0759814453125005,1.1221404228068448,0.248046875,0.34619140625,-1.1982421875,44.906470588235294,220.77764644977995
-0.2452177734375,-0.2348369140625,1.0735400390625005,1.125952196181684,0.22119140625,0.28271484375,-1.12451171875,45.04764705882353,220.69289102023384
-0.2750029296875,-0.2323955078125,1.0710986328125005,1.1299940551175236,0.216796875,0.33935546875,-0.689453125,45.235882352941175,220.69289102023384
-0.2955107421875,-0.2289775390625,1.0940478515625005,1.156156569696271,0.17578125,0.58251953125,-0.38427734375,45.04764705882353,220.69289102023384
-0.2803740234375,-0.2265361328125,1.1282275390625005,1.1844093854690616,0.220703125,0.8525390625,-0.12841796875,44.906470588235294,220.69289102023384
-0.2515654296875,-0.2197001953125,1.1736376953125005,1.2202371823103262,0.193359375,0.98974609375,-0.033203125,44.85941176470588,220.69289102023384
-0.1880888671875,-0.2050517578125,1.1892626953125005,1.2213801225678376,0.1796875,0.8154296875,-0.15478515625,44.85941176470588,219.69628203002867
-0.1583037109375,-0.1860087890625,1.1873095703125005,1.2121729869373987,0.15625,0.4541015625,-0.41357421875,45.33,219.69628203002867
-0.1734404296875,-0.1625712890625,1.1648486328125005,1.1888579999490176,0.1005859375,0.31591796875,-0.41357421875,45.00058823529412,219.69628203002867
-0.2002958984375,-0.1435283203125,1.2014697265625005,1.2264780183553157,0.02197265625,0.56005859375,-0.07373046875,45.235882352941175,219.69628203002867
-0.1690458984375,-0.1332744140625,1.2771533203125005,1.295167629616911,0.00048828125,0.79248046875,0.40087890625,45.00058823529412,220.25813900285328
-0.0987333984375,-0.1230205078125,1.3440478515625005,1.3532726837556563,0.0322265625,0.75439453125,0.70263671875,44.906470588235294,220.25813900285328
-0.0342802734375,-0.1303447265625,1.3543017578125005,1.360991600306053,0.12060546875,0.59326171875,0.841796875,44.906470588235294,220.25813900285328
0.0165009765625,-0.1225322265625,1.3547900390625005,1.3604199640981645,0.189453125,0.40478515625,0.81591796875,44.906470588235294,220.25813900285328
0.0716767578125,-0.1122783203125,1.3460009765625005,1.3525762853643089,0.2900390625,0.3037109375,0.91162109375,44.906470588235294,220.25813900285328
0.1444306640625,-0.0986064453125,1.2893603515625005,1.3011662322547708,0.27685546875,0.318359375,1.03857421875,45.04764705882353,219.99446732369083
0.2259736328125,-0.0976298828125,1.2180712890625005,1.2426959974116123,0.2646484375,0.43359375,1.2392578125,45.00058823529412,219.99446732369083
0.2147431640625,-0.0619853515625,1.1848681640625005,1.2057650585950568,0.28857421875,0.44384765625,1.298828125,45.04764705882353,219.99446732369083
0.1747041015625,-0.0238994140625,1.1150439453125005,1.128900219272437,0.2685546875,0.18115234375,1.3310546875,45.04764705882353,219.99446732369083
0.1405244140625,0.0190693359375,1.0515673828125005,1.0610865709808213,0.25732421875,-0.00048828125,1.3369140625,45.00058823529412,220.5328042586493
0.1434541015625,0.0508076171875,0.9744189453125,0.986231602719818,0.19189453125,-0.3154296875,1.2373046875,45.235882352941175,220.5328042586493
0.1522431640625,0.0713154296875,0.9324267578125,0.9474616246582258,0.02587890625,-0.22998046875,0.998046875,45.00058823529412,220.5328042586493
0.0824189453125,0.0346943359375,0.9490283203125,0.9532320453319508,0.001953125,0.09423828125,0.658203125,45.235882352941175,220.5328042586493
-0.0005888671874999,-0.0424541015625,0.9539111328125,0.9548555633223648,0.0439453125,0.33447265625,0.79443359375,45.37705882352941,220.5328042586493
-0.0206083984375,-0.0693095703125,0.9529345703125,0.9556740123701865,0.0185546875,0.58349609375,0.79296875,45.18882352941176,221.0287960924593
-0.0728544921875,-0.1039775390625,0.9915087890625,0.99960431394106,0.0400390625,0.978515625,0.63232421875,45.00058823529412,221.0287960924593
-0.0977568359375,-0.1405986328125,1.0022509765625005,1.016774997008552,0.09814453125,1.33251953125,0.63916015625,44.85941176470588,221.0287960924593
-0.0987333984375,-0.1440166015625,0.9802783203125,0.9957081152462935,0.068359375,1.34130859375,0.8076171875,45.04764705882353,221.0287960924593
-0.0381865234375,-0.1171611328125,0.9744189453125,0.9821798321071736,-0.01904296875,1.42431640625,0.6357421875,45.00058823529412,221.06175055275492
-0.0215849609375,-0.1010478515625,0.9885791015625,0.9939643951823376,-0.0361328125,1.5029296875,0.4130859375,45.235882352941175,221.06175055275492
-0.0040068359375,-0.1005595703125,0.9978564453125,1.002918624499198,-0.13134765625,1.41064453125,0.42431640625,45.04764705882353,221.06175055275492
-0.0284208984375,-0.1083720703125,1.0256884765625005,1.0317892730809497,-0.16650390625,1.36181640625,0.4248046875,44.906470588235294,221.06175055275492
-0.0035185546874999,-0.1132548828125,1.0051806640625005,1.0115469421203798,-0.18408203125,1.1748046875,0.421875,45.09470588235294,221.06175055275492
0.0277314453125,-0.1044658203125,0.9700244140625,0.9760274097329338,-0.2568359375,1.068359375,0.33984375,45.00058823529412,220.95502268594117
0.0433564453125,-0.0966533203125,0.9514697265625,0.9573485709199576,-0.2998046875,0.951171875,0.35986328125,45.00058823529412,220.95502268594117
0.0267548828125,-0.0795634765625,0.9417041015625,0.9454378802738218,-0.3857421875,0.7958984375,0.47216796875,45.09470588235294,220.95502268594117
-0.0162138671875,-0.0727275390625,0.9148486328125,0.9178780994152556,-0.3837890625,0.71435546875,0.74755859375,45.04764705882353,220.95502268594117
-0.0459990234375,-0.0600322265625,0.8982470703125001,0.9014253034546148,-0.31005859375,0.6005859375,1.0771484375,45.235882352941175,220.66935913803584
-0.0733427734375,-0.0595439453125,0.8743212890625001,0.8794102343882486,-0.21435546875,0.5771484375,1.453125,45.04764705882353,220.66935913803584
-0.0748076171875,-0.0566142578125,0.8533251953125001,0.8584667976876265,-0.158203125,0.57275390625,1.599609375,45.235882352941175,220.66935913803584
-0.0713896484375,-0.0605205078125,0.8411181640625001,0.8463090332058282,-0.08642578125,0.5078125,1.62451171875,45.09470588235294,220.66935913803584
-0.0704130859375,-0.0771220703125,0.8279345703125001,0.8344947388204865,-0.00830078125,0.42431640625,1.7880859375,45.33,220.66935913803584
-0.0440458984375,-0.0771220703125,0.8162158203125001,0.8210335682704211,0.00537109375,0.369140625,1.8212890625,45.09470588235294,220.4449251765973
-0.0513701171875,-0.0986064453125,0.8167041015625001,0.824237653535699,0.07421875,0.31982421875,1.8759765625,45.04764705882353,220.4449251765973
-0.0455107421875,-0.0878642578125,0.8059619140625001,0.8120135235171193,0.12109375,0.31640625,2.14208984375,45.00058823529412,220.4449251765973
-0.0230498046875,-0.0937236328125,0.7942431640625001,0.8000860056917104,0.10595703125,0.17919921875,2.17333984375,45.235882352941175,220.4449251765973
-0.0323271484375,-0.0717509765625,0.7952197265625001,0.799104286484505,0.0283203125,0.046875,2.03662109375,45.04764705882353,220.32877949227972
-0.0816435546875,-0.0790751953125,0.8093798828125001,0.8173214491479451,-0.01318359375,-0.0068359375,2.1923828125,45.235882352941175,220.32877949227972
-0.1031279296875,-0.0702861328125,0.8474658203125001,0.8566059928259345,-0.01708984375,-0.03955078125,2.40185546875,44.906470588235294,220.32877949227972
-0.1192412109375,-0.0580791015625,0.8630908203125001,0.8732224301584636,0.02587890625,-0.11669921875,2.619140625,45.09470588235294,220.32877949227972
-0.1290068359375,-0.0458720703125,0.9065478515625,0.916829328569906,0.03955078125,-0.1669921875,2.71630859375,45.00058823529412,220.32877949227972
-0.1251005859375,-0.0414775390625,0.9207080078125,0.9300934246077917,0.09033203125,-0.185546875,2.77587890625,44.906470588235294,220.47944234859656
-0.1153349609375,-0.0409892578125,0.9270556640625,0.9351013189707504,0.06494140625,-0.19140625,2.77197265625,44.85941176470588,220.47944234859656
-0.1387724609375,-0.0439189453125,0.9568408203125,0.9678486581528696,0.10693359375,-0.232421875,2.71923828125,45.00058823529412,220.47944234859656
-0.1275419921875,-0.0473369140625,0.9563525390625,0.965980290779997,0.04296875,-0.42626953125,2.5947265625,45.00058823529412,220.47944234859656
-0.1431669921875,-0.0448955078125,0.9622119140625,0.9738399056506044,-0.0341796875,-0.48193359375,2.40478515625,44.906470588235294,220.20321413885867
-0.1617216796875,-0.0463603515625,0.9666064453125,0.9811377089876896,0.12353515625,-0.5048828125,2.36279296875,45.47117647058823,220.20321413885867
-0.1563505859375,-0.0424541015625,0.9602587890625,0.9738299638203056,-0.04296875,-0.4951171875,2.22509765625,45.09470588235294,220.20321413885867
-0.1675810546875,-0.0497783203125,0.9412158203125,0.9573131731412876,-0.0703125,-0.4931640625,2.19140625,44.906470588235294,220.20321413885867
-0.1871123046875,-0.0585673828125,0.9363330078125,0.9566402952072304,-0.07666015625,-0.3984375,2.29248046875,45.235882352941175,220.20321413885867
-0.1778349609375,-0.0605205078125,0.9299853515625,0.948768021867491,-0.13671875,-0.4140625,2.2724609375,45.04764705882353,220.32092109674377
-0.1583037109375,-0.0468486328125,0.9407275390625,0.9551037441260356,-0.1435546875,-0.40478515625,2.15478515625,45.42411764705882,220.32092109674377
-0.1617216796875,-0.0346416015625,0.9329150390625,0.9474620901908146,-0.16455078125,-0.3505859375,2.130859375,44.906470588235294,220.32092109674377
-0.1631865234375,-0.0248759765625,0.9387744140625,0.9531768231235724,-0.18310546875,-0.31494140625,2.11328125,45.235882352941175,220.32092109674377
-0.1587919921875,-0.0092509765624999,0.9446337890625,0.9579318727283328,-0.19873046875,-0.24609375,2.00341796875,44.81235294117647,220.5955888751353
-0.1553740234375,-0.0048564453124999,0.9534228515625,0.966012321920274,-0.17236328125,-0.16748046875,1.9267578125,45.09470588235294,220.5955888751353
-0.1548857421875,0.0039326171875,0.9739306640625,0.9861774673009612,-0.19140625,-0.09423828125,1.787109375,45.04764705882353,220.5955888751353
-0.1558623046875,0.0093037109375,0.9876025390625,0.9998691875552544,-0.17236328125,-0.06494140625,1.6708984375,45.04764705882353,220.5955888751353
-0.1602568359375,0.0112568359375,0.9929736328125,1.005885483184282,-0.1435546875,-0.05712890625,1.56298828125,45.235882352941175,220.5955888751353
-0.1656279296875,0.0014912109375,0.9993212890625,1.0129550205098763,-0.17431640625,-0.02099609375,1.42333984375,45.235882352941175,220.5296797136732
-0.1861357421875,-0.0107158203124999,1.0032275390625005,1.0204052324728945,-0.20751953125,-0.0205078125,1.27099609375,45.00058823529412,220.5296797136732
-0.1832060546875,0.0005146484375,1.0056689453125005,1.0222205001383655,-0.25537109375,-0.0458984375,0.93798828125,45.04764705882353,220.5296797136732
-0.2105498046875,-0.0121806640624999,1.0095751953125005,1.0313688301578738,-0.31640625,-0.0302734375,0.732421875,44.906470588235294,220.5296797136732
-0.2305693359375,-0.0312236328125,1.0203173828125005,1.0465107240683298,-0.33984375,-0.0400390625,0.72705078125,45.04764705882353,220.1168986723437
-0.2437529296875,-0.0302470703125,1.0339892578125005,1.0627625140478816,-0.359375,0.10205078125,0.76611328125,45.00058823529412,220.1168986723437
-0.2955107421875,-0.0488017578125,1.0408251953125005,1.083062924077406,-0.39892578125,0.36669921875,0.82666015625,44.906470588235294,220.1168986723437
-0.3301787109375,-0.0605205078125,1.0535205078125005,1.1057061876483012,-0.48046875,0.65576171875,0.95556640625,45.09470588235294,220.1168986723437
-0.3394560546875,-0.0761455078125,1.0750048828125005,1.1298955922981309,-0.51513671875,0.9091796875,1.0859375,44.24764705882353,220.1168986723437
-0.3614287109375,-0.0859111328125,1.1209033203125005,1.180862265176874,-0.603515625,1.20556640625,1.15234375,44.906470588235294,219.90658706364675
-0.3589873046875,-0.0771220703125,1.1458056640625005,1.2032000326021397,-0.59765625,1.47900390625,1.1484375,44.81235294117647,219.90658706364675
-0.3418974609375,-0.0780986328125,1.2073291015625005,1.2572338007397053,-0.50537109375,1.72998046875,1.08203125,45.18882352941176,219.90658706364675
-0.3355498046875,-0.0331767578125,1.2356494140625005,1.2808293575483696,-0.3525390625,1.9658203125,1.26025390625,44.85941176470588,219.90658706364675
-0.2667021484375,0.0136982421875,1.2722705078125005,1.2999961241748696,-0.1552734375,1.95361328125,1.43798828125,45.04764705882353,219.75905962302645
-0.1885771484375,0.0537373046875,1.2795947265625005,1.2945314608283789,0.09765625,1.58251953125,1.29248046875,45.00058823529412,219.75905962302645
-0.1382841796875,0.0674091796875,1.2766650390625005,1.2859005147453832,0.484375,1.166015625,0.9658203125,45.04764705882353,219.75905962302645
-0.1172880859375,0.0493427734375,1.2595751953125005,1.2659861282967957,0.56005859375,1.01953125,0.482421875,45.33,219.75905962302645
-0.0782255859375,-0.0102275390624999,1.2737353515625005,1.2761761597328898,0.57861328125,1.0556640625,0.18408203125,45.04764705882353,219.75905962302645
-0.0254912109375,-0.0815166015625,1.2239306640625005,1.2269070986011257,0.32470703125,1.0673828125,-0.22021484375,45.00058823529412,219.98035185246607
-0.0323271484375,-0.1249736328125,1.1926806640625005,1.199646039402048,0.1513671875,1.10595703125,-0.34521484375,45.00058823529412,219.98035185246607
-0.0591826171875,-0.1464580078125,1.2019580078125005,1.2122935217075783,0.056640625,1.53662109375,-0.4833984375,45.09470588235294,219.98035185246607
-0.0489287109375,-0.1322978515625,1.2659228515625005,1.2737572007216251,0.05810546875,2.07421875,-0.5439453125,44.85941176470588,219.98035185246607
0.0682587890625,-0.1088603515625,1.2747119140625005,1.2811714570187214,0.21923828125,1.9560546875,-0.76611328125,45.00058823529412,219.74807460312377
0.1947236328125,-0.1142314453125,1.1589892578125005,1.1807718729706642,0.25,1.2724609375,-1.2431640625,45.235882352941175,219.74807460312377
0.2625947265625,-0.1469462890625,1.0447314453125005,1.0872042104004287,0.3818359375,0.76123046875,-1.80517578125,45.37705882352941,219.74807460312377
0.2577119140625,-0.2084697265625,0.9905322265625,1.0445234077806322,0.28076171875,0.51513671875,-2.15673828125,45.09470588235294,219.74807460312377
0.2455048828125,-0.2470439453125,0.9778369140625,1.03801174796031,0.06396484375,0.3779296875,-2.35009765625,45.235882352941175,219.74807460312377
0.1937470703125,-0.2553447265625,0.9900439453125,1.0406372424086576,0.00439453125,0.32275390625,-2.46044921875,45.00058823529412,220.8781292572544
0.1283173828125,-0.2660869140625,0.9734423828125,1.0172795433030353,0.0673828125,0.13037109375,-2.169921875,45.00058823529412,220.8781292572544
-0.0254912109375,-0.3022197265625,0.9207080078125,0.969375985161916,-0.09619140625,-0.29150390625,-0.85498046875,44.906470588235294,220.8781292572544
-0.0259794921875,-0.1484111328125,1.0608447265625005,1.0714907056211342,0.3125,-0.41455078125,0.30126953125,44.85941176470588,220.8781292572544
-0.0074248046875,-0.0629619140625,0.9959033203125,0.9979192120389924,0.7880859375,-0.29833984375,0.36474609375,44.906470588235294,221.22028415116932
-0.0455107421875,-0.0610087890625,0.9900439453125,0.9929654141244146,0.49560546875,-0.53125,0.51171875,45.04764705882353,221.22028415116932
-0.1041044921875,-0.0409892578125,1.0066455078125005,1.0128440368332745,0.70458984375,-0.30712890625,0.84326171875,44.906470588235294,221.22028415116932
-0.1260771484375,-0.0683330078125,1.0017626953125005,1.0119749725337084,0.9814453125,0.015625,1.33984375,44.906470588235294,221.22028415116932
-0.0928740234375,-0.0536845703125,0.9988330078125,1.0045770228384048,0.91357421875,0.13330078125,1.6552734375,45.235882352941175,221.22028415116932
-0.0450224609375,-0.0336650390625,1.0183642578125005,1.0199147603765488,0.96044921875,0.078125,1.61083984375,44.85941176470588,221.1794639719539
-0.0401396484375,-0.0278056640625,1.0120166015625005,1.013193934135393,1.0703125,-0.0517578125,1.45751953125,45.09470588235294,221.1794639719539
-0.0552763671875,-0.0341533203125,0.9768603515625,0.9790189336844446,1.10009765625,-0.08154296875,1.24609375,45.235882352941175,221.1794639719539
-0.0767607421875,-0.0409892578125,0.9534228515625,0.9573857449736572,1.1220703125,-0.0166015625,1.01416015625,45.04764705882353,221.1794639719539
-0.0713896484375,-0.0458720703125,0.9290087890625,0.9328762291398348,1.07568359375,0.05908203125,0.576171875,45.235882352941175,220.8263259196531
-0.0821318359375,-0.0610087890625,0.8972705078125001,0.9030847551627912,0.9951171875,0.15234375,0.177734375,45.00058823529412,220.8263259196531
-0.0782255859375,-0.0780986328125,0.8796923828125001,0.8866100197498227,0.89404296875,0.267578125,-0.14111328125,44.906470588235294,220.8263259196531
-0.0626005859375,-0.0849345703125,0.8518603515625001,0.8583698347204854,0.765625,0.34814453125,-0.44677734375,45.04764705882353,220.8263259196531
-0.0733427734375,-0.0947001953125,0.8484423828125001,0.8568557441951843,0.65087890625,0.44775390625,-0.63720703125,45.09470588235294,220.8263259196531
-0.0826201171875,-0.1117900390625,0.8411181640625001,0.8525273382792732,0.677734375,0.5380859375,-0.52099609375,45.235882352941175,220.75255381306275
-0.0479521484375,-0.0771220703125,0.8264697265625001,0.8314441840516728,0.68603515625,0.31201171875,-0.783203125,44.85941176470588,220.75255381306275
-0.0684599609375,-0.0561259765625,0.8401416015625001,0.8447927569366708,0.54248046875,0.50830078125,-1.29736328125,45.00058823529412,220.75255381306275
-0.0611357421875,-0.0434306640625,0.8489306640625001,0.8522365129113653,0.52783203125,0.58837890625,-1.59423828125,45.235882352941175,220.75255381306275
-0.0557646484375,-0.0312236328125,0.8508837890625001,0.8532806301274657,0.43603515625,0.4921875,-1.68310546875,45.235882352941175,220.47944234859656
-0.0840849609375,-0.0419658203125,0.8704150390625001,0.8754734438899534,0.40673828125,0.46728515625,-1.4404296875,45.04764705882353,220.47944234859656
-0.0723662109375,-0.0575908203125,0.8938525390625001,0.8986244669817285,0.3095703125,0.306640625,-1.52197265625,45.09470588235294,220.47944234859656
-0.0684599609375,-0.0722392578125,0.9031298828125,0.9085971944980816,0.21533203125,0.048828125,-1.3759765625,44.81235294117647,220.47944234859656
-0.0557646484375,-0.0771220703125,0.8992236328125001,0.904245902148942,0.076171875,-0.2646484375,-1.6162109375,45.00058823529412,220.47944234859656
-0.0855498046875,-0.0800517578125,0.9099658203125,0.9174774368604068,0.10693359375,-0.4375,-1.53466796875,45.235882352941175,219.98035185246607
-0.1001982421875,-0.0927470703125,0.9021533203125,0.9124266108240624,0.11962890625,-0.46826171875,-1.69677734375,45.235882352941175,219.98035185246607
-0.1431669921875,-0.0927470703125,0.9128955078125,0.9286964061994694,0.0439453125,-0.400390625,-1.7216796875,45.18882352941176,219.98035185246607
-0.1529326171875,-0.0951884765625,0.9089892578125,0.9266664460789696,0.03662109375,-0.365234375,-1.830078125,45.00058823529412,219.98035185246607
-0.1714873046875,-0.1073955078125,0.8977587890625001,0.920278508988586,0.02490234375,-0.365234375,-1.90771484375,45.235882352941175,220.2330417928089
-0.1900419921875,-0.1117900390625,0.8889697265625001,0.9159040049987746,-0.05615234375,-0.4521484375,-1.88916015625,45.09470588235294,220.2330417928089
-0.1963896484375,-0.1098369140625,0.8826220703125001,0.9108538635296562,-0.11181640625,-0.447265625,-1.87548828125,45.18882352941176,220.2330417928089
-0.2100615234375,-0.1059306640625,0.8630908203125001,0.8945797411775598,-0.12158203125,-0.40673828125,-1.8095703125,45.18882352941176,220.2330417928089
-0.2090849609375,-0.1015361328125,0.8630908203125001,0.8938410771856806,-0.1103515625,-0.32421875,-1.74169921875,45.00058823529412,220.2330417928089
-0.2129912109375,-0.0907939453125,0.8611376953125001,0.8917213279551836,-0.24951171875,-0.21484375,-1.66357421875,45.00058823529412,220.2550115352816
-0.2139677734375,-0.0844462890625,0.8635791015625001,0.893690241896891,-0.1416015625,-0.09423828125,-1.61328125,44.906470588235294,220.2550115352816
-0.2232451171875,-0.0854228515625,0.8645556640625001,0.8969904916885574,-0.1025390625,-0.0048828125,-1.50146484375,45.00058823529412,220.2550115352816
-0.2222685546875,-0.0746806640625,0.8728564453125001,0.9038024596731632,-0.05712890625,0.19970703125,-1.37744140625,44.48294117647059,220.2550115352816
-0.1900419921875,-0.0697978515625,0.9055712890625,0.9279262139047764,-0.013671875,0.44091796875,-1.2607421875,45.00058823529412,220.2251840427038
-0.1382841796875,-0.0776103515625,0.9451220703125,0.9583327234386216,0.0537109375,0.56689453125,-1.28466796875,44.906470588235294,220.2251840427038
-0.1055693359375,-0.0863994140625,0.9768603515625,0.98633964226094,0.13427734375,0.4853515625,-1.40576171875,45.00058823529412,220.2251840427038
-0.1124052734375,-0.0907939453125,0.9949267578125,1.0053644808790796,0.1943359375,0.37109375,-1.48779296875,45.09470588235294,220.2251840427038
-0.1631865234375,-0.0771220703125,1.0149462890625005,1.0308703239703063,0.25927734375,0.47021484375,-1.40771484375,45.235882352941175,220.2251840427038
-0.1910185546875,-0.0702861328125,1.0442431640625005,1.063894738398447,0.35546875,0.640625,-1.18701171875,45.04764705882353,220.86084122039563
-0.1944365234375,-0.0785869140625,1.0818408203125005,1.1019805012806496,0.45068359375,0.78173828125,-0.97216796875,44.85941176470588,220.86084122039563
-0.1714873046875,-0.0956767578125,1.1126025390625005,1.1297992510100268,0.51318359375,0.76123046875,-0.974609375,45.09470588235294,220.86084122039563
-0.1583037109375,-0.1171611328125,1.1316455078125005,1.14865501839791,0.544921875,0.75830078125,-1.22021484375,45.04764705882353,220.86084122039563
-0.1783232421875,-0.1313212890625,1.1580126953125005,1.1789986692826333,0.521484375,0.87548828125,-1.41748046875,45.09470588235294,220.15927449818804
-0.1939482421875,-0.1488994140625,1.2200244140625005,1.244285548844928,0.45361328125,1.00537109375,-1.4970703125,45.09470588235294,220.15927449818804
-0.1866240234375,-0.1811259765625,1.3015673828125005,1.3272952940137706,0.3447265625,1.13134765625,-1.513671875,45.00058823529412,220.15927449818804
-0.1456083984375,-0.2309306640625,1.3787158203125005,1.4054850018694087,0.197265625,0.9931640625,-1.6982421875,44.85941176470588,220.15927449818804
-0.0884794921875,-0.2709697265625,1.4255908203125005,1.4538096162188436,0.08203125,0.4892578125,-2.18505859375,44.906470588235294,220.15927449818804
-0.0787138671875,-0.2797587890625,1.3796923828125005,1.4099687670782508,-0.10546875,-0.13720703125,-2.76611328125,45.00058823529412,220.1718232857129
-0.1387724609375,-0.2333720703125,1.3396533203125005,1.3668911213922266,-0.39990234375,-0.4521484375,-2.90234375,45.00058823529412,220.1718232857129
-0.2037138671875,-0.1445048828125,1.3787158203125005,1.4011560634066111,-0.60400390625,-0.4736328125,-2.462890625,44.81235294117647,220.1718232857129
-0.2310576171875,-0.0439189453125,1.4368212890625005,1.4559436503247485,-0.4599609375,-0.376953125,-1.33349609375,45.04764705882353,220.1718232857129
-0.1456083984375,0.0288349609375,1.4441455078125005,1.4517539420999777,-0.12255859375,-0.30224609375,0.19873046875,44.85941176470588,220.11846270061648
-0.0059599609375,0.0678974609375,1.3645556640625005,1.3662568377362974,0.3671875,-0.71728515625,1.71533203125,45.04764705882353,220.11846270061648
0.0414033203125,0.0478779296875,1.3333056640625005,1.334807298790805,0.4853515625,-0.95849609375,2.90625,45.00058823529412,220.11846270061648
0.0189423828125,-0.0146220703124999,1.2708056640625005,1.2710309416454704,0.6728515625,-0.9345703125,3.34423828125,45.09470588235294,220.11846270061648
-0.0010771484374999,-0.0756572265625,1.1755908203125005,1.1780233244647167,0.75,-0.56005859375,3.015625,45.00058823529412,220.11846270061648
0.0091767578125,-0.0844462890625,1.2034228515625005,1.206416987729863,0.6318359375,-0.0849609375,2.20556640625,45.235882352941175,219.90502207911223
0.0580048828125,-0.0492900390625,0.9876025390625,0.9905315994674636,0.4404296875,0.11962890625,1.3603515625,45.04764705882353,219.90502207911223
0.1102509765625,-0.0004619140624999,0.9241259765625,0.9306794892739284,0.19873046875,0.29736328125,0.5244140625,45.00058823529412,219.90502207911223
0.1126923828125,0.0156513671875,0.8845751953125001,0.891861993024114,0.0947265625,0.36962890625,0.0888671875,44.85941176470588,219.90502207911223
0.1014619140625,0.0351826171875,0.8645556640625001,0.8711996515265251,-0.08544921875,0.36572265625,-0.33203125,45.04764705882353,221.19987393807884
0.1039033203125,0.0381123046875,0.8337939453125001,0.8411068843971847,-0.10693359375,0.6044921875,-0.54736328125,45.00058823529412,221.19987393807884
0.1058564453125,0.0532490234375,0.8132861328125001,0.8218730919894854,-0.23828125,0.69873046875,-0.93017578125,45.18882352941176,221.19987393807884
0.0116181640625,0.0322529296875,0.8484423828125001,0.8491346831699685,-0.31396484375,0.7939453125,-1.18994140625,45.00058823529412,221.19987393807884
-0.0352568359375,0.0171162109375,0.8694384765625001,0.8703213623050405,-0.30322265625,0.82421875,-0.7509765625,45.00058823529412,221.19987393807884
0.0057587890625,0.0278583984375,0.8684619140625001,0.8689277013607462,-0.25390625,0.666015625,-0.4248046875,45.00058823529412,221.7178709518224
0.0604462890625,0.0215107421875,0.8977587890625001,0.9000485038206835,-0.25390625,0.53076171875,-0.44580078125,45.09470588235294,221.7178709518224
0.0575166015625,0.0063740234375,0.9075244140625,0.9093675548146444,-0.27001953125,0.2763671875,-0.45751953125,45.00058823529412,221.7178709518224
-0.0245146484375,-0.0531962890625,0.9299853515625,0.931828078176904,-0.24853515625,0.1826171875,-0.1982421875,45.09470588235294,221.7178709518224
-0.0445341796875,-0.0331767578125,0.9592822265625,0.9608883289009684,-0.28369140625,0.17431640625,-0.1982421875,45.18882352941176,221.0507657187418
-0.0606474609375,-0.0463603515625,0.9587939453125,0.9618280648239964,-0.2958984375,0.1142578125,-0.38916015625,45.04764705882353,221.0507657187418
-0.0503935546875,-0.0771220703125,0.9451220703125,0.949601522679442,-0.3564453125,0.0146484375,-0.5654296875,45.235882352941175,221.0507657187418
-0.0367216796875,-0.0907939453125,0.9368212890625,0.9419268283179988,-0.39892578125,-0.13037109375,-0.67724609375,44.85941176470588,221.0507657187418
-0.0318388671875,-0.0937236328125,0.9211962890625,0.926499020935196,-0.46435546875,-0.24560546875,-0.81201171875,45.00058823529412,221.0507657187418
-0.0240263671875,-0.0912822265625,0.9055712890625,0.9104773861995444,-0.56005859375,-0.32177734375,-0.943359375,45.37705882352941,220.75255381306275
-0.0274443359375,-0.0859111328125,0.9124072265625,0.9168537840897264,-0.64306640625,-0.33544921875,-1.05810546875,45.235882352941175,220.75255381306275
-0.0440458984375,-0.0746806640625,0.8909228515625001,0.8951317054993858,-0.65234375,-0.39013671875,-1.07275390625,45.04764705882353,220.75255381306275
-0.0523466796875,-0.0502666015625,0.8626025390625001,0.8656500716247996,-0.6474609375,-0.35400390625,-0.95751953125,45.18882352941176,220.75255381306275
-0.0557646484375,-0.0234111328125,0.8274462890625001,0.8296536255801121,-0.59814453125,-0.4052734375,-0.83935546875,45.00058823529412,220.77452345024605
-0.0796904296875,-0.0155986328124999,0.8225634765625001,0.8265618881269473,-0.56494140625,-0.4130859375,-0.63525390625,45.09470588235294,220.77452345024605
-0.1016630859375,-0.0209697265625,0.8240283203125001,0.8305406583373759,-0.48388671875,-0.39794921875,-0.24365234375,45.00058823529412,220.77452345024605
-0.1026396484375,-0.0121806640624999,0.8337939453125001,0.8401759394603975,-0.47998046875,-0.4169921875,-0.00244140625,45.00058823529412,220.77452345024605
-0.1026396484375,-0.0224345703125,0.8674853515625001,0.8738243774077228,-0.41259765625,-0.287109375,0.15771484375,45.00058823529412,220.77452345024605
-0.1167998046875,-0.0458720703125,0.8835986328125001,0.8924645567852609,-0.27587890625,-0.13916015625,0.443359375,45.09470588235294,220.5532115553424
-0.1172880859375,-0.0483134765625,0.9085009765625,0.917313856613675,-0.1796875,-0.13037109375,0.6767578125,45.00058823529412,220.5532115553424
-0.0806669921875,-0.0473369140625,0.9094775390625,0.914274215495942,-0.2216796875,-0.2216796875,0.63818359375,44.85941176470588,220.5532115553424
-0.0992216796875,-0.0473369140625,0.9041064453125,0.9107657160920004,-0.130859375,-0.39794921875,0.62939453125,45.09470588235294,220.5532115553424
-0.1163115234375,-0.0619853515625,0.9060595703125,0.9155951612189478,-0.1552734375,-0.5068359375,0.71337890625,45.09470588235294,219.7684787236689
-0.1226591796875,-0.0580791015625,0.9094775390625,0.919547633599858,-0.1484375,-0.56494140625,0.76220703125,45.04764705882353,219.7684787236689
-0.1231474609375,-0.0473369140625,0.9187548828125,0.9281791935074414,-0.13818359375,-0.55908203125,0.81298828125,45.09470588235294,219.7684787236689
-0.1255888671875,-0.0424541015625,0.9124072265625,0.9219879941649956,-0.17578125,-0.572265625,0.8203125,45.37705882352941,219.7684787236689
-0.1363310546875,-0.0409892578125,0.9124072265625,0.923446383290172,-0.13720703125,-0.517578125,0.91650390625,45.09470588235294,219.7684787236689
-0.1373076171875,-0.0292705078125,0.9133837890625,0.9241104319763306,-0.0966796875,-0.46728515625,0.978515625,45.00058823529412,219.89560209377177
-0.1431669921875,-0.0317119140625,0.9026416015625,0.914474873365495,-0.0888671875,-0.47119140625,1.03369140625,45.00058823529412,219.89560209377177
-0.1417021484375,-0.0307353515625,0.9006884765625001,0.912284984267499,-0.09033203125,-0.42626953125,1.083984375,45.00058823529412,219.89560209377177
-0.1475615234375,-0.0351298828125,0.9011767578125,0.9138534131287496,-0.1201171875,-0.4111328125,1.09375,45.04764705882353,219.89560209377177
-0.1490263671875,-0.0429423828125,0.9045947265625,0.917793291369796,-0.15771484375,-0.37548828125,1.03662109375,45.09470588235294,220.3413274925696
-0.1607451171875,-0.0517314453125,0.9075244140625,0.9231011305665416,-0.1962890625,-0.3359375,0.9736328125,45.18882352941176,220.3413274925696
-0.1661162109375,-0.0541728515625,0.9236376953125,0.9400190878832362,-0.26904296875,-0.30078125,0.91943359375,45.04764705882353,220.3413274925696
-0.1802763671875,-0.0527080078125,0.9363330078125,0.9549854471001578,-0.31494140625,-0.19873046875,0.89111328125,45.235882352941175,220.3413274925696
-0.1709990234375,-0.0600322265625,0.9504931640625,0.9676165506915292,-0.36083984375,-0.15185546875,0.93994140625,45.00058823529412,220.3413274925696
-0.1739287109375,-0.0531962890625,0.9768603515625,0.9936484227900796,-0.36279296875,-0.07177734375,0.982421875,44.906470588235294,220.35074924040453
-0.1524443359375,-0.0444072265625,1.0032275390625005,1.0157149070796387,-0.4033203125,-0.05224609375,1.11181640625,45.235882352941175,220.35074924040453
-0.1285185546875,-0.0405009765625,0.9998095703125,1.008849109079225,-0.40625,-0.17919921875,1.2021484375,44.906470588235294,220.35074924040453
-0.1319365234375,-0.0287822265625,0.9885791015625,0.9977596418119892,-0.39306640625,-0.1494140625,1.14990234375,45.09470588235294,220.35074924040453
-0.1358427734375,-0.0336650390625,1.0071337890625005,1.0168112229030817,-0.40966796875,0.064453125,1.07177734375,45.00058823529412,220.39312590052077
-0.1260771484375,-0.0507548828125,1.0281298828125005,1.037074038542807,-0.46142578125,0.23681640625,0.9853515625,45.00058823529412,220.39312590052077
-0.1211943359375,-0.0561259765625,1.0256884765625005,1.034347641396029,-0.5166015625,0.306640625,0.91943359375,45.04764705882353,220.39312590052077
-0.1334013671875,-0.0395244140625,1.0305712890625005,1.03992080752066,-0.55517578125,0.36669921875,0.85791015625,45.00058823529412,220.39312590052077
-0.1631865234375,-0.0229228515625,1.0437548828125005,1.0566832798669197,-0.55322265625,0.4814453125,0.87841796875,45.18882352941176,220.39312590052077
-0.1939482421875,-0.0082744140624999,1.0535205078125005,1.071256200428827,-0.48095703125,0.58349609375,0.89306640625,45.00058823529412,220.3303425642515
-0.2203154296875,0.0039326171875,1.0735400390625005,1.0959208773933662,-0.416015625,0.73779296875,0.89013671875,44.81235294117647,220.3303425642515
-0.2408232421875,0.0014912109375,1.1008837890625005,1.126917554530218,-0.3271484375,0.94189453125,0.818359375,45.04764705882353,220.3303425642515
-0.2608427734375,-0.0053447265624999,1.1638720703125005,1.1927555133429903,-0.28076171875,1.30029296875,0.779296875,45.09470588235294,220.3303425642515
-0.2730498046875,-0.0160869140625,1.2498095703125005,1.279390068231207,-0.26123046875,1.50048828125,0.7978515625,45.00058823529412,219.85322746801137
-0.2417998046875,-0.0238994140625,1.3337939453125005,1.355745040961511,-0.134765625,1.56396484375,0.8994140625,45.235882352941175,219.85322746801137
-0.1768583984375,-0.0292705078125,1.3460009765625005,1.3578859615713992,0.05615234375,1.0771484375,0.865234375,45.00058823529412,219.85322746801137
-0.1148466796875,-0.0322001953125,1.3191455078125005,1.3245268903254872,0.17822265625,0.70849609375,0.5498046875,45.04764705882353,219.85322746801137
-0.0655302734375,-0.0458720703125,1.3040087890625005,1.3064598675519263,0.1708984375,0.77880859375,0.0810546875,45.33,219.85322746801137
0.0067353515625,-0.0751689453125,1.3196337890625005,1.321790101542418,0.13818359375,0.8779296875,-0.39404296875,45.04764705882353,219.7151196269379
0.0799775390625,-0.1030009765625,1.2996142578125005,1.3061404315910514,-0.0537109375,0.9931640625,-0.93359375,44.906470588235294,219.7151196269379
0.1219697265625,-0.0878642578125,1.2644580078125005,1.2733620048987755,-0.1494140625,0.8857421875,-1.41259765625,45.00058823529412,219.7151196269379
0.1375947265625,-0.1005595703125,1.2195361328125005,1.231386582351177,-0.17236328125,0.75830078125,-1.95458984375,45.04764705882353,219.7151196269379
0.1341767578125,-0.1200908203125,1.1926806640625005,1.2061974854429809,-0.22509765625,0.62890625,-2.3603515625,45.09470588235294,220.0776518907498
0.1180634765625,-0.1474345703125,1.1575244140625005,1.172833622544984,-0.24755859375,0.38134765625,-2.51953125,45.00058823529412,220.0776518907498
0.0985322265625,-0.1620830078125,1.0911181640625005,1.1074828888249388,-0.22412109375,0.1962890625,-2.431640625,45.00058823529412,220.0776518907498
0.0648408203125,-0.1694072265625,1.0256884765625005,1.0416045273247898,-0.20703125,0.099609375,-2.1845703125,44.85941176470588,220.0776518907498
0.0374970703125,-0.1816142578125,0.9617236328125,0.9794396943318552,-0.25341796875,0.07470703125,-1.7626953125,45.18882352941176,220.0776518907498
0.0038056640625,-0.1850322265625,0.9460986328125,0.9640300985733354,-0.17919921875,0.29638671875,-1.369140625,45.04764705882353,220.60657378409164
-0.0123076171875,-0.2309306640625,0.8982470703125001,0.9275388123254846,-0.0009765625,0.4423828125,-0.57275390625,45.00058823529412,220.60657378409164
-0.0274443359375,-0.2865947265625,0.8694384765625001,0.915867344868134,0.0849609375,0.4365234375,0.259765625,45.04764705882353,220.60657378409164
0.0086884765625,-0.2988017578125,0.9085009765625,0.9564162297409184,0.1455078125,0.74169921875,0.642578125,45.04764705882353,220.60657378409164
0.0008759765625,-0.3398173828125,0.9055712890625,0.967231089538996,0.0390625,0.77099609375,1.0869140625,44.34176470588236,221.39136401537888
-0.0010771484374999,-0.3290751953125,0.9465869140625,1.0021568890613304,-0.193359375,0.70849609375,1.89111328125,44.85941176470588,221.39136401537888
0.0638642578125,-0.2138408203125,1.0276416015625005,1.0515958354424026,0.04345703125,0.6123046875,2.00048828125,45.04764705882353,221.39136401537888
0.0750947265625,-0.1386455078125,1.0515673828125005,1.0633229779277855,0.17138671875,0.7783203125,0.97216796875,45.09470588235294,221.39136401537888
0.0038056640625,-0.1601298828125,1.0266650390625005,1.0390847727118837,0.37939453125,0.40283203125,0.583984375,45.37705882352941,221.39136401537888
-0.0440458984375,-0.1523173828125,1.0022509765625005,1.0147155494504367,0.35791015625,0.15234375,0.814453125,45.18882352941176,221.3144704490545
-0.0611357421875,-0.1147197265625,1.0252001953125005,1.0334087454169236,0.392578125,0.185546875,1.0869140625,44.906470588235294,221.3144704490545
-0.0723662109375,-0.0912822265625,1.0418017578125005,1.048293954934814,0.47705078125,0.2412109375,1.4267578125,45.04764705882353,221.3144704490545
-0.0752958984375,-0.0937236328125,1.0603564453125005,1.0671501219532535,0.53369140625,0.32080078125,1.6044921875,45.00058823529412,221.3144704490545
-0.0201201171875,-0.0756572265625,0.9880908203125,0.9911873204559254,0.70458984375,0.01513671875,1.38330078125,45.04764705882353,221.07273540069917
0.0340791015625,-0.0741923828125,0.9417041015625,0.945236747979224,0.6181640625,-0.2685546875,0.80322265625,45.09470588235294,221.07273540069917
0.0145478515625,-0.1196025390625,0.9016650390625,0.9096792016985225,0.517578125,-0.25244140625,0.23876953125,45.04764705882353,221.07273540069917
0.0033173828125,-0.1264384765625,0.8640673828125001,0.8732755209122801,0.37255859375,-0.48388671875,-0.19970703125,45.00058823529412,221.07273540069917
-0.0284208984375,-0.1337626953125,0.8503955078125001,0.861320338685288,0.37158203125,-0.47705078125,-0.36962890625,45.235882352941175,221.07273540069917
-0.0562529296875,-0.1405986328125,0.8127978515625001,0.8267845639293145,0.3544921875,-0.48828125,-0.3642578125,45.00058823529412,220.9346135206428
-0.0743193359375,-0.1366923828125,0.7839892578125001,0.7992792550658028,0.3505859375,-0.5595703125,-0.29833984375,45.00058823529412,220.9346135206428
-0.1075224609375,-0.1474345703125,0.7835009765625001,0.8044698952749438,0.33056640625,-0.529296875,-0.14013671875,44.906470588235294,220.9346135206428
-0.1265654296875,-0.1357158203125,0.7854541015625001,0.807078520056401,0.34130859375,-0.34521484375,-0.1533203125,45.00058823529412,220.9346135206428
-0.1089873046875,-0.1235087890625,0.7922900390625001,0.8092318330097927,0.39111328125,-0.3037109375,-0.333984375,45.00058823529412,220.691328919842
-0.0879912109375,-0.1186259765625,0.7883837890625001,0.8020994791010645,0.41162109375,-0.326171875,-0.4658203125,45.04764705882353,220.691328919842
-0.0948271484375,-0.1430400390625,0.8001025390625001,0.8183011144255203,0.43798828125,-0.345703125,-0.369140625,45.04764705882353,220.691328919842
-0.0806669921875,-0.1474345703125,0.8093798828125001,0.8266437629676922,0.41015625,-0.4931640625,-0.34228515625,45.04764705882353,220.691328919842
-0.0899443359375,-0.1464580078125,0.8308642578125001,0.84845468148273,0.283203125,-0.51513671875,-0.38037109375,45.00058823529412,220.691328919842
-0.0787138671875,-0.1567119140625,0.8430712890625001,0.8611177012106123,0.1884765625,-0.50634765625,-0.43115234375,45.235882352941175,220.60657378409164
-0.0816435546875,-0.1591533203125,0.8572314453125001,0.8756946957821897,0.16943359375,-0.50244140625,-0.46875,45.04764705882353,220.60657378409164
-0.0923857421875,-0.1645244140625,0.8616259765625001,0.8820446313364342,0.17529296875,-0.4248046875,-0.49560546875,45.04764705882353,220.60657378409164
-0.1041044921875,-0.1679423828125,0.8699267578125001,0.892084611007569,0.14453125,-0.4990234375,-0.5263671875,45.235882352941175,220.60657378409164
-0.1324248046875,-0.1625712890625,0.8713916015625001,0.8962639545343907,0.10205078125,-0.33447265625,-0.576171875,45.18882352941176,220.3303425642515
-0.1563505859375,-0.1708720703125,0.8826220703125001,0.912504514585327,0.109375,-0.2978515625,-0.65478515625,45.04764705882353,220.3303425642515
-0.1636748046875,-0.1684306640625,0.8767626953125001,0.9076734843420656,0.10888671875,-0.27197265625,-0.68115234375,44.906470588235294,220.3303425642515
-0.1792998046875,-0.1674541015625,0.8767626953125001,0.9104406185922944,0.07421875,-0.23974609375,-0.6708984375,44.81235294117647,220.3303425642515
-0.1939482421875,-0.1650126953125,0.8831103515625001,0.919091400949198,0.0869140625,-0.2080078125,-0.63232421875,45.00058823529412,220.3303425642515
-0.2076201171875,-0.1557353515625,0.8962939453125001,0.9331143816226892,0.078125,-0.12890625,-0.5654296875,45.00058823529412,220.77452345024605
-0.2134794921875,-0.1508525390625,0.9182666015625,0.954747890110986,0.11279296875,0.0224609375,-0.4619140625,45.235882352941175,220.77452345024605
-0.2129912109375,-0.1440166015625,0.9231494140625,0.9582853844999264,0.15380859375,0.1435546875,-0.35009765625,45.04764705882353,220.77452345024605
-0.2203154296875,-0.1425517578125,0.9446337890625,0.98040445105701,0.2255859375,0.30615234375,-0.26416015625,45.04764705882353,220.77452345024605
-0.2154326171875,-0.1445048828125,0.9739306640625,1.007885813029498,0.33642578125,0.4658203125,-0.20654296875,44.906470588235294,220.6583742680047
-0.1919951171875,-0.1420634765625,1.0139697265625005,1.041719138147177,0.4267578125,0.58935546875,-0.1875,45.00058823529412,220.6583742680047
-0.1666044921875,-0.1410869140625,1.0481494140625005,1.070644557421508,0.50048828125,0.68212890625,-0.17919921875,45.18882352941176,220.6583742680047
-0.1270537109375,-0.1454814453125,1.0886767578125005,1.1056783345052672,0.59228515625,0.6162109375,-0.205078125,45.00058823529412,220.6583742680047
-0.1216826171875,-0.1650126953125,1.1057666015625005,1.124613545210521,0.595703125,0.42578125,-0.31591796875,45.09470588235294,220.6583742680047
-0.1573271484375,-0.1781962890625,1.1086962890625005,1.1338929448815176,0.58544921875,0.365234375,-0.35986328125,45.04764705882353,220.24559011158368
-0.1714873046875,-0.1811259765625,1.1262744140625005,1.153563422975317,0.57861328125,0.35498046875,-0.29248046875,45.09470588235294,220.24559011158368
-0.1631865234375,-0.1762431640625,1.1433642578125005,1.1683207266643474,0.5947265625,0.3427734375,-0.2666015625,45.09470588235294,220.24559011158368
-0.1587919921875,-0.1781962890625,1.1335986328125005,1.158453570296579,0.65576171875,0.3740234375,-0.27392578125,45.235882352941175,220.24559011158368
-0.1675810546875,-0.1777080078125,1.1345751953125005,1.1605707301794497,0.6533203125,0.4619140625,-0.31298828125,45.33,220.08707219669543
-0.2017607421875,-0.1874736328125,1.1418994140625005,1.1746437893779749,0.66015625,0.580078125,-0.40625,45.235882352941175,220.08707219669543
-0.2632841796875,-0.1860087890625,1.1917041015625005,1.234534930475077,0.6337890625,0.94921875,-0.30419921875,45.00058823529412,220.08707219669543
-0.2652373046875,-0.1728251953125,1.2561572265625005,1.2954344266607578,0.642578125,1.28515625,-0.27783203125,45.00058823529412,220.08707219669543
-0.2642607421875,-0.1747783203125,1.3396533203125005,1.3766089567255668,0.6171875,1.66455078125,-0.27685546875,45.09470588235294,220.08707219669543
-0.1817412109375,-0.1947978515625,1.4231494140625005,1.44787096299112,0.615234375,1.64013671875,-0.64794921875,45.18882352941176,219.3871177421286
-0.0733427734375,-0.2402080078125,1.4666064453125005,1.4879561535424766,0.47900390625,1.1357421875,-1.490234375,45.00058823529412,219.3871177421286
-0.0240263671875,-0.2748759765625,1.4900439453125005,1.5153762000816358,0.24609375,0.84130859375,-2.10791015625,45.37705882352941,219.3871177421286
0.0038056640625,-0.2607158203125,1.5378955078125005,1.559842881507636,0.056640625,0.4853515625,-1.98583984375,45.00058823529412,219.3871177421286
0.0721650390625,-0.2153056640625,1.4900439453125005,1.5072475844408335,-0.07421875,0.14453125,-1.59814453125,44.81235294117647,219.52678870951064
0.0921845703125,-0.1445048828125,1.4407275390625005,1.450887830941263,-0.1142578125,0.125,-1.060546875,45.18882352941176,219.52678870951064
0.0980439453125,-0.1166728515625,1.3835986328125005,1.3919663595880418,-0.04296875,0.3818359375,-0.302734375,45.00058823529412,219.52678870951064
0.1458955078125,-0.0741923828125,1.2947314453125005,1.3050362157228663,-0.009765625,0.29541015625,0.4755859375,44.906470588235294,219.52678870951064
0.1878876953125,-0.0326884765625,1.1882861328125005,1.203492524274375,0.05029296875,0.1337890625,1.14697265625,45.09470588235294,219.52678870951064
0.1903291015625,-0.0033916015624999,1.0979541015625005,1.1143338274505823,0.11474609375,0.0830078125,1.77734375,45.47117647058823,220.22674824702776
0.1634736328125,0.0317646484375,1.0413134765625005,1.0545455789039917,0.23583984375,0.34375,2.20703125,45.00058823529412,220.22674824702776
0.1102509765625,0.0552021484375,1.0232470703125005,1.0306488839212973,0.2509765625,0.77734375,2.333984375,44.81235294117647,220.22674824702776
0.0746064453125,0.0644794921875,0.9832080078125,0.9881405331335974,0.416015625,1.236328125,2.43310546875,45.00058823529412,220.22674824702776
0.0550751953125,0.0644794921875,0.9558642578125,0.959618341537358,0.32666015625,1.693359375,2.31201171875,45.09470588235294,220.93617441214545
0.0326142578125,0.0825458984375,0.9514697265625,0.9556004163490264,0.1748046875,2.259765625,2.04345703125,44.85941176470588,220.93617441214545
0.0711884765625,0.0820576171875,0.9558642578125,0.9620175315955636,0.09423828125,2.7158203125,1.5078125,45.09470588235294,220.93617441214545
0.1366181640625,0.0298115234375,0.9343798828125,0.9447851687479932,-0.25439453125,2.51123046875,0.4912109375,45.04764705882353,220.93617441214545
0.0687470703125,-0.0063212890624999,0.9724658203125,0.9749132730904976,-0.3671875,2.21875,0.5009765625,45.04764705882353,220.93617441214545
0.0360322265625,-0.0287822265625,1.0002978515625005,1.0013603396168136,-0.47314453125,2.13232421875,0.01806640625,45.235882352941175,221.1151147440553
0.0204072265625,-0.0409892578125,1.0081103515625005,1.0091496693154394,-0.4873046875,2.189453125,-0.48193359375,45.235882352941175,221.1151147440553
-0.0079130859375,-0.0483134765625,1.0339892578125005,1.0351476195298208,-0.47119140625,2.265625,-0.783203125,45.00058823529412,221.1151147440553
-0.0289091796875,-0.0810283203125,1.0261767578125005,1.029776707659211,-0.3994140625,2.248046875,-0.8466796875,45.00058823529412,221.1151147440553
-0.0640654296875,-0.1083720703125,0.9939501953125,1.0018911496098857,-0.35888671875,1.9501953125,-0.82763671875,45.00058823529412,221.27520834950064
-0.0455107421875,-0.1308330078125,0.9255908203125,0.9358989636891846,-0.27392578125,1.75830078125,-0.66064453125,44.906470588235294,221.27520834950064
0.0057587890625,-0.1049541015625,0.9319384765625,0.9378474562442932,-0.19482421875,1.705078125,-0.8701171875,45.18882352941176,221.27520834950064
-0.0347685546875,-0.1440166015625,0.8704150390625001,0.8829337314582805,-0.2646484375,1.57861328125,-0.22412109375,45.04764705882353,221.27520834950064
-0.0176787109375,-0.0619853515625,0.8918994140625001,0.8942255226919937,-0.4130859375,1.396484375,-0.357421875,45.04764705882353,221.27520834950064
-0.0088896484375,-0.0473369140625,0.8289111328125001,0.8303092649024248,-0.3583984375,1.2568359375,-0.5390625,44.81235294117647,220.50141224154575
-0.0411162109375,-0.0741923828125,0.7708056640625001,0.7754588475348548,-0.447265625,1.060546875,-0.43359375,45.04764705882353,220.50141224154575
-0.0342802734375,-0.0673564453125,0.7390673828125001,0.7429216810737214,-0.45068359375,0.974609375,-0.1337890625,44.906470588235294,220.50141224154575
-0.0313505859375,-0.0678447265625,0.7214892578125001,0.7253499261044956,-0.42626953125,0.89306640625,0.04443359375,44.906470588235294,220.50141224154575
-0.0577177734375,-0.0668681640625,0.7058642578125001,0.7113698357344537,-0.40966796875,0.84619140625,0.26953125,44.906470588235294,220.32092109674377
-0.0840849609375,-0.0580791015625,0.5901416015625001,0.598924513264335,-0.34033203125,0.771484375,0.5029296875,45.09470588235294,220.32092109674377
-0.0967802734375,-0.0683330078125,0.7029345703125001,0.7128483930147838,-0.30322265625,0.67578125,0.74609375,45.235882352941175,220.32092109674377
-0.1290068359375,-0.0619853515625,0.7356494140625001,0.7494431318902265,-0.37451171875,0.69482421875,1.154296875,45.00058823529412,220.32092109674377
-0.1334013671875,-0.0561259765625,0.7595751953125001,0.7732402778869005,-0.1279296875,0.67431640625,1.3623046875,45.09470588235294,220.32092109674377
-0.1519560546875,-0.0668681640625,0.7698291015625001,0.787527040509598,-0.125,0.6982421875,1.5185546875,45.00058823529412,220.48100540534847
-0.1504912109375,-0.0614970703125,0.7898486328125001,0.8064058264808305,-0.06689453125,0.515625,1.61474609375,44.906470588235294,220.48100540534847
-0.1446318359375,-0.0600322265625,0.8025439453125001,0.8176790448277712,-0.048828125,0.32958984375,1.72705078125,44.906470588235294,220.48100540534847
-0.1348662109375,-0.0585673828125,0.8191455078125001,0.8322369831673805,-0.04931640625,0.19580078125,1.787109375,44.85941176470588,220.48100540534847
-0.1338896484375,-0.0780986328125,0.8054736328125001,0.8202521609615333,0.03662109375,0.1240234375,1.83740234375,45.00058823529412,220.13101218229636
-0.1114287109375,-0.0527080078125,0.8425830078125001,0.8515518872993677,0.0400390625,-0.18310546875,1.95654296875,45.00058823529412,220.13101218229636
-0.0977568359375,-0.0629619140625,0.8352587890625001,0.843313610883329,-0.01318359375,-0.2529296875,2.02197265625,45.09470588235294,220.13101218229636
-0.0997099609375,-0.0531962890625,0.8572314453125001,0.864648872267082,0.00927734375,-0.474609375,2.03076171875,45.235882352941175,220.13101218229636
-0.1202177734375,-0.0492900390625,0.8660205078125001,0.875713047152361,0.01513671875,-0.5390625,2.07275390625,45.00058823529412,220.13101218229636
-0.1543974609375,-0.0497783203125,0.8762744140625001,0.8911640173714704,0.12451171875,-0.53173828125,2.02978515625,45.04764705882353,220.24715400221888
-0.1983427734375,-0.0473369140625,0.8958056640625001,0.9187210822520055,-0.0185546875,-0.51123046875,1.97509765625,45.33,220.24715400221888
-0.2378935546875,-0.0419658203125,0.9187548828125,0.9499815830468328,-0.06201171875,-0.49462890625,1.99951171875,44.906470588235294,220.24715400221888
-0.2681669921875,-0.0312236328125,0.9509814453125,0.9885616623527091,-0.09619140625,-0.37890625,1.95263671875,45.09470588235294,220.24715400221888
-0.2994169921875,-0.0580791015625,0.9793017578125,1.025697640683437,-0.1513671875,-0.26953125,1.96875,45.04764705882353,220.06666688184637
-0.2662138671875,-0.0507548828125,1.0159228515625005,1.0514490579857478,-0.21533203125,-0.2197265625,1.962890625,45.00058823529412,220.06666688184637
-0.2911162109375,-0.0317119140625,1.0378955078125005,1.078416143657671,-0.20263671875,-0.17724609375,2.02001953125,44.85941176470588,220.06666688184637
-0.2715849609375,-0.0292705078125,1.0481494140625005,1.0831585054065669,-0.23486328125,-0.13525390625,1.962890625,45.00058823529412,220.06666688184637
-0.2540068359375,-0.0302470703125,1.0642626953125005,1.0945727214759635,-0.2744140625,-0.021484375,1.794921875,45.00058823529412,220.06666688184637
-0.2286162109375,-0.0287822265625,1.0779345703125005,1.1022870435345364,-0.283203125,0.16357421875,1.76806640625,45.00058823529412,220.1074777584756
-0.1968779296875,-0.0253642578125,1.0960009765625005,1.113832305779631,-0.3134765625,0.2001953125,1.6884765625,45.00058823529412,220.1074777584756
-0.1861357421875,-0.0268291015625,1.0818408203125005,1.0980646045223232,-0.3154296875,0.111328125,1.576171875,45.09470588235294,220.1074777584756
-0.2066435546875,-0.0180400390625,1.0691455078125005,1.0890817777278765,-0.32373046875,0.05419921875,1.4697265625,45.04764705882353,220.1074777584756
-0.2247099609375,-0.0136455078124999,1.0593798828125005,1.0830357808197386,-0.33642578125,0.095703125,1.39990234375,45.09470588235294,219.98035185246607
-0.2291044921875,-0.0077861328124999,1.0564501953125005,1.0810349242186794,-0.3525390625,0.19970703125,1.36474609375,45.09470588235294,219.98035185246607
-0.2276396484375,-0.0033916015624999,1.0637744140625005,1.087863647943033,-0.291015625,0.39404296875,1.35986328125,44.906470588235294,219.98035185246607
-0.2320341796875,-0.0063212890624999,1.0784228515625005,1.10312087552129,-0.31005859375,0.548828125,1.48828125,44.906470588235294,219.98035185246607
-0.2344755859375,-0.0102275390624999,1.0779345703125005,1.1031891681986383,-0.31103515625,0.7041015625,1.56201171875,44.906470588235294,219.98035185246607
-0.2369169921875,0.0024677734375,1.1033251953125005,1.1284778410337872,-0.263671875,0.822265625,1.58935546875,45.00058823529412,219.75905962302645
-0.2837919921875,-0.0248759765625,1.1306689453125005,1.1660055629943495,-0.23046875,0.89404296875,1.89208984375,45.04764705882353,219.75905962302645
-0.2212919921875,0.0029560546875,1.1565478515625005,1.177532087469154,-0.251953125,0.7626953125,1.8095703125,44.906470588235294,219.75905962302645
-0.1827177734375,0.0049091796875,1.1702197265625005,1.1844087525897362,-0.09765625,0.51611328125,1.4599609375,45.04764705882353,219.75905962302645
-0.1534208984375,-0.0077861328124999,1.1897509765625005,1.1996274347367049,-0.009765625,0.33154296875,0.97216796875,45.09470588235294,219.4608784321705
-0.1319365234375,-0.0253642578125,1.1995166015625005,1.207017261357601,-0.00048828125,0.1357421875,0.62353515625,45.04764705882353,219.4608784321705
-0.1324248046875,-0.0380595703125,1.2048876953125005,1.2127403753913544,-0.03515625,0.02734375,0.06201171875,45.18882352941176,219.4608784321705
-0.1407255859375,-0.0405009765625,1.2175830078125005,1.2263573706524962,-0.02880859375,0.05419921875,-0.3095703125,45.04764705882353,219.4608784321705
-0.1578154296875,-0.0351298828125,1.2288134765625005,1.2394040417456644,-0.06787109375,0.14306640625,-0.513671875,44.906470588235294,219.4608784321705
-0.1666044921875,-0.0361064453125,1.2463916015625005,1.2579955312542623,-0.03076171875,0.21484375,-0.6240234375,45.04764705882353,219.4404755392368
-0.1465849609375,-0.0458720703125,1.2293017578125005,1.238860044302304,0.03662109375,0.24755859375,-0.8271484375,45.235882352941175,219.4404755392368
-0.0953154296875,-0.0488017578125,1.2068408203125005,1.211582192125095,0.12744140625,0.365234375,-1.16552734375,45.09470588235294,219.4404755392368
-0.0601591796875,-0.0722392578125,1.1687548828125005,1.172529578888326,0.21484375,0.5869140625,-1.39404296875,45.235882352941175,219.4404755392368
-0.0328154296875,-0.0922587890625,1.1301806640625005,1.1344147698287466,0.28515625,0.8056640625,-1.46240234375,45.04764705882353,219.70570066468568
0.0047822265625,-0.1073955078125,1.0940478515625005,1.0993167724990476,0.36669921875,0.83203125,-1.38720703125,45.04764705882353,219.70570066468568
0.0350556640625,-0.1239970703125,1.0364306640625005,1.0444102136794629,0.43896484375,0.7646484375,-1.28515625,45.00058823529412,219.70570066468568
0.0599580078125,-0.1484111328125,0.9963916015625,1.0091665128747669,0.4638671875,0.6259765625,-1.17431640625,44.906470588235294,219.70570066468568
0.0765595703125,-0.1869853515625,0.9763720703125,0.9970593308282631,0.47802734375,0.43701171875,-1.10107421875,45.00058823529412,219.70570066468568
0.0965791015625,-0.2270244140625,0.9314501953125,0.9635699630990662,0.3544921875,0.1904296875,-1.03515625,45.37705882352941,220.96600751713564
0.1087861328125,-0.2670634765625,0.9104541015625,0.9550308865465698,0.2138671875,-0.07080078125,-0.98974609375,45.18882352941176,220.96600751713564
0.1063447265625,-0.2939189453125,0.9026416015625,0.955227411746847,0.00830078125,-0.2802734375,-0.884765625,45.18882352941176,220.96600751713564
0.1097626953125,-0.2831767578125,0.9158251953125,0.9648692729155814,-0.01513671875,-0.4697265625,-0.87841796875,45.04764705882353,220.96600751713564
0.0819306640625,-0.2597392578125,0.9500048828125,0.9882744523310832,-0.12841796875,-0.615234375,-0.78369140625,44.906470588235294,221.03978089863503
0.0208955078125,-0.2216533203125,0.9641650390625,0.989535769541804,-0.06689453125,-0.62548828125,-0.4599609375,45.09470588235294,221.03978089863503
-0.0230498046875,-0.1703837890625,0.9973681640625,1.0120796331103736,0.06494140625,-0.79052734375,-0.30078125,45.00058823529412,221.03978089863503
-0.0709013671875,-0.1674541015625,1.0076220703125005,1.023899466051238,0.1923828125,-0.76123046875,-0.2451171875,45.235882352941175,221.03978089863503
-0.0953154296875,-0.1493876953125,0.9753955078125,0.9913617459374242,0.2607421875,-0.7255859375,0.28955078125,45.18882352941176,221.03978089863503
-0.1197294921875,-0.1122783203125,1.0061572265625005,1.0194576681135985,0.2998046875,-0.59326171875,0.294921875,44.906470588235294,220.89379593091823
-0.1519560546875,-0.1073955078125,1.0100634765625005,1.0270602048273605,0.3515625,-0.43603515625,0.33349609375,44.29470588235294,220.89379593091823
-0.1451201171875,-0.0942119140625,1.0159228515625005,1.0305508107273098,0.44775390625,-0.3564453125,0.54638671875,45.09470588235294,220.89379593091823
-0.1084990234375,-0.0893291015625,1.0061572265625005,1.0159252389013658,0.53076171875,-0.49658203125,0.6875,45.18882352941176,220.89379593091823
-0.0528349609375,-0.0663798828125,0.9524462890625,0.956217420615414,0.64013671875,-0.720703125,0.51123046875,45.00058823529412,220.77920860376585
-0.0250029296875,-0.0815166015625,0.9099658203125,0.913951802317966,0.630859375,-0.8193359375,0.2822265625,45.00058823529412,220.77920860376585
-0.0069365234375,-0.0922587890625,0.8738330078125001,0.8787172042581838,0.5771484375,-0.84375,-0.03466796875,45.00058823529412,220.77920860376585
-0.0337919921875,-0.1117900390625,0.8552783203125001,0.8632148728828569,0.537109375,-0.7392578125,-0.26025390625,45.235882352941175,220.77920860376585
-0.0767607421875,-0.1279033203125,0.8533251953125001,0.8662651787087221,0.47607421875,-0.68701171875,-0.43212890625,45.00058823529412,220.77920860376585
-0.0972685546875,-0.1322978515625,0.8420947265625001,0.8579553728274101,0.46630859375,-0.58984375,-0.53515625,45.00058823529412,220.5532115553424
-0.0879912109375,-0.1303447265625,0.8318408203125001,0.846576252491808,0.4833984375,-0.53173828125,-0.57373046875,44.906470588235294,220.5532115553424
-0.0782255859375,-0.1279033203125,0.8469775390625001,0.8601450187721812,0.484375,-0.33544921875,-0.7568359375,45.42411764705882,220.5532115553424
-0.0655302734375,-0.1327861328125,0.8337939453125001,0.8468404318665216,0.47265625,-0.390625,-0.81201171875,45.04764705882353,220.5532115553424
-0.0328154296875,-0.1210673828125,0.8381884765625001,0.8475223217407365,0.3896484375,-0.548828125,-0.8310546875,45.33,220.6944535567716
-0.0401396484375,-0.1254619140625,0.8469775390625001,0.8571597487827348,0.35107421875,-0.65869140625,-0.84033203125,45.04764705882353,220.6944535567716
-0.0523466796875,-0.1327861328125,0.8377001953125001,0.8497728809324321,0.34326171875,-0.783203125,-1.02001953125,45.09470588235294,220.6944535567716
-0.0889677734375,-0.1200908203125,0.8660205078125001,0.8788222742884798,0.314453125,-0.66357421875,-1.21923828125,45.00058823529412,220.6944535567716
-0.0884794921875,-0.1059306640625,0.8621142578125001,0.8730927325605672,0.27001953125,-0.6767578125,-1.42724609375,45.235882352941175,220.6944535567716
-0.1060576171875,-0.1215556640625,0.8621142578125001,0.8770775285872757,0.2529296875,-0.64892578125,-1.4560546875,45.42411764705882,220.3319060723643
-0.1138701171875,-0.1308330078125,0.8694384765625001,0.8865703266232643,0.2548828125,-0.646484375,-1.3828125,45.33,220.3319060723643
-0.1294951171875,-0.1352275390625,0.8816455078125001,0.901306981079291,0.22998046875,-0.564453125,-1.3486328125,45.235882352941175,220.3319060723643
-0.1426787109375,-0.1313212890625,0.8865283203125001,0.9074882689224836,0.2177734375,-0.49853515625,-1.26171875,45.04764705882353,220.3319060723643
-0.1387724609375,-0.1318095703125,0.9002001953125001,0.9203216559340974,0.2138671875,-0.4970703125,-1.32958984375,45.09470588235294,220.37428236104589
-0.1451201171875,-0.1396220703125,0.8958056640625001,0.9181622725299264,0.21240234375,-0.4677734375,-1.3251953125,45.09470588235294,220.37428236104589
-0.1490263671875,-0.1440166015625,0.8967822265625001,0.920417297491258,0.20361328125,-0.47607421875,-1.251953125,45.09470588235294,220.37428236104589
-0.1534208984375,-0.1484111328125,0.8889697265625001,0.9142379401253622,0.212890625,-0.45166015625,-1.181640625,45.04764705882353,220.37428236104589
-0.1592802734375,-0.1474345703125,0.8904345703125001,0.9165047092280338,0.21240234375,-0.37109375,-1.15576171875,45.47117647058823,220.37428236104589
-0.1709990234375,-0.1454814453125,0.8909228515625001,0.9187758401171904,0.21875,-0.32470703125,-1.09716796875,45.47117647058823,220.3632973909692
-0.1934599609375,-0.1401103515625,0.8904345703125001,0.9219172365828252,0.248046875,-0.19140625,-1.02197265625,45.00058823529412,220.3632973909692
-0.2046904296875,-0.1386455078125,0.8972705078125001,0.9307067814474874,0.28466796875,-0.04150390625,-0.9404296875,45.04764705882353,220.3632973909692
-0.2056669921875,-0.1357158203125,0.8982470703125001,0.931431959341925,0.31396484375,0.072265625,-0.8701171875,45.04764705882353,220.3632973909692
-0.1998076171875,-0.1410869140625,0.9065478515625,0.9389662445361976,0.33837890625,0.18505859375,-0.8564453125,45.04764705882353,220.4072373547734
-0.1963896484375,-0.1459697265625,0.9075244140625,0.9399343685628376,0.38623046875,0.36572265625,-0.87353515625,44.906470588235294,220.4072373547734
-0.1963896484375,-0.1440166015625,0.9368212890625,0.96795857513622,0.41357421875,0.55517578125,-0.91064453125,45.00058823529412,220.4072373547734
-0.1871123046875,-0.1445048828125,0.9670947265625,0.9955726421849482,0.4443359375,0.6962890625,-0.9326171875,45.00058823529412,220.4072373547734
-0.1719755859375,-0.1396220703125,0.9944384765625,1.0188119592666949,0.48486328125,0.8212890625,-0.91064453125,45.235882352941175,220.4072373547734
-0.1529326171875,-0.1425517578125,1.0203173828125005,1.041516658880021,0.529296875,0.87109375,-0.8837890625,44.906470588235294,220.3837039669734
-0.1309599609375,-0.1459697265625,1.0320361328125005,1.050502856670111,0.58447265625,0.88330078125,-0.92138671875,45.09470588235294,220.3837039669734
-0.1138701171875,-0.1620830078125,1.0349658203125005,1.0537511823124892,0.59814453125,0.8662109375,-1.0048828125,45.04764705882353,220.3837039669734
-0.1187529296875,-0.1845439453125,1.0276416015625005,1.0508120608951954,0.564453125,0.93603515625,-1.11962890625,44.906470588235294,220.3837039669734
-0.1451201171875,-0.2001689453125,1.0305712890625005,1.0598134915729165,0.5263671875,0.974609375,-1.20947265625,45.18882352941176,220.52338219016005
-0.1792998046875,-0.2060283203125,1.0349658203125005,1.0703972804276425,0.45947265625,1.017578125,-1.2666015625,45.04764705882353,220.52338219016005
-0.2212919921875,-0.2001689453125,1.0442431640625005,1.0860393814982463,0.3935546875,1.07861328125,-1.201171875,45.09470588235294,220.52338219016005
-0.2535185546875,-0.1860087890625,1.0701220703125005,1.1153619020520866,0.38818359375,1.21044921875,-1.01708984375,45.18882352941176,220.52338219016005
-0.2735380859375,-0.1742900390625,1.0950244140625005,1.1420501607055975,0.37646484375,1.42919921875,-0.751953125,45.235882352941175,220.52338219016005
-0.2764677734375,-0.1762431640625,1.1448291015625005,1.1908525326053816,0.34521484375,1.6630859375,-0.515625,45.235882352941175,220.4260806104432
-0.2857451171875,-0.1728251953125,1.2170947265625005,1.2620770156997352,0.31787109375,1.94873046875,-0.3330078125,45.235882352941175,220.4260806104432
-0.2466826171875,-0.1655009765625,1.2991259765625005,1.332655690658726,0.2880859375,1.9775390625,-0.2958984375,45.09470588235294,220.4260806104432
-0.1441435546875,-0.1718486328125,1.3469775390625005,1.365524737123551,0.22998046875,1.5283203125,-0.6044921875,45.235882352941175,220.4260806104432
-0.0875029296875,-0.1586650390625,1.3279345703125005,1.3402393742744785,0.17138671875,0.9375,-1.009765625,44.906470588235294,219.8563590055048
-0.0953154296875,-0.1640361328125,1.3406298828125005,1.3539872106834876,0.02978515625,0.84814453125,-1.00537109375,45.04764705882353,219.8563590055048
0.0047822265625,-0.1293681640625,1.3806689453125005,1.3867248206165954,-0.03271484375,1.0107421875,-0.68017578125,45.33,219.8563590055048
0.1683564453125,-0.0942119140625,1.3460009765625005,1.3597567452808554,-0.048828125,0.92724609375,-0.06396484375,45.235882352941175,219.8563590055048
0.2103486328125,-0.0531962890625,1.3074267578125005,1.3253079338554552,-0.03564453125,1.00537109375,0.43408203125,45.04764705882353,219.8563590055048
0.1297822265625,-0.0263408203125,1.2727587890625005,1.2796297121754003,0.025390625,1.00048828125,0.84375,45.04764705882353,220.13257714404537
0.0775361328125,0.0215107421875,1.2463916015625005,1.248986224250095,0.07861328125,0.935546875,1.23388671875,45.00058823529412,220.13257714404537
0.0946259765625,0.0761982421875,1.1917041015625005,1.1978810096306551,0.12939453125,0.82861328125,1.24169921875,45.04764705882353,220.13257714404537
0.0951142578125,0.1045185546875,1.1428759765625005,1.1515799356175302,0.138671875,0.46142578125,1.2294921875,45.235882352941175,220.13257714404537
0.0335908203125,0.0844990234375,1.1111376953125005,1.1148521902546242,0.2099609375,0.2939453125,1.22509765625,45.09470588235294,220.63952859446795
-0.0523466796875,0.0718037109375,1.1116259765625005,1.1151718520242673,0.23876953125,0.4365234375,1.20703125,45.04764705882353,220.63952859446795
-0.0894560546875,0.0635029296875,1.1238330078125005,1.129174759392026,0.2978515625,0.541015625,0.96826171875,45.04764705882353,220.63952859446795
-0.0811552734375,0.0493427734375,1.1243212890625005,1.128325861059819,0.2216796875,0.81640625,0.3955078125,44.906470588235294,220.63952859446795
-0.0987333984375,-0.0097392578124999,1.1116259765625005,1.1160445550596485,0.1328125,0.8623046875,0.2314453125,45.04764705882353,220.63952859446795
-0.0918974609375,-0.0458720703125,1.1277392578125005,1.1324068278551676,-0.04248046875,1.0400390625,0.15576171875,45.04764705882353,220.6489512674264
-0.0728544921875,-0.0649150390625,1.1077197265625005,1.112009321878232,-0.1875,1.16796875,-0.15185546875,44.906470588235294,220.6489512674264
-0.0503935546875,-0.0868876953125,1.0740283203125005,1.0787148904061956,-0.3037109375,1.158203125,-0.3818359375,45.18882352941176,220.6489512674264
-0.0352568359375,-0.1020244140625,1.0466845703125005,1.0522360074029893,-0.373046875,1.21435546875,-0.9404296875,45.00058823529412,220.6489512674264
-0.0381865234375,-0.1181376953125,1.0320361328125005,1.0394774192143723,-0.435546875,1.181640625,-1.33837890625,45.00058823529412,221.38193827944232
-0.0616240234375,-0.1410869140625,0.9954150390625,1.0072507818691945,-0.46923828125,1.0556640625,-1.240234375,45.00058823529412,221.38193827944232
-0.0474638671875,-0.1020244140625,0.9573291015625,0.9639195030974592,-0.50537109375,0.9228515625,-0.94970703125,45.33,221.38193827944232
-0.0289091796875,-0.0561259765625,0.9138720703125,0.9160502315989848,-0.400390625,0.7998046875,-0.68994140625,45.00058823529412,221.38193827944232
-0.0381865234375,-0.0400126953125,0.8674853515625001,0.8692468357917261,-0.37060546875,0.74609375,-0.34130859375,45.09470588235294,221.38193827944232
-0.0396513671875,-0.0258525390625,0.8303759765625001,0.8317240210237659,-0.38623046875,0.74755859375,-0.17041015625,45.04764705882353,220.68190606115635
-0.0635771484375,-0.0146220703124999,0.7986376953125001,0.8012977144094006,-0.3759765625,0.62451171875,0.0126953125,45.00058823529412,220.68190606115635
-0.0792021484375,-0.0155986328124999,0.7693408203125001,0.7735642154739615,-0.38525390625,0.4208984375,0.2431640625,44.906470588235294,220.68190606115635
-0.0889677734375,-0.0180400390625,0.7410205078125001,0.7465601788995301,-0.34130859375,0.3642578125,0.47265625,45.18882352941176,220.68190606115635
-0.1060576171875,-0.0307353515625,0.7312548828125001,0.7395448489687991,-0.2998046875,0.333984375,0.64501953125,45.04764705882353,220.70387599322757
-0.1314482421875,-0.0341533203125,0.7332080078125001,0.7456802749053558,-0.2158203125,0.42626953125,0.8681640625,45.18882352941176,220.70387599322757
-0.1426787109375,-0.0439189453125,0.7312548828125001,0.7463375857809067,-0.1923828125,0.53662109375,1.14453125,44.85941176470588,220.70387599322757
-0.1163115234375,-0.0248759765625,0.7385791015625001,0.7480950968688138,-0.154296875,0.5830078125,1.15966796875,45.09470588235294,220.70387599322757
-0.1060576171875,-0.0468486328125,0.7346728515625001,0.743765562111386,-0.15869140625,0.5419921875,1.3193359375,45.235882352941175,220.70387599322757
-0.0972685546875,-0.0405009765625,0.7795947265625001,0.7866825525696948,-0.06201171875,0.45263671875,1.35498046875,45.00058823529412,220.51239720889728
-0.1026396484375,-0.0566142578125,0.7566455078125001,0.7656712715727748,-0.11279296875,0.20947265625,1.4072265625,45.235882352941175,220.51239720889728
-0.1568388671875,-0.0702861328125,0.8127978515625001,0.8307700754306275,-0.080078125,0.31787109375,1.71630859375,45.18882352941176,220.51239720889728
-0.0958037109375,-0.0600322265625,0.7922900390625001,0.8003160158669232,-0.1123046875,0.1982421875,1.533203125,44.34176470588236,220.51239720889728
-0.0972685546875,-0.0614970703125,0.8137744140625001,0.8218709499494316,-0.16552734375,-0.01220703125,1.5048828125,45.04764705882353,220.4496137958845
-0.0884794921875,-0.0483134765625,0.8401416015625001,0.846168259409035,-0.1669921875,-0.21435546875,1.5498046875,45.00058823529412,220.4496137958845
-0.0992216796875,-0.0458720703125,0.8665087890625001,0.8733765912121323,-0.2119140625,-0.435546875,1.52783203125,45.00058823529412,220.4496137958845
-0.1358427734375,-0.0380595703125,0.8879931640625001,0.8991293841318357,-0.1904296875,-0.62890625,1.5693359375,45.09470588235294,220.4496137958845
-0.1661162109375,-0.0258525390625,0.9104541015625,0.9258453544540736,-0.1611328125,-0.6279296875,1.6103515625,45.235882352941175,220.4496137958845
-0.1895537109375,-0.0209697265625,0.9192431640625,0.9388175187105956,-0.1845703125,-0.8388671875,1.642578125,44.85941176470588,220.01643752787916
-0.2012724609375,-0.0170634765625,0.9270556640625,0.9488066030728282,-0.16552734375,-0.84521484375,1.69189453125,45.235882352941175,220.01643752787916
-0.2247099609375,-0.0190166015625,0.9417041015625,0.9683299089562168,-0.12255859375,-0.80712890625,1.7197265625,45.37705882352941,220.01643752787916
-0.2442412109375,-0.0268291015625,0.9456103515625,0.9770120300144836,-0.1640625,-0.76416015625,1.7900390625,45.42411764705882,220.01643752787916
-0.2569365234375,-0.0268291015625,0.9583056640625,0.9925149487746112,-0.16357421875,-0.6357421875,1.77587890625,45.04764705882353,220.17338762007932
-0.2569365234375,-0.0341533203125,0.9622119140625,0.9965112111403148,-0.19091796875,-0.4794921875,1.7451171875,45.04764705882353,220.17338762007932
-0.2354521484375,-0.0341533203125,0.9749072265625,1.0035179439830604,-0.19287109375,-0.4697265625,1.70068359375,45.04764705882353,220.17338762007932
-0.2349638671875,-0.0278056640625,0.9724658203125,1.000835124040781,-0.126953125,-0.47900390625,1.6376953125,44.906470588235294,220.17338762007932
-0.2212919921875,-0.0151103515624999,0.9885791015625,1.0131570009513702,-0.30908203125,-0.40966796875,1.552734375,45.04764705882353,220.17338762007932
-0.1910185546875,-0.0043681640624999,1.0042041015625005,1.0222196665527066,-0.31591796875,-0.41845703125,1.5419921875,45.04764705882353,220.58616634060644
-0.1841826171875,0.0083271484375,1.0090869140625005,1.025791878505244,-0.30126953125,-0.376953125,1.5244140625,45.00058823529412,220.58616634060644
-0.2007841796875,0.0132099609375,1.0144580078125005,1.0342213687096489,-0.294921875,-0.3359375,1.47412109375,44.1064705882353,220.58616634060644
-0.2217802734375,0.0117451171875,1.0237353515625005,1.0475488091265994,-0.31201171875,-0.13818359375,1.40673828125,44.81235294117647,220.58616634060644
-0.2237333984375,0.0107685546875,1.0242236328125005,1.0484305629645132,-0.36279296875,0.0791015625,1.38037109375,45.18882352941176,220.58772913725377
-0.2227568359375,-0.0004619140624999,1.0310595703125005,1.054848168626407,-0.41064453125,0.220703125,1.39208984375,45.00058823529412,220.58772913725377
-0.2320341796875,0.0049091796875,1.0505908203125005,1.0759205511158096,-0.4384765625,0.35205078125,1.3740234375,44.906470588235294,220.58772913725377
-0.2501005859375,0.0039326171875,1.0754931640625005,1.1041971357096487,-0.451171875,0.3984375,1.30908203125,45.04764705882353,220.58772913725377
-0.2818388671875,0.0044208984375,1.0837939453125005,1.1198491002347428,-0.404296875,0.6015625,1.193359375,44.81235294117647,220.58772913725377
-0.3126005859375,-0.0224345703125,1.1023486328125005,1.14603444299775,-0.41943359375,0.8056640625,1.18408203125,44.906470588235294,220.17338762007932
-0.3589873046875,-0.0317119140625,1.1672900390625005,1.221656075053383,-0.44189453125,1.13134765625,1.3056640625,45.09470588235294,220.17338762007932
-0.3785185546875,-0.0541728515625,1.2576220703125005,1.3144672935551596,-0.4619140625,1.3564453125,1.5693359375,45.235882352941175,220.17338762007932
-0.3262724609375,-0.0810283203125,1.3123095703125005,1.3546865747443786,-0.44921875,1.04833984375,1.814453125,45.04764705882353,220.17338762007932
-0.2159208984375,-0.0932353515625,1.2864306640625005,1.307753233069345,-0.3447265625,0.5537109375,1.73974609375,45.04764705882353,219.8657780553424
-0.1319365234375,-0.1069072265625,1.2483447265625005,1.2598416399073589,-0.3154296875,0.421875,1.3173828125,45.04764705882353,219.8657780553424
-0.0303740234375,-0.1191142578125,1.3020556640625005,1.307845457243035,-0.42578125,0.58935546875,0.7958984375,45.00058823529412,219.8657780553424
0.0492158203125,-0.1205791015625,1.3245166015625005,1.3309041079346502,-0.45556640625,0.67333984375,0.19677734375,45.235882352941175,219.8657780553424
0.0638642578125,-0.0727275390625,1.2849658203125005,1.288605873700491,-0.4267578125,0.7080078125,-0.52734375,45.09470588235294,219.8657780553424
-0.0030302734374999,-0.0346416015625,1.2649462890625005,1.2654241728878548,-0.5,0.919921875,-0.8935546875,44.906470588235294,219.84537392156471
0.0008759765625,-0.0336650390625,1.2942431640625005,1.2946812232795106,-0.34521484375,1.0556640625,-0.9697265625,45.04764705882353,219.84537392156471
0.0716767578125,-0.0507548828125,1.2898486328125005,1.292835299374247,-0.19970703125,0.82275390625,-0.99609375,44.906470588235294,219.84537392156471
0.1488251953125,-0.0966533203125,1.2087939453125005,1.2217502221450154,-0.115234375,0.275390625,-1.1845703125,45.09470588235294,219.84537392156471
0.1488251953125,-0.1381572265625,1.1067431640625005,1.1252185517535338,-0.0205078125,-0.1611328125,-1.34765625,44.81235294117647,220.71329875731803
0.1371064453125,-0.1845439453125,1.0110400390625005,1.0368493649924442,-0.08203125,-0.404296875,-1.60888671875,45.00058823529412,220.71329875731803
0.1410126953125,-0.2216533203125,0.9504931640625,0.9861298238945998,-0.1875,-0.45703125,-2.05322265625,44.906470588235294,220.71329875731803
0.1068330078125,-0.2524150390625,0.9070361328125,0.947544822016692,-0.29736328125,-0.51611328125,-2.35693359375,45.09470588235294,220.71329875731803
0.0384736328125,-0.2748759765625,0.8914111328125001,0.933622424010394,-0.4375,-0.66796875,-2.05517578125,45.00058823529412,220.71329875731803
-0.0196318359375,-0.2485087890625,0.9290087890625,0.9618728384661664,-0.37841796875,-0.6337890625,-1.49072265625,45.235882352941175,221.35996852488333
-0.0474638671875,-0.2250712890625,0.9465869140625,0.97413381510089,-0.08544921875,-0.5166015625,-0.439453125,45.18882352941176,221.35996852488333
-0.0333037109375,-0.1645244140625,0.9641650390625,0.9786683005672604,0.072265625,-0.34619140625,-0.01416015625,44.906470588235294,221.35996852488333
-0.0411162109375,-0.1357158203125,0.9700244140625,0.9803349889513524,0.19482421875,-0.24267578125,0.240234375,45.00058823529412,221.35996852488333
-0.0557646484375,-0.1244853515625,0.9832080078125,0.9926249469943934,0.244140625,-0.21533203125,0.76171875,45.235882352941175,221.58285676538205
-0.0621123046875,-0.1054423828125,0.9895556640625,0.997094000967284,0.20361328125,-0.25634765625,0.9619140625,45.33,221.58285676538205
-0.0899443359375,-0.0395244140625,0.9949267578125,0.999765680689988,0.33740234375,-0.169921875,0.79541015625,45.235882352941175,221.58285676538205
-0.1275419921875,-0.0370830078125,1.0105517578125005,1.019243329366208,0.39111328125,0.00537109375,1.0654296875,45.00058823529412,221.58285676538205
-0.0879912109375,-0.0331767578125,1.0081103515625005,1.012486854921418,0.357421875,0.14208984375,1.23681640625,44.85941176470588,221.58285676538205
-0.0245146484375,-0.0468486328125,1.0081103515625005,1.0094960343220187,0.39794921875,-0.0078125,0.99169921875,45.00058823529412,221.35996852488333
0.0277314453125,-0.0732158203125,0.9617236328125,0.9649051431686044,0.46240234375,-0.12744140625,0.5966796875,45.00058823529412,221.35996852488333
0.0291962890625,-0.1191142578125,0.9319384765625,0.9399733793075618,0.482421875,-0.35791015625,0.17041015625,45.42411764705882,221.35996852488333
0.0008759765625,-0.1420634765625,0.9002001953125001,0.911341423588671,0.5283203125,-0.49951171875,-0.2978515625,45.00058823529412,221.35996852488333
-0.0464873046875,-0.1532939453125,0.8669970703125001,0.8816711536037902,0.521484375,-0.369140625,-0.56982421875,45.04764705882353,220.79019362688072
-0.0816435546875,-0.1625712890625,0.8484423828125001,0.8677266683708682,0.4951171875,-0.27099609375,-0.72021484375,45.235882352941175,220.79019362688072
-0.0782255859375,-0.1576884765625,0.8250048828125001,0.8435745104022135,0.4970703125,-0.23193359375,-0.884765625,45.04764705882353,220.79019362688072
-0.0826201171875,-0.1591533203125,0.8079150390625001,0.8275763248631093,0.49560546875,-0.185546875,-1.0166015625,45.00058823529412,220.79019362688072
-0.0772490234375,-0.1386455078125,0.8171923828125001,0.8324622387744713,0.4912109375,-0.15869140625,-1.181640625,44.48294117647059,220.79019362688072
-0.0728544921875,-0.1254619140625,0.8147509765625001,0.8275672919597972,0.49267578125,-0.21240234375,-1.375,45.04764705882353,220.92675076669704
-0.0767607421875,-0.1156962890625,0.8264697265625001,0.8380513419643829,0.4765625,-0.23779296875,-1.48828125,45.00058823529412,220.92675076669704
-0.0933623046875,-0.1176494140625,0.8391650390625001,0.8524997755721572,0.44677734375,-0.33203125,-1.52685546875,45.09470588235294,220.92675076669704
-0.0909208984375,-0.1098369140625,0.8523486328125001,0.8641926575253884,0.3759765625,-0.40673828125,-1.4501953125,45.04764705882353,220.92675076669704
-0.1001982421875,-0.1152080078125,0.8621142578125001,0.8755304485425894,0.39892578125,-0.435546875,-1.2861328125,45.00058823529412,220.42764379724744
-0.0928740234375,-0.1108134765625,0.8738330078125001,0.8857140262861246,0.3779296875,-0.3779296875,-1.23681640625,45.04764705882353,220.42764379724744
-0.0972685546875,-0.1196025390625,0.8826220703125001,0.8959841840590245,0.39794921875,-0.33154296875,-1.25830078125,45.00058823529412,220.42764379724744
-0.0884794921875,-0.1147197265625,0.8831103515625001,0.8949151519765296,0.365234375,-0.28173828125,-1.58544921875,45.00058823529412,220.42764379724744
-0.1236357421875,-0.1313212890625,0.9016650390625,0.9195275528089796,0.36669921875,-0.2509765625,-1.4287109375,45.235882352941175,220.42764379724744
-0.1207060546875,-0.1405986328125,0.9031298828125,0.9219444193745554,0.38623046875,-0.21484375,-1.45703125,45.09470588235294,220.39781621836332
-0.1558623046875,-0.1498759765625,0.9099658203125,0.9353040470938118,0.35693359375,-0.2041015625,-1.412109375,45.42411764705882,220.39781621836332
-0.1700224609375,-0.1620830078125,0.9133837890625,0.9431057654192132,0.353515625,-0.19287109375,-1.51416015625,45.04764705882353,220.39781621836332
-0.1944365234375,-0.1708720703125,0.9006884765625001,0.9371459640161818,0.28369140625,-0.2041015625,-1.4716796875,45.235882352941175,220.39781621836332
-0.2120146484375,-0.1630595703125,0.9089892578125,0.9475231424303544,0.2470703125,-0.1181640625,-1.390625,44.85941176470588,220.1529822585968
-0.2076201171875,-0.1557353515625,0.9060595703125,0.9424985717454,0.24658203125,-0.03076171875,-1.3271484375,45.235882352941175,220.1529822585968
-0.2076201171875,-0.1518291015625,0.8953173828125001,0.931531752066698,0.26904296875,0.0849609375,-1.189453125,45.04764705882353,220.1529822585968
-0.2056669921875,-0.1484111328125,0.9055712890625,0.9404170009056944,0.30126953125,0.21630859375,-1.03173828125,44.81235294117647,220.1529822585968
-0.1968779296875,-0.1498759765625,0.8948291015625001,0.9284087723367064,0.34814453125,0.27294921875,-0.931640625,45.18882352941176,220.1529822585968
-0.1910185546875,-0.1532939453125,0.8904345703125001,0.9235046539741854,0.41162109375,0.3876953125,-0.85888671875,44.906470588235294,220.55633721747057
-0.1905302734375,-0.1513408203125,0.9060595703125,0.9381629783485922,0.4892578125,0.57421875,-0.84130859375,45.37705882352941,220.55633721747057
-0.1734404296875,-0.1454814453125,0.9285205078125,0.9557179327650924,0.56591796875,0.72802734375,-0.90283203125,45.00058823529412,220.55633721747057
-0.1543974609375,-0.1474345703125,0.9753955078125,0.9984848146707006,0.60791015625,0.87158203125,-0.962890625,45.00058823529412,220.55633721747057
-0.1348662109375,-0.1376689453125,1.0056689453125005,1.023968583952677,0.6533203125,0.943359375,-0.9677734375,45.47117647058823,220.5359305481847
-0.1128935546875,-0.1459697265625,1.0232470703125005,1.0397531835324312,0.6923828125,0.931640625,-0.98828125,45.00058823529412,220.5359305481847
-0.1089873046875,-0.1733134765625,1.0164111328125005,1.036825628852999,0.6611328125,0.87255859375,-1.05615234375,45.04764705882353,220.5359305481847
-0.1338896484375,-0.2030986328125,1.0095751953125005,1.0384688573083436,0.609375,0.8251953125,-1.09521484375,45.00058823529412,220.5359305481847
-0.1500029296875,-0.2250712890625,1.0183642578125005,1.0536715454377104,0.52880859375,0.88134765625,-1.04248046875,45.00058823529412,220.5359305481847
-0.1514677734375,-0.2314189453125,1.0339892578125005,1.0703415342362963,0.46630859375,0.91552734375,-1.005859375,45.04764705882353,220.6614985376367
-0.1641630859375,-0.2280009765625,1.0496142578125005,1.0865652554270555,0.38671875,0.96875,-1.01025390625,44.906470588235294,220.6614985376367
-0.2061552734375,-0.2040751953125,1.0964892578125005,1.134211344770512,0.35791015625,1.17822265625,-0.87548828125,45.235882352941175,220.6614985376367
-0.2300810546875,-0.2177470703125,1.1853564453125005,1.22695598160638,0.2548828125,1.384765625,-0.5634765625,45.18882352941176,220.6614985376367
-0.1973662109375,-0.2280009765625,1.2668994140625005,1.3022948943634791,0.193359375,1.34423828125,-0.38427734375,45.235882352941175,220.3554401320405
-0.1231474609375,-0.2558330078125,1.3450244140625005,1.374665959222791,0.1181640625,1.0546875,-0.74365234375,45.04764705882353,220.3554401320405
-0.0601591796875,-0.2612041015625,1.3684619140625005,1.3944657470921786,-0.01171875,0.48095703125,-1.41650390625,45.235882352941175,220.3554401320405
-0.0372099609375,-0.2372783203125,1.3630908203125005,1.384088930272725,-0.18017578125,0.0068359375,-1.89501953125,44.906470588235294,220.3554401320405
-0.0279326171875,-0.1845439453125,1.3645556640625005,1.377261361971466,-0.302734375,-0.20703125,-1.771484375,45.00058823529412,220.3554401320405
-0.0357451171875,-0.1357158203125,1.3962939453125005,1.4033293551416184,-0.26220703125,-0.1142578125,-1.0888671875,45.09470588235294,219.9097183410848
-0.0274443359375,-0.0922587890625,1.3655322265625005,1.368920427751397,-0.14208984375,-0.25,-0.23486328125,45.18882352941176,219.9097183410848
-0.0396513671875,-0.0590556640625,1.3630908203125005,1.3649455618441,0.02734375,-0.00048828125,0.87353515625,44.906470588235294,219.9097183410848
-0.0054716796875,-0.1567119140625,1.3772509765625005,1.3861489154236264,0.12109375,0.046875,1.81298828125,45.09470588235294,219.9097183410848
0.1048798828125,-0.0009501953124999,1.3313525390625005,1.335477546032902,0.24072265625,-0.3330078125,2.57470703125,45.04764705882353,219.99603323409656
0.1747041015625,0.0190693359375,1.2268603515625005,1.2393835100209778,0.3837890625,-0.92236328125,3.115234375,45.09470588235294,219.99603323409656
0.1732392578125,0.0254169921875,1.1409228515625005,1.1542802160466896,0.439453125,-1.03173828125,3.041015625,45.04764705882353,219.99603323409656
0.1068330078125,0.0034443359375,1.0642626953125005,1.069616865817917,0.39306640625,-0.61279296875,2.61962890625,45.18882352941176,219.99603323409656
0.0291962890625,-0.0068095703124999,1.0090869140625005,1.00953216574562,0.240234375,0.12548828125,1.681640625,44.81235294117647,219.99603323409656
-0.0508818359375,-0.0043681640624999,0.9812548828125,0.9825829161597616,0.14453125,0.85009765625,1.1923828125,45.09470588235294,219.9850480916531
-0.0689482421875,0.0219990234375,0.9412158203125,0.9439941935941568,0.13720703125,1.1494140625,1.07958984375,44.906470588235294,219.9850480916531
-0.0523466796875,0.0805927734375,0.8386767578125001,0.844164719767144,0.16650390625,1.5576171875,0.90185546875,45.235882352941175,219.9850480916531
-0.0303740234375,0.0888935546875,0.9876025390625,0.9920601899720896,0.16064453125,2.1494140625,0.62939453125,44.906470588235294,219.9850480916531
-0.0196318359375,0.0454365234375,1.0154345703125005,1.0166401788391484,0.10205078125,2.2421875,0.48974609375,45.00058823529412,220.99109918029544
0.0497041015625,-0.0209697265625,1.0164111328125005,1.0178417450907735,-0.0029296875,2.03759765625,0.19482421875,44.81235294117647,220.99109918029544
0.0897431640625,-0.0458720703125,1.0491259765625005,1.0539560697813375,-0.4365234375,1.478515625,-0.36279296875,45.00058823529412,220.99109918029544
0.0243134765625,-0.0629619140625,1.0769580078125005,1.0790708495536512,-0.51171875,1.38037109375,-0.76953125,45.00058823529412,220.99109918029544
-0.0616240234375,-0.0727275390625,1.0696337890625005,1.0738730175895632,-0.4853515625,1.30615234375,-0.92431640625,45.00058823529412,220.99109918029544
-0.1065458984375,-0.0795634765625,1.0574267578125005,1.0657550015901505,-0.47021484375,1.2880859375,-0.82763671875,44.85941176470588,221.3160291827604
-0.0635771484375,-0.0947001953125,1.0427783203125005,1.048998001003543,-0.4326171875,1.08642578125,-0.6669921875,44.85941176470588,221.3160291827604
-0.0176787109375,-0.1015361328125,0.9919970703125,0.9973366084705366,-0.45849609375,0.69580078125,-0.46337890625,45.00058823529412,221.3160291827604
-0.0059599609375,-0.1142314453125,0.9563525390625,0.963169000333716,-0.33544921875,0.478515625,-0.24658203125,45.00058823529412,221.3160291827604
0.0018525390625,-0.0981181640625,0.9192431640625,0.9244666574277356,-0.35595703125,0.2890625,0.11181640625,45.00058823529412,221.38505778995608
-0.0230498046875,-0.0815166015625,0.8821337890625001,0.8861920060755427,-0.34765625,0.1728515625,0.2744140625,45.00058823529412,221.38505778995608
-0.0513701171875,-0.0634501953125,0.8411181640625001,0.8450707557009192,-0.349609375,0.05615234375,0.27197265625,45.235882352941175,221.38505778995608
-0.0777373046875,-0.0712626953125,0.8113330078125001,0.8181581203223236,-0.32568359375,-0.04296875,0.302734375,45.09470588235294,221.38505778995608
-0.0982451171875,-0.0561259765625,0.7761767578125001,0.7843803845485966,-0.3408203125,0.0576171875,0.25,44.85941176470588,221.38505778995608
-0.1153349609375,-0.0551494140625,0.7546923828125001,0.7654437952985842,-0.2998046875,0.0419921875,0.36865234375,45.04764705882353,220.6646245518329
-0.2584013671875,-0.0644267578125,0.7473681640625001,0.793398541932585,-0.322265625,0.09912109375,0.5009765625,45.09470588235294,220.6646245518329
-0.1182646484375,-0.0512431640625,0.7229541015625001,0.7343534720413756,-0.34521484375,0.07763671875,0.4794921875,45.04764705882353,220.6646245518329
-0.1138701171875,-0.0551494140625,0.7161181640625001,0.7272091077262288,-0.341796875,0.06884765625,0.53857421875,45.00058823529412,220.6646245518329
-0.1182646484375,-0.0614970703125,0.7244189453125001,0.7365807661449905,-0.32666015625,0.07080078125,0.78173828125,45.33,220.75723859928
-0.1514677734375,-0.0780986328125,0.7727587890625001,0.7913267523031412,-0.2353515625,0.17333984375,1.275390625,44.906470588235294,220.75723859928
-0.1309599609375,-0.0844462890625,0.7625048828125001,0.7782643403228001,-0.19140625,0.28125,1.5283203125,45.04764705882353,220.75723859928
-0.1031279296875,-0.0922587890625,0.7795947265625001,0.7917796358362394,-0.1884765625,0.21240234375,1.79931640625,45.00058823529412,220.75723859928
-0.0904326171875,-0.0824931640625,0.7908251953125001,0.8002422570131356,-0.28564453125,-0.01708984375,1.9453125,45.18882352941176,220.75723859928
-0.0972685546875,-0.0707744140625,0.8035205078125001,0.812474858621572,-0.40869140625,-0.232421875,1.95556640625,45.235882352941175,220.524945491782
-0.1119169921875,-0.0590556640625,0.8264697265625001,0.8361011861745284,-0.39794921875,-0.26318359375,1.89697265625,45.235882352941175,220.524945491782
-0.1236357421875,-0.0527080078125,0.8489306640625001,0.859504044911607,-0.4130859375,-0.35498046875,1.99365234375,45.09470588235294,220.524945491782
-0.1382841796875,-0.0434306640625,0.8645556640625001,0.876621487984013,-0.40673828125,-0.3935546875,1.93701171875,45.09470588235294,220.524945491782
-0.1519560546875,-0.0458720703125,0.8870166015625001,0.9011067311026104,-0.40673828125,-0.4951171875,1.9443359375,44.81235294117647,220.68346853647543
-0.1622099609375,-0.0361064453125,0.9041064453125,0.919251984646242,-0.43310546875,-0.62939453125,1.923828125,45.09470588235294,220.68346853647543
-0.1939482421875,-0.0331767578125,0.9148486328125,0.9357695436727308,-0.43115234375,-0.759765625,2.00830078125,45.18882352941176,220.68346853647543
-0.2139677734375,-0.0434306640625,0.9182666015625,0.9438654470822916,-0.43505859375,-0.78173828125,2.10009765625,45.09470588235294,220.68346853647543
-0.2242216796875,-0.0434306640625,0.9255908203125,0.95335195540239,-0.45361328125,-0.7705078125,2.1669921875,45.00058823529412,220.68346853647543
-0.2334990234375,-0.0458720703125,0.9480517578125,0.9774600637736522,-0.4375,-0.7138671875,2.1416015625,45.09470588235294,220.6614985376367
-0.2481474609375,-0.0502666015625,0.9602587890625,0.9930764500148768,-0.4609375,-0.568359375,2.10693359375,45.00058823529412,220.6614985376367
-0.2403349609375,-0.0502666015625,0.9651416015625,0.9958844992006354,-0.45703125,-0.4697265625,2.09814453125,45.47117647058823,220.6614985376367
-0.2300810546875,-0.0429423828125,0.9817431640625,1.0092576381435896,-0.46826171875,-0.49853515625,2.09130859375,45.00058823529412,220.6614985376367
-0.2164091796875,-0.0331767578125,1.0061572265625005,1.0297018961213524,-0.4833984375,-0.26611328125,2.14892578125,45.04764705882353,220.8749493391251
-0.1934599609375,-0.0112041015624999,1.0237353515625005,1.0419147558301294,-0.42138671875,-0.27392578125,2.20654296875,45.33,220.8749493391251
-0.1675810546875,0.0053974609375,1.0115283203125005,1.025330232300294,-0.40380859375,-0.36279296875,2.173828125,45.09470588235294,220.8749493391251
-0.1495146484375,0.0239521484375,0.9944384765625,1.0059007004571114,-0.3486328125,-0.18359375,2.0244140625,45.04764705882353,220.8749493391251
-0.1421904296875,0.0161396484375,1.0071337890625005,1.017249760687016,-0.35546875,0.12451171875,1.91552734375,44.906470588235294,220.8749493391251
-0.1309599609375,-0.0029033203124999,1.0261767578125005,1.0345035905748048,-0.3408203125,0.15869140625,1.8359375,45.09470588235294,220.980114198831
-0.1309599609375,-0.0038798828124999,1.0300830078125005,1.0383817062349654,-0.326171875,0.0556640625,1.640625,44.906470588235294,220.980114198831
-0.1714873046875,0.0010029296875,1.0247119140625005,1.0389626597518191,-0.287109375,0.1142578125,1.40966796875,45.235882352941175,220.980114198831
-0.2125029296875,0.0034443359375,1.0437548828125005,1.065173044143888,-0.236328125,0.2685546875,1.2119140625,45.18882352941176,220.980114198831
-0.2579130859375,-0.0180400390625,1.0598681640625005,1.0909468951788606,-0.2421875,0.56298828125,1.08056640625,44.906470588235294,220.90634244240985
-0.3023466796875,-0.0385478515625,1.1277392578125005,1.168201731375891,-0.30859375,1.0810546875,1.03466796875,45.235882352941175,220.90634244240985
-0.2994169921875,-0.0624736328125,1.2102587890625005,1.248310789230963,-0.25439453125,1.4892578125,1.189453125,44.34176470588236,220.90634244240985
-0.2510771484375,-0.0961650390625,1.2400439453125005,1.2688563494389702,-0.169921875,1.3583984375,1.28125,45.00058823529412,220.90634244240985
-0.1998076171875,-0.0927470703125,1.1917041015625005,1.2118926390644449,-0.08984375,1.0439453125,1.06982421875,45.33,220.90634244240985
-0.1963896484375,-0.0776103515625,1.1926806640625005,1.211230542511056,-0.18896484375,1.26171875,0.75244140625,45.00058823529412,220.62224764786487
-0.1607451171875,-0.0639384765625,1.3342822265625005,1.3454501780464931,-0.20361328125,2.2001953125,0.65283203125,45.33,220.62224764786487
-0.0674833984375,-0.0839580078125,1.4622119140625005,1.4661741498767595,-0.1630859375,2.38525390625,0.724609375,45.09470588235294,220.62224764786487
0.0628876953125,-0.0820048828125,1.5208056640625005,1.5243128061101474,-0.0615234375,1.85693359375,0.51123046875,45.18882352941176,220.62224764786487
0.1620087890625,-0.0488017578125,1.4978564453125005,1.5073826289510197,0.09814453125,0.97900390625,-0.02001953125,44.906470588235294,220.47314771800671
0.2328095703125,-0.0385478515625,1.3972705078125005,1.4170571988779346,0.14208984375,0.4267578125,-0.388671875,44.906470588235294,220.47314771800671
0.3011689453125,-0.0863994140625,1.2874072265625005,1.32498489024454,0.05078125,0.16552734375,-1.099609375,45.09470588235294,220.47314771800671
0.2855439453125,-0.1894267578125,1.1804736328125005,1.2292013012706768,-0.19873046875,-0.25,-1.83935546875,45.04764705882353,220.47314771800671
0.2396455078125,-0.2826884765625,1.1101611328125005,1.170384759386191,-0.484375,-0.724609375,-2.52880859375,45.04764705882353,220.47314771800671
0.1903291015625,-0.3310283203125,1.0056689453125005,1.0757206623080455,-0.64453125,-1.22998046875,-3.0947265625,44.906470588235294,221.0444627927111
0.1053681640625,-0.3295634765625,0.9397509765625,1.0014222051822277,-0.72900390625,-1.66015625,-3.05078125,44.81235294117647,221.0444627927111
0.0248017578125,-0.3066142578125,0.8660205078125001,0.919031528423438,-0.65380859375,-1.98876953125,-2.38720703125,45.00058823529412,221.0444627927111
-0.0601591796875,-0.3071025390625,0.8377001953125001,0.8942442136384826,-0.474609375,-2.26171875,-1.37353515625,45.00058823529412,221.0444627927111
-0.1446318359375,-0.2909892578125,0.8440478515625001,0.9044389928879636,-0.3203125,-2.27490234375,-0.037109375,45.09470588235294,221.48866889711957
-0.1895537109375,-0.2524150390625,0.9065478515625,0.9599338354530929,-0.2451171875,-1.56640625,0.81298828125,44.24764705882353,221.48866889711957
-0.1500029296875,-0.1791728515625,0.9846728515625,1.012019967320851,-0.04296875,-0.45458984375,0.78125,45.235882352941175,221.48866889711957
-0.1011748046875,-0.1591533203125,0.9895556640625,1.0073661363914426,0.10205078125,0.45947265625,0.42578125,44.906470588235294,221.48866889711957
-0.0645537109375,-0.1821025390625,0.9407275390625,0.9603628580278388,0.16064453125,0.4189453125,0.63623046875,45.235882352941175,221.48866889711957
-0.0352568359375,-0.1562236328125,0.9412158203125,0.9547439909923452,0.1064453125,0.18359375,1.20263671875,45.00058823529412,221.6267962749034
-0.0284208984375,-0.1000712890625,0.9739306640625,0.9794707493150816,0.166015625,0.17919921875,1.64013671875,45.04764705882353,221.6267962749034
-0.0137724609375,-0.0390361328125,1.0071337890625005,1.0079841116885817,0.28271484375,0.43701171875,1.46923828125,44.85941176470588,221.6267962749034
-0.0162138671875,-0.0522197265625,1.0217822265625005,1.023244207337846,0.52587890625,0.55615234375,1.34912109375,44.906470588235294,221.6267962749034
-0.0059599609375,-0.0883525390625,0.9998095703125,1.0037235023559192,0.77783203125,0.5166015625,1.26904296875,45.00058823529412,221.08840289123583
0.0438447265625,-0.0986064453125,0.9314501953125,0.9376806798970544,0.8203125,0.31884765625,1.0087890625,45.00058823529412,221.08840289123583
0.0623994140625,-0.1488994140625,0.9060595703125,0.9203307380167042,0.705078125,0.12060546875,0.8017578125,45.00058823529412,221.08840289123583
0.0853486328125,-0.1630595703125,0.8855517578125001,0.904474835668892,0.5458984375,-0.23388671875,0.19384765625,45.235882352941175,221.08840289123583
0.1068330078125,-0.1513408203125,0.8582080078125001,0.8779739860181658,0.38623046875,-0.42529296875,-0.4912109375,45.04764705882353,221.08840289123583
0.0760712890625,-0.1635478515625,0.8469775390625001,0.8659709535814171,0.20849609375,-0.5517578125,-0.89208984375,44.81235294117647,221.3630877905271
0.0335908203125,-0.1850322265625,0.8445361328125001,0.8652205196953178,0.08642578125,-0.64453125,-1.31298828125,45.04764705882353,221.3630877905271
-0.0303740234375,-0.1899150390625,0.8601611328125001,0.8814008609952546,0.05419921875,-0.64404296875,-1.5830078125,44.906470588235294,221.3630877905271
-0.0606474609375,-0.1884501953125,0.8752978515625001,0.8974062177082425,0.06640625,-0.6318359375,-1.70361328125,44.81235294117647,221.3630877905271
-0.0826201171875,-0.1943095703125,0.8513720703125001,0.877164006892267,0.24951171875,-0.7041015625,-1.474609375,45.00058823529412,221.2249639334082
-0.0772490234375,-0.1830791015625,0.8435595703125001,0.8666476318070623,0.099609375,-0.71826171875,-1.30126953125,45.09470588235294,221.2249639334082
-0.0704130859375,-0.1718486328125,0.8611376953125001,0.8809359145584266,0.06005859375,-0.6318359375,-1.3056640625,45.235882352941175,221.2249639334082
-0.0748076171875,-0.1723369140625,0.8665087890625001,0.8866417952366205,0.05078125,-0.55517578125,-1.27685546875,45.00058823529412,221.2249639334082
-0.0728544921875,-0.1694072265625,0.8665087890625001,0.8859142548610768,-0.005859375,-0.46923828125,-1.14306640625,45.00058823529412,221.2249639334082
-0.0665068359375,-0.1757548828125,0.8831103515625001,0.9028825123434918,-0.0126953125,-0.3359375,-1.05712890625,44.85941176470588,220.82158638089157
-0.0626005859375,-0.1738017578125,0.8875048828125001,0.9065267791932364,-0.04248046875,-0.28076171875,-1.017578125,45.04764705882353,220.82158638089157
-0.0635771484375,-0.1786845703125,0.8972705078125001,0.9170957385471312,-0.04931640625,-0.287109375,-1.05810546875,45.09470588235294,220.82158638089157
-0.0757841796875,-0.1850322265625,0.9182666015625,0.9397838678668232,0.0146484375,-0.32861328125,-1.025390625,45.37705882352941,220.82158638089157
-0.0879912109375,-0.1899150390625,0.9270556640625,0.9503906457529564,0.04541015625,-0.267578125,-1.03173828125,44.81235294117647,220.4825688982365
-0.1050810546875,-0.1977275390625,0.9392626953125,0.96558408156082,0.068359375,-0.169921875,-1.0927734375,45.518235294117645,220.4825688982365
-0.1304716796875,-0.2035869140625,0.9246142578125,0.9557102157705178,0.13818359375,-0.08447265625,-1.03125,45.09470588235294,220.4825688982365
-0.1431669921875,-0.2070048828125,0.9251025390625,0.9587296370406608,0.10888671875,-0.04736328125,-0.93896484375,45.235882352941175,220.4825688982365
-0.1519560546875,-0.1991923828125,0.9382861328125,0.971158645616126,0.1357421875,0.02685546875,-0.998046875,45.09470588235294,220.4825688982365
-0.1607451171875,-0.1923564453125,0.9402392578125,0.9730826566559928,0.1728515625,0.11083984375,-0.86376953125,45.09470588235294,220.49199040607635
-0.1724638671875,-0.1855205078125,0.9431689453125,0.9765906530917492,0.2392578125,0.1962890625,-0.7998046875,45.37705882352941,220.49199040607635
-0.1709990234375,-0.1684306640625,0.9456103515625,0.9755964799010236,0.32080078125,0.28271484375,-0.73486328125,45.04764705882353,220.49199040607635
-0.1670927734375,-0.1601298828125,0.9402392578125,0.9683033802669396,0.43603515625,0.40380859375,-0.6767578125,45.09470588235294,220.49199040607635
-0.1656279296875,-0.1576884765625,0.9402392578125,0.9676508299303888,0.51123046875,0.5673828125,-0.697265625,45.00058823529412,220.9722526900433
-0.1641630859375,-0.1528056640625,0.9573291015625,0.9832487469875404,0.67138671875,0.74755859375,-0.76953125,45.04764705882353,220.9722526900433
-0.1402373046875,-0.1567119140625,0.9636767578125,0.9863559292583784,0.7626953125,0.84326171875,-0.9794921875,45.00058823529412,220.9722526900433
-0.1324248046875,-0.1562236328125,0.9783251953125,0.99953106011214,0.80859375,0.96435546875,-1.2080078125,45.235882352941175,220.9722526900433
-0.1270537109375,-0.1508525390625,1.0017626953125005,1.0209934533210083,0.88525390625,1.16357421875,-1.38427734375,45.00058823529412,220.9722526900433
-0.1016630859375,-0.1591533203125,1.0105517578125005,1.0280467001195823,0.90771484375,1.30322265625,-1.466796875,45.00058823529412,220.54535219445407
-0.1060576171875,-0.1781962890625,1.0115283203125005,1.0325655806743534,0.87353515625,1.4013671875,-1.50634765625,45.00058823529412,220.54535219445407
-0.1270537109375,-0.1869853515625,1.0139697265625005,1.0388651373239806,0.8388671875,1.529296875,-1.48681640625,44.906470588235294,220.54535219445407
-0.1626982421875,-0.2182353515625,1.0339892578125005,1.06921988943068,0.755859375,1.7060546875,-1.31494140625,45.04764705882353,220.54535219445407
-0.1543974609375,-0.2372783203125,1.0461962890625005,1.0838202122503595,0.625,1.81005859375,-1.13232421875,45.09470588235294,220.85297932899692
-0.1470732421875,-0.2558330078125,1.0627978515625005,1.1030051403959096,0.53369140625,1.736328125,-1.1298828125,45.00058823529412,220.85297932899692
-0.1709990234375,-0.2651103515625,1.0642626953125005,1.1100356972440115,0.40185546875,1.63916015625,-1.16259765625,45.00058823529412,220.85297932899692
-0.2261748046875,-0.2421611328125,1.0833056640625005,1.1328496009225395,0.220703125,1.7880859375,-1.05322265625,45.00058823529412,220.85297932899692
-0.2505888671875,-0.2275126953125,1.1526416015625005,1.201307399685542,0.1728515625,1.966796875,-0.76220703125,45.04764705882353,220.85297932899692
-0.2339873046875,-0.2143291015625,1.1941455078125005,1.2355850907000634,0.17626953125,2.0087890625,-0.57275390625,45.00058823529412,220.4841328272656
-0.2203154296875,-0.2250712890625,1.2170947265625005,1.2571855659149491,0.169921875,2.09423828125,-0.48583984375,44.81235294117647,220.4841328272656
-0.2159208984375,-0.2201884765625,1.2517626953125005,1.289191469475728,0.07373046875,2.32275390625,-0.36962890625,45.09470588235294,220.4841328272656
-0.1714873046875,-0.2221416015625,1.3425830078125005,1.371599037503525,0.04443359375,2.3642578125,-0.30517578125,45.33,220.4841328272656
-0.0743193359375,-0.2143291015625,1.4128955078125005,1.4309905811945522,0.0078125,1.962890625,-0.4208984375,45.04764705882353,220.08078251043935
0.0018525390625,-0.2050517578125,1.4172900390625005,1.432047733180971,-0.125,1.35302734375,-0.41845703125,44.85941176470588,220.08078251043935
0.0697236328125,-0.1884501953125,1.3835986328125005,1.398113027550531,-0.0166015625,0.78076171875,-0.27685546875,45.04764705882353,220.08078251043935
0.0980439453125,-0.1528056640625,1.3547900390625005,1.3669009606130915,-0.1240234375,0.5234375,-0.091796875,45.00058823529412,220.08078251043935
0.0960908203125,-0.0893291015625,1.2454150390625005,1.252306573350688,0.033203125,0.25634765625,0.30126953125,45.09470588235294,220.08078251043935
0.1009736328125,-0.0014384765624999,1.1619189453125005,1.1662990093514989,0.076171875,0.27783203125,0.8369140625,45.04764705882353,220.38996009603213
0.1371064453125,0.0766865234375,1.0764697265625005,1.0878722684344444,0.24365234375,0.39453125,1.31640625,45.18882352941176,220.38996009603213
0.1537080078125,0.1308857421875,1.0422900390625005,1.061661789226008,0.38134765625,0.556640625,1.53466796875,45.00058823529412,220.38996009603213
0.1268525390625,0.1386982421875,0.9993212890625,1.016844043020385,0.47998046875,0.54443359375,1.640625,45.09470588235294,220.38996009603213
0.0536103515625,0.1474873046875,1.0066455078125005,1.0188040799082645,0.64501953125,0.9462890625,1.4814453125,45.18882352941176,221.130781655176
0.0057587890625,0.1089130859375,1.0071337890625005,1.0130220594889752,0.78759765625,1.37353515625,1.1181640625,45.09470588235294,221.130781655176
-0.0318388671875,0.0639912109375,1.0457080078125005,1.0481478073936992,0.77978515625,1.365234375,0.76025390625,45.04764705882353,221.130781655176
-0.0689482421875,0.0381123046875,1.0818408203125005,1.0847054754004712,1.0654296875,1.67333984375,0.4228515625,45.00058823529412,221.130781655176
-0.0923857421875,-0.0253642578125,1.0447314453125005,1.0491149907224946,0.7666015625,1.63134765625,0.37548828125,45.00058823529412,221.130781655176
-0.0738310546875,-0.0600322265625,1.0530322265625005,1.0573229227825796,0.2939453125,1.6005859375,0.22509765625,45.00058823529412,221.14962972594392
-0.0367216796875,-0.0751689453125,1.0803759765625005,1.083610217205357,0.04736328125,1.64794921875,-0.267578125,45.235882352941175,221.14962972594392
-0.0084013671875,-0.1210673828125,1.0935595703125005,1.100272887957232,-0.1083984375,1.66748046875,-0.89892578125,44.85941176470588,221.14962972594392
-0.0069365234375,-0.1528056640625,1.0911181640625005,1.1017878807983423,-0.3017578125,1.3076171875,-1.443359375,45.09470588235294,221.14962972594392
-0.0079130859375,-0.1752666015625,1.0305712890625005,1.0453985748948895,-0.46044921875,0.8779296875,-1.9521484375,44.906470588235294,221.5435936107851
-0.0303740234375,-0.1777080078125,0.9705126953125,0.9871158032891596,-0.6533203125,0.51611328125,-2.271484375,45.00058823529412,221.5435936107851
-0.0660185546875,-0.1479228515625,0.9192431640625,0.9334064571519978,-0.82373046875,0.3388671875,-2.396484375,44.81235294117647,221.5435936107851
-0.0884794921875,-0.1156962890625,0.8787158203125001,0.8907051951729379,-0.8427734375,0.16162109375,-2.3349609375,45.00058823529412,221.5435936107851
-0.1172880859375,-0.0995830078125,0.8293994140625001,0.8435500332494127,-0.8427734375,0.13134765625,-1.7041015625,45.18882352941176,221.5435936107851
-0.1075224609375,-0.0541728515625,0.7874072265625001,0.7965587975129753,-0.87451171875,0.1455078125,-1.02685546875,45.18882352941176,221.3411178467631
-0.1065458984375,-0.0419658203125,0.7903369140625001,0.7985897546789532,-0.82177734375,0.32763671875,-0.607421875,45.18882352941176,221.3411178467631
-0.1016630859375,-0.0448955078125,0.7664111328125001,0.77442689400809,-0.6630859375,0.40185546875,-0.2705078125,45.00058823529412,221.3411178467631
-0.1358427734375,-0.0741923828125,0.7747119140625001,0.7900229860915257,-0.4697265625,0.61279296875,0.2099609375,45.00058823529412,221.3411178467631
-0.1392607421875,-0.0785869140625,0.7537158203125001,0.7704913985021669,-0.34619140625,0.58837890625,0.53564453125,44.85941176470588,221.0993879506589
-0.1460966796875,-0.0712626953125,0.7708056640625001,0.7877588357547923,-0.20751953125,0.53662109375,0.6796875,45.09470588235294,221.0993879506589
-0.1612333984375,-0.0776103515625,0.7761767578125001,0.7965362106079578,-0.1376953125,0.53369140625,0.74267578125,45.18882352941176,221.0993879506589
-0.1719755859375,-0.0824931640625,0.7752001953125001,0.7983207795667899,-0.04052734375,0.5380859375,0.822265625,45.18882352941176,221.0993879506589
-0.1866240234375,-0.0922587890625,0.7874072265625001,0.8144632285905409,0.0576171875,0.62646484375,1.05322265625,45.47117647058823,221.0993879506589
-0.1617216796875,-0.0868876953125,0.7732470703125001,0.7947417222120207,0.1005859375,0.7255859375,1.34228515625,45.04764705882353,220.70543859098407
-0.1270537109375,-0.0761455078125,0.7771533203125001,0.7911435186461155,0.05615234375,0.5458984375,1.4248046875,45.09470588235294,220.70543859098407
-0.1583037109375,-0.0815166015625,0.8020556640625001,0.8215828074403827,-0.03271484375,0.3994140625,1.37060546875,45.235882352941175,220.70543859098407
-0.1231474609375,-0.0566142578125,0.8289111328125001,0.8399191255254969,-0.171875,0.2509765625,1.72998046875,45.09470588235294,220.70543859098407
-0.0918974609375,-0.0527080078125,0.8723681640625001,0.8787772704639664,-0.1923828125,-0.044921875,1.9501953125,45.235882352941175,220.01800356072235
-0.0713896484375,-0.0414775390625,0.8899462890625001,0.8937680155201494,-0.21337890625,-0.421875,2.005859375,45.00058823529412,220.01800356072235
-0.0997099609375,-0.0341533203125,0.9065478515625,0.9126541145314092,-0.173828125,-0.640625,2.0107421875,45.00058823529412,220.01800356072235
-0.1495146484375,-0.0361064453125,0.8997119140625001,0.9127649389610129,-0.1708984375,-0.7421875,2.0927734375,45.09470588235294,220.01800356072235
-0.1866240234375,-0.0414775390625,0.9089892578125,0.9288758707110448,-0.123046875,-0.6953125,2.09033203125,45.09470588235294,220.01800356072235
-0.2134794921875,-0.0341533203125,0.9153369140625,0.94052198757842,-0.1171875,-0.6572265625,2.0859375,45.04764705882353,220.2706884666028
-0.2413115234375,-0.0429423828125,0.9260791015625,0.9579654492392456,-0.099609375,-0.5703125,2.04931640625,45.04764705882353,220.2706884666028
-0.2667021484375,-0.0453837890625,0.9294970703125,0.9680674191451588,-0.1455078125,-0.46044921875,2.0478515625,45.00058823529412,220.2706884666028
-0.2671904296875,-0.0614970703125,0.9358447265625,0.9751809922309048,-0.20947265625,-0.353515625,2.00927734375,45.00058823529412,220.2706884666028
-0.2623076171875,-0.0741923828125,0.9514697265625,0.9897496836407168,-0.25830078125,-0.255859375,1.95947265625,45.00058823529412,220.51552412583976
-0.2686552734375,-0.0712626953125,0.9543994140625,0.9940484239974549,-0.296875,-0.16455078125,1.876953125,44.81235294117647,220.51552412583976
-0.2740263671875,-0.0658916015625,0.9690478515625,1.0092006201387052,-0.3525390625,-0.12255859375,1.8408203125,45.00058823529412,220.51552412583976
-0.2588896484375,-0.0658916015625,0.9880908203125,1.0235668138477296,-0.42724609375,0.23193359375,1.82763671875,44.906470588235294,220.51552412583976
-0.2159208984375,-0.0702861328125,0.9910205078125,1.0167023270125526,-0.47900390625,0.3701171875,1.77978515625,45.235882352941175,220.51552412583976
-0.1807646484375,-0.0702861328125,1.0110400390625005,1.029474603464297,-0.53466796875,0.4873046875,1.6650390625,45.235882352941175,220.2801090458708
-0.1612333984375,-0.0527080078125,1.0012744140625005,1.0155416264809,-0.55029296875,0.5390625,1.537109375,45.00058823529412,220.2801090458708
-0.1587919921875,-0.0209697265625,1.0027392578125005,1.0154509566558816,-0.5400390625,0.60546875,1.5615234375,45.00058823529412,220.2801090458708
-0.1749052734375,0.0127216796875,1.0027392578125005,1.017958601795123,-0.50537109375,0.68359375,1.6513671875,45.47117647058823,220.2801090458708
-0.2007841796875,0.0420185546875,1.0271533203125005,1.0474367709698769,-0.39013671875,0.79248046875,1.76123046875,45.09470588235294,220.81372648865712
-0.2339873046875,0.0512958984375,1.0447314453125005,1.0718419290064076,-0.27490234375,0.89697265625,1.802734375,45.235882352941175,220.81372648865712
-0.2667021484375,0.0381123046875,1.0544970703125005,1.088368804701521,-0.24560546875,0.93994140625,1.68017578125,45.09470588235294,220.81372648865712
-0.3028349609375,0.0039326171875,1.0501025390625005,1.0929043057786303,-0.20849609375,0.96923828125,1.353515625,45.09470588235294,220.81372648865712
-0.3194365234375,-0.0136455078124999,1.0530322265625005,1.100501141557097,-0.17431640625,1.15234375,1.013671875,45.09470588235294,220.81372648865712
-0.3345732421875,-0.0273173828125,1.0872119140625005,1.1378555443776797,-0.1904296875,1.51171875,0.72607421875,45.04764705882353,220.1121722764054
-0.3458037109375,-0.0614970703125,1.1824267578125005,1.2334890083604912,-0.1953125,1.966796875,0.65673828125,45.00058823529412,220.1121722764054
-0.3111357421875,-0.0927470703125,1.2566455078125005,1.297908086662324,-0.16064453125,2.00390625,0.6650390625,45.04764705882353,220.1121722764054
-0.2584013671875,-0.1283916015625,1.3074267578125005,1.3388877462133482,-0.12939453125,1.55322265625,0.544921875,45.33,220.1121722764054
-0.2261748046875,-0.1264384765625,1.2981494140625005,1.3237573916173944,-0.13232421875,1.13623046875,0.421875,45.04764705882353,219.9771958474364
-0.1959013671875,-0.0844462890625,1.2634814453125005,1.2813640716249708,-0.109375,1.17431640625,0.33447265625,45.04764705882353,219.9771958474364
-0.1124052734375,-0.0439189453125,1.2825244140625005,1.288189695627271,-0.09228515625,1.3818359375,0.259765625,44.15352941176471,219.9771958474364
-0.0079130859375,-0.0380595703125,1.3274462890625005,1.3280153606668974,-0.05322265625,1.8388671875,0.03466796875,45.09470588235294,219.9771958474364
