AccX,AccY,AccZ,Magnitude,GyroX,GyroY,GyroZ,Temperature,Altitude
-0.0113310546875,0.2524677734375,0.9275439453125,0.9613564062878543,-0.2900390625,-0.03564453125,3.10986328125,45.70647058823529,399.0151514995961
0.0526337890625,0.2524677734375,0.8430712890625001,0.8816345562743501,-0.16455078125,-0.0576171875,2.99658203125,45.84764705882353,399.0151514995961
0.0707001953125,0.2109638671875,0.7180712890625001,0.7517517190215206,-0.115234375,-0.36767578125,2.92236328125,45.7535294117647,399.0151514995961
0.0609345703125,0.1802021484375,0.6663134765625001,0.692935412004225,-0.06494140625,-0.74267578125,2.79638671875,45.7535294117647,399.0151514995961
0.0692353515625,0.1133076171875,0.5989306640625001,0.6134737894751815,-0.0087890625,-0.921875,2.55078125,45.7535294117647,399.0754845846856
0.0374970703125,0.0864521484375,0.5833056640625001,0.5908684303454317,0.18017578125,-0.8916015625,2.33251953125,45.565294117647056,399.0754845846856
-0.0171904296875,0.0552021484375,0.5779345703125001,0.5808193829644899,0.3076171875,-0.74365234375,2.162109375,45.61235294117647,399.0754845846856
-0.0425810546875,0.0371357421875,0.5662158203125001,0.5690277363523448,0.3583984375,-0.50927734375,1.7958984375,45.565294117647056,399.0754845846856
-0.0538115234375,0.0229755859375,0.5525439453125001,0.55563330453217,0.27587890625,-0.26953125,1.4384765625,45.84764705882353,399.0754845846856
-0.0611357421875,0.0166279296875,0.5261767578125001,0.5299774028018395,0.115234375,-0.22607421875,1.2470703125,45.84764705882353,398.9133356547264
-0.0318388671875,0.0141865234375,0.5427783203125001,0.5438963834337244,0.0185546875,-0.349609375,0.9267578125,45.89470588235295,398.9133356547264
-0.0518583984375,0.0019794921875,0.5750048828125001,0.5773420365225798,0.025390625,-0.53466796875,0.93359375,46.13,398.9133356547264
-0.0523466796875,0.0068623046875,0.6135791015625001,0.6158462307866912,0.0908203125,-0.47265625,0.890625,45.84764705882353,398.9133356547264
-0.0616240234375,0.0039326171875,0.6482470703125001,0.6511814262640699,0.22265625,-0.14892578125,0.81787109375,45.7535294117647,398.7480725192441
-0.0591826171875,0.0073505859375,0.6497119140625001,0.6524432424092874,0.31201171875,0.10009765625,0.732421875,45.7535294117647,398.7480725192441
-0.0752958984375,0.0053974609375,0.6570361328125001,0.6613585145193849,0.2978515625,0.12158203125,0.63037109375,45.84764705882353,398.7480725192441
-0.0953154296875,0.0151630859375,0.6882861328125001,0.6950199644137189,0.25341796875,0.2080078125,0.43505859375,45.7535294117647,398.7480725192441
-0.1011748046875,0.0395771484375,0.7332080078125001,0.7412129751308816,0.13134765625,0.2568359375,0.193359375,45.70647058823529,398.7480725192441
-0.0704130859375,0.0761982421875,0.7893603515625001,0.7961494453948833,0.060546875,0.1669921875,-0.06982421875,45.565294117647056,398.5436207595265
-0.0459990234375,0.1196552734375,0.8259814453125001,0.8358699914574832,-0.072265625,-0.05419921875,-0.3505859375,45.89470588235295,398.5436207595265
-0.0503935546875,0.1372333984375,0.8313525390625001,0.8441087371935048,-0.17724609375,-0.375,-0.63037109375,45.565294117647056,398.5436207595265
-0.1060576171875,0.1421162109375,0.8699267578125001,0.8878163095668442,-0.22021484375,-0.30126953125,-1.13720703125,45.7535294117647,398.5436207595265
-0.0118193359375,0.1460224609375,0.9446337890625,0.955926383796798,-0.203125,-0.3408203125,-1.3115234375,45.61235294117647,398.5005378349532
-0.0870146484375,0.1509052734375,1.0217822265625005,1.0365244180013171,-0.0703125,-0.2822265625,-1.64306640625,45.565294117647056,398.5005378349532
-0.0484404296875,0.1323505859375,1.0520556640625005,1.0614538487905625,-0.0283203125,-0.15966796875,-2.14208984375,45.61235294117647,398.5005378349532
-0.0704130859375,0.1054951171875,1.0872119140625005,1.0945852952150836,0.06884765625,-0.0400390625,-2.4716796875,45.61235294117647,398.5005378349532
-0.0992216796875,0.0825458984375,1.1331103515625005,1.140437563344419,0.2392578125,0.04736328125,-2.46826171875,44.95352941176471,398.5005378349532
-0.1026396484375,0.0547138671875,1.1648486328125005,1.1706412097902312,0.28662109375,0.021484375,-2.25341796875,45.70647058823529,398.3579870071072
-0.1211943359375,0.0322529296875,1.2346728515625005,1.241025934024843,0.35400390625,0.24462890625,-2.13525390625,45.61235294117647,398.3579870071072
-0.1421904296875,0.0263935546875,1.3220751953125005,1.329961488195934,0.4775390625,0.51123046875,-2.2314453125,45.84764705882353,398.3579870071072
-0.1861357421875,0.0371357421875,1.3762744140625005,1.38930084599074,0.5791015625,0.8564453125,-2.3203125,46.03588235294118,398.3579870071072
-0.1934599609375,0.0737568359375,1.4221728515625005,1.4371647250941222,0.59912109375,1.1005859375,-2.439453125,45.7535294117647,397.4979298066782
-0.1861357421875,0.1465107421875,1.5481494140625005,1.5661668239233286,0.55517578125,1.1806640625,-2.333984375,45.84764705882353,397.4979298066782
-0.1348662109375,0.2383076171875,1.7229541015625005,1.744577384742008,0.78466796875,1.0498046875,-2.10302734375,45.565294117647056,397.4979298066782
-0.0064482421875,0.3139912109375,1.7341845703125005,1.7623927440508989,0.609375,0.794921875,-2.33154296875,45.84764705882353,397.4979298066782
0.0106416015625,0.3056904296875,1.6375048828125005,1.6658277593200097,0.44970703125,0.89208984375,-2.548828125,45.70647058823529,397.4979298066782
0.0819306640625,0.2900654296875,1.5271533203125005,1.556614226761085,0.46533203125,1.2373046875,-2.365234375,45.89470588235295,397.14155313191526
0.3109345703125,0.2710224609375,1.3533251953125005,1.4147871096442937,0.267578125,0.86376953125,-1.9931640625,45.84764705882353,397.14155313191526
0.4662080078125,0.2280537109375,1.3123095703125005,1.4112104059829789,0.21044921875,0.5654296875,-1.81689453125,45.61235294117647,397.14155313191526
0.5267548828125,0.1831318359375,1.2048876953125005,1.3276906018406995,0.07666015625,0.236328125,-1.76953125,45.565294117647056,397.14155313191526
0.5140595703125,0.1509052734375,1.0349658203125005,1.165411469222886,-0.19482421875,-0.1044921875,-2.037109375,45.565294117647056,398.48879326834657
0.4037080078125,0.1445576171875,0.9597705078125,1.051207157474458,-0.80810546875,-0.5068359375,-2.48681640625,45.94176470588236,398.48879326834657
0.2879853515625,0.1928974609375,0.9905322265625,1.0494279799059938,-1.23779296875,-1.140625,-2.6220703125,45.89470588235295,398.48879326834657
0.1165986328125,0.2602802734375,1.0784228515625005,1.1154985023237989,-0.8203125,-1.29443359375,-2.52734375,45.61235294117647,398.48879326834657
0.0135712890625,0.2920185546875,1.1824267578125005,1.218027936362535,-0.33984375,-0.88671875,-2.44189453125,45.7535294117647,398.48879326834657
-0.0245146484375,0.2461201171875,1.2146533203125005,1.2395800775337529,-0.07080078125,-0.43798828125,-2.37841796875,45.7535294117647,398.8953735147126
-0.0665068359375,0.2016865234375,1.2068408203125005,1.2253837678602044,0.0986328125,-0.244140625,-2.00634765625,45.7535294117647,398.8953735147126
-0.1221708984375,0.1421162109375,1.1892626953125005,1.20393874607399,0.30908203125,-0.048828125,-1.61328125,45.7535294117647,398.8953735147126
-0.0870146484375,0.0688740234375,1.1355517578125005,1.140961425648663,0.482421875,0.1435546875,-1.4228515625,45.84764705882353,398.8953735147126
0.0116181640625,0.0102802734375,1.0584033203125005,1.0585170070464895,0.400390625,0.28662109375,-1.40576171875,45.565294117647056,399.2181320727496
0.1302705078125,-0.0639384765625,0.9978564453125,1.008353122394411,0.18115234375,0.177734375,-1.568359375,45.89470588235295,399.2181320727496
0.1688447265625,-0.1039775390625,0.8928759765625001,0.914629640805445,-0.15478515625,-0.03125,-1.76416015625,45.7535294117647,399.2181320727496
0.1429658203125,-0.1088603515625,0.8225634765625001,0.8419622764082271,-0.29052734375,-0.42724609375,-1.62744140625,45.7535294117647,399.2181320727496
0.0599580078125,-0.1010478515625,0.7800830078125001,0.7888822029200798,-0.61181640625,-0.55908203125,-1.2509765625,45.84764705882353,399.2181320727496
0.0199189453125,-0.0990947265625,0.7502978515625001,0.7570755545347917,-0.8369140625,-0.72607421875,-0.57666015625,45.84764705882353,399.2948882881735
-0.0191435546875,-0.0409892578125,0.6985400390625001,0.7000034150741924,-0.87109375,-0.80126953125,-0.14697265625,46.03588235294118,399.2948882881735
-0.0030302734374999,0.0083271484375,0.6277392578125001,0.6278017997403278,-1.037109375,-0.9033203125,-0.1943359375,46.27117647058824,399.2948882881735
0.0042939453125,0.0532490234375,0.5706103515625001,0.5731056357894887,-1.3837890625,-1.060546875,-0.61279296875,45.565294117647056,399.2948882881735
-0.0147490234375,0.0796162109375,0.5735400390625001,0.5792274606268409,-1.37158203125,-1.24365234375,-0.79150390625,46.03588235294118,398.6055223045446
-0.0582060546875,0.0722919921875,0.5745166015625001,0.5819651212982151,-1.1865234375,-1.44189453125,-0.55078125,45.7535294117647,398.6055223045446
-0.0484404296875,0.0649677734375,0.5613330078125001,0.5671525654297653,-0.9033203125,-1.41650390625,-0.37744140625,45.89470588235295,398.6055223045446
-0.0245146484375,0.0639912109375,0.5540087890625001,0.5582307600121651,-0.67822265625,-1.42431640625,-0.1337890625,45.84764705882353,398.6055223045446
-0.0279326171875,0.0747333984375,0.5730517578125001,0.5785789739326497,-0.591796875,-1.3310546875,-0.06396484375,45.70647058823529,398.6055223045446
-0.0406279296875,0.0761982421875,0.5950244140625001,0.6012577268639289,-0.41162109375,-1.13232421875,-0.09326171875,44.95352941176471,398.2177737031709
-0.0411162109375,0.0727802734375,0.6052783203125001,0.6110232041778902,-0.22265625,-0.9384765625,-0.20849609375,45.70647058823529,398.2177737031709
-0.0230498046875,0.0698505859375,0.6101611328125001,0.6145787222536893,-0.080078125,-0.681640625,-0.33837890625,45.7535294117647,398.2177737031709
0.0013642578125,0.0527607421875,0.6057666015625001,0.6080614546936317,-0.0537109375,-0.5,-0.16748046875,45.565294117647056,398.2177737031709
-0.0147490234375,0.0644794921875,0.6360400390625001,0.6394701477752847,0.1220703125,-0.7373046875,-0.06103515625,45.7535294117647,398.18565677697177
-0.0220732421875,0.0537373046875,0.6585009765625001,0.6610585920094463,0.03564453125,-0.7890625,-0.10107421875,45.61235294117647,398.18565677697177
-0.0669951171875,0.0747333984375,0.7258837890625001,0.7327896709102258,-0.0244140625,-0.91796875,0.09521484375,45.70647058823529,398.18565677697177
-0.0464873046875,0.0757099609375,0.7771533203125001,0.7822150285918889,-0.05322265625,-1.09228515625,0.27197265625,45.94176470588236,398.18565677697177
-0.0215849609375,0.0962177734375,0.8518603515625001,0.8575487327424195,-0.0556640625,-1.169921875,0.34375,45.70647058823529,398.18565677697177
-0.0181669921875,0.0879169921875,0.9187548828125,0.9231305280469542,-0.19580078125,-1.25244140625,0.61669921875,45.84764705882353,397.872339806952
-0.0084013671875,0.0854755859375,0.9553759765625,0.9592288128255576,-0.18212890625,-1.36279296875,0.75048828125,45.7535294117647,397.872339806952
-0.0113310546875,0.0844990234375,1.0081103515625005,1.0117089298260098,-0.14697265625,-1.265625,1.1923828125,45.565294117647056,397.872339806952
0.0047822265625,0.1074482421875,1.0481494140625005,1.0536532582589215,-0.10009765625,-0.97998046875,1.46533203125,45.565294117647056,397.872339806952
0.0370087890625,0.1474873046875,1.0842822265625005,1.0948927355459024,-0.013671875,-0.67431640625,1.5859375,45.565294117647056,398.0556312611824
0.0189423828125,0.1684833984375,1.1052783203125005,1.1182064365619109,0.05712890625,-0.28515625,1.61865234375,45.7535294117647,398.0556312611824
-0.0181669921875,0.2212177734375,1.1589892578125005,1.1800523050333642,0.04345703125,0.1005859375,1.60107421875,45.565294117647056,398.0556312611824
-0.0357451171875,0.2754169921875,1.2239306640625005,1.255045219671718,0.142578125,0.38525390625,1.69482421875,45.84764705882353,398.0556312611824
-0.0464873046875,0.3042255859375,1.2703173828125005,1.307065617982404,0.1259765625,0.59423828125,1.8125,45.565294117647056,398.0556312611824
-0.0816435546875,0.2954365234375,1.3113330078125005,1.3466783828299265,0.43994140625,0.79541015625,1.712890625,45.70647058823529,398.1308300487559
-0.1280302734375,0.2700458984375,1.4207080078125005,1.451801564140899,0.6376953125,1.08251953125,1.54052734375,45.7535294117647,398.1308300487559
-0.0831083984375,0.2475849609375,1.5383837890625005,1.5603941813604552,0.80224609375,1.16552734375,1.3974609375,45.7535294117647,398.1308300487559
0.0287080078125,0.1894794921875,1.5867236328125005,1.598254834060543,0.8857421875,0.96240234375,1.44384765625,45.70647058823529,398.1308300487559
0.0936494140625,0.1142841796875,1.5950244140625005,1.6018532916395674,0.9599609375,0.685546875,1.55419921875,46.17705882352941,397.43057139656815
0.0985322265625,0.0576435546875,1.6331103515625005,1.6370952322479495,0.7734375,0.73193359375,1.80322265625,45.70647058823529,397.43057139656815
0.1688447265625,0.0342060546875,1.7024462890625005,1.7111405444930372,0.5888671875,0.8779296875,1.64990234375,46.13,397.43057139656815
0.2948212890625,-0.0268291015625,1.5754931640625005,1.6030652211257013,0.28271484375,1.2265625,0.9814453125,45.70647058823529,397.43057139656815
0.4984345703125,-0.0580791015625,1.2742236328125005,1.3694729166138333,0.0068359375,1.3154296875,0.2099609375,45.7535294117647,397.43057139656815
0.5790009765625,-0.1020244140625,1.1135791015625005,1.2592495889861828,0.0009765625,1.16943359375,0.15283203125,45.61235294117647,397.6036720621024
0.5145478515625,-0.0981181640625,1.0642626953125005,1.186187906826068,0.39599609375,0.69970703125,0.5712890625,45.7535294117647,397.6036720621024
0.3978486328125,-0.1620830078125,1.0696337890625005,1.152679868288036,0.6552734375,-0.201171875,0.4248046875,45.7535294117647,397.6036720621024
0.2874970703125,-0.2421611328125,1.0369189453125005,1.102949445274484,0.0029296875,-1.02001953125,0.0986328125,45.61235294117647,397.6036720621024
0.1878876953125,-0.2475322265625,1.1335986328125005,1.1754232639994844,-0.53466796875,-1.716796875,-0.009765625,45.7535294117647,399.13350782689565
0.0921845703125,-0.1801494140625,1.2546923828125005,1.270907070512424,-0.544921875,-1.537109375,0.0673828125,45.7535294117647,399.13350782689565
0.0135712890625,-0.0663798828125,1.3293994140625005,1.3311248141473204,-0.5205078125,-0.70068359375,0.55517578125,45.70647058823529,399.13350782689565
0.0038056640625,0.0161396484375,1.2805712890625005,1.2806786473201763,-0.54052734375,-0.171875,1.40576171875,45.61235294117647,399.13350782689565
-0.0323271484375,0.0615498046875,1.3298876953125005,1.3317036851817912,-0.17578125,-0.0673828125,2.44873046875,45.565294117647056,399.13350782689565
0.0335908203125,0.1084248046875,1.0896533203125005,1.0955494694210963,0.04052734375,0.27587890625,2.70947265625,45.61235294117647,399.2941144000233
0.0921845703125,0.1655537109375,1.0227587890625005,1.040164201851549,0.109375,0.9296875,2.5966796875,45.7535294117647,399.2941144000233
0.1517548828125,0.1958271484375,0.9622119140625,0.9935942753893152,0.1962890625,1.1240234375,2.34912109375,45.7535294117647,399.2941144000233
0.1639619140625,0.1758076171875,0.8792041015625001,0.9114777450538812,0.21826171875,0.81396484375,2.107421875,45.7535294117647,399.2941144000233
0.1878876953125,0.1816669921875,0.8069384765625001,0.8482065709821544,0.32861328125,0.27099609375,2.087890625,45.61235294117647,399.1656287401781
0.1673798828125,0.1601826171875,0.7351611328125001,0.7708024307288618,0.396484375,0.00927734375,1.86083984375,45.7535294117647,399.1656287401781
0.1332001953125,0.1040302734375,0.6565478515625001,0.6779525582325829,0.36865234375,-0.42724609375,1.8134765625,45.70647058823529,399.1656287401781
0.0916962890625,0.0771748046875,0.6135791015625001,0.6251747545931714,0.36279296875,-0.6572265625,1.65087890625,45.7535294117647,399.1656287401781
0.0379853515625,0.0488544921875,0.6077197265625001,0.6108624349175721,0.3291015625,-0.43310546875,1.34716796875,45.84764705882353,399.1656287401781
-0.0157255859375,0.0185810546875,0.5979541015625001,0.5984493773259307,0.39697265625,-0.08251953125,1.09716796875,45.7535294117647,399.1115773381402
-0.0440458984375,-0.0234111328125,0.6033251953125001,0.6053836912302787,0.4228515625,0.2578125,1.0830078125,45.7535294117647,399.1115773381402
-0.0323271484375,-0.0346416015625,0.6086962890625001,0.6105376789383058,0.34033203125,0.42822265625,1.015625,45.70647058823529,399.1115773381402
-0.0196318359375,-0.0278056640625,0.5955126953125001,0.5964846470904277,0.29296875,0.53515625,0.99169921875,45.70647058823529,399.1115773381402
-0.0220732421875,-0.0268291015625,0.5984423828125001,0.5994500098070078,0.23193359375,0.6259765625,0.89794921875,45.7535294117647,398.8319096330706
-0.0201201171875,-0.0370830078125,0.5759814453125001,0.577524539676313,0.12158203125,0.7412109375,0.72705078125,45.70647058823529,398.8319096330706
0.0111298828125,-0.0497783203125,0.5632861328125001,0.5655908617396636,-0.017578125,0.86962890625,0.51904296875,45.61235294117647,398.8319096330706
0.0374970703125,-0.0483134765625,0.5603564453125001,0.5636839257091129,-0.20166015625,0.94482421875,0.189453125,45.84764705882353,398.8319096330706
0.0584931640625,-0.0429423828125,0.5686572265625001,0.5732682965291316,-0.26416015625,0.849609375,-0.09228515625,45.70647058823529,398.8319096330706
0.0384736328125,-0.0317119140625,0.6028369140625001,0.6048952065206804,-0.21435546875,0.529296875,-0.20068359375,45.89470588235295,398.56243842391626
0.0003876953125,-0.0273173828125,0.6609423828125001,0.6615067823607294,-0.23779296875,0.26220703125,-0.18994140625,45.7535294117647,398.56243842391626
-0.0396513671875,-0.0190166015625,0.7156298828125001,0.7169797704461803,-0.3662109375,0.0947265625,-0.19970703125,45.7535294117647,398.56243842391626
-0.0586943359375,0.0200458984375,0.7830126953125001,0.7854653042215529,-0.44482421875,0.01611328125,-0.4052734375,45.70647058823529,398.56243842391626
-0.0840849609375,0.0693623046875,0.8269580078125001,0.8341108779129075,-0.61767578125,-0.08447265625,-0.44482421875,45.70647058823529,398.1645054580847
-0.0391630859375,0.0678974609375,0.8738330078125001,0.8773414033570672,-0.56201171875,-0.3505859375,-0.73876953125,45.61235294117647,398.1645054580847
-0.0601591796875,0.0718037109375,0.9104541015625,0.9152603841842212,-0.62353515625,-0.61376953125,-0.82177734375,45.70647058823529,398.1645054580847
-0.0899443359375,0.0664326171875,0.9651416015625,0.9715974409498238,-0.3447265625,-0.74658203125,-0.77294921875,46.13,398.1645054580847
-0.0928740234375,0.0517841796875,1.0584033203125005,1.0637315328333092,-0.24951171875,-0.5068359375,-0.98583984375,45.94176470588236,398.1645054580847
-0.0977568359375,0.0498310546875,1.1653369140625005,1.1704912029829575,0.3359375,-0.02294921875,-1.26513671875,45.7535294117647,398.6055223045446
0.0018525390625,0.0356708984375,0.9646533203125,0.9653143909039414,0.140625,-0.06640625,-1.71826171875,45.7535294117647,398.6055223045446
-0.0162138671875,0.0307880859375,1.1536181640625005,1.154142826594613,0.46044921875,0.34228515625,-1.88525390625,45.565294117647056,398.6055223045446
0.0179658203125,-0.0116923828124999,1.1086962890625005,1.108903487187363,0.30810546875,0.57275390625,-1.826171875,45.84764705882353,398.6055223045446
-0.0127958984375,-0.0551494140625,1.2063525390625005,1.207680272833336,0.60205078125,1.13818359375,-1.58984375,45.70647058823529,398.3783613436983
-0.0137724609375,-0.0683330078125,1.2634814453125005,1.26540287785588,0.591796875,1.24365234375,-1.43896484375,45.70647058823529,398.3783613436983
-0.1065458984375,-0.0580791015625,1.3601611328125005,1.3655634433177923,0.85302734375,1.45654296875,-1.13916015625,45.61235294117647,398.3783613436983
-0.1773466796875,-0.0107158203124999,1.3630908203125005,1.3746211325384736,0.86181640625,1.5869140625,-0.64404296875,45.7535294117647,398.3783613436983
-0.1978544921875,0.0434833984375,1.3875048828125005,1.402215035523075,0.86572265625,2.0283203125,-0.08154296875,45.84764705882353,398.3783613436983
-0.1202177734375,0.1372333984375,1.5134814453125005,1.524438061713952,0.79052734375,2.25439453125,-0.068359375,45.70647058823529,397.6679014815364
0.0135712890625,0.2690693359375,1.6780322265625005,1.699521885946447,0.79345703125,2.1015625,-0.44921875,45.565294117647056,397.6679014815364
0.1869111328125,0.3677021484375,1.6580126953125005,1.7085510643092372,0.806640625,1.4501953125,-0.89111328125,45.89470588235295,397.6679014815364
0.1864228515625,0.3159443359375,1.5725634765625005,1.6147848744690478,1.09423828125,1.640625,-0.8671875,44.81235294117647,397.6679014815364
0.2772431640625,0.2417255859375,1.3835986328125005,1.4316564558709028,0.99462890625,1.88525390625,-1.048828125,45.565294117647056,397.3240477833589
0.2801728515625,0.1626240234375,1.2766650390625005,1.3171245277938295,0.8544921875,2.86865234375,-1.18115234375,45.7535294117647,397.3240477833589
0.4393525390625,0.1152607421875,1.0964892578125005,1.186846403191452,0.32666015625,2.6064453125,-1.16357421875,45.565294117647056,397.3240477833589
0.6800751953125,0.1386982421875,1.1199267578125005,1.317564198257397,0.45068359375,0.8828125,-1.12646484375,45.7535294117647,397.3240477833589
0.6727509765625,0.1225849609375,1.1316455078125005,1.32221121779618,0.3583984375,-0.07470703125,-1.23876953125,45.89470588235295,397.3240477833589
0.5716767578125,0.1548115234375,1.1038134765625005,1.252671191595402,0.080078125,-0.662109375,-1.06103515625,45.565294117647056,399.1429239304765
0.4110322265625,0.1650654296875,1.0833056640625005,1.1703611618388317,0.11474609375,-1.30078125,-0.453125,45.89470588235295,399.1429239304765
0.3094697265625,0.2016865234375,1.1711962890625005,1.2280674708291663,0.072265625,-1.4404296875,0.0439453125,45.89470588235295,399.1429239304765
0.1488251953125,0.2246357421875,1.2688525390625005,1.2971495369899673,0.2744140625,-1.234375,0.03466796875,45.84764705882353,399.1429239304765
0.0160126953125,0.1352802734375,1.3074267578125005,1.314504425947894,0.38818359375,-0.5634765625,-0.00634765625,45.61235294117647,399.5110977230002
-0.0010771484374999,0.0683857421875,1.3108447265625005,1.3126277717388155,0.5146484375,0.23583984375,-0.63134765625,45.7535294117647,399.5110977230002
0.0086884765625,-0.0278056640625,1.2678759765625005,1.2682106041676389,0.26708984375,0.783203125,-1.14208984375,45.7535294117647,399.5110977230002
0.0687470703125,-0.0346416015625,1.2537158203125005,1.2560770511147843,0.041015625,1.248046875,-1.34033203125,45.94176470588236,399.5110977230002
0.0882783203125,-0.0453837890625,1.1511767578125005,1.1554482584151338,-0.279296875,1.4267578125,-1.09375,45.7535294117647,399.5110977230002
-0.0079130859375,2.6367187500001e-05,1.1018603515625005,1.1018887656972094,-0.3056640625,1.7177734375,-0.75146484375,45.70647058823529,399.2306455747805
0.0501923828125,-0.0268291015625,0.9519580078125,0.9536577607409228,-0.4521484375,1.23486328125,-0.5478515625,45.565294117647056,399.2306455747805
0.0042939453125,-0.0497783203125,0.8552783203125001,0.8567364380811943,-0.58203125,0.6357421875,0.04638671875,45.7535294117647,399.2306455747805
0.0189423828125,-0.0527080078125,0.8093798828125001,0.811315439675441,-0.5751953125,0.30908203125,0.15478515625,45.565294117647056,399.2306455747805
0.0204072265625,-0.0116923828124999,0.7493212890625001,0.7496903100308113,-0.78271484375,0.3583984375,-0.384765625,45.565294117647056,398.82094434291537
-0.0645537109375,-0.0219462890625,0.7048876953125001,0.7081775795677133,-0.861328125,0.46533203125,-0.330078125,46.03588235294118,398.82094434291537
-0.0884794921875,-0.0229228515625,0.6477587890625001,0.654175455416382,-0.7939453125,0.56640625,0.16748046875,45.61235294117647,398.82094434291537
-0.0396513671875,0.0097919921875,0.5676806640625001,0.569148003933317,-0.73095703125,0.71533203125,0.3662109375,45.7535294117647,398.82094434291537
-0.0142607421875,0.0420185546875,0.5408251953125001,0.5426424417519963,-0.76416015625,0.74365234375,0.26904296875,45.84764705882353,398.82094434291537
-0.0342802734375,0.0425068359375,0.5144580078125001,0.5173480550371999,-0.71044921875,0.64208984375,0.46484375,45.565294117647056,398.022735315808
-0.0225615234375,0.0459248046875,0.4880908203125,0.4907654825868819,-0.58056640625,0.31689453125,0.72802734375,45.7535294117647,398.022735315808
-0.0162138671875,0.0386005859375,0.4753955078125,0.4772355640270295,-0.44140625,-0.08740234375,1.0615234375,45.565294117647056,398.022735315808
-0.0381865234375,0.0361591796875,0.4793017578125,0.4821782573800566,-0.212890625,-0.3857421875,1.26904296875,45.89470588235295,398.022735315808
-0.0586943359375,0.0405537109375,0.5037158203125001,0.5087428192859741,-0.00830078125,-0.3505859375,1.23681640625,45.70647058823529,397.8088894725065
-0.0718779296875,0.0361591796875,0.5457080078125001,0.5516077889610712,0.08203125,-0.01416015625,0.9912109375,45.61235294117647,397.8088894725065
-0.0674833984375,0.0405537109375,0.5476611328125001,0.55329135989002,0.12548828125,0.20068359375,0.88671875,45.61235294117647,397.8088894725065
-0.0318388671875,0.0244404296875,0.5681689453125001,0.5695849352683159,0.26953125,-0.09716796875,1.6171875,45.61235294117647,397.8088894725065
0.0999970703125,0.0469013671875,0.5857470703125001,0.5960694445237205,0.40478515625,-0.83203125,1.59130859375,45.89470588235295,397.8088894725065
0.0965791015625,0.0508076171875,0.6375048828125001,0.6467777148547024,0.392578125,-1.00048828125,1.4912109375,45.7535294117647,397.7658089405748
0.0135712890625,0.0532490234375,0.6755908203125001,0.6778219492421164,0.31005859375,-1.4521484375,1.8310546875,46.27117647058824,397.7658089405748
0.1117158203125,0.0678974609375,0.7400439453125001,0.7515021827669862,0.26416015625,-1.47314453125,1.93505859375,45.84764705882353,397.7658089405748
-0.0303740234375,0.0879169921875,0.8274462890625001,0.8326579970782609,0.25439453125,-1.404296875,1.98486328125,44.95352941176471,397.7658089405748
-0.0308623046875,0.0976826171875,0.9236376953125,0.9293013331279636,0.20849609375,-1.302734375,2.216796875,46.03588235294118,397.7548434978277
0.0165009765625,0.1206318359375,0.9714892578125,0.97908921969055,0.17041015625,-1.23046875,2.3203125,45.7535294117647,397.7548434978277
0.0301728515625,0.1391865234375,1.0359423828125005,1.0456863343207996,0.24951171875,-1.02001953125,2.31787109375,45.565294117647056,397.7548434978277
0.0399384765625,0.1679951171875,1.0750048828125005,1.0887850749251171,0.076171875,-0.6484375,2.3154296875,45.565294117647056,397.7548434978277
0.0370087890625,0.2285419921875,1.1277392578125005,1.1512588441668503,0.03271484375,-0.23779296875,2.32666015625,45.94176470588236,397.7548434978277
0.0243134765625,0.2895771484375,1.1834033203125005,1.2185604164613255,0.10107421875,0.06640625,2.3115234375,45.37705882352941,398.49820187265976
0.0028291015625,0.3340107421875,1.2468798828125005,1.2908449255719334,0.21630859375,0.34765625,2.19970703125,45.61235294117647,398.49820187265976
-0.0684599609375,0.3213154296875,1.2918017578125005,1.3329224107555144,0.36962890625,0.68896484375,2.11279296875,45.61235294117647,398.49820187265976
-0.1299833984375,0.2969013671875,1.3381884765625005,1.3768785365862284,0.47021484375,1.08056640625,1.8388671875,45.7535294117647,398.49820187265976
-0.1514677734375,0.2715107421875,1.4202197265625005,1.4538516572300573,0.513671875,1.5185546875,1.33935546875,45.61235294117647,398.0023639618653
-0.1280302734375,0.2617451171875,1.5530322265625005,1.5801301699637458,0.70361328125,2.01025390625,1.02685546875,45.7535294117647,398.0023639618653
-0.0464873046875,0.2261005859375,1.6267626953125005,1.6430579452103264,0.85205078125,1.88916015625,0.8779296875,45.84764705882353,398.0023639618653
-0.0279326171875,0.1303974609375,1.6531298828125005,1.6584999663459632,0.96826171875,1.7412109375,1.00341796875,45.565294117647056,398.0023639618653
-0.0079130859375,0.0395771484375,1.6585009765625005,1.658992000241793,0.71533203125,1.8994140625,0.9951171875,45.61235294117647,398.0023639618653
0.1537080078125,-0.0551494140625,1.4592822265625005,1.4683910331714551,0.400390625,1.98779296875,0.20654296875,45.84764705882353,396.92616633470215
0.4066376953125,-0.1039775390625,1.2083056640625005,1.2791278754229676,-0.29736328125,2.521484375,-0.7919921875,45.7535294117647,396.92616633470215
0.5052705078125,-0.0898173828125,1.1101611328125005,1.2230385068050484,-0.587890625,2.80712890625,-1.1943359375,45.565294117647056,396.92616633470215
0.5047822265625,-0.0805400390625,1.1052783203125005,1.2177569377746964,-0.28515625,2.29443359375,-0.60986328125,45.565294117647056,396.92616633470215
0.4466767578125,-0.1274150390625,1.0398486328125005,1.1388765944171524,0.0849609375,1.5068359375,0.74072265625,45.7535294117647,398.4339661239761
0.3587861328125,-0.2060283203125,1.0471728515625005,1.1259423337448846,-0.0166015625,0.57861328125,1.248046875,46.27117647058824,398.4339661239761
0.3358369140625,-0.2572978515625,1.0598681640625005,1.1411876017811078,-0.5029296875,-0.5185546875,0.94287109375,46.27117647058824,398.4339661239761
0.2855439453125,-0.2270244140625,1.1926806640625005,1.2472219512635336,-0.78173828125,-1.18603515625,0.38720703125,45.7535294117647,398.4339661239761
0.1532197265625,-0.1606181640625,1.3049853515625005,1.3237300506626712,-0.759765625,-1.33642578125,0.40087890625,45.70647058823529,398.4339661239761
0.0125947265625,0.0053974609375,1.3748095703125005,1.3748778543363762,-0.58203125,-0.8701171875,0.8818359375,45.61235294117647,399.2196803206875
-0.1255888671875,0.0737568359375,1.3264697265625005,1.334441669723988,-0.689453125,-0.29638671875,2.09326171875,45.61235294117647,399.2196803206875
-0.0958037109375,0.1689716796875,1.3005908203125005,1.315015688669513,-0.40380859375,0.04443359375,3.01220703125,45.70647058823529,399.2196803206875
0.0526337890625,0.2417255859375,1.1960986328125005,1.2214145545488788,-0.099609375,0.330078125,3.13232421875,45.61235294117647,399.2196803206875
0.1541962890625,0.2475849609375,1.0593798828125005,1.0987995925330951,0.04248046875,0.43603515625,2.6025390625,45.61235294117647,399.253351094708
0.1888642578125,0.2422138671875,0.9924853515625,1.0389246548249442,0.10009765625,0.3076171875,1.88818359375,45.7535294117647,399.253351094708
0.1253876953125,0.1968037109375,0.9714892578125,0.9991221911356156,0.17333984375,0.04833984375,1.6708984375,45.61235294117647,399.253351094708
0.1126923828125,0.1465107421875,0.8611376953125001,0.8807514411049325,0.13623046875,-0.15234375,1.8076171875,45.7535294117647,399.253351094708
0.1278291015625,0.1098896484375,0.7776416015625001,0.795702503779323,0.1494140625,-0.3388671875,1.904296875,46.17705882352941,399.253351094708
0.1185517578125,0.1167255859375,0.6956103515625001,0.7152294337440198,0.10595703125,-0.3720703125,1.54150390625,45.61235294117647,399.0144402902838
0.0409150390625,0.0776630859375,0.6379931640625001,0.6440037831638115,0.16552734375,-0.3271484375,1.22998046875,45.61235294117647,399.0144402902838
-0.0171904296875,0.0537373046875,0.6140673828125001,0.6166538408395034,0.275390625,-0.1259765625,1.0625,45.70647058823529,399.0144402902838
-0.0572294921875,0.0185810546875,0.6038134765625001,0.6068040745148567,0.39990234375,0.11669921875,0.9716796875,45.61235294117647,399.0144402902838
-0.0738310546875,-0.0068095703124999,0.5955126953125001,0.6001106274366985,0.36083984375,0.37939453125,0.84716796875,45.70647058823529,399.0277332206545
-0.0835966796875,-0.0053447265624999,0.5847705078125001,0.590739805467764,0.41259765625,0.646484375,0.732421875,45.61235294117647,399.0277332206545
-0.0586943359375,-0.0092509765624999,0.5569384765625001,0.5600991629294427,0.349609375,0.7900390625,0.5322265625,45.565294117647056,399.0277332206545
-0.0513701171875,-0.0092509765624999,0.5535205078125001,0.5559760984756676,0.1845703125,0.7919921875,0.421875,45.37705882352941,399.0277332206545
-0.0250029296875,-0.0038798828124999,0.5588916015625001,0.5594640491405083,0.09521484375,0.6630859375,0.28173828125,45.61235294117647,399.0277332206545
-0.0113310546875,-0.0029033203124999,0.5584033203125001,0.558525818745376,0.015625,0.5830078125,0.1181640625,45.61235294117647,398.4002918990441
-0.0132841796875,-0.0053447265624999,0.5867236328125001,0.5868983360282214,-0.0302734375,0.45068359375,0.06103515625,45.7535294117647,398.4002918990441
-0.0167021484375,-0.0131572265624999,0.6072314453125001,0.607603573516115,-0.05078125,0.39501953125,-0.07470703125,45.7535294117647,398.4002918990441
-0.0118193359375,0.0029560546875,0.6311572265625001,0.631274805139082,-0.0703125,0.39990234375,-0.26513671875,45.61235294117647,398.4002918990441
-0.0289091796875,0.0088154296875,0.6477587890625001,0.6484634926335451,-0.16064453125,0.29052734375,-0.41357421875,45.7535294117647,398.3908831439199
-0.0503935546875,0.0273701171875,0.6956103515625001,0.6979701962618493,-0.2138671875,0.18896484375,-0.55224609375,45.7535294117647,398.3908831439199
-0.0430693359375,0.0390888671875,0.7380908203125001,0.7403789342395409,-0.2783203125,-0.02392578125,-0.82275390625,44.95352941176471,398.3908831439199
-0.0147490234375,0.0410419921875,0.7693408203125001,0.770575938252804,-0.38623046875,-0.341796875,-1.16845703125,45.00058823529412,398.3908831439199
-0.0137724609375,0.0517841796875,0.8093798828125001,0.8111516976791447,-0.48291015625,-0.6484375,-1.40283203125,45.7535294117647,398.3908831439199
-0.0440458984375,0.0674091796875,0.8821337890625001,0.8858013662673317,-0.47998046875,-0.76318359375,-1.58544921875,46.13,398.2608561784149
-0.0953154296875,0.0659443359375,0.9832080078125,0.9900159964391364,-0.31640625,-0.75537109375,-1.7294921875,45.09470588235294,398.2608561784149
-0.1050810546875,0.0527607421875,1.0657275390625005,1.0721944373510923,-0.16650390625,-0.59375,-2.046875,45.7535294117647,398.2608561784149
-0.1260771484375,0.0327412109375,1.1545947265625005,1.1619192815586288,0.048828125,-0.39697265625,-2.25,45.7535294117647,398.2608561784149
-0.1338896484375,-0.0170634765625,1.2107470703125005,1.2182471294698043,0.4677734375,0.06884765625,-2.1240234375,45.94176470588236,398.2287390710043
-0.0357451171875,-0.0824931640625,1.1653369140625005,1.1687997941463293,0.29443359375,0.44140625,-1.95947265625,46.08294117647059,398.2287390710043
-0.0401396484375,-0.1166728515625,1.2517626953125005,1.2578289196247745,0.38232421875,1.08935546875,-1.810546875,45.7535294117647,398.2287390710043
-0.0132841796875,-0.1152080078125,1.2463916015625005,1.2517752909127218,0.40185546875,1.171875,-1.794921875,45.70647058823529,398.2287390710043
-0.1631865234375,-0.1010478515625,1.3396533203125005,1.3533334874898062,0.578125,1.650390625,-1.35693359375,45.89470588235295,398.2287390710043
-0.2139677734375,-0.0063212890624999,1.3811572265625005,1.3976471125613328,0.27783203125,2.04052734375,-0.90185546875,45.84764705882353,398.2937523069044
-0.2315458984375,0.0967060546875,1.5129931640625005,1.533660287872222,0.4013671875,2.28271484375,-0.68359375,45.84764705882353,398.2937523069044
-0.1084990234375,0.2148701171875,1.6843798828125005,1.701492519810332,0.30615234375,2.0615234375,-0.73876953125,45.84764705882353,398.2937523069044
0.0321259765625,0.3437763671875,1.7976611328125005,1.830519002204416,0.36669921875,1.6083984375,-0.89404296875,45.7535294117647,398.2937523069044
0.1751923828125,0.3867451171875,1.6521533203125005,1.705835499244729,0.62109375,1.59716796875,-0.40625,45.84764705882353,397.53082664264383
0.4417939453125,0.4648701171875,1.3626025390625005,1.505978683590268,0.5830078125,0.8779296875,-0.27001953125,45.84764705882353,397.53082664264383
0.5121064453125,0.2324482421875,1.3333056640625005,1.447062262118603,0.48193359375,0.5185546875,-0.095703125,45.7535294117647,397.53082664264383
0.5882783203125,0.1860615234375,1.2459033203125005,1.3903112443691492,0.57861328125,0.4755859375,0.11376953125,45.70647058823529,397.53082664264383
0.5824189453125,0.1587177734375,1.1209033203125005,1.2731172031480331,0.53759765625,0.177734375,0.025390625,45.7535294117647,397.53082664264383
0.5140595703125,0.1225849609375,0.9685595703125,1.1033548639136257,-0.2470703125,-0.49462890625,-0.22900390625,45.70647058823529,398.0462256274265
0.4300751953125,0.1870380859375,0.9485400390625,1.0581474967692064,-0.904296875,-1.5087890625,-0.6708984375,45.84764705882353,398.0462256274265
0.3114228515625,0.2622333984375,1.0164111328125005,1.0949164984767512,-1.14599609375,-2.71044921875,-1.19873046875,45.94176470588236,398.0462256274265
0.1766572265625,0.3325458984375,1.1790087890625005,1.2376818149067963,-0.6240234375,-3.14453125,-1.64794921875,45.7535294117647,398.0462256274265
0.0418916015625,0.3354755859375,1.3264697265625005,1.368875710401925,-0.12548828125,-2.40673828125,-1.9501953125,45.7535294117647,398.8021219961066
-0.0396513671875,0.3291279296875,1.3889697265625005,1.4279826071515451,0.2177734375,-0.8515625,-1.96044921875,45.00058823529412,398.8021219961066
-0.0191435546875,0.2788349609375,1.2483447265625005,1.279249767427571,0.13232421875,-0.3251953125,-1.76953125,45.61235294117647,398.8021219961066
0.0077119140625,0.3335224609375,1.2156298828125005,1.2605763434060815,0.49609375,-0.0498046875,-1.7666015625,45.84764705882353,398.8021219961066
0.0482392578125,0.1245380859375,1.2053759765625005,1.2127522441608911,0.7109375,0.076171875,-1.6533203125,45.84764705882353,398.8021219961066
0.1131806640625,-0.0141337890624999,1.1956103515625005,1.2010386086526517,0.6884765625,0.34130859375,-1.25390625,45.70647058823529,398.8749945622536
0.1795869140625,-0.1186259765625,1.0955126953125005,1.1164549465199023,0.40576171875,0.28515625,-1.48779296875,45.61235294117647,398.8749945622536
0.2171845703125,-0.1269267578125,0.9646533203125,0.9969130191849984,-0.05126953125,0.078125,-1.47802734375,45.61235294117647,398.8749945622536
0.2127900390625,-0.0971416015625,0.8596728515625001,0.8909284500968346,-0.32666015625,-0.27392578125,-1.37451171875,45.565294117647056,398.8749945622536
0.1649384765625,-0.0903056640625,0.7752001953125001,0.79768111224039,-0.58740234375,-0.71630859375,-1.0205078125,45.7535294117647,398.9932851359902
0.0457978515625,-0.0463603515625,0.8147509765625001,0.817352971007194,-0.376953125,-0.84912109375,-0.720703125,45.565294117647056,398.9932851359902
-0.0049833984375,-0.0151103515624999,0.7229541015625001,0.723129165467948,-0.34130859375,-0.85205078125,-0.6494140625,45.7535294117647,398.9932851359902
-0.0064482421875,0.0141865234375,0.6565478515625001,0.6567327604634065,-0.65283203125,-0.75244140625,-1.06494140625,45.7535294117647,398.9932851359902
-0.0572294921875,0.0024677734375,0.6614306640625001,0.6639064904366712,-0.85986328125,-0.61572265625,-0.921875,46.17705882352941,398.9932851359902
-0.0181669921875,-0.0136455078124999,0.5960009765625001,0.5964339054346721,-0.81640625,-0.43359375,-0.34619140625,45.7535294117647,398.9078904993098
0.0521455078125,0.0503193359375,0.5681689453125001,0.5727714552696679,-0.9560546875,-0.17578125,-0.66748046875,45.7535294117647,398.9078904993098
0.0130830078125,0.0522724609375,0.5540087890625001,0.5566231342878071,-0.86474609375,-0.158203125,-0.9541015625,45.84764705882353,398.9078904993098
-0.0411162109375,0.0337177734375,0.5501025390625001,0.5526664767565055,-0.69580078125,-0.4306640625,-0.9384765625,45.61235294117647,398.9078904993098
-0.0596708984375,0.0229755859375,0.5618212890625001,0.5654481890618795,-0.5595703125,-0.68017578125,-0.52685546875,45.84764705882353,398.1229840762298
-0.0284208984375,0.0351826171875,0.5803759765625001,0.5821355840274949,-0.4765625,-0.79150390625,-0.154296875,45.61235294117647,398.1229840762298
0.0052705078125,0.0600849609375,0.5872119140625001,0.5903014592565459,-0.48095703125,-0.6962890625,-0.099609375,45.565294117647056,398.1229840762298
0.0067353515625,0.0874287109375,0.6052783203125001,0.6115970810077374,-0.3857421875,-0.5703125,-0.197265625,45.7535294117647,398.1229840762298
0.0008759765625,0.1035419921875,0.6345751953125001,0.6429676430326738,-0.24267578125,-0.50048828125,-0.29150390625,45.84764705882353,398.1229840762298
-0.0069365234375,0.1030537109375,0.6677783203125001,0.6757189266068938,0.0126953125,-0.404296875,-0.34814453125,46.17705882352941,398.02585598599
0.0213837890625,0.0737568359375,0.6814501953125001,0.6857635933567962,0.0673828125,-0.3310546875,-0.38916015625,45.7535294117647,398.02585598599
0.0072236328125,0.0591083984375,0.7097705078125001,0.7122641064922971,0.21435546875,-0.33740234375,-0.07763671875,45.84764705882353,398.02585598599
-0.0206083984375,0.0566669921875,0.7341845703125001,0.7366565260517871,0.126953125,-0.56689453125,0.1181640625,45.7535294117647,398.02585598599
-0.0108427734375,0.0537373046875,0.7747119140625001,0.7766490928606539,0.0615234375,-0.64453125,0.36767578125,45.565294117647056,397.4979298066782
-0.0147490234375,0.0595966796875,0.8264697265625001,0.8287469498263195,0.08837890625,-0.6982421875,0.81591796875,45.61235294117647,397.4979298066782
0.0287080078125,0.0835224609375,0.8601611328125001,0.8646833672477471,-0.0390625,-0.3798828125,0.673828125,45.565294117647056,397.4979298066782
-0.0015654296874999,0.1001240234375,0.9255908203125,0.9309917493115536,-0.0380859375,-0.07666015625,0.75390625,45.37705882352941,397.4979298066782
-0.0035185546874999,0.1172138671875,0.9890673828125,0.9959948587375872,-0.00341796875,0.10009765625,1.01123046875,45.61235294117647,397.4979298066782
0.0213837890625,0.1548115234375,1.0291064453125005,1.0409053511282569,0.0634765625,0.22265625,1.18603515625,45.89470588235295,397.6154195408171
0.0394501953125,0.1909443359375,1.0471728515625005,1.065169957512108,0.1025390625,0.3349609375,1.271484375,45.61235294117647,397.6154195408171
0.0331025390625,0.2285419921875,1.0584033203125005,1.0833027318039683,0.13671875,0.552734375,1.2470703125,45.70647058823529,397.6154195408171
-0.0113310546875,0.2646748046875,1.1077197265625005,1.1389574784215597,0.216796875,0.869140625,1.09765625,45.09470588235294,397.6154195408171
-0.0518583984375,0.2925068359375,1.1658251953125005,1.203078521370945,0.373046875,1.2724609375,1.0615234375,46.27117647058824,397.7462237555701
-0.0855498046875,0.2568623046875,1.1985400390625005,1.228737253397724,0.498046875,1.6640625,1.05859375,46.17705882352941,397.7462237555701
-0.0992216796875,0.2221943359375,1.2034228515625005,1.2277792245780734,0.56005859375,2.03857421875,0.87841796875,45.565294117647056,397.7462237555701
-0.1036162109375,0.1845966796875,1.2659228515625005,1.2835002607825314,0.5283203125,2.38671875,0.51513671875,46.27117647058824,397.7462237555701
-0.0567412109375,0.1777607421875,1.4612353515625005,1.47310121822558,0.71923828125,2.724609375,0.1083984375,45.84764705882353,397.7462237555701
0.0760712890625,0.1201435546875,1.5491259765625005,1.5556389703312588,0.97607421875,2.46484375,0.0087890625,45.7535294117647,397.1094409943787
0.1639619140625,-0.0072978515624999,1.4631884765625005,1.4723645220684167,1.09765625,2.17919921875,0.2548828125,45.61235294117647,397.1094409943787
0.1952119140625,-0.0126689453124999,1.3718798828125005,1.3857570517348687,0.92138671875,2.29736328125,0.38623046875,45.7535294117647,397.1094409943787
0.2259736328125,-0.0072978515624999,1.2551806640625005,1.2753806650566275,0.72412109375,2.57470703125,0.5751953125,45.70647058823529,397.1094409943787
0.3036103515625,-0.0214580078125,1.1926806640625005,1.2309048940124303,0.51025390625,2.951171875,0.70458984375,45.61235294117647,397.3679098595308
0.3700166015625,-0.0649150390625,1.2297900390625005,1.2858887152104934,0.65087890625,2.6728515625,0.73583984375,45.7535294117647,397.3679098595308
0.5487275390625,-0.1474345703125,1.2371142578125005,1.361356144266368,0.7890625,1.58349609375,0.658203125,45.94176470588236,397.3679098595308
0.5125947265625,-0.2094462890625,1.2927783203125005,1.406377220795241,0.673828125,0.546875,0.65380859375,45.7535294117647,397.3679098595308
0.4715791015625,-0.2773173828125,1.3435595703125005,1.4506702240064004,0.28369140625,-0.49609375,0.48291015625,45.18882352941176,397.3679098595308
0.4354462890625,-0.3207744140625,1.3699267578125005,1.4728234847211363,-0.3974609375,-0.931640625,0.28271484375,45.565294117647056,398.9846481712723
0.2987275390625,-0.2592509765625,1.4172900390625005,1.4714483566434573,-0.7802734375,-1.0078125,0.4951171875,45.7535294117647,398.9846481712723
0.1400361328125,-0.1303447265625,1.4607470703125005,1.4732215955728742,-0.876953125,-0.77099609375,1.3134765625,45.61235294117647,398.9846481712723
0.1541962890625,0.0034443359375,1.4602587890625005,1.468381452499648,-0.9404296875,-0.470703125,1.7646484375,45.565294117647056,398.9846481712723
0.1361298828125,0.0488544921875,1.4202197265625005,1.4275651221988812,-0.82958984375,-0.40673828125,1.73193359375,46.03588235294118,399.20007517512425
0.0785126953125,0.0766865234375,1.4187548828125005,1.422993493908695,-0.751953125,-0.1767578125,1.34716796875,45.7535294117647,399.20007517512425
0.0736298828125,0.1079365234375,1.3206103515625005,1.3270581575005622,-0.71044921875,0.1005859375,1.21533203125,45.84764705882353,399.20007517512425
0.0409150390625,0.1308857421875,1.2708056640625005,1.2781831456183386,-0.53857421875,0.35595703125,1.4580078125,45.89470588235295,399.20007517512425
0.0882783203125,0.1582294921875,1.1506884765625005,1.1648663460366764,-0.32421875,0.7109375,1.66748046875,45.70647058823529,399.20007517512425
0.1004853515625,0.1601826171875,1.0066455078125005,1.0242514120696944,-0.23583984375,0.66455078125,1.92724609375,45.565294117647056,398.5647728327789
0.0658173828125,0.1587177734375,0.9006884765625001,0.9169312903907916,0.1083984375,0.263671875,2.26220703125,45.565294117647056,398.5647728327789
0.0868134765625,0.1528583984375,0.7961962890625001,0.8153715719858287,0.41845703125,0.32568359375,2.1904296875,45.7535294117647,398.5647728327789
0.0658173828125,0.1269794921875,0.7107470703125001,0.7249945636170553,0.54052734375,0.31298828125,1.8828125,45.61235294117647,398.5647728327789
0.0326142578125,0.2163349609375,0.6521533203125001,0.6878724142826984,0.84619140625,0.1728515625,1.8740234375,45.61235294117647,398.6297871356804
0.0213837890625,0.0483662109375,0.5979541015625001,0.6002879845295397,0.912109375,-0.04052734375,1.51904296875,45.565294117647056,398.6297871356804
-0.0001005859374999,0.0376240234375,0.5676806640625001,0.5689261055775148,0.86181640625,-0.02099609375,1.0732421875,45.61235294117647,398.6297871356804
-0.0259794921875,0.0273701171875,0.5598681640625001,0.5611385020294832,0.76806640625,0.16455078125,0.66552734375,45.84764705882353,398.6297871356804
-0.0420927734375,0.0205341796875,0.5315478515625001,0.5336071332092637,0.6689453125,0.36865234375,0.36767578125,45.84764705882353,398.6297871356804
-0.0420927734375,0.0268818359375,0.5286181640625001,0.5309723138317474,0.5908203125,0.63720703125,0.24072265625,45.84764705882353,398.349359032782
-0.0210966796875,0.0229755859375,0.5095751953125001,0.5105289679545921,0.50390625,0.7802734375,0.1201171875,45.70647058823529,398.349359032782
-0.0108427734375,0.0312763671875,0.4871142578125,0.4882377259537479,0.40380859375,0.85205078125,0.03662109375,45.89470588235295,398.349359032782
-0.0054716796875,0.0342060546875,0.4812548828125,0.4825000058930155,0.322265625,0.88037109375,-0.02880859375,45.7535294117647,398.349359032782
-0.0049833984375,0.0356708984375,0.4939501953125,0.4952615901769309,0.21533203125,0.9091796875,-0.18212890625,45.94176470588236,398.123765014107
-0.0088896484375,0.0259052734375,0.5276416015625001,0.5283519364407157,0.15966796875,0.8837890625,-0.55322265625,45.70647058823529,398.123765014107
-0.0113310546875,0.0190693359375,0.5686572265625001,0.5690896886213832,0.05419921875,0.9482421875,-0.83984375,45.7535294117647,398.123765014107
-0.0171904296875,0.0200458984375,0.6096728515625001,0.610244487766467,-0.00439453125,1.0693359375,-1.181640625,45.84764705882353,398.123765014107
-0.0303740234375,0.0136982421875,0.6194384765625001,0.6203339821296913,-0.1025390625,0.97607421875,-1.47412109375,44.85941176470588,398.123765014107
-0.0469755859375,0.0151630859375,0.6555712890625001,0.6574270605111927,-0.1416015625,0.83447265625,-1.7529296875,44.95352941176471,398.0908682697112
-0.0582060546875,0.0288349609375,0.7063525390625001,0.709333003049056,-0.28515625,0.7490234375,-2.22900390625,45.61235294117647,398.0908682697112
-0.0626005859375,0.0586201171875,0.7869189453125001,0.7915785355797187,-0.203125,0.3720703125,-2.4140625,45.7535294117647,398.0908682697112
-0.0518583984375,0.0630146484375,0.8689501953125001,0.8727740723347803,-0.173828125,0.1201171875,-2.4267578125,46.17705882352941,398.0908682697112
-0.0274443359375,0.0859638671875,0.9939501953125,0.998038059794634,0.1181640625,0.08203125,-2.47998046875,45.7535294117647,398.1770311547642
0.0404267578125,0.0302998046875,0.9832080078125,0.9845051485583792,0.0751953125,-0.31787109375,-2.76318359375,45.7535294117647,398.1770311547642
0.0033173828125,0.0019794921875,1.1306689453125005,1.1306755446688177,0.36572265625,-0.255859375,-3.06689453125,45.61235294117647,398.1770311547642
-0.0064482421875,-0.0566142578125,1.1199267578125005,1.1213753594935942,0.4541015625,-0.3486328125,-3.20458984375,45.89470588235295,398.1770311547642
-0.0396513671875,-0.0795634765625,1.2102587890625005,1.2135192269698816,0.3515625,-0.14208984375,-3.009765625,45.84764705882353,398.1770311547642
-0.0528349609375,-0.1113017578125,1.2835009765625005,1.289400779907594,0.4365234375,0.259765625,-2.4150390625,45.70647058823529,398.2428247018279
-0.0875029296875,-0.1113017578125,1.3635791015625005,1.3709094828667732,0.6015625,0.65869140625,-1.767578125,45.7535294117647,398.2428247018279
-0.1172880859375,-0.0771220703125,1.4119189453125005,1.418879634417427,0.53515625,0.93994140625,-1.421875,45.61235294117647,398.2428247018279
-0.1641630859375,-0.0468486328125,1.4456103515625005,1.455655729121958,0.48291015625,1.38232421875,-1.2021484375,45.7535294117647,398.2428247018279
-0.1524443359375,0.0234638671875,1.5051806640625005,1.513062675532791,0.25830078125,1.5634765625,-1.1904296875,46.17705882352941,397.63813317892897
-0.1729521484375,0.1313740234375,1.6873095703125005,1.7012304857812357,0.431640625,1.5908203125,-1.201171875,45.7535294117647,397.63813317892897
-0.1221708984375,0.2036396484375,1.7063525390625005,1.7227982535415505,0.47607421875,1.56494140625,-1.00146484375,45.70647058823529,397.63813317892897
-0.0440458984375,0.2568623046875,1.6169970703125005,1.637863794745384,0.3037109375,1.58447265625,-0.9462890625,45.89470588235295,397.63813317892897
0.0296845703125,0.2275654296875,1.5823291015625005,1.59888479389701,0.47607421875,2.0732421875,-0.91015625,46.08294117647059,397.63813317892897
0.2284150390625,0.1841083984375,1.4656298828125005,1.494704079688728,0.44482421875,2.61083984375,-1.279296875,44.85941176470588,397.0240714305892
0.3333955078125,0.1382099609375,1.2786181640625005,1.3285777987767442,0.64013671875,2.4912109375,-1.396484375,45.61235294117647,397.0240714305892
0.3504853515625,0.0913349609375,1.0613330078125005,1.121432035489299,0.07177734375,1.943359375,-0.6650390625,45.7535294117647,397.0240714305892
0.3753876953125,0.1357685546875,1.0452197265625005,1.1188535646050162,0.08984375,1.85107421875,-0.083984375,45.7535294117647,397.0240714305892
0.4061494140625,0.1543232421875,1.0017626953125005,1.0919255960651986,0.1875,1.66552734375,0.13330078125,45.7535294117647,397.96084391122406
0.4134736328125,0.2060810546875,0.9924853515625,1.09474061731463,0.142578125,1.33056640625,-0.09619140625,45.89470588235295,397.96084391122406
0.3548798828125,0.2505146484375,0.9993212890625,1.089651485145739,0.06787109375,1.1083984375,-0.5908203125,45.565294117647056,397.96084391122406
0.2762666015625,0.2802998046875,1.0530322265625005,1.1241744018727349,0.1083984375,0.85595703125,-1.1416015625,45.565294117647056,397.96084391122406
0.1849580078125,0.2763935546875,1.1355517578125005,1.1832500396779289,0.16455078125,0.5498046875,-1.4208984375,45.565294117647056,397.96084391122406
0.0868134765625,0.2724873046875,1.2004931640625005,1.234086604695764,0.365234375,0.08154296875,-1.34912109375,45.09470588235294,398.9525287403243
-0.0196318359375,0.2217060546875,1.2043994140625005,1.2247926078571292,0.57763671875,-0.01318359375,-1.06396484375,45.7535294117647,398.9525287403243
-0.0411162109375,0.1650654296875,1.2004931640625005,1.2124854538676202,0.65185546875,-0.01318359375,-0.81298828125,45.70647058823529,398.9525287403243
-0.0030302734374999,0.1030537109375,1.1941455078125005,1.198587812270703,0.80029296875,0.02294921875,-0.7734375,45.84764705882353,398.9525287403243
0.0433564453125,0.0605732421875,1.1741259765625005,1.1764865948484438,0.734375,0.177734375,-0.94873046875,45.89470588235295,399.10449153350265
0.0653291015625,0.0146748046875,1.1448291015625005,1.1467854695573978,0.3330078125,0.39794921875,-1.1171875,45.7535294117647,399.10449153350265
0.0487275390625,-0.0029033203124999,1.2009814453125005,1.201973058898088,0.18896484375,0.43798828125,-1.134765625,45.61235294117647,399.10449153350265
0.0453095703125,-0.0346416015625,1.0105517578125005,1.0121599937453825,-0.2236328125,0.373046875,-0.93505859375,45.7535294117647,399.10449153350265
-0.0479521484375,-0.0634501953125,0.9085009765625,0.9119755261189758,-0.19091796875,0.1650390625,-0.3837890625,44.85941176470588,399.10449153350265
-0.0743193359375,-0.0780986328125,0.8655322265625001,0.8722206116342422,-0.037109375,-0.17822265625,0.443359375,45.84764705882353,399.1248692670571
-0.0459990234375,-0.0219462890625,0.7922900390625001,0.7939276136767611,-0.34716796875,0.0048828125,0.232421875,45.61235294117647,399.1248692670571
-0.0313505859375,0.0200458984375,0.7483447265625001,0.749269328784179,-0.81298828125,0.419921875,-0.50634765625,45.61235294117647,399.1248692670571
-0.0752958984375,0.0268818359375,0.7322314453125001,0.7365833251773446,-0.83203125,0.51416015625,-0.63720703125,45.09470588235294,399.1248692670571
-0.0611357421875,0.0366474609375,0.6379931640625001,0.6419625322060954,-0.947265625,0.4970703125,-0.55322265625,45.565294117647056,397.8002693115068
-0.0767607421875,0.0268818359375,0.6375048828125001,0.6426720160815514,-0.95654296875,0.68115234375,-0.220703125,45.84764705882353,397.8002693115068
-0.0660185546875,0.0195576171875,0.5813525390625001,0.585415856146291,-0.6728515625,0.53662109375,0.2001953125,45.70647058823529,397.8002693115068
-0.0479521484375,0.0307880859375,0.5217822265625001,0.5248847556673627,-0.55908203125,0.3408203125,0.38720703125,45.00058823529412,397.8002693115068
-0.0547880859375,0.0302998046875,0.5134814453125001,0.5172842615090947,-0.4033203125,0.1064453125,0.6123046875,45.70647058823529,397.8002693115068
-0.0489287109375,0.0185810546875,0.5085986328125001,0.5112845036240093,-0.27294921875,-0.07958984375,0.8515625,45.565294117647056,397.60523647613934
-0.0406279296875,0.0083271484375,0.5115283203125001,0.5132067736824215,-0.12646484375,-0.02880859375,0.93994140625,45.7535294117647,397.60523647613934
-0.0542998046875,0.0102802734375,0.5344775390625001,0.5373270815558776,-0.00244140625,0.11767578125,0.9970703125,45.7535294117647,397.60523647613934
-0.0489287109375,0.0166279296875,0.5457080078125001,0.5481493743409597,0.07080078125,0.263671875,1.05419921875,45.70647058823529,397.60523647613934
-0.0352568359375,0.0346943359375,0.5383837890625001,0.5406513162397392,0.10205078125,0.2041015625,1.02734375,45.7535294117647,397.7783381125058
-0.0298857421875,0.0561787109375,0.5593798828125001,0.5629876183754161,0.20263671875,0.0673828125,1.0546875,45.70647058823529,397.7783381125058
-0.0323271484375,0.0727802734375,0.5984423828125001,0.6037178962678184,0.25634765625,-0.18505859375,1.02685546875,45.84764705882353,397.7783381125058
-0.0518583984375,0.0669208984375,0.6462939453125001,0.65181559039638,0.21142578125,-0.306640625,1.0205078125,45.565294117647056,397.7783381125058
-0.0694365234375,0.0884052734375,0.7092822265625001,0.7181352240881262,0.10986328125,-0.46923828125,1.13525390625,45.61235294117647,397.7783381125058
-0.1104521484375,0.0952412109375,0.7673876953125001,0.7811238315864721,0.10400390625,-0.5068359375,1.2216796875,46.27117647058824,397.121976993416
-0.1353544921875,0.0884052734375,0.8440478515625001,0.8593911255384055,0.0078125,-0.45654296875,1.44677734375,45.7535294117647,397.121976993416
-0.0992216796875,0.1137958984375,0.9226611328125,0.9349320907018074,-0.07666015625,-0.60791015625,1.78173828125,45.70647058823529,397.121976993416
-0.0333037109375,0.1484638671875,0.9939501953125,1.005528541506522,-0.01611328125,-0.93310546875,2.0,45.84764705882353,397.121976993416
0.0409150390625,0.1636005859375,1.0349658203125005,1.0486150110291697,0.03857421875,-1.19775390625,2.03955078125,45.7535294117647,397.6279505895339
0.0082001953125,0.1743427734375,1.0574267578125005,1.0717341060127268,0.06884765625,-1.16748046875,1.89404296875,45.70647058823529,397.6279505895339
-0.0372099609375,0.2094990234375,1.0994189453125005,1.1198198244924435,0.0849609375,-0.9970703125,1.859375,46.27117647058824,397.6279505895339
-0.0733427734375,0.2622333984375,1.1619189453125005,1.1933989915982408,0.11083984375,-0.33984375,1.77294921875,45.7535294117647,397.6279505895339
-0.1197294921875,0.2832294921875,1.2048876953125005,1.2435065158091188,0.15673828125,0.1689453125,1.80712890625,45.61235294117647,397.6279505895339
-0.1666044921875,0.2910419921875,1.2878955078125005,1.330840838371419,0.2216796875,0.458984375,1.810546875,45.565294117647056,397.6169849609023
-0.2193388671875,0.2646748046875,1.3850634765625005,1.4270820316305792,0.23681640625,0.580078125,1.73583984375,45.565294117647056,397.6169849609023
-0.2383818359375,0.2300068359375,1.4832080078125005,1.5197483471687143,0.453125,0.775390625,1.70703125,45.89470588235295,397.6169849609023
-0.2149443359375,0.2055927734375,1.6057666015625005,1.6330816987324663,0.79833984375,0.9140625,1.76171875,45.7535294117647,397.6169849609023
-0.1373076171875,0.1523701171875,1.6223681640625005,1.6352823897152962,0.87353515625,0.96728515625,1.8671875,45.00058823529412,397.0679341504358
-0.1119169921875,0.1269794921875,1.6355517578125005,1.6442867016004392,0.896484375,1.11474609375,2.08251953125,45.7535294117647,397.0679341504358
-0.0396513671875,0.1352802734375,1.6189501953125005,1.625076219198209,0.70361328125,1.43115234375,1.943359375,45.7535294117647,397.0679341504358
0.0868134765625,0.1059833984375,1.4900439453125005,1.496328847352637,0.49560546875,1.62548828125,1.57763671875,45.7535294117647,397.0679341504358
0.1766572265625,0.0781513671875,1.3362353515625005,1.3501260410255735,0.02880859375,2.1611328125,1.09423828125,45.7535294117647,397.0679341504358
0.2201142578125,0.0239521484375,1.1965869140625005,1.2168994349627815,-0.13427734375,2.50537109375,0.76708984375,44.85941176470588,397.0358229123596
0.3758759765625,0.0102802734375,1.1209033203125005,1.1822912869789537,-0.10498046875,2.4150390625,0.435546875,45.89470588235295,397.0358229123596
0.4139619140625,-0.0458720703125,1.0530322265625005,1.132406986603412,0.0234375,1.99755859375,0.2509765625,45.61235294117647,397.0358229123596
0.3353486328125,-0.0937236328125,1.0803759765625005,1.1351013503692793,0.001953125,1.2119140625,0.28125,45.70647058823529,397.0358229123596
0.2420869140625,-0.2123759765625,1.0525439453125005,1.1007081294308605,-0.052734375,-0.0166015625,0.48486328125,45.565294117647056,398.9540836612271
0.1790986328125,-0.2280009765625,1.1853564453125005,1.220299417369625,-0.1611328125,-1.189453125,0.65771484375,45.61235294117647,398.9540836612271
0.0868134765625,-0.1825908203125,1.3079150390625005,1.323449181790189,-0.0068359375,-1.5556640625,1.0107421875,45.61235294117647,398.9540836612271
0.0057587890625,-0.0898173828125,1.3381884765625005,1.341211662904636,-0.19873046875,-0.876953125,1.46875,45.84764705882353,398.9540836612271
-0.0103544921875,0.0088154296875,1.3069384765625005,1.3070092229317072,-0.41796875,-0.158203125,1.7822265625,45.70647058823529,398.9540836612271
0.0067353515625,0.0493427734375,1.2063525390625005,1.2073800241654309,-0.36669921875,-0.23974609375,2.0908203125,45.7535294117647,399.1475767197354
0.0516572265625,0.0732685546875,1.1262744140625005,1.129836627983866,-0.42529296875,-0.4296875,1.99853515625,45.61235294117647,399.1475767197354
0.0580048828125,0.1264912109375,1.1335986328125005,1.1421078991009983,-0.43017578125,-0.08056640625,1.35693359375,45.7535294117647,399.1475767197354
0.0345673828125,0.1987568359375,1.0930712890625005,1.1115322877717717,-0.52392578125,0.28955078125,1.01806640625,45.84764705882353,399.1475767197354
0.0086884765625,0.2041279296875,1.0222705078125005,1.0424877421086107,-0.3779296875,0.29638671875,1.06396484375,45.7535294117647,398.7378852637125
0.0155244140625,0.1772724609375,0.8557666015625001,0.874072656698888,-0.24951171875,-0.1923828125,1.6845703125,45.7535294117647,398.7378852637125
0.0916962890625,0.2002216796875,0.7815478515625001,0.8119815113207178,-0.091796875,-0.529296875,1.79638671875,45.70647058823529,398.7378852637125
0.0721650390625,0.1474873046875,0.6785205078125001,0.6981048470172718,0.03076171875,-0.79736328125,1.87548828125,45.565294117647056,398.7378852637125
0.0677705078125,0.1069599609375,0.6082080078125001,0.6212489482809334,0.18798828125,-0.982421875,1.69384765625,45.7535294117647,398.7378852637125
0.0086884765625,0.0703388671875,0.5476611328125001,0.5522279984351289,0.322265625,-1.01953125,1.58203125,45.565294117647056,398.8248312981909
-0.0274443359375,0.0239521484375,0.5252001953125001,0.5264619094921404,0.365234375,-1.04443359375,1.61328125,45.84764705882353,398.8248312981909
-0.0357451171875,-0.0043681640624999,0.4773486328125,0.4787050360169486,0.306640625,-1.30712890625,1.62255859375,45.7535294117647,398.8248312981909
-0.0459990234375,-0.0019267578124999,0.4934619140625,0.4956049668668564,0.19140625,-1.576171875,1.53173828125,45.565294117647056,398.8248312981909
-0.0347685546875,0.0102802734375,0.4949267578125,0.4962529919464471,0.265625,-1.9033203125,1.185546875,45.7535294117647,398.468420636996
0.0140595703125,0.0068623046875,0.5095751953125001,0.5098153022622691,0.23583984375,-2.16015625,0.712890625,45.94176470588236,398.468420636996
0.0140595703125,0.0102802734375,0.5549853515625001,0.5552585847947547,0.3095703125,-2.2265625,0.31103515625,45.94176470588236,398.468420636996
-0.0176787109375,0.0019794921875,0.6111376953125001,0.6113965471292803,0.3212890625,-1.953125,-0.01708984375,45.7535294117647,398.468420636996
-0.0450224609375,0.0049091796875,0.6467822265625001,0.6483659234037659,0.49267578125,-1.49072265625,-0.32421875,45.70647058823529,398.468420636996
-0.0562529296875,0.0044208984375,0.6853564453125001,0.6876753547807333,0.5302734375,-0.8720703125,-0.51513671875,45.84764705882353,398.88906823767104
-0.0489287109375,0.0039326171875,0.6931689453125001,0.6949047927432884,0.3974609375,-0.01513671875,-0.7412109375,45.70647058823529,398.88906823767104
-0.0401396484375,0.0229755859375,0.6785205078125001,0.6800949554643017,0.3017578125,-0.0166015625,-0.76611328125,45.61235294117647,398.88906823767104
-0.0450224609375,0.0346943359375,0.6980517578125001,0.700362031752246,0.23583984375,-0.1650390625,-0.8505859375,45.61235294117647,398.88906823767104
-0.0660185546875,0.0478779296875,0.7385791015625001,0.7430678535497667,0.12939453125,-0.21044921875,-1.05078125,45.70647058823529,398.4143725128191
-0.0831083984375,0.0595966796875,0.7918017578125001,0.798378853549858,0.0419921875,-0.2685546875,-1.154296875,45.89470588235295,398.4143725128191
-0.0728544921875,0.0561787109375,0.8186572265625001,0.8238103417641115,-0.078125,-0.36572265625,-1.279296875,45.70647058823529,398.4143725128191
-0.0630888671875,0.0586201171875,0.8430712890625001,0.8474583893876936,-0.16015625,-0.5,-1.361328125,45.565294117647056,398.4143725128191
-0.0635771484375,0.0669208984375,0.8787158203125001,0.8835507644264681,-0.16357421875,-0.55810546875,-1.51318359375,45.61235294117647,398.4143725128191
-0.0611357421875,0.0659443359375,0.9334033203125,0.9377249025089682,-0.14697265625,-0.5791015625,-1.65966796875,45.70647058823529,398.4261180642037
-0.0645537109375,0.0620380859375,1.0120166015625005,1.0159692453714844,0.00341796875,-0.6171875,-1.7890625,45.70647058823529,398.4261180642037
-0.0621123046875,0.0561787109375,1.0598681640625005,1.063171910440361,0.0791015625,-0.60791015625,-1.86328125,45.7535294117647,398.4261180642037
-0.0723662109375,0.0395771484375,1.1252978515625005,1.1283166549754875,0.173828125,-0.51708984375,-1.7822265625,45.70647058823529,398.4261180642037
-0.0596708984375,0.0141865234375,1.1624072265625005,1.1640242411274369,0.25390625,-0.37060546875,-1.5791015625,45.84764705882353,398.3086187482928
-0.0484404296875,-0.0234111328125,1.2141650390625005,1.215356449133141,0.31884765625,-0.19287109375,-1.2939453125,45.7535294117647,398.3086187482928
-0.0591826171875,-0.0444072265625,1.2825244140625005,1.2846569412160178,0.4794921875,-0.01220703125,-1.130859375,45.84764705882353,398.3086187482928
-0.0962919921875,-0.0370830078125,1.3215869140625005,1.3256090180174176,0.52099609375,0.26806640625,-1.193359375,45.61235294117647,398.3086187482928
-0.1280302734375,-0.0234111328125,1.3352587890625005,1.3415870697888752,0.34033203125,0.73583984375,-1.1767578125,45.61235294117647,398.3086187482928
-0.1265654296875,0.0171162109375,1.4055712890625005,1.4113619030233375,0.2119140625,1.23681640625,-0.97900390625,45.7535294117647,397.6396997271311
-0.1026396484375,0.0786396484375,1.5266650390625005,1.5321309451980445,0.28955078125,1.4453125,-0.8642578125,45.70647058823529,397.6396997271311
-0.0894560546875,0.1699482421875,1.6477587890625005,1.6589134449016896,0.220703125,1.455078125,-0.97900390625,45.61235294117647,397.6396997271311
-0.0264677734375,0.2265888671875,1.6765673828125005,1.692016916840612,0.0888671875,1.15869140625,-1.1708984375,45.84764705882353,397.6396997271311
0.0565400390625,0.2402607421875,1.7058642578125005,1.7236284014647327,-0.1279296875,1.037109375,-1.20849609375,45.7535294117647,397.05932760962776
0.2181611328125,0.2197529296875,1.4714892578125005,1.5037174820536787,-0.33251953125,1.19873046875,-1.09716796875,44.85941176470588,397.05932760962776
0.4120087890625,0.2060810546875,1.3323291015625005,1.409723901420487,-0.4267578125,1.36962890625,-1.0224609375,45.61235294117647,397.05932760962776
0.4935517578125,0.1972919921875,1.2405322265625005,1.3496064881887742,-0.29345703125,1.23779296875,-0.7109375,46.13,397.05932760962776
0.5638642578125,0.2143818359375,1.2341845703125005,1.3737226890518426,-0.26611328125,1.1201171875,-0.46240234375,45.565294117647056,397.05932760962776
0.6019501953125,0.2344013671875,1.1663134765625005,1.3332573510719647,-0.3154296875,0.40283203125,-0.2998046875,45.70647058823529,397.8652806744973
0.5072236328125,0.2544208984375,1.1003955078125005,1.2380937286244469,-0.40625,0.08056640625,-0.38330078125,46.13,397.8652806744973
0.3768525390625,0.2798115234375,1.0969775390625005,1.1931772902858515,-0.52001953125,-0.0888671875,-0.41015625,45.565294117647056,397.8652806744973
0.2586884765625,0.3310810546875,1.1502001953125005,1.224538640458572,-0.49267578125,-0.08642578125,-0.369140625,45.7535294117647,397.8652806744973
0.1605439453125,0.3779560546875,1.2468798828125005,1.3127583859240657,-0.20361328125,-0.28125,-0.33837890625,46.13,399.09508075835697
0.1156220703125,0.3178974609375,1.2742236328125005,1.3183600135136622,0.2314453125,-0.5546875,0.228515625,45.84764705882353,399.09508075835697
0.1141572265625,0.2461201171875,1.2380908203125005,1.2674682890719242,0.416015625,-0.61572265625,0.416015625,44.85941176470588,399.09508075835697
0.0819306640625,0.1826435546875,1.1907275390625005,1.20743669567578,0.57421875,-0.45458984375,0.27099609375,45.565294117647056,399.09508075835697
0.1146455078125,0.1235615234375,1.1755908203125005,1.1876130764431652,0.5888671875,-0.24365234375,-0.103515625,45.7535294117647,399.09508075835697
0.1019501953125,0.0454365234375,1.1638720703125005,1.169211920927874,0.5048828125,-0.13037109375,-0.388671875,46.08294117647059,399.41705701665205
0.0726533203125,-0.0136455078124999,1.1252978515625005,1.1277233524083248,0.353515625,0.0068359375,-0.451171875,45.70647058823529,399.41705701665205
0.2372041015625,-0.0258525390625,0.9646533203125,0.9937253986710723,-0.05126953125,-0.19140625,-0.521484375,45.7535294117647,399.41705701665205
0.0570283203125,-0.0561259765625,0.8826220703125001,0.8862415435791098,-0.29052734375,-0.3212890625,-0.05712890625,45.61235294117647,399.41705701665205
0.0008759765625,-0.1083720703125,0.8210986328125001,0.8282199211352697,-0.45849609375,-0.53515625,0.876953125,46.27117647058824,399.12719993683487
0.0790009765625,-0.0741923828125,0.7009814453125001,0.7093099820513079,-0.47998046875,-0.875,1.20166015625,45.70647058823529,399.12719993683487
0.1161103515625,-0.0258525390625,0.6355517578125001,0.646587971102544,-0.8818359375,-0.72509765625,0.48876953125,45.00058823529412,399.12719993683487
0.0711884765625,-0.0102275390624999,0.6169970703125001,0.6211745217930085,-1.11328125,-0.46728515625,-0.189453125,45.565294117647056,399.12719993683487
0.0013642578125,0.0200458984375,0.6096728515625001,0.6100038402960228,-1.19921875,-0.22509765625,-0.26513671875,45.70647058823529,399.12719993683487
-0.0269560546875,0.0259052734375,0.5671923828125001,0.568423179679285,-1.1572265625,0.021484375,-0.02001953125,45.7535294117647,398.1691912242493
-0.0035185546874999,0.0298115234375,0.4890673828125,0.4899877672838598,-1.2373046875,0.0546875,0.13232421875,45.7535294117647,398.1691912242493
-0.0215849609375,0.0449482421875,0.4944384765625,0.4969463372637588,-1.048828125,-0.13427734375,0.5078125,45.7535294117647,398.1691912242493
0.0448212890625,0.0512958984375,0.4377978515625,0.4430656565143312,-1.02294921875,-0.46533203125,0.41943359375,44.85941176470588,398.1691912242493
0.0448212890625,0.0639912109375,0.4480517578125,0.4548122697436196,-0.83935546875,-0.837890625,0.29931640625,45.7535294117647,398.1989622816309
-0.0020537109374999,0.0439716796875,0.4841845703125,0.4861814727772493,-0.60546875,-1.01171875,0.49365234375,45.84764705882353,398.1989622816309
-0.0181669921875,0.0459248046875,0.5208056640625001,0.5231421097658908,-0.41943359375,-0.7998046875,0.6015625,45.7535294117647,398.1989622816309
-0.0108427734375,0.0498310546875,0.5608447265625001,0.5631585097111212,-0.234375,-0.33642578125,0.58935546875,45.61235294117647,398.1989622816309
0.0062470703125,0.0498310546875,0.5696337890625001,0.5718433470282388,-0.0322265625,0.015625,0.48583984375,45.7535294117647,398.1989622816309
0.0272431640625,0.0522724609375,0.5764697265625001,0.5794755782633487,-0.017578125,-0.1181640625,0.49853515625,45.61235294117647,397.8981776436339
0.0252900390625,0.0610615234375,0.6389697265625001,0.6423787100952577,0.08251953125,-0.310546875,0.58203125,44.81235294117647,397.8981776436339
0.0003876953125,0.0761982421875,0.6946337890625001,0.6988007035825351,0.10205078125,-0.32177734375,0.689453125,45.70647058823529,397.8981776436339
-0.0230498046875,0.0683857421875,0.7463916015625001,0.7498722065216853,0.09130859375,-0.498046875,0.96484375,45.61235294117647,397.8981776436339
0.0047822265625,0.0874287109375,0.7908251953125001,0.7956576768486193,0.12255859375,-0.546875,1.0166015625,45.61235294117647,397.5652919490158
-0.0010771484374999,0.0903583984375,0.8757861328125001,0.880435773264365,-0.04052734375,-0.56982421875,1.09130859375,45.7535294117647,397.5652919490158
0.0086884765625,0.0771748046875,0.9265673828125,0.9298164092956936,-0.1103515625,-0.68603515625,1.31640625,44.85941176470588,397.5652919490158
0.0355439453125,0.0918232421875,0.9924853515625,0.9973575351499288,-0.1455078125,-0.7509765625,1.5400390625,45.70647058823529,397.5652919490158
0.0658173828125,0.1230732421875,1.0418017578125005,1.051108868483206,-0.150390625,-0.7734375,1.662109375,45.70647058823529,397.5652919490158
0.0931611328125,0.1518818359375,1.0925830078125005,1.1070161325451693,-0.13916015625,-0.81591796875,1.6826171875,45.61235294117647,397.5754732976308
0.0726533203125,0.1704365234375,1.1150439453125005,1.1303318598765402,-0.1376953125,-0.64013671875,1.6123046875,46.27117647058824,397.5754732976308
0.0086884765625,0.2153583984375,1.1599658203125005,1.179820085307838,-0.13427734375,-0.146484375,1.439453125,45.61235294117647,397.5754732976308
-0.0162138671875,0.2763935546875,1.2317431640625005,1.2624767359348312,-0.07421875,0.3662109375,1.35546875,44.85941176470588,397.5754732976308
-0.0132841796875,0.3149677734375,1.2849658203125005,1.323071550259291,0.10595703125,0.72509765625,1.556640625,45.7535294117647,397.8668462503964
-0.0328154296875,0.3198505859375,1.2966845703125005,1.3359536386554178,0.3134765625,1.05029296875,1.6728515625,45.7535294117647,397.8668462503964
-0.0684599609375,0.3110615234375,1.3396533203125005,1.3769956631155846,0.4580078125,1.49072265625,1.43408203125,46.17705882352941,397.8668462503964
-0.0669951171875,0.3012958984375,1.4768603515625005,1.5087690552763664,0.62841796875,1.85009765625,1.21728515625,45.70647058823529,397.8668462503964
-0.0108427734375,0.2724873046875,1.6335986328125005,1.6562039095710843,0.87451171875,1.853515625,1.291015625,45.565294117647056,397.8668462503964
0.0892548828125,0.2099873046875,1.6428759765625005,1.6586448012163373,1.17578125,1.478515625,1.388671875,45.7535294117647,397.2527804251251
0.1117158203125,0.1084248046875,1.6248095703125005,1.6322507474523358,1.0869140625,1.56591796875,1.302734375,45.84764705882353,397.2527804251251
0.1942353515625,0.0722919921875,1.5374072265625005,1.5513137929566811,1.009765625,1.69482421875,1.22314453125,45.61235294117647,397.2527804251251
0.3138642578125,0.0454365234375,1.4016650390625005,1.437094336403967,0.8232421875,1.92333984375,0.6357421875,45.14176470588235,397.2527804251251
0.3558564453125,-0.0458720703125,1.2517626953125005,1.302170458074218,0.46337890625,2.32958984375,-0.05078125,45.70647058823529,397.3068236831531
0.3783173828125,-0.0956767578125,1.1658251953125005,1.229400858202499,0.11474609375,2.3359375,-0.30126953125,45.565294117647056,397.3068236831531
0.6351533203125,-0.1313212890625,1.1062548828125005,1.282366908108412,0.24755859375,1.81640625,-0.29345703125,45.89470588235295,397.3068236831531
0.5331025390625,-0.1908916015625,1.1096728515625005,1.2457976393447017,-0.06201171875,1.0693359375,-0.248046875,45.84764705882353,397.3068236831531
0.3944306640625,-0.2392314453125,1.1917041015625005,1.2778755412245664,-0.1328125,0.37939453125,-0.3232421875,45.61235294117647,397.3068236831531
0.3031220703125,-0.2719462890625,1.2610400390625005,1.3251640478688491,-0.4853515625,-0.150390625,-0.60498046875,45.7535294117647,398.7605951613082
0.2230439453125,-0.2529033203125,1.3445361328125005,1.3861767937041962,-0.66943359375,-0.25146484375,-0.74462890625,45.09470588235294,398.7605951613082
0.1449189453125,-0.1606181640625,1.3445361328125005,1.3618285897188709,-0.7744140625,-0.03271484375,-0.10693359375,45.09470588235294,398.7605951613082
0.0628876953125,-0.1572001953125,1.3235400390625005,1.3343256718768364,-0.86474609375,0.52783203125,0.68359375,45.84764705882353,398.7605951613082
0.0316376953125,0.0493427734375,1.3230517578125005,1.324349503305656,-0.42919921875,1.03857421875,1.42578125,45.70647058823529,398.8796594136001
0.0560517578125,0.0791279296875,1.2366259765625005,1.2404220389527345,-0.34619140625,1.36279296875,1.6640625,45.7535294117647,398.8796594136001
0.1151337890625,0.1411396484375,1.1384814453125005,1.1529597525784625,-0.28125,1.83544921875,1.41552734375,45.7535294117647,398.8796594136001
0.1341767578125,0.1797138671875,1.0837939453125005,1.106756428620406,-0.2080078125,1.9990234375,1.08349609375,45.565294117647056,398.8796594136001
0.0799775390625,0.1469990234375,0.9475634765625,0.9622274480398508,-0.0751953125,1.3623046875,1.37255859375,45.7535294117647,398.8796594136001
0.0980439453125,0.1821552734375,0.8870166015625001,0.9108191973718044,0.01953125,1.33837890625,1.50634765625,45.14176470588235,398.383816504809
0.0726533203125,0.1675068359375,0.7419970703125001,0.7641313351712233,0.08203125,0.884765625,1.68310546875,45.61235294117647,398.383816504809
0.0316376953125,0.1562763671875,0.6760791015625001,0.6946266610745416,0.31201171875,0.62890625,1.87548828125,45.61235294117647,398.383816504809
0.0111298828125,0.1206318359375,0.6028369140625001,0.6148888184781619,0.5302734375,0.62548828125,1.82861328125,45.70647058823529,398.383816504809
0.0018525390625,0.1040302734375,0.5496142578125001,0.5593760471125344,0.66455078125,0.4521484375,1.7919921875,45.70647058823529,398.69635982701806
-0.0323271484375,0.0674091796875,0.5413134765625001,0.546451573280215,0.76171875,0.37939453125,1.6572265625,45.94176470588236,398.69635982701806
-0.0328154296875,0.0586201171875,0.5623095703125001,0.5663084172336483,0.83642578125,0.9365234375,1.1513671875,46.27117647058824,398.69635982701806
-0.0171904296875,0.0302998046875,0.5217822265625001,0.5229438602693999,0.8388671875,1.130859375,0.70751953125,45.565294117647056,398.69635982701806
-0.0118193359375,0.0249287109375,0.5222705078125001,0.5229986813193085,0.81396484375,1.236328125,0.35498046875,45.70647058823529,398.69635982701806
-0.0137724609375,0.0029560546875,0.5125048828125001,0.5126984238772778,0.78369140625,1.205078125,0.1474609375,45.7535294117647,398.4597956200497
-0.0049833984375,-0.0068095703124999,0.5256884765625001,0.5257561972040177,0.71630859375,1.138671875,-0.1787109375,45.7535294117647,398.4597956200497
-0.0196318359375,-0.0087626953124999,0.5383837890625001,0.5388128600327865,0.68115234375,1.17822265625,-0.41064453125,46.17705882352941,398.4597956200497
-0.0425810546875,-0.0043681640624999,0.5618212890625001,0.563449543366064,0.6826171875,1.35400390625,-0.6591796875,45.70647058823529,398.4597956200497
-0.0674833984375,-0.0102275390624999,0.5911181640625001,0.5950456247251719,0.63134765625,1.65576171875,-0.84765625,45.7535294117647,398.2224559964157
-0.0772490234375,-0.0029033203124999,0.6130908203125001,0.6179451390231487,0.5771484375,1.92431640625,-1.0517578125,45.70647058823529,398.2224559964157
-0.0894560546875,0.0141865234375,0.6580126953125001,0.6642170958052169,0.4423828125,2.2001953125,-1.27392578125,45.14176470588235,398.2224559964157
-0.0855498046875,0.0425068359375,0.7146533203125001,0.7210096867706896,0.4951171875,2.236328125,-1.56591796875,45.61235294117647,398.2224559964157
-0.0899443359375,0.0503193359375,0.7727587890625001,0.7796012860493307,0.37255859375,2.08203125,-1.76904296875,45.70647058823529,398.2224559964157
-0.0816435546875,0.0508076171875,0.8001025390625001,0.8058605071602293,0.16943359375,1.92578125,-2.14697265625,45.89470588235295,398.0626643620544
-0.0562529296875,0.0473896484375,0.8137744140625001,0.8170917744416608,-0.05029296875,1.5087890625,-2.380859375,45.61235294117647,398.0626643620544
-0.0567412109375,0.0561787109375,0.7947314453125001,0.7987325476965041,-0.078125,0.8017578125,-2.3974609375,45.7535294117647,398.0626643620544
-0.0284208984375,0.0820576171875,0.8782275390625001,0.88251051573013,-0.14794921875,0.08544921875,-2.4775390625,45.7535294117647,398.0626643620544
-0.0562529296875,0.0937763671875,0.9710009765625,0.977139342993946,0.36474609375,0.0087890625,-2.66845703125,45.565294117647056,397.8770289449922
-0.1045927734375,0.0669208984375,1.0076220703125005,1.0152439566349951,0.4208984375,0.17041015625,-2.7978515625,44.85941176470588,397.8770289449922
-0.1631865234375,0.0688740234375,1.0960009765625005,1.110221425285083,0.45703125,0.53466796875,-2.7392578125,45.7535294117647,397.8770289449922
-0.1270537109375,0.0351826171875,1.0681689453125005,1.0762738302798092,0.576171875,0.51611328125,-2.62060546875,45.7535294117647,397.8770289449922
-0.1124052734375,0.0312763671875,1.1580126953125005,1.1638756630954736,0.61083984375,0.8876953125,-2.482421875,45.61235294117647,397.8770289449922
-0.0787138671875,0.0244404296875,1.2649462890625005,1.2676286213650714,0.7841796875,1.15478515625,-2.26025390625,45.61235294117647,397.3381501492541
-0.1065458984375,0.0366474609375,1.3679736328125005,1.372605888424368,0.763671875,1.06005859375,-2.21484375,45.7535294117647,397.3381501492541
-0.1563505859375,0.0464130859375,1.5061572265625005,1.5149618052596852,0.67724609375,1.22900390625,-2.181640625,45.70647058823529,397.3381501492541
-0.0982451171875,0.0844990234375,1.7122119140625005,1.7171085657787184,0.68798828125,1.3740234375,-2.30126953125,45.94176470588236,397.3381501492541
0.0267548828125,0.1382099609375,1.8601611328125005,1.8654804359957624,0.77783203125,0.87841796875,-2.35205078125,45.61235294117647,397.1572336860476
0.1014619140625,0.1352802734375,1.7595751953125005,1.767682137813689,0.35498046875,0.279296875,-2.00390625,45.61235294117647,397.1572336860476
0.0941376953125,0.1538349609375,1.7263720703125005,1.735767157783687,-0.08837890625,0.39697265625,-1.384765625,45.61235294117647,397.1572336860476
0.1048798828125,0.1269794921875,1.6658251953125005,1.6739465829568425,-0.32177734375,0.9228515625,-0.76220703125,45.518235294117645,397.1572336860476
0.2704072265625,0.2055927734375,1.5784228515625005,1.6145609790285536,-0.50732421875,1.2021484375,-0.07421875,45.00058823529412,397.1572336860476
0.3905244140625,0.2490498046875,1.3826220703125005,1.45814228129801,-0.2763671875,1.5478515625,0.68798828125,45.70647058823529,397.5551109341793
0.3709931640625,0.2661396484375,1.1834033203125005,1.2684280266448669,-0.1337890625,0.6884765625,1.30029296875,45.84764705882353,397.5551109341793
0.4203095703125,0.3174091796875,1.1487353515625005,1.2637252985422074,0.21826171875,-0.45654296875,1.58203125,45.70647058823529,397.5551109341793
0.3119111328125,0.3696552734375,1.1394580078125005,1.2378603021022048,0.259765625,-0.662109375,1.181640625,45.565294117647056,397.5551109341793
0.1493134765625,0.3774677734375,1.1321337890625005,1.2027066768768095,0.58740234375,-0.734375,0.0947265625,45.70647058823529,398.363447501828
0.0785126953125,0.3867451171875,1.1809619140625005,1.2451534328988418,0.44140625,0.04296875,-1.66943359375,46.03588235294118,398.363447501828
-0.1143583984375,0.2500263671875,1.2385791015625005,1.2687274011423963,0.3134765625,0.2099609375,-1.97314453125,45.7535294117647,398.363447501828
-0.0923857421875,0.0976826171875,1.1648486328125005,1.1725823452641977,0.38916015625,-0.02294921875,-1.2255859375,45.7535294117647,398.363447501828
-0.0206083984375,0.2485615234375,1.1350634765625005,1.1621431206378494,0.49072265625,0.0234375,-1.44873046875,45.565294117647056,398.363447501828
0.0140595703125,0.1469990234375,1.0925830078125005,1.1025171261116813,0.49560546875,-0.02587890625,-1.333984375,45.84764705882353,398.4809463599586
0.0741181640625,0.0869404296875,1.0667041015625005,1.0728046331222212,0.38720703125,-0.248046875,-1.1435546875,45.84764705882353,398.4809463599586
0.1307587890625,0.0342060546875,0.9846728515625,0.9939056996006216,0.25537109375,-0.63525390625,-1.13037109375,45.70647058823529,398.4809463599586
0.2401337890625,-0.0151103515624999,0.8938525390625001,0.9256699849094892,-0.12158203125,-0.7841796875,-1.17333984375,46.17705882352941,398.4809463599586
0.0365205078125,-0.0312236328125,0.8308642578125001,0.8322524122207212,-0.17236328125,-1.00341796875,-1.20849609375,45.7535294117647,399.0739274369065
-0.0591826171875,-0.0610087890625,0.8176806640625001,0.822086566549853,-0.431640625,-0.7685546875,-1.1044921875,45.89470588235295,399.0739274369065
-0.0875029296875,-0.0439189453125,0.7161181640625001,0.7227799536245479,-0.603515625,-0.61767578125,-0.8388671875,45.70647058823529,399.0739274369065
-0.0845732421875,-0.0204814453125,0.6736376953125001,0.6792347660729177,-0.65771484375,-0.60302734375,-0.5341796875,45.7535294117647,399.0739274369065
-0.0430693359375,0.0176044921875,0.5950244140625001,0.5968407988515014,-0.95556640625,-0.3359375,-0.49169921875,45.7535294117647,399.0739274369065
0.0208955078125,0.0527607421875,0.5496142578125001,0.5525361079184811,-1.28125,-0.12060546875,-0.76318359375,45.565294117647056,398.88121790024695
0.0023408203125,0.0791279296875,0.5837939453125001,0.5891367237576518,-1.09765625,0.10595703125,-0.94970703125,45.84764705882353,398.88121790024695
-0.0044951171875,0.0566669921875,0.4944384765625,0.4976954502379477,-0.90673828125,-0.0234375,-0.76708984375,45.84764705882353,398.88121790024695
0.0311494140625,0.0503193359375,0.4724658203125,0.4761578235513847,-0.9052734375,-0.07275390625,-0.85107421875,45.7535294117647,398.88121790024695
-0.1270537109375,0.0478779296875,0.4968798828125,0.5150966506956872,-0.65576171875,-0.23876953125,-0.8154296875,46.03588235294118,397.82455018633846
-0.0723662109375,0.0249287109375,0.5247119140625001,0.5302649355497576,-0.44287109375,-0.38623046875,-0.2900390625,45.61235294117647,397.82455018633846
-0.0709013671875,0.0097919921875,0.5564501953125001,0.56103449701723,-0.2734375,-0.27294921875,0.1298828125,45.565294117647056,397.82455018633846
-0.0381865234375,0.0200458984375,0.5823291015625001,0.5839239943203206,-0.09716796875,0.0810546875,0.1611328125,45.7535294117647,397.82455018633846
-0.0235380859375,0.0053974609375,0.5623095703125001,0.5628278839389547,-0.16015625,0.126953125,-0.01513671875,45.61235294117647,397.82455018633846
-0.0318388671875,-0.0019267578124999,0.6072314453125001,0.6080686260906404,-0.13671875,0.12744140625,0.0224609375,45.565294117647056,398.115927346137
-0.0313505859375,0.0249287109375,0.6370166015625001,0.6382745886637404,-0.18310546875,0.056640625,-0.0302734375,45.7535294117647,398.115927346137
-0.0586943359375,0.0439716796875,0.6951220703125001,0.6989801329946513,-0.185546875,0.025390625,0.115234375,45.61235294117647,398.115927346137
-0.0606474609375,0.0825458984375,0.7634814453125001,0.7703219179041213,-0.279296875,-0.03955078125,0.38818359375,45.61235294117647,398.115927346137
-0.0997099609375,0.0991474609375,0.8250048828125001,0.8369022356195362,-0.2919921875,-0.2373046875,0.84326171875,45.7535294117647,397.3083961704774
-0.0923857421875,0.1352802734375,0.8601611328125001,0.8756215233433583,-0.345703125,-0.3525390625,1.3720703125,45.84764705882353,397.3083961704774
-0.0557646484375,0.1557880859375,0.9168017578125,0.9316142371515788,-0.345703125,-0.251953125,1.7236328125,45.7535294117647,397.3083961704774
-0.0269560546875,0.1704365234375,0.9773486328125,0.992464401107788,-0.31787109375,-0.3427734375,1.9619140625,45.61235294117647,397.3083961704774
0.0379853515625,0.1841083984375,0.9851611328125,1.0029363124909558,-0.31103515625,-0.4208984375,2.09033203125,45.565294117647056,397.3083961704774
0.0599580078125,0.1977802734375,1.0203173828125005,1.041037732712511,-0.3525390625,-0.58154296875,2.1689453125,45.61235294117647,397.5558961508745
0.0238251953125,0.2261005859375,1.0549853515625005,1.0792048957007248,-0.35009765625,-0.7021484375,2.08740234375,45.7535294117647,397.5558961508745
-0.0655302734375,0.2812763671875,1.0720751953125005,1.110295382265155,-0.2236328125,-0.591796875,1.767578125,45.70647058823529,397.5558961508745
-0.1329130859375,0.3305927734375,1.1257861328125005,1.1808267811560895,-0.17919921875,0.109375,1.30859375,45.70647058823529,397.5558961508745
-0.1685576171875,0.3457294921875,1.1697314453125005,1.2313456891681658,-0.07763671875,0.9716796875,1.0302734375,46.03588235294118,397.88016387685656
-0.1666044921875,0.3457294921875,1.2253955078125005,1.2840872591659558,0.0869140625,1.6142578125,0.990234375,45.61235294117647,397.88016387685656
-0.1543974609375,0.3344990234375,1.3084033203125005,1.359281950600891,0.33349609375,1.8525390625,0.92626953125,45.61235294117647,397.88016387685656
-0.1353544921875,0.3042255859375,1.4334033203125005,1.4715702920272793,0.53076171875,2.00341796875,0.95654296875,45.7535294117647,397.88016387685656
-0.0684599609375,0.2695576171875,1.5349658203125005,1.559957738133631,0.77294921875,1.7119140625,0.828125,45.70647058823529,397.88016387685656
-0.0411162109375,0.2300068359375,1.4646533203125005,1.4831732994098394,0.90771484375,1.34716796875,0.591796875,45.7535294117647,397.0499366006656
-0.1089873046875,0.2246357421875,1.6453173828125005,1.664154061208322,0.974609375,1.56103515625,0.3916015625,45.61235294117647,397.0499366006656
-0.0782255859375,0.2026630859375,1.6052783203125005,1.6199105081337974,0.61083984375,2.20068359375,0.18505859375,45.61235294117647,397.0499366006656
0.0575166015625,0.1318623046875,1.4509814453125005,1.4580956695271925,0.37646484375,2.7646484375,-0.30126953125,45.61235294117647,397.0499366006656
0.2401337890625,0.0586201171875,1.2791064453125005,1.3027716043990865,0.2998046875,3.5009765625,-0.90283203125,45.7535294117647,397.2339956112633
0.3866181640625,0.0205341796875,1.1560595703125005,1.2191673336460502,0.5,3.9599609375,-1.15576171875,45.7535294117647,397.2339956112633
0.4896455078125,-0.0488017578125,0.9221728515625,1.0452449966612918,0.337890625,1.63623046875,-0.38818359375,45.94176470588236,397.2339956112633
0.4554658203125,-0.0571025390625,0.8713916015625001,0.9849026026536744,-0.46044921875,-1.7490234375,0.68359375,45.7535294117647,397.2339956112633
0.3021455078125,-0.1069072265625,1.1443408203125005,1.1883757722269692,0.52294921875,-4.8828125,1.4130859375,46.27117647058824,397.2339956112633
0.2020478515625,-0.1874736328125,1.4109423828125005,1.4376119451846363,0.837890625,-6.1083984375,1.09521484375,45.565294117647056,398.6979197745618
0.1512666015625,-0.2309306640625,1.6223681640625005,1.6456880069187303,0.6728515625,-4.11376953125,0.18408203125,44.81235294117647,398.6979197745618
0.1341767578125,-0.2001689453125,1.7102587890625005,1.727152608940543,0.4931640625,-1.115234375,-0.82421875,45.7535294117647,398.6979197745618
0.0848603515625,-0.2182353515625,1.4587939453125005,1.4774666570922437,-0.26806640625,0.5439453125,-0.796875,45.61235294117647,398.6979197745618
0.0770478515625,-0.1488994140625,1.3396533203125005,1.3501031166406732,-0.30419921875,0.74462890625,-0.5,45.61235294117647,398.9885374941558
0.0457978515625,-0.0766337890625,1.2605517578125005,1.2637091892354035,-0.4228515625,1.22314453125,-0.02392578125,45.61235294117647,398.9885374941558
0.0204072265625,0.0195576171875,1.2058642578125005,1.2061954914340038,-0.4580078125,1.44677734375,0.64453125,45.61235294117647,398.9885374941558
0.0008759765625,0.1089130859375,1.1096728515625005,1.115005230982446,-0.28759765625,1.32763671875,1.2470703125,45.61235294117647,398.9885374941558
-0.0162138671875,0.1611591796875,1.0183642578125005,1.031164842436323,-0.0869140625,1.35888671875,1.68798828125,45.61235294117647,398.9885374941558
0.0472626953125,0.2114521484375,0.8303759765625001,0.858178324067418,0.01123046875,1.1220703125,2.07861328125,45.7535294117647,398.6219398068385
0.1102509765625,0.2456318359375,0.7063525390625001,0.7559260453900584,-0.14013671875,0.24658203125,2.1640625,45.7535294117647,398.6219398068385
0.1278291015625,0.2217060546875,0.5969775390625001,0.6495198503791023,-0.1904296875,-0.7216796875,1.95751953125,45.565294117647056,398.6219398068385
0.0560517578125,0.2490498046875,0.6233447265625001,0.6735920522853807,0.28173828125,-0.74560546875,1.24560546875,45.89470588235295,398.6219398068385
-0.0069365234375,0.2007099609375,0.5344775390625001,0.5709630842175684,0.25341796875,-0.3564453125,-0.28564453125,45.61235294117647,399.10682448926025
-0.0445341796875,0.0566669921875,0.4993212890625,0.5044959770652819,0.29443359375,0.09765625,-0.91259765625,45.7535294117647,399.10682448926025
-0.0210966796875,0.0039326171875,0.5369189453125001,0.5373476427856252,0.25,0.48681640625,-0.85546875,45.89470588235295,399.10682448926025
0.0184541015625,0.0093037109375,0.5720751953125001,0.572448374959282,0.44482421875,0.82470703125,-0.7529296875,45.09470588235294,399.10682448926025
-0.0059599609375,0.0185810546875,0.5759814453125001,0.5763118965212786,0.48095703125,1.10693359375,-1.0966796875,45.70647058823529,399.10682448926025
-0.0450224609375,-0.0038798828124999,0.5427783203125001,0.5446562039312197,0.49462890625,1.1787109375,-1.146484375,46.17705882352941,399.0958587912687
-0.0557646484375,-0.0419658203125,0.5037158203125001,0.5085277315181089,0.46484375,1.24169921875,-1.13623046875,45.7535294117647,399.0958587912687
-0.0308623046875,-0.0629619140625,0.4993212890625,0.5042206205462788,0.4384765625,1.29052734375,-0.9541015625,45.70647058823529,399.0958587912687
-0.0186552734375,-0.0932353515625,0.4783251953125,0.4876841626285932,0.4873046875,1.2470703125,-0.8662109375,45.61235294117647,399.0958587912687
-0.0293974609375,-0.1088603515625,0.5017626953125001,0.5142767632891337,0.607421875,1.02294921875,-0.47412109375,45.94176470588236,398.6125356847253
-0.0333037109375,-0.0932353515625,0.5271533203125001,0.5363698267610557,0.685546875,0.84521484375,-0.3291015625,45.00058823529412,398.6125356847253
-0.0435576171875,-0.0844462890625,0.5662158203125001,0.574133082937778,0.6962890625,0.6474609375,-0.27587890625,45.84764705882353,398.6125356847253
-0.0767607421875,-0.0522197265625,0.6292041015625001,0.6360164406731252,0.693359375,0.7578125,-0.26123046875,45.565294117647056,398.6125356847253
-0.0787138671875,-0.0238994140625,0.6907275390625001,0.6956087895501895,0.724609375,0.70703125,-0.4794921875,45.70647058823529,398.6125356847253
-0.0601591796875,0.0088154296875,0.7253955078125001,0.7279392017578137,0.81103515625,0.462890625,-0.78759765625,45.7535294117647,398.4394265154491
-0.0782255859375,0.0278583984375,0.7942431640625001,0.7985721860412991,0.83154296875,0.26416015625,-1.080078125,45.7535294117647,398.4394265154491
-0.0157255859375,0.0366474609375,0.8767626953125001,0.877669159956007,0.78466796875,0.2734375,-1.158203125,46.27117647058824,398.4394265154491
-0.1656279296875,0.0464130859375,0.9465869140625,0.962088130845182,0.734375,0.33935546875,-1.16650390625,45.7535294117647,398.4394265154491
-0.1573271484375,0.0473896484375,1.0300830078125005,1.0431052743604323,0.81396484375,0.54638671875,-1.21484375,45.7535294117647,398.4284607009329
-0.1070341796875,0.0351826171875,1.0164111328125005,1.022636652520693,0.77001953125,0.3330078125,-1.38818359375,45.61235294117647,398.4284607009329
-0.1226591796875,0.0493427734375,1.1765673828125005,1.1839724616520315,1.08203125,0.47705078125,-1.49853515625,45.7535294117647,398.4284607009329
-0.1265654296875,0.0034443359375,1.1536181640625005,1.1605453631362137,0.93115234375,0.51416015625,-1.34375,45.70647058823529,398.4284607009329
-0.0992216796875,0.0088154296875,1.1560595703125005,1.160343218031504,0.8740234375,0.42138671875,-1.349609375,45.565294117647056,398.4284607009329
-0.1392607421875,-0.0058330078124999,1.1658251953125005,1.174127746167419,0.736328125,0.19287109375,-1.34716796875,45.7535294117647,397.83630016930016
-0.2139677734375,-0.0014384765624999,1.2664111328125005,1.2843603211700612,0.615234375,0.59423828125,-1.150390625,45.565294117647056,397.83630016930016
-0.2584013671875,0.0478779296875,1.3669970703125005,1.392028933951622,0.78076171875,1.26318359375,-1.06787109375,45.565294117647056,397.83630016930016
-0.2876982421875,0.1098896484375,1.3879931640625005,1.4217492876297584,0.95751953125,1.83740234375,-1.1630859375,45.7535294117647,397.83630016930016
-0.2803740234375,0.2134052734375,1.4451220703125005,1.487457294127718,1.11279296875,2.2080078125,-1.33251953125,45.70647058823529,397.329541515218
-0.2964873046875,0.2969013671875,1.5120166015625005,1.5691556159537772,1.23681640625,2.216796875,-1.42822265625,45.7535294117647,397.329541515218
-0.2510771484375,0.3769794921875,1.6345751953125005,1.6961690190332892,1.0908203125,2.04150390625,-1.421875,44.85941176470588,397.329541515218
-0.1460966796875,0.4028583984375,1.6350634765625005,1.6902874611722083,0.794921875,1.51220703125,-1.7333984375,45.61235294117647,397.329541515218
-0.0196318359375,0.3886982421875,1.5803759765625005,1.6275933029346752,0.58544921875,1.10546875,-2.4267578125,45.94176470588236,397.329541515218
0.0663056640625,0.3803974609375,1.4460986328125005,1.496763149331466,0.49755859375,0.98095703125,-2.97021484375,45.7535294117647,397.4274486500504
0.1908173828125,0.3857685546875,1.3460009765625005,1.41313385079981,0.58349609375,0.9326171875,-2.966796875,45.70647058823529,397.4274486500504
0.3031220703125,0.3203388671875,1.1765673828125005,1.2565073758795702,0.025390625,-0.0546875,-2.361328125,45.7535294117647,397.4274486500504
0.3807587890625,0.3032490234375,1.0994189453125005,1.2023557056778953,-0.4833984375,-2.361328125,-1.88671875,45.7535294117647,397.4274486500504
0.5726533203125,0.2524677734375,1.0574267578125005,1.2287486114040072,-0.5771484375,-4.41748046875,-1.9677734375,45.70647058823529,398.0415161628189
0.3119111328125,0.2734638671875,1.0647509765625005,1.142701047308664,-0.92724609375,-5.921875,-1.76953125,45.7535294117647,398.0415161628189
0.0907197265625,0.3022724609375,1.2502978515625005,1.2895128642439329,-0.57177734375,-5.8466796875,-1.42822265625,45.84764705882353,398.0415161628189
-0.0577177734375,0.3164326171875,1.4543994140625005,1.4895430837058918,0.5302734375,-4.9248046875,-1.51318359375,45.70647058823529,398.0415161628189
-0.1695341796875,0.2344013671875,1.5393603515625005,1.566306525231989,1.3779296875,-2.20458984375,-1.61376953125,45.7535294117647,398.0415161628189
-0.1167998046875,0.0996357421875,1.4153369140625005,1.4236390187839942,1.3173828125,0.009765625,-1.61376953125,45.7535294117647,398.1378590389904
-0.0093779296875,0.0356708984375,1.2190478515625005,1.2196056833910336,0.62255859375,0.86083984375,-0.8896484375,45.7535294117647,398.1378590389904
0.1390595703125,-0.0112041015624999,1.1331103515625005,1.1416663982115849,0.3115234375,0.28955078125,-0.45947265625,45.61235294117647,398.1378590389904
0.2464814453125,-0.0326884765625,1.0984423828125005,1.1262314627740246,0.0693359375,-0.04833984375,-0.45361328125,45.7535294117647,398.1378590389904
0.2440400390625,-0.0238994140625,1.0920947265625005,1.1192844207098478,-0.064453125,-0.34912109375,-0.60009765625,46.17705882352941,398.10652801411305
0.1551728515625,-0.0229228515625,1.0066455078125005,1.018793035598929,-0.43701171875,-0.6611328125,-0.62255859375,45.84764705882353,398.10652801411305
0.0809541015625,-0.0195048828125,0.9358447265625,0.939542100838574,-0.51513671875,-0.73486328125,-0.39111328125,46.03588235294118,398.10652801411305
0.0082001953125,-0.0273173828125,0.8582080078125001,0.8586818195818449,-0.537109375,-0.748046875,-0.22119140625,45.565294117647056,398.10652801411305
-0.0445341796875,-0.0199931640625,0.7800830078125001,0.78160892961088,-0.6083984375,-0.51806640625,-0.03369140625,45.61235294117647,398.10652801411305
-0.0572294921875,-0.0141337890624999,0.6931689453125001,0.6956710181651569,-0.76708984375,-0.52880859375,0.20458984375,45.7535294117647,398.3438624347007
-0.0196318359375,-0.0273173828125,0.6033251953125001,0.6042623103296018,-1.15869140625,-1.05517578125,0.51953125,45.565294117647056,398.3438624347007
0.0199189453125,0.0005146484375,0.5710986328125001,0.5714461283845428,-1.31396484375,-1.6005859375,0.60107421875,44.81235294117647,398.3438624347007
0.0721650390625,0.0366474609375,0.5168994140625001,0.5231977002187735,-2.025390625,-2.6826171875,0.4375,45.7535294117647,398.3438624347007
0.0418916015625,0.0576435546875,0.5261767578125001,0.5309799112401112,-1.66845703125,-3.0400390625,0.56298828125,45.565294117647056,398.0313341757089
-0.0201201171875,0.0429951171875,0.5515673828125001,0.5536063375723191,-1.615234375,-2.662109375,0.8271484375,45.70647058823529,398.0313341757089
-0.0220732421875,0.0649677734375,0.5549853515625001,0.5592108547364277,-1.49755859375,-1.7705078125,0.9169921875,45.94176470588236,398.0313341757089
-0.0049833984375,0.0825458984375,0.5515673828125001,0.557732227320129,-1.37060546875,-0.71630859375,0.85302734375,45.565294117647056,398.0313341757089
-0.0108427734375,0.0830341796875,0.5481494140625001,0.5545088104523274,-0.9345703125,0.20458984375,0.79296875,45.61235294117647,398.0313341757089
0.0038056640625,0.0722919921875,0.5134814453125001,0.518559360048209,-0.78369140625,0.583984375,0.73974609375,45.94176470588236,398.03055025119386
0.0067353515625,0.0825458984375,0.5105517578125001,0.5172255675379537,-0.70263671875,0.44091796875,0.60693359375,44.81235294117647,398.03055025119386
-0.0230498046875,0.1006123046875,0.5486376953125001,0.5582628861642819,-0.4716796875,0.25146484375,0.51171875,45.565294117647056,398.03055025119386
-0.0420927734375,0.0825458984375,0.5789111328125001,0.5862795635349801,-0.318359375,0.080078125,0.71875,45.89470588235295,398.03055025119386
-0.0098662109375,0.0786396484375,0.5877001953125001,0.5930202829541226,-0.22900390625,0.0078125,0.90478515625,45.565294117647056,397.9130618031846
0.0082001953125,0.0844990234375,0.6165087890625001,0.6223266145332084,-0.1015625,-0.08154296875,0.91943359375,45.7535294117647,397.9130618031846
-0.0137724609375,0.0962177734375,0.6643603515625001,0.6714329581825678,0.06982421875,-0.19189453125,0.93896484375,45.565294117647056,397.9130618031846
-0.0586943359375,0.1006123046875,0.7014697265625001,0.7110749877539942,0.16357421875,-0.40625,1.2158203125,44.95352941176471,397.9130618031846
-0.0445341796875,0.0952412109375,0.7791064453125001,0.786168578963036,0.38427734375,-0.46484375,1.65185546875,45.84764705882353,397.9130618031846
0.0086884765625,0.1167255859375,0.9114306640625,0.9189157782032256,0.4189453125,-0.18017578125,1.62841796875,45.61235294117647,397.2668937873067
0.0501923828125,0.1582294921875,0.9490283203125,0.963436868842726,0.39111328125,-0.20068359375,1.6181640625,45.00058823529412,397.2668937873067
0.1073212890625,0.1958271484375,1.0388720703125005,1.0626011997106817,0.35595703125,-0.28662109375,1.4951171875,45.7535294117647,397.2668937873067
0.0999970703125,0.2270771484375,1.1130908203125005,1.140409847238064,0.3525390625,-0.517578125,1.29443359375,45.7535294117647,397.2668937873067
0.0628876953125,0.2319599609375,1.1287158203125005,1.1540189291010632,0.369140625,-0.6552734375,1.22265625,45.94176470588236,397.3201490969312
0.0106416015625,0.2558857421875,1.1433642578125005,1.1716964550521574,0.29296875,-0.69482421875,1.22314453125,45.89470588235295,397.3201490969312
-0.0147490234375,0.2851826171875,1.1765673828125005,1.2107260074585533,0.232421875,-0.39208984375,1.0087890625,45.61235294117647,397.3201490969312
-0.0391630859375,0.3247333984375,1.2078173828125005,1.2513226432798832,0.15625,-0.14794921875,0.86669921875,45.7535294117647,397.3201490969312
-0.0728544921875,0.3574482421875,1.2502978515625005,1.302429169090065,0.2001953125,-0.146484375,0.77734375,45.7535294117647,397.3201490969312
-0.1221708984375,0.3364521484375,1.3142626953125005,1.3621351654308442,0.365234375,0.1416015625,0.65234375,46.17705882352941,397.3969116242205
-0.1578154296875,0.3012958984375,1.4138720703125005,1.4542073990571174,0.681640625,0.802734375,0.41455078125,45.61235294117647,397.3969116242205
-0.1246123046875,0.2661396484375,1.5710986328125005,1.5983458489874067,1.0068359375,1.70068359375,0.23388671875,45.565294117647056,397.3969116242205
-0.0508818359375,0.1587177734375,1.6697314453125005,1.6780296160374224,1.6337890625,2.119140625,0.41162109375,45.7535294117647,397.3969116242205
0.0301728515625,-0.0033916015624999,1.6101611328125005,1.6104473842856852,1.4052734375,2.01708984375,0.90087890625,45.61235294117647,396.9865054470059
0.1541962890625,-0.0414775390625,1.5662158203125005,1.5743344236865575,1.0380859375,1.5126953125,1.0693359375,46.27117647058824,396.9865054470059
0.3167939453125,-0.0961650390625,1.4187548828125005,1.45687045959099,0.15380859375,0.89599609375,0.63525390625,45.84764705882353,396.9865054470059
0.4417939453125,-0.1308330078125,1.2615283203125005,1.3430386699565011,-0.5068359375,0.3330078125,0.232421875,45.89470588235295,396.9865054470059
0.5750947265625,-0.1244853515625,1.1140673828125005,1.259911378121624,-0.97509765625,-0.0234375,0.228515625,45.84764705882353,396.9865054470059
0.6156220703125,-0.0522197265625,0.9744189453125,1.1537806179174774,-1.40234375,-0.2705078125,0.00244140625,45.565294117647056,396.9324639431247
0.3998017578125,-0.0253642578125,1.0310595703125005,1.10615036439778,-1.35791015625,-0.32666015625,-0.03955078125,45.84764705882353,396.9324639431247
0.3514619140625,-0.1093486328125,1.1077197265625005,1.1672727158424203,-1.05615234375,-0.7109375,-0.2802734375,45.61235294117647,396.9324639431247
0.3299775390625,-0.2338603515625,1.2517626953125005,1.3154792608379258,-0.76953125,-1.6005859375,-0.76220703125,45.61235294117647,396.9324639431247
0.2943330078125,-0.2118876953125,1.3279345703125005,1.3765676655885248,-0.85693359375,-2.2978515625,-1.265625,45.84764705882353,397.53710916747394
0.1932587890625,-0.0795634765625,1.3870166015625005,1.4026740032390288,-1.51708984375,-2.23974609375,-1.0048828125,45.84764705882353,397.53710916747394
0.0902314453125,0.0327412109375,1.3962939453125005,1.3995893977639242,-1.9150390625,-1.81396484375,-0.4736328125,45.565294117647056,397.53710916747394
0.0506806640625,0.1323505859375,1.3333056640625005,1.3408166172631366,-1.6708984375,-1.41796875,0.158203125,45.7535294117647,397.53710916747394
-0.0044951171875,0.1982685546875,1.2791064453125005,1.2943894021106552,-1.07373046875,-0.63232421875,0.349609375,45.84764705882353,397.53710916747394
0.0570283203125,0.2256123046875,1.1804736328125005,1.2031920624362562,-0.8759765625,-0.3232421875,0.40185546875,45.70647058823529,397.4932447940328
0.1009736328125,0.2280537109375,1.0955126953125005,1.123544496309148,-0.56201171875,-0.0224609375,0.421875,45.84764705882353,397.4932447940328
0.0970673828125,0.1943623046875,0.9714892578125,0.9954848870447944,-0.13037109375,0.09716796875,0.61865234375,45.7535294117647,397.4932447940328
0.1761689453125,0.1538349609375,0.8884814453125001,0.9187491339662583,-0.18359375,-0.189453125,0.8798828125,45.09470588235294,397.4932447940328
0.1610322265625,0.1440693359375,0.8303759765625001,0.858027746638344,-0.0771484375,-0.26171875,0.88916015625,45.70647058823529,397.6436238323392
0.1288056640625,0.1186787109375,0.7781298828125001,0.7975974235478468,0.11376953125,-0.12548828125,0.755859375,45.61235294117647,397.6436238323392
0.1029267578125,0.0469013671875,0.6760791015625001,0.6854754607477987,0.080078125,0.0595703125,0.36376953125,45.61235294117647,397.6436238323392
0.0877900390625,0.0278583984375,0.6545947265625001,0.661042689518258,0.0712890625,0.51171875,-0.11083984375,45.7535294117647,397.6436238323392
0.0545869140625,-0.0092509765624999,0.5779345703125001,0.5805804675637313,-0.1650390625,0.77392578125,-0.56640625,45.61235294117647,397.6436238323392
0.2933564453125,-0.0009501953124999,0.4719775390625,0.5557172880674233,-0.25439453125,0.8662109375,-1.03173828125,45.565294117647056,397.7947910585572
-0.0186552734375,-0.0346416015625,0.5291064453125001,0.5305673286747616,-0.54052734375,0.77001953125,-1.15087890625,45.61235294117647,397.7947910585572
-0.1768583984375,-0.1484111328125,0.1975634765625,0.3038685319542458,-1.5625,-1.2705078125,0.51123046875,45.84764705882353,397.7947910585572
0.1312470703125,-0.0444072265625,0.6169970703125001,0.6323631709791421,-0.47119140625,1.2119140625,-1.60693359375,45.89470588235295,397.7947910585572
0.0853486328125,-0.0312236328125,0.5403369140625001,0.5479263500394541,-0.5888671875,1.41552734375,-1.85546875,45.84764705882353,397.8707679249478
0.0370087890625,-0.0116923828124999,0.4763720703125,0.4779505326469719,-0.5439453125,1.08154296875,-1.7685546875,45.61235294117647,397.8707679249478
0.0169892578125,-0.0141337890624999,0.4182666015625,0.4188500314634416,-0.65625,0.65185546875,-1.455078125,45.84764705882353,397.8707679249478
0.2611298828125,-0.0009501953124999,0.5295947265625001,0.5904746336394232,-0.36865234375,1.640625,-1.75341796875,46.13,397.8707679249478
-0.0528349609375,-0.0190166015625,0.6155322265625001,0.6180882511173004,-0.1064453125,0.802734375,-0.943359375,45.61235294117647,397.8707679249478
-0.0137724609375,-0.0463603515625,0.6282275390625001,0.630086346236608,-0.02490234375,0.6201171875,-0.71435546875,45.61235294117647,397.8488358270178
-0.0103544921875,-0.0380595703125,0.6731494140625001,0.6743039967651981,-0.00830078125,0.36767578125,-0.55908203125,45.7535294117647,397.8488358270178
0.0008759765625,-0.0351298828125,0.7698291015625001,0.7706307297362882,0.0947265625,0.62158203125,-0.8349609375,45.565294117647056,397.8488358270178
-0.0650419921875,-0.0468486328125,0.7727587890625001,0.7769050142826089,-0.01025390625,0.45751953125,-0.861328125,45.61235294117647,397.8488358270178
-0.0606474609375,-0.0551494140625,0.7800830078125001,0.7843781431601723,-0.05322265625,0.19775390625,-0.68505859375,45.14176470588235,397.8590167111969
-0.0704130859375,-0.0405009765625,0.8001025390625001,0.8042153970100407,-0.08251953125,0.0947265625,-0.72705078125,45.61235294117647,397.8590167111969
-0.0899443359375,-0.0180400390625,0.8782275390625001,0.8830056834156785,0.00244140625,0.21044921875,-0.7822265625,45.565294117647056,397.8590167111969
-0.0684599609375,-0.0112041015624999,0.9089892578125,0.9116324747187908,0.00146484375,0.12646484375,-1.0615234375,45.61235294117647,397.8590167111969
-0.1084990234375,-0.0072978515624999,0.9983447265625,1.0042497148515763,0.060546875,0.49169921875,-1.2802734375,45.61235294117647,397.8590167111969
-0.1041044921875,-0.0326884765625,1.0129931640625005,1.018852998342229,0.18115234375,0.48193359375,-1.2734375,45.7535294117647,397.9130618031846
-0.0669951171875,-0.0131572265624999,1.1126025390625005,1.114695415019774,0.5458984375,0.580078125,-1.1357421875,45.61235294117647,397.9130618031846
0.0277314453125,-0.0190166015625,1.0828173828125005,1.083339350672272,0.546875,0.296875,-0.943359375,45.61235294117647,397.9130618031846
0.0438447265625,0.0219990234375,1.2019580078125005,1.2029585901535176,0.68115234375,0.3115234375,-0.71142578125,45.7535294117647,397.9130618031846
-0.0157255859375,0.0151630859375,1.2854541015625005,1.2856397086478313,0.75439453125,0.58642578125,-0.48486328125,45.94176470588236,397.8057570922655
-0.0337919921875,-0.0014384765624999,1.2766650390625005,1.2771129902695677,0.92138671875,0.95947265625,-0.50927734375,45.70647058823529,397.8057570922655
-0.0669951171875,0.0249287109375,1.3298876953125005,1.3318074442274177,0.94873046875,1.4638671875,-0.61279296875,45.61235294117647,397.8057570922655
-0.1353544921875,0.0449482421875,1.4089892578125005,1.4161892217010066,1.068359375,1.71630859375,-0.3583984375,45.61235294117647,397.8057570922655
-0.1006865234375,0.0547138671875,1.5232470703125005,1.5275513151708378,1.20654296875,1.66455078125,-0.1455078125,46.17705882352941,397.8057570922655
-0.0127958984375,0.0576435546875,1.6301806640625005,1.6312496779760872,1.38037109375,1.0693359375,-0.02099609375,45.7535294117647,397.6342304374747
0.0702119140625,0.1025654296875,1.6765673828125005,1.6811685130747775,1.4736328125,0.421875,0.091796875,45.7535294117647,397.6342304374747
0.1380830078125,0.1343037109375,1.5549853515625005,1.5668707181487829,1.75830078125,0.146484375,0.580078125,45.7535294117647,397.6342304374747
0.1307587890625,0.2397724609375,1.6614306640625005,1.683728168508289,2.28173828125,0.98046875,1.39892578125,45.84764705882353,397.6342304374747
0.2132783203125,0.1782490234375,1.3709033203125005,1.3987981519560218,2.40234375,1.91845703125,2.2890625,45.61235294117647,398.4950379252853
0.4334931640625,0.2021748046875,1.1443408203125005,1.240285002720275,1.6748046875,1.98095703125,2.62548828125,46.13,398.4950379252853
0.5301728515625,0.2617451171875,1.1824267578125005,1.322016186170348,1.56640625,1.85302734375,2.4091796875,45.94176470588236,398.4950379252853
0.5545869140625,0.2861591796875,1.0686572265625005,1.2375306013400416,1.4326171875,1.1611328125,2.015625,45.61235294117647,398.4950379252853
0.5438447265625,0.3105732421875,1.1467822265625005,1.3066492645436043,0.6904296875,1.73486328125,1.49072265625,45.61235294117647,398.4950379252853
0.4632783203125,0.3691669921875,1.1912158203125005,1.3303782171830385,0.54638671875,1.73046875,0.43017578125,46.27117647058824,398.6336862784619
0.3622041015625,0.3926044921875,1.2625048828125005,1.370856913612762,0.5146484375,1.79931640625,-0.44580078125,45.61235294117647,398.6336862784619
0.1839814453125,0.3432880859375,1.3049853515625005,1.3618673393391192,0.47119140625,1.63623046875,-0.5166015625,46.27117647058824,398.6336862784619
0.0623994140625,0.2754169921875,1.3054736328125005,1.335668226929734,0.5263671875,1.51953125,-0.22216796875,45.70647058823529,398.6336862784619
0.0374970703125,0.1709248046875,1.2561572265625005,1.268287150839538,0.35009765625,2.03515625,-0.08544921875,46.17705882352941,399.0112483055216
0.0746064453125,0.1455341796875,1.3035205078125005,1.3137397129672372,0.763671875,2.52294921875,-0.15283203125,45.7535294117647,399.0112483055216
0.1214814453125,0.0713154296875,1.1858447265625005,1.1941822924423298,0.5341796875,2.6064453125,0.14453125,45.61235294117647,399.0112483055216
0.1400361328125,0.0327412109375,1.0891650390625005,1.0986184905155894,0.314453125,2.74169921875,0.0546875,45.565294117647056,399.0112483055216
0.1087861328125,0.0049091796875,0.9851611328125,0.9911614300112326,0.017578125,2.61962890625,0.10791015625,46.17705882352941,399.0112483055216
0.0716767578125,-0.0058330078124999,0.8733447265625001,0.8763005152373131,-0.1474609375,1.71435546875,0.16015625,45.89470588235295,398.7535298307581
-0.0005888671874999,0.0117451171875,0.8640673828125001,0.8641474044297975,-0.22412109375,1.0166015625,0.12060546875,45.61235294117647,398.7535298307581
-0.1158232421875,-0.0199931640625,0.8274462890625001,0.8357524222659224,-0.2294921875,1.177734375,0.33935546875,45.565294117647056,398.7535298307581
-0.0586943359375,0.0898701171875,0.7244189453125001,0.7323281172822154,-0.7890625,1.30908203125,0.38427734375,45.94176470588236,398.7535298307581
-0.0298857421875,0.0185810546875,0.6702197265625001,0.6711429766099843,-1.17138671875,1.13037109375,0.08837890625,45.61235294117647,398.8404761928514
-0.0176787109375,0.0278583984375,0.6018603515625001,0.6027640582905142,-1.36279296875,1.1474609375,0.09130859375,45.61235294117647,398.8404761928514
-0.0118193359375,0.0493427734375,0.5789111328125001,0.5811303689248738,-1.48388671875,1.19189453125,-0.09619140625,45.7535294117647,398.8404761928514
-0.0079130859375,0.0503193359375,0.5066455078125001,0.5091996888106191,-1.630859375,1.68896484375,-0.34619140625,45.18882352941176,398.8404761928514
-0.0665068359375,0.0151630859375,0.4724658203125,0.4773646716768315,-1.3701171875,1.68701171875,-0.13916015625,45.61235294117647,398.8404761928514
-0.0391630859375,0.0342060546875,0.4734423828125,0.4762892937287275,-1.3720703125,2.388671875,0.498046875,45.7535294117647,398.7417830381803
0.0160126953125,0.0376240234375,0.4036181640625,0.4056841085277802,-0.861328125,1.86767578125,0.544921875,45.7535294117647,398.7417830381803
-0.0621123046875,-0.0116923828124999,0.4441455078125,0.4486199753905865,-0.64453125,1.75244140625,0.7998046875,45.61235294117647,398.7417830381803
-0.0860380859375,-0.0204814453125,0.5085986328125001,0.5162311605595131,-0.39453125,1.84375,1.05078125,46.17705882352941,398.7417830381803
-0.0870146484375,-0.0199931640625,0.5378955078125001,0.5452548514014333,-0.0810546875,1.94580078125,1.353515625,45.518235294117645,398.71122898921874
-0.0801787109375,-0.0033916015624999,0.5676806640625001,0.573324920964717,0.20556640625,1.6103515625,1.61767578125,45.7535294117647,398.71122898921874
-0.0709013671875,0.0102802734375,0.6174853515625001,0.6216275792508492,0.24462890625,1.26953125,1.8447265625,45.09470588235294,398.71122898921874
-0.0391630859375,0.0434833984375,0.6526416015625001,0.6552599585888699,0.19580078125,0.861328125,1.6259765625,45.84764705882353,398.71122898921874
-0.0420927734375,0.0698505859375,0.6814501953125001,0.6863128110584249,0.00537109375,0.48388671875,1.95947265625,45.565294117647056,398.71122898921874
-0.0225615234375,0.0801044921875,0.7161181640625001,0.7209375679687415,-0.21337890625,0.2158203125,1.98486328125,45.565294117647056,398.4417733133648
-0.0582060546875,0.0898701171875,0.7449267578125001,0.7525825252227308,-0.32177734375,0.10595703125,2.07763671875,45.89470588235295,398.4417733133648
-0.0933623046875,0.0879169921875,0.7942431640625001,0.8045297515392889,-0.27978515625,0.14599609375,2.2333984375,45.84764705882353,398.4417733133648
-0.0918974609375,0.0825458984375,0.8748095703125001,0.8834878340905178,-0.2587890625,0.1826171875,2.34716796875,45.61235294117647,398.4417733133648
-0.0757841796875,0.1133076171875,0.9480517578125,0.957801646216474,-0.2919921875,0.10888671875,2.37744140625,45.565294117647056,398.4950379252853
-0.0992216796875,0.1611591796875,1.0208056640625005,1.038201053120078,-0.2783203125,-0.1533203125,2.53369140625,44.85941176470588,398.4950379252853
-0.1319365234375,0.2051044921875,1.0828173828125005,1.109940801778716,-0.177734375,-0.3671875,2.56982421875,45.89470588235295,398.4950379252853
-0.1592802734375,0.2510029296875,1.1033251953125005,1.1426719401601668,-0.0556640625,-0.310546875,2.33349609375,46.03588235294118,398.4950379252853
-0.2061552734375,0.2827412109375,1.1199267578125005,1.1733194501042383,-0.28076171875,0.23876953125,2.18798828125,45.565294117647056,398.4950379252853
-0.2501005859375,0.3462177734375,1.1565478515625005,1.2328909046157068,-0.33837890625,0.7587890625,2.04931640625,45.70647058823529,398.8193255918099
-0.2793974609375,0.3843037109375,1.1931689453125005,1.2842914059810568,-0.26123046875,1.18701171875,1.892578125,45.61235294117647,398.8193255918099
-0.3028349609375,0.3989521484375,1.2493212890625005,1.3459849603965497,-0.04736328125,1.49853515625,1.63232421875,45.89470588235295,398.8193255918099
-0.3077177734375,0.4096943359375,1.2288134765625005,1.3313610468878154,0.2041015625,1.64111328125,1.30224609375,45.70647058823529,398.8193255918099
-0.2754912109375,0.4067646484375,1.5022509765625005,1.5805413259719845,0.5703125,1.43798828125,1.03515625,45.84764705882353,398.1080962756969
-0.1666044921875,0.3799091796875,1.6189501953125005,1.6712533549795097,0.90234375,1.173828125,0.83935546875,46.13,398.1080962756969
-0.1236357421875,0.4663349609375,1.6638720703125005,1.732404213486229,1.1962890625,1.2294921875,0.80078125,45.61235294117647,398.1080962756969
-0.1016630859375,0.3110615234375,1.6843798828125005,1.7158759407454391,1.4091796875,1.408203125,0.69580078125,46.17705882352941,398.1080962756969
