AccX,AccY,AccZ,Magnitude,GyroX,GyroY,GyroZ,Temperature,Altitude
-0.0430693359375,-0.1176494140625,1.0237353515625005,1.0313730762270958,0.69482421875,-0.7705078125,0.2705078125,42.08294117647059,461.32204558584215
-0.1026396484375,-0.1215556640625,1.0413134765625005,1.0533966173135976,0.701171875,-0.73779296875,0.29833984375,42.224117647058826,461.32204558584215
-0.1675810546875,-0.1191142578125,1.0598681640625005,1.0796259266512696,0.7353515625,-0.62255859375,0.34130859375,41.80058823529412,461.32204558584215
-0.1993193359375,-0.1156962890625,1.0740283203125005,1.0984765185540792,0.7646484375,-0.0556640625,0.3671875,41.89470588235295,461.32204558584215
-0.1500029296875,-0.1156962890625,1.1277392578125005,1.14353939321265,0.8125,0.25048828125,0.33740234375,42.08294117647059,461.84398603976535
-0.1099638671875,-0.1484111328125,1.1292041015625005,1.1442114399948522,0.81640625,0.388671875,0.0966796875,41.98882352941177,461.84398603976535
-0.1294951171875,-0.1821025390625,1.0960009765625005,1.1185474780868123,0.732421875,0.3623046875,0.0771484375,42.224117647058826,461.84398603976535
-0.1343779296875,-0.1640361328125,1.1252978515625005,1.1451028493486328,0.72412109375,0.392578125,0.30810546875,41.98882352941177,461.84398603976535
-0.1070341796875,-0.1488994140625,1.1287158203125005,1.1435150869810389,0.70361328125,0.51171875,0.4130859375,42.224117647058826,462.2920567067632
-0.0943388671875,-0.1606181640625,1.1477587890625005,1.162776098120032,0.64892578125,0.625,0.423828125,41.94176470588236,462.2920567067632
-0.1187529296875,-0.1655009765625,1.1990283203125005,1.216207936359536,0.58740234375,0.88818359375,0.4228515625,41.98882352941177,462.2920567067632
-0.1109404296875,-0.1615947265625,1.2527392578125005,1.2679811838732744,0.50830078125,1.08203125,0.4169921875,41.80058823529412,462.2920567067632
-0.0718779296875,-0.1611064453125,1.3186572265625005,1.330405428680632,0.39599609375,1.1650390625,0.17529296875,42.224117647058826,462.2920567067632
-0.0669951171875,-0.1479228515625,1.4211962890625005,1.4304434304740508,0.21240234375,1.13720703125,-0.03857421875,42.13,461.7057758701752
-0.0406279296875,-0.1342509765625,1.5598681640625005,1.5661617549392506,0.00439453125,0.7783203125,-0.1796875,42.08294117647059,461.7057758701752
0.0301728515625,-0.0961650390625,1.6624072265625005,1.665459667069884,-0.23291015625,0.14697265625,-0.4453125,42.31823529411765,461.7057758701752
0.1356416015625,-0.0492900390625,1.6726611328125005,1.6788756407926166,-0.44482421875,-0.177734375,-0.6787109375,42.27117647058824,461.7057758701752
0.2606416015625,0.0044208984375,1.5925830078125005,1.6137763864864207,-0.5283203125,-0.32763671875,-0.54296875,42.224117647058826,461.8757199871096
0.3871064453125,0.0713154296875,1.4744189453125005,1.5260565247756774,-0.49853515625,-0.20361328125,0.14306640625,42.27117647058824,461.8757199871096
0.4217744140625,0.1211201171875,1.3650439453125005,1.4338440332824192,-0.0615234375,0.1513671875,1.40478515625,42.224117647058826,461.8757199871096
0.4417939453125,0.1333271484375,1.2888720703125005,1.3689957020593198,0.1611328125,0.3203125,2.59130859375,41.98882352941177,461.8757199871096
0.4315400390625,0.1352802734375,1.1990283203125005,1.2814821382316666,0.21142578125,0.400390625,3.0009765625,42.08294117647059,461.8757199871096
0.4002900390625,0.1377216796875,1.0930712890625005,1.1721792607794084,0.26904296875,0.3056640625,3.42822265625,42.224117647058826,463.1132473013976
0.3592744140625,0.1660419921875,0.9968798828125,1.0725751948119118,0.27880859375,0.0498046875,3.556640625,42.08294117647059,463.1132473013976
0.3446259765625,0.2060810546875,0.9778369140625,1.0570721334544972,0.0146484375,-0.078125,2.6298828125,42.08294117647059,463.1132473013976
0.2206025390625,0.1938740234375,1.0173876953125005,1.0589288643615051,-0.03076171875,-0.04541015625,1.41259765625,42.08294117647059,463.1132473013976
0.0301728515625,0.1523701171875,1.0525439453125005,1.0639435184243329,0.16650390625,0.177734375,0.8349609375,42.27117647058824,462.97303268113313
-0.0850615234375,0.1152607421875,1.0632861328125005,1.072892306660125,0.19091796875,0.59912109375,0.6435546875,42.13,462.97303268113313
-0.1031279296875,0.0722919921875,1.0310595703125005,1.0387229368551871,0.24658203125,0.93798828125,0.57373046875,42.224117647058826,462.97303268113313
-0.1021513671875,0.0512958984375,1.0007861328125005,1.0072929338800036,0.10595703125,1.1923828125,0.55029296875,42.224117647058826,462.97303268113313
-0.0084013671875,0.0395771484375,1.0300830078125005,1.030877265552554,-0.001953125,1.71337890625,0.20849609375,42.08294117647059,462.97303268113313
0.0150361328125,0.0034443359375,1.0461962890625005,1.04631000376951,0.06005859375,1.98681640625,-0.06396484375,42.224117647058826,463.4036039935767
0.1185517578125,-0.0590556640625,0.9871142578125,0.9959601642209488,0.0390625,1.9765625,-0.345703125,41.98882352941177,463.4036039935767
0.1502900390625,-0.0741923828125,0.9334033203125,0.948331884879552,0.0048828125,1.76953125,-0.671875,41.98882352941177,463.4036039935767
0.1434541015625,-0.1132548828125,0.8557666015625001,0.8750669826280774,-0.10302734375,1.337890625,-0.740234375,42.13,463.4036039935767
0.1219697265625,-0.1083720703125,0.8416064453125001,0.8572762265530817,-0.146484375,1.10107421875,-0.6865234375,42.224117647058826,463.2843532778391
0.1131806640625,-0.0859111328125,0.8225634765625001,0.8347462239707,-0.28759765625,1.005859375,-0.484375,42.224117647058826,463.2843532778391
0.0853486328125,-0.0478251953125,0.8074267578125001,0.8133324090808427,-0.462890625,0.82470703125,-0.56396484375,41.98882352941177,463.2843532778391
0.0350556640625,-0.0365947265625,0.7825244140625001,0.7841635876517768,-0.5087890625,0.7158203125,-0.41552734375,41.98882352941177,463.2843532778391
0.0077119140625,-0.0297587890625,0.7478564453125001,0.7484880239124887,-0.5234375,0.62060546875,-0.224609375,42.224117647058826,463.2843532778391
0.0052705078125,-0.0312236328125,0.7029345703125001,0.7036474285031038,-0.5517578125,0.54931640625,-0.0341796875,42.224117647058826,462.7223694730224
-0.0108427734375,-0.0400126953125,0.6614306640625001,0.6627285303079593,-0.5244140625,0.50830078125,0.18896484375,41.98882352941177,462.7223694730224
-0.0245146484375,-0.0419658203125,0.6414111328125001,0.6432498265513407,-0.48974609375,0.5,0.41796875,42.224117647058826,462.7223694730224
-0.0416044921875,-0.0458720703125,0.6145556640625001,0.6176680701122854,-0.44775390625,0.5224609375,0.65380859375,42.13,462.7223694730224
-0.0484404296875,-0.0409892578125,0.6072314453125001,0.6105379780657686,-0.39501953125,0.5322265625,0.78955078125,42.27117647058824,462.5634432879439
-0.0674833984375,-0.0444072265625,0.6111376953125001,0.616453804812268,-0.36474609375,0.56591796875,0.9970703125,42.13,462.5634432879439
-0.0665068359375,-0.0483134765625,0.6096728515625001,0.6151896757718899,-0.36962890625,0.60693359375,1.23046875,42.31823529411765,462.5634432879439
-0.0762724609375,-0.0385478515625,0.6648486328125001,0.6703186777273907,-0.35400390625,0.77587890625,1.4384765625,42.224117647058826,462.5634432879439
-0.0586943359375,-0.0170634765625,0.6570361328125001,0.659873220493716,-0.34765625,0.68359375,1.462890625,42.27117647058824,462.5634432879439
-0.0401396484375,-0.0107158203124999,0.6716845703125001,0.6729681880873298,-0.3193359375,0.57470703125,1.5390625,41.98882352941177,462.7665493658409
-0.0499052734375,-0.0209697265625,0.6980517578125001,0.7001475004126623,-0.33349609375,0.44677734375,1.75830078125,42.31823529411765,462.7665493658409
-0.0245146484375,-0.0063212890624999,0.7117236328125001,0.7121737542111815,-0.39599609375,0.29931640625,1.7314453125,42.224117647058826,462.7665493658409
-0.0303740234375,-0.0033916015624999,0.7429736328125001,0.7436019790960378,-0.431640625,0.17822265625,1.619140625,42.13,462.7665493658409
-0.0542998046875,-0.0229228515625,0.7654345703125001,0.7677004672021104,-0.447265625,0.1201171875,1.7197265625,41.98882352941177,462.3580906463179
-0.0772490234375,-0.0302470703125,0.8206103515625001,0.824793092827569,-0.46044921875,0.154296875,1.873046875,42.08294117647059,462.3580906463179
-0.0674833984375,-0.0107158203124999,0.8733447265625001,0.8760136124993562,-0.5390625,0.31103515625,1.8916015625,42.13,462.3580906463179
-0.0660185546875,0.0005146484375,0.9500048828125,0.9522961681082376,-0.57958984375,0.32421875,1.78955078125,42.08294117647059,462.3580906463179
-0.0323271484375,0.0185810546875,0.9919970703125,0.9926975811534866,-0.51416015625,0.1962890625,2.0712890625,42.224117647058826,462.3580906463179
0.1092744140625,0.0556904296875,1.0584033203125005,1.0654857624464094,-0.4541015625,-0.01220703125,2.1123046875,42.13,462.36800955488286
-0.0875029296875,0.0771748046875,1.0930712890625005,1.099280472015766,-0.29443359375,-0.13232421875,2.1474609375,42.224117647058826,462.36800955488286
-0.1460966796875,0.0981708984375,1.1282275390625005,1.1418752755948276,-0.26025390625,-0.0791015625,2.16259765625,42.08294117647059,462.36800955488286
-0.1885771484375,0.1186787109375,1.1663134765625005,1.1874060396317307,-0.18017578125,0.20849609375,2.10888671875,42.08294117647059,462.36800955488286
-0.2188505859375,0.1377216796875,1.2102587890625005,1.2375739074997352,-0.1884765625,0.5654296875,2.02685546875,41.98882352941177,462.3127845404381
-0.2442412109375,0.1440693359375,1.2683642578125005,1.2996759723769395,-0.14111328125,0.759765625,2.025390625,41.98882352941177,462.3127845404381
-0.2813505859375,0.1137958984375,1.3079150390625005,1.3426650394325583,-0.06591796875,0.984375,1.9716796875,41.98882352941177,462.3127845404381
-0.3184599609375,0.0786396484375,1.3894580078125005,1.42765349314915,-0.0546875,1.33203125,1.8662109375,42.224117647058826,462.3127845404381
-0.3287138671875,0.0473896484375,1.4890673828125005,1.5256540419821465,-0.03271484375,1.578125,1.95947265625,42.224117647058826,462.3127845404381
-0.2920927734375,0.0224873046875,1.6350634765625005,1.661100972113125,0.080078125,1.62890625,2.0751953125,42.224117647058826,461.8292817553048
-0.2320341796875,-0.0297587890625,1.6799853515625005,1.696194631383526,0.3486328125,1.28369140625,2.12841796875,41.89470588235295,461.8292817553048
-0.1880888671875,-0.0727275390625,1.6038134765625005,1.6164418902334403,0.50634765625,1.21875,1.89599609375,41.98882352941177,461.8292817553048
-0.1592802734375,-0.0951884765625,1.5159228515625005,1.5272370947125389,0.2841796875,1.60986328125,1.4638671875,41.94176470588236,461.8292817553048
-0.0298857421875,-0.1044658203125,1.5017626953125005,1.5056883669046284,-0.11328125,1.75,1.04248046875,42.13,461.5058312111739
0.1463837890625,-0.0888408203125,1.4763720703125005,1.4862689511164895,-0.32763671875,1.8623046875,0.77197265625,41.98882352941177,461.5058312111739
0.2635712890625,-0.0668681640625,1.4094775390625005,1.4354679059125075,-0.390625,1.8447265625,0.3984375,41.98882352941177,461.5058312111739
0.3407197265625,-0.0595439453125,1.3650439453125005,1.4081833638154226,-0.45263671875,1.66015625,-0.20947265625,41.98882352941177,461.5058312111739
0.3885712890625,-0.1039775390625,1.2307666015625005,1.294830260240659,-0.552734375,1.23291015625,-0.50634765625,42.08294117647059,461.5058312111739
0.3665986328125,-0.1591533203125,1.0642626953125005,1.136828668524996,-0.68310546875,0.89453125,-0.80419921875,42.27117647058824,462.7764702948159
0.2723603515625,-0.2255595703125,1.0134814453125005,1.073406689403193,-0.6982421875,0.564453125,-0.62939453125,42.13,462.7764702948159
0.2489228515625,-0.2778056640625,0.9968798828125,1.0643815452042922,-0.72607421875,0.2255859375,-0.23828125,42.08294117647059,462.7764702948159
0.2528291015625,-0.3246806640625,0.9500048828125,1.035301581946323,-0.65185546875,-0.19287109375,0.26953125,42.08294117647059,462.7764702948159
0.2308564453125,-0.2953837890625,0.9641650390625,1.034485622777637,-0.75732421875,-0.423828125,0.34326171875,42.224117647058826,463.47643297628514
0.1747041015625,-0.2782939453125,0.9788134765625,1.0324944866684398,-0.4052734375,-0.380859375,0.72216796875,42.31823529411765,463.47643297628514
0.1322236328125,-0.2328837890625,0.9646533203125,1.001136342698722,-0.14306640625,-0.2509765625,1.06396484375,42.224117647058826,463.47643297628514
0.0331025390625,-0.1620830078125,0.9729541015625,0.9869176071289958,-0.0576171875,-0.12939453125,1.61181640625,42.27117647058824,463.47643297628514
0.0116181640625,-0.0209697265625,0.9832080078125,0.9835002276537176,-0.23974609375,0.34521484375,1.26318359375,41.89470588235295,463.47643297628514
-0.0206083984375,0.0156513671875,0.9749072265625,0.9752506199868742,-0.0849609375,0.56982421875,0.58544921875,41.98882352941177,463.2280067010383
-0.1006865234375,-0.0087626953124999,0.9304736328125,0.9359464419454572,0.00537109375,0.615234375,0.8720703125,42.31823529411765,463.2280067010383
-0.1080107421875,0.0244404296875,0.9060595703125,0.9128020595868944,0.06005859375,0.6396484375,1.2919921875,41.98882352941177,463.2280067010383
-0.0918974609375,0.0566669921875,0.8528369140625001,0.8596435850502147,0.17138671875,0.57275390625,1.755859375,42.224117647058826,463.2280067010383
-0.0547880859375,0.0820576171875,0.8210986328125001,0.8270055330563043,0.2041015625,0.63037109375,1.8388671875,42.41235294117647,462.6682688296313
0.0086884765625,0.0586201171875,0.7805712890625001,0.7828175681937308,0.30322265625,0.44091796875,1.95263671875,42.08294117647059,462.6682688296313
-0.0069365234375,0.0195576171875,0.7585986328125001,0.7588824029139469,0.39892578125,0.20556640625,2.1748046875,41.94176470588236,462.6682688296313
-0.0044951171875,-0.0165751953125,0.7219775390625001,0.7221817708090676,0.47509765625,0.13427734375,2.22900390625,41.94176470588236,462.6682688296313
-0.0196318359375,-0.0429423828125,0.7200244140625001,0.7215709348843943,0.546875,0.12109375,2.099609375,42.08294117647059,462.6682688296313
-0.0113310546875,-0.0688212890625,0.6912158203125001,0.6947258976595285,0.56103515625,0.1220703125,1.7822265625,41.98882352941177,462.6991559601466
-0.0079130859375,-0.0912822265625,0.6707080078125001,0.6769374369608129,0.55126953125,0.1796875,1.427734375,42.41235294117647,462.6991559601466
-0.0088896484375,-0.1152080078125,0.6560595703125001,0.6661576920760501,0.537109375,0.23876953125,1.06298828125,42.08294117647059,462.6991559601466
-0.0059599609375,-0.1230205078125,0.6482470703125001,0.6598437926097065,0.49072265625,0.265625,0.69775390625,42.224117647058826,462.6991559601466
0.0008759765625,-0.1288798828125,0.6384814453125001,0.6513596146039765,0.48388671875,0.2314453125,0.4375,42.08294117647059,462.74333549645024
0.0291962890625,-0.1054423828125,0.6204150390625001,0.6299883650378969,0.43359375,0.04541015625,-0.005859375,42.08294117647059,462.74333549645024
0.0047822265625,-0.0951884765625,0.6340869140625001,0.6412097397470574,0.33251953125,0.02880859375,-0.15185546875,41.98882352941177,462.74333549645024
-0.0010771484374999,-0.0766337890625,0.6384814453125001,0.643064890880517,0.267578125,-0.1103515625,-0.3984375,41.94176470588236,462.74333549645024
-0.0318388671875,-0.0737041015625,0.6614306640625001,0.6662856229974338,0.2099609375,-0.2412109375,-0.470703125,41.98882352941177,462.74333549645024
-0.0435576171875,-0.0673564453125,0.6907275390625001,0.6953694629184733,0.1728515625,-0.3798828125,-0.4755859375,42.224117647058826,462.46291295088463
-0.0626005859375,-0.0717509765625,0.6995166015625001,0.705967783867607,0.1455078125,-0.39599609375,-0.369140625,42.08294117647059,462.46291295088463
-0.0601591796875,-0.0629619140625,0.7356494140625001,0.7407856572137357,0.06591796875,-0.4306640625,-0.36474609375,42.27117647058824,462.46291295088463
-0.0796904296875,-0.0849345703125,0.7864306640625001,0.7950079466242662,0.08642578125,-0.44580078125,-0.29833984375,41.98882352941177,462.46291295088463
-0.0870146484375,-0.0795634765625,0.8372119140625001,0.8454736452980709,0.0537109375,-0.51025390625,-0.26953125,41.80058823529412,462.0445444106672
-0.1050810546875,-0.0956767578125,0.8801806640625001,0.8915795373544936,0.037109375,-0.603515625,-0.38916015625,42.08294117647059,462.0445444106672
-0.1221708984375,-0.1073955078125,0.9089892578125,0.923428933021838,0.072265625,-0.6845703125,-0.4375,42.224117647058826,462.0445444106672
-0.1285185546875,-0.1078837890625,0.9143603515625,0.9296293795652892,0.11328125,-0.70068359375,-0.3955078125,42.224117647058826,462.0445444106672
-0.1402373046875,-0.0956767578125,0.9299853515625,0.945353530554762,0.17578125,-0.62890625,-0.169921875,42.31823529411765,462.0445444106672
-0.1387724609375,-0.0839580078125,0.9763720703125,0.9897520713172624,0.26806640625,-0.5390625,0.1240234375,42.224117647058826,461.642644849916
-0.1543974609375,-0.0829814453125,1.0305712890625005,1.0453715502394552,0.3583984375,-0.43896484375,-0.0810546875,41.94176470588236,461.642644849916
-0.1548857421875,-0.0907939453125,1.0891650390625005,1.1038630422087694,0.35009765625,-0.51220703125,-0.20703125,42.31823529411765,461.642644849916
-0.1358427734375,-0.0771220703125,1.1404345703125005,1.1510830039525104,0.3828125,-0.6220703125,-0.38232421875,41.98882352941177,461.642644849916
-0.1251005859375,-0.0834697265625,1.1707080078125005,1.1803281710654192,0.35400390625,-0.73681640625,-0.421875,41.89470588235295,462.0975156514739
-0.1265654296875,-0.0844462890625,1.2078173828125005,1.2173630575766814,0.34423828125,-0.77001953125,-0.28564453125,41.94176470588236,462.0975156514739
-0.1514677734375,-0.0922587890625,1.2561572265625005,1.2686154454343466,0.36181640625,-0.63916015625,-0.162109375,42.506470588235295,462.0975156514739
-0.1729521484375,-0.1254619140625,1.3001025390625005,1.317543073150223,0.38330078125,-0.33203125,-0.27294921875,42.13,462.0975156514739
-0.1949248046875,-0.1669658203125,1.3518603515625005,1.3760086027208454,0.349609375,0.01953125,-0.62109375,41.94176470588236,462.0975156514739
-0.2178740234375,-0.1786845703125,1.3816455078125005,1.4100856622968223,0.259765625,0.17041015625,-0.962890625,42.13,462.2575598739538
-0.2198271484375,-0.1738017578125,1.4377978515625005,1.4648527871996624,0.14013671875,0.283203125,-1.05810546875,41.98882352941177,462.2575598739538
-0.1719755859375,-0.1440166015625,1.5286181640625005,1.5449886327044504,0.05908203125,0.36328125,-1.1630859375,41.33,462.2575598739538
-0.1119169921875,-0.1103251953125,1.5808642578125005,1.5886563075410949,0.00830078125,0.27880859375,-1.39892578125,42.08294117647059,462.2575598739538
-0.0875029296875,-0.0961650390625,1.5491259765625005,1.5545725356838476,-0.05078125,0.177734375,-1.63232421875,42.224117647058826,461.74204953110535
-0.0660185546875,-0.0776103515625,1.5115283203125005,1.5149586394814247,-0.06884765625,0.20703125,-1.2919921875,42.224117647058826,461.74204953110535
0.0287080078125,-0.0077861328124999,1.5042041015625005,1.5044981730577758,-0.00830078125,0.44091796875,-0.5732421875,41.94176470588236,461.74204953110535
0.1869111328125,0.0605732421875,1.4617236328125005,1.4748697800012485,0.119140625,0.84228515625,-0.01318359375,41.94176470588236,461.74204953110535
0.2948212890625,0.0644794921875,1.4202197265625005,1.4519301874107085,0.1591796875,0.99609375,0.3544921875,42.27117647058824,461.74204953110535
0.3075166015625,0.0840107421875,1.3816455078125005,1.417945194391485,0.2314453125,0.77490234375,0.650390625,42.08294117647059,461.621682791514
0.3270478515625,0.0747333984375,1.2595751953125005,1.3034857309154513,0.125,0.4423828125,0.54052734375,42.31823529411765,461.621682791514
0.3114228515625,0.0215107421875,1.0994189453125005,1.1428774745425805,0.13330078125,0.17822265625,0.47705078125,41.89470588235295,461.621682791514
0.2723603515625,0.0327412109375,1.0540087890625005,1.089121974536324,-0.20068359375,-0.07177734375,0.6171875,42.27117647058824,461.621682791514
0.2562470703125,0.1001240234375,1.0920947265625005,1.1262141327912178,-0.28125,-0.337890625,0.8193359375,42.13,463.0756222482352
0.2464814453125,0.1548115234375,1.0750048828125005,1.1137123545795369,-0.21826171875,-0.494140625,0.8701171875,42.27117647058824,463.0756222482352
0.1908173828125,0.1782490234375,1.0676806640625005,1.0991478464486824,-0.15380859375,-0.56201171875,0.57421875,41.89470588235295,463.0756222482352
0.1283173828125,0.1372333984375,1.0618212890625005,1.0783147992515474,-0.13037109375,-0.5458984375,0.1318359375,41.98882352941177,463.0756222482352
0.0667939453125,0.0703388671875,1.0725634765625005,1.076940759105842,-0.013671875,-0.4375,0.07470703125,42.224117647058826,463.0756222482352
0.0345673828125,0.0019794921875,1.0593798828125005,1.0599455450407127,0.06494140625,-0.23779296875,0.271484375,41.94176470588236,463.7215057770107
0.0423798828125,-0.0331767578125,1.0447314453125005,1.0461168885697698,-0.10009765625,-0.00390625,0.083984375,42.08294117647059,463.7215057770107
0.0433564453125,-0.0463603515625,1.0510791015625005,1.0529939891986884,-0.2314453125,0.310546875,-0.24755859375,42.08294117647059,463.7215057770107
0.0360322265625,-0.0883525390625,1.0501025390625005,1.0544286770831643,-0.25634765625,0.58349609375,-0.37158203125,42.224117647058826,463.7215057770107
-0.0005888671874999,-0.1220439453125,1.0198291015625005,1.0271058697845037,-0.208984375,0.51171875,0.068359375,41.89470588235295,463.442178064074
0.0335908203125,-0.1322978515625,0.9407275390625,0.9505784383668228,-0.24853515625,0.38623046875,-0.0654296875,42.224117647058826,463.442178064074
0.0531220703125,-0.1269267578125,0.8796923828125001,0.8903881426554452,-0.2373046875,0.23974609375,-0.34375,41.98882352941177,463.442178064074
0.0599580078125,-0.1327861328125,0.8298876953125001,0.8425797924227922,-0.26953125,0.109375,-0.4560546875,41.98882352941177,463.442178064074
0.0667939453125,-0.1200908203125,0.7703173828125001,0.7824781827737041,-0.3486328125,-0.0048828125,-0.4765625,41.98882352941177,463.442178064074
0.0643525390625,-0.0990947265625,0.7253955078125001,0.7349555475474977,-0.45751953125,-0.0498046875,-0.50439453125,42.224117647058826,463.09659037548704
0.0399384765625,-0.0859111328125,0.6751025390625001,0.6817178616553147,-0.53662109375,-0.0458984375,-0.43603515625,42.224117647058826,463.09659037548704
0.0257783203125,-0.0771220703125,0.6355517578125001,0.6407326840313196,-0.60595703125,-0.02294921875,-0.291015625,41.94176470588236,463.09659037548704
0.0125947265625,-0.0673564453125,0.6013720703125001,0.6052634837938453,-0.666015625,0.0625,-0.1875,42.224117647058826,463.09659037548704
0.0125947265625,-0.0453837890625,0.5852587890625001,0.5871508882917215,-0.71337890625,0.12451171875,-0.13330078125,42.224117647058826,463.0127193897463
0.0028291015625,-0.0248759765625,0.5603564453125001,0.5609154694148218,-0.72412109375,0.12451171875,-0.08203125,41.98882352941177,463.0127193897463
-0.0127958984375,-0.0199931640625,0.5393603515625001,0.5398824413367012,-0.63671875,0.1357421875,0.04736328125,41.98882352941177,463.0127193897463
-0.0259794921875,-0.0165751953125,0.5403369140625001,0.5412149774466275,-0.5830078125,0.07177734375,0.20947265625,41.94176470588236,463.0127193897463
-0.0142607421875,-0.0092509765624999,0.5618212890625001,0.5620783843726314,-0.5693359375,0.0595703125,0.3037109375,42.31823529411765,463.0127193897463
-0.0167021484375,-0.0004619140624999,0.5925830078125001,0.5928185188361941,-0.625,0.05419921875,0.32275390625,42.224117647058826,462.9586175639114
-0.0127958984375,-0.0009501953124999,0.6267626953125001,0.6268940214448886,-0.29541015625,0.13818359375,0.3505859375,42.224117647058826,462.9586175639114
-0.0347685546875,-0.0063212890624999,0.6394580078125001,0.640433724007411,-0.24365234375,0.15576171875,0.35400390625,42.224117647058826,462.9586175639114
-0.0518583984375,-0.0209697265625,0.6702197265625001,0.6725500017055392,-0.177734375,0.1162109375,0.58203125,42.224117647058826,462.9586175639114
-0.0611357421875,-0.0204814453125,0.7112353515625001,0.7141518003107872,-0.12939453125,0.07470703125,0.83740234375,42.224117647058826,462.6042478712629
-0.0611357421875,-0.0292705078125,0.7551806640625001,0.7582164446741423,-0.16650390625,-0.06005859375,1.076171875,42.08294117647059,462.6042478712629
-0.0855498046875,-0.0209697265625,0.8044970703125001,0.8093046612095912,-0.17626953125,-0.1533203125,1.26220703125,42.08294117647059,462.6042478712629
-0.1016630859375,-0.0087626953124999,0.8386767578125001,0.8448614513435692,-0.201171875,-0.28076171875,1.16259765625,42.08294117647059,462.6042478712629
-0.1343779296875,-0.0326884765625,0.8782275390625001,0.8890498157329829,-0.17578125,-0.265625,1.17138671875,41.98882352941177,462.6042478712629
-0.1192412109375,-0.0419658203125,0.9036181640625,0.91241732934224,-0.12646484375,-0.2421875,1.3408203125,42.08294117647059,462.0643807255598
-0.1133818359375,-0.0278056640625,0.9436572265625,0.9508509646196632,-0.2880859375,-0.13818359375,1.28955078125,42.08294117647059,462.0643807255598
-0.1465849609375,-0.0302470703125,1.0017626953125005,1.0128822901775425,-0.2421875,-0.05419921875,1.02001953125,41.94176470588236,462.0643807255598
-0.1690458984375,-0.0419658203125,1.0422900390625005,1.056743190837751,-0.25341796875,0.08447265625,1.0537109375,42.08294117647059,462.0643807255598
-0.1324248046875,-0.0204814453125,1.0896533203125005,1.097861638352788,-0.34521484375,0.31103515625,0.8427734375,42.13,461.8822511549304
-0.1172880859375,0.0053974609375,1.1165087890625005,1.1226653569703062,-0.369140625,0.47216796875,0.76806640625,42.27117647058824,461.8822511549304
-0.1006865234375,0.0376240234375,1.1404345703125005,1.1454886958435744,-0.40869140625,0.5478515625,0.88720703125,42.224117647058826,461.8822511549304
-0.0801787109375,0.0708271484375,1.1516650390625005,1.156623306371706,-0.33642578125,0.587890625,0.93115234375,42.27117647058824,461.8822511549304
-0.0943388671875,0.0840107421875,1.1628955078125005,1.169736546729907,-0.228515625,0.69287109375,0.89306640625,42.31823529411765,461.8822511549304
-0.1338896484375,0.0884052734375,1.1926806640625005,1.2034239056786444,-0.1962890625,0.83154296875,0.861328125,42.08294117647059,462.2255506277429
-0.1861357421875,0.0874287109375,1.2473681640625005,1.2642063244314738,-0.15576171875,0.9541015625,0.9013671875,41.98882352941177,462.2255506277429
-0.2320341796875,0.0874287109375,1.2859423828125005,1.3096302729980454,-0.12255859375,1.08251953125,0.89306640625,42.224117647058826,462.2255506277429
-0.2632841796875,0.0801044921875,1.3210986328125005,1.3494579973312968,-0.06103515625,1.388671875,0.72021484375,42.27117647058824,462.2255506277429
-0.2999052734375,0.0552021484375,1.4168017578125005,1.449247277440371,0.0068359375,1.88134765625,0.58154296875,42.224117647058826,461.64377269015097
-0.2920927734375,0.0366474609375,1.5847705078125005,1.6118805126683138,0.1201171875,2.1669921875,0.60546875,41.98882352941177,461.64377269015097
-0.1871123046875,-0.0068095703124999,1.7258837890625005,1.736010437227277,0.400390625,1.79248046875,0.58056640625,42.224117647058826,461.64377269015097
-0.0806669921875,-0.0859111328125,1.6877978515625005,1.6919070524436906,0.69287109375,1.45556640625,0.34326171875,42.224117647058826,461.64377269015097
-0.0699248046875,-0.1176494140625,1.4324267578125005,1.43895006148131,0.45458984375,1.74609375,0.21240234375,41.98882352941177,461.64377269015097
0.0804658203125,-0.1176494140625,1.4519580078125005,1.4589373493466598,0.029296875,2.2626953125,0.2890625,41.98882352941177,461.5687144408464
0.2972626953125,-0.1044658203125,1.3948291015625005,1.429974279560184,-0.08056640625,2.01708984375,-0.72119140625,41.98882352941177,461.5687144408464
0.4056611328125,-0.0893291015625,1.2073291015625005,1.2767866707247528,-0.17138671875,1.74072265625,-1.57568359375,42.08294117647059,461.5687144408464
0.3729462890625,-0.1127666015625,1.1477587890625005,1.2120872405993153,-0.2685546875,1.69384765625,-2.16455078125,42.224117647058826,461.5687144408464
0.3446259765625,-0.1845439453125,1.1506884765625005,1.2152808323868551,-0.26953125,1.48291015625,-2.24658203125,42.224117647058826,462.4396987473858
0.3875947265625,-0.2265361328125,1.0505908203125005,1.1424926097150887,-0.38232421875,1.1259765625,-2.333984375,42.08294117647059,462.4396987473858
0.3084931640625,-0.2343486328125,1.0203173828125005,1.0913912569027346,-0.40966796875,0.822265625,-2.39013671875,41.94176470588236,462.4396987473858
0.2645478515625,-0.2822001953125,1.0471728515625005,1.1163303709253305,-0.29541015625,0.49267578125,-2.00537109375,41.98882352941177,462.4396987473858
0.2582001953125,-0.2988017578125,1.0769580078125005,1.1470781934649104,-0.1015625,0.0771484375,-1.62548828125,42.08294117647059,462.4396987473858
0.2269501953125,-0.2553447265625,1.0916064453125005,1.1438146493131884,0.05615234375,-0.26806640625,-1.3037109375,41.98882352941177,463.3659848952237
0.1346650390625,-0.1723369140625,1.1394580078125005,1.1602582627425335,0.0009765625,-0.43115234375,-0.9775390625,41.98882352941177,463.3659848952237
0.0145478515625,-0.0888408203125,1.1726611328125005,1.1761115864355638,0.30517578125,-0.3876953125,-0.5068359375,41.98882352941177,463.3659848952237
-0.0459990234375,-0.0268291015625,1.1599658203125005,1.1611875021464475,0.408203125,-0.31201171875,-0.00146484375,42.08294117647059,463.3659848952237
-0.0528349609375,0.0117451171875,1.1370166015625005,1.138304103965084,0.4599609375,-0.060546875,0.3916015625,41.98882352941177,463.04473162099634
-0.0186552734375,0.0625263671875,1.0730517578125005,1.0750337858714911,0.51806640625,0.08447265625,0.41845703125,41.98882352941177,463.04473162099634
0.0125947265625,0.1050068359375,0.9866259765625,0.9922781265142834,0.5400390625,0.1533203125,-0.052734375,42.31823529411765,463.04473162099634
-0.0171904296875,0.1006123046875,0.9133837890625,0.919069253565552,0.60693359375,0.12109375,-0.197265625,42.224117647058826,463.04473162099634
-0.0547880859375,0.0869404296875,0.8552783203125001,0.8614298450085842,0.59033203125,0.11669921875,-0.111328125,42.08294117647059,463.04473162099634
-0.0523466796875,0.0615498046875,0.8015673828125001,0.8056294573315056,0.6044921875,0.1162109375,0.04443359375,41.98882352941177,462.138317068498
-0.0445341796875,0.0600849609375,0.7791064453125001,0.7826879000079017,0.6845703125,0.17041015625,0.20068359375,42.224117647058826,462.138317068498
-0.0152373046875,0.0400654296875,0.7629931640625001,0.7641962984183376,0.80517578125,0.33203125,0.13232421875,42.224117647058826,462.138317068498
0.0008759765625,0.0239521484375,0.7293017578125001,0.7296955027257004,0.88427734375,0.3125,0.05419921875,42.27117647058824,462.138317068498
0.0140595703125,0.0112568359375,0.6902392578125001,0.6904742000236119,0.91796875,0.296875,-0.1923828125,42.08294117647059,462.3314991657853
0.0150361328125,0.0014912109375,0.6521533203125001,0.6523283392545763,0.89306640625,0.31884765625,-0.564453125,41.98882352941177,462.3314991657853
0.0160126953125,-0.0219462890625,0.5969775390625001,0.5975953716018093,0.85205078125,0.24853515625,-0.95654296875,42.08294117647059,462.3314991657853
0.0160126953125,-0.0492900390625,0.5720751953125001,0.574417917072395,0.84814453125,0.1064453125,-1.12890625,42.08294117647059,462.3314991657853
0.0272431640625,-0.0741923828125,0.5481494140625001,0.5538180926916301,0.82470703125,-0.125,-1.6083984375,41.98882352941177,462.3314991657853
0.0189423828125,-0.0888408203125,0.5652392578125001,0.5724918547829646,0.76708984375,-0.27685546875,-2.01953125,41.98882352941177,462.3547136098647
-0.0079130859375,-0.1015361328125,0.5754931640625001,0.584435270220954,0.66015625,-0.359375,-2.294921875,42.224117647058826,462.3547136098647
-0.0113310546875,-0.0986064453125,0.6028369140625001,0.6109533278523788,0.5546875,-0.40087890625,-2.57568359375,42.08294117647059,462.3547136098647
-0.0235380859375,-0.0951884765625,0.6223681640625001,0.6300452517069054,0.43017578125,-0.33203125,-2.62451171875,42.08294117647059,462.3547136098647
-0.0250029296875,-0.0824931640625,0.6560595703125001,0.6616981399464735,0.36865234375,-0.31103515625,-2.43798828125,41.98882352941177,462.36575851801
-0.0240263671875,-0.0756572265625,0.6829150390625001,0.6875130782967652,0.2998046875,-0.25341796875,-2.30908203125,42.224117647058826,462.36575851801
-0.0464873046875,-0.1113017578125,0.7249072265625001,0.7348738925229258,0.33740234375,-0.154296875,-2.23046875,41.98882352941177,462.36575851801
-0.0289091796875,-0.0693095703125,0.7976611328125001,0.8011883923315591,0.083984375,-0.17529296875,-2.64794921875,41.98882352941177,462.36575851801
-0.1343779296875,-0.1132548828125,0.8298876953125001,0.8482910369083625,0.13525390625,-0.4130859375,-2.5595703125,41.94176470588236,462.36575851801
-0.1128935546875,-0.1054423828125,0.8665087890625001,0.8801707404280817,0.09619140625,-0.55615234375,-2.2548828125,42.41235294117647,462.0102825049205
-0.1109404296875,-0.1025126953125,0.9089892578125,0.9214543409513032,0.150390625,-0.587890625,-2.02880859375,42.224117647058826,462.0102825049205
-0.1338896484375,-0.1127666015625,0.9417041015625,0.9578357684312632,0.13916015625,-0.56396484375,-1.88525390625,42.08294117647059,462.0102825049205
-0.1705107421875,-0.1220439453125,0.9851611328125,1.0072294154725532,0.185546875,-0.673828125,-1.6416015625,41.98882352941177,462.0102825049205
-0.1758818359375,-0.1205791015625,1.0247119140625005,1.0466652983489986,0.2158203125,-0.56787109375,-1.4384765625,41.98882352941177,462.3779287981267
-0.1436552734375,-0.1225322265625,1.0779345703125005,1.0943463446311508,0.2158203125,-0.3876953125,-1.33837890625,42.08294117647059,462.3779287981267
-0.0918974609375,-0.1264384765625,1.1257861328125005,1.136585345900223,0.23095703125,-0.2734375,-1.28369140625,41.94176470588236,462.3779287981267
-0.0782255859375,-0.1347392578125,1.1585009765625005,1.1689304609716509,0.28173828125,-0.27880859375,-1.25537109375,41.98882352941177,462.3779287981267
-0.1045927734375,-0.1445048828125,1.2053759765625005,1.2185042282593868,0.291015625,-0.21826171875,-1.2109375,41.98882352941177,462.3779287981267
-0.1480498046875,-0.1523173828125,1.2444384765625005,1.2624367119677933,0.31689453125,-0.1142578125,-1.13134765625,41.94176470588236,462.6042478712629
-0.1753935546875,-0.1684306640625,1.2937548828125005,1.316409314925885,0.31103515625,0.08642578125,-1.08935546875,42.13,462.6042478712629
-0.1851591796875,-0.1762431640625,1.3147509765625005,1.3393713842968862,0.302734375,0.28466796875,-1.19091796875,42.08294117647059,462.6042478712629
-0.2085966796875,-0.1684306640625,1.3274462890625005,1.354250757326348,0.25830078125,0.4306640625,-1.2080078125,42.13,462.6042478712629
-0.2642607421875,-0.1332744140625,1.4094775390625005,1.4402162137772485,0.23974609375,0.56689453125,-0.994140625,42.13,461.8700787835581
-0.2510771484375,-0.0727275390625,1.5247119140625005,1.546956835302694,0.28955078125,0.79296875,-0.78271484375,42.27117647058824,461.8700787835581
-0.1963896484375,-0.0195048828125,1.6316455078125005,1.6435377688485429,0.26611328125,1.03759765625,-1.03173828125,41.94176470588236,461.8700787835581
-0.1275419921875,0.0136982421875,1.7283251953125005,1.7330789313710373,0.232421875,0.9599609375,-1.65966796875,42.08294117647059,461.8700787835581
-0.0577177734375,0.0044208984375,1.7117236328125005,1.7127021576568415,0.18115234375,0.79443359375,-2.3837890625,42.08294117647059,461.8700787835581
0.0169892578125,-0.0097392578124999,1.6482470703125005,1.6483633982885868,0.107421875,0.80859375,-2.62744140625,41.98882352941177,460.8578238527252
0.1170869140625,0.0063740234375,1.6331103515625005,1.6373146899725948,0.14599609375,0.89208984375,-2.09130859375,41.98882352941177,460.8578238527252
0.3558564453125,0.0312763671875,1.6067431640625005,1.6459755818591204,0.2158203125,0.9384765625,-1.349609375,41.98882352941177,460.8578238527252
0.5228486328125,0.0508076171875,1.4065478515625005,1.5014422951060282,0.29248046875,0.931640625,-0.67529296875,41.98882352941177,460.8578238527252
0.5628876953125,0.0869404296875,1.2014697265625005,1.3296355514555989,0.16650390625,0.92724609375,0.0830078125,42.224117647058826,462.37680344007146
0.5028291015625,0.1386982421875,1.1511767578125005,1.2638363167324136,0.0205078125,0.42578125,0.96826171875,42.13,462.37680344007146
0.4178681640625,0.2192646484375,1.1160205078125005,1.2116899613554022,0.32763671875,-0.24853515625,2.197265625,42.224117647058826,462.37680344007146
0.3783173828125,0.2246357421875,1.0676806640625005,1.1547845076979386,0.6708984375,-0.615234375,2.96142578125,42.224117647058826,462.37680344007146
0.3255830078125,0.1855732421875,1.0422900390625005,1.107614666172818,0.71142578125,-0.76220703125,2.14892578125,42.08294117647059,462.37680344007146
0.2000947265625,0.1621357421875,1.0501025390625005,1.0812221053226403,0.51953125,-0.759765625,0.77392578125,42.224117647058826,463.90591085529593
0.0462861328125,0.1274677734375,1.0549853515625005,1.063665610691303,0.51025390625,-0.69580078125,-0.01220703125,42.31823529411765,463.90591085529593
-0.0406279296875,0.0879169921875,1.0090869140625005,1.0137240385421316,0.3984375,-0.36572265625,-0.3720703125,42.224117647058826,463.90591085529593
-0.0591826171875,0.0097919921875,0.9724658203125,0.9743142393315546,0.18212890625,0.19091796875,-0.58203125,42.45941176470589,463.90591085529593
-0.0181669921875,-0.0273173828125,0.9915087890625,0.9920513886876277,0.1201171875,0.7529296875,-0.7998046875,41.98882352941177,463.7767294884336
0.0384736328125,-0.0644267578125,0.9622119140625,0.965133563351644,0.10498046875,1.0107421875,-1.009765625,42.08294117647059,463.7767294884336
-0.0025419921874999,-0.1000712890625,0.9412158203125,0.9465241386385476,0.06982421875,0.974609375,-1.25146484375,42.27117647058824,463.7767294884336
0.1205048828125,-0.1181376953125,0.8601611328125001,0.8765586781480672,-0.03759765625,0.6572265625,-1.5029296875,41.98882352941177,463.7767294884336
0.0912080078125,-0.0990947265625,0.8367236328125001,0.8474934237081543,-0.02734375,0.416015625,-1.6591796875,41.94176470588236,463.7767294884336
0.0799775390625,-0.0829814453125,0.7805712890625001,0.789033500131229,-0.04833984375,0.294921875,-1.5546875,42.13,463.5691176265567
0.0750947265625,-0.0414775390625,0.7395556640625001,0.7445147308489626,-0.087890625,0.244140625,-1.64697265625,42.224117647058826,463.5691176265567
0.0643525390625,-0.0273173828125,0.7131884765625001,0.7166067902197515,-0.10400390625,0.306640625,-1.7939453125,42.08294117647059,463.5691176265567
0.0721650390625,0.0053974609375,0.6965869140625001,0.7003358153704413,-0.18408203125,0.40478515625,-1.5703125,42.224117647058826,463.5691176265567
0.0799775390625,0.0288349609375,0.7058642578125001,0.7109656898781772,-0.228515625,0.4150390625,-1.52490234375,41.98882352941177,462.8725042097473
0.0501923828125,0.0254169921875,0.6819384765625001,0.6842553504362531,-0.25341796875,0.37109375,-1.61376953125,42.224117647058826,462.8725042097473
0.0296845703125,0.0171162109375,0.6482470703125001,0.649152064280962,-0.29541015625,0.3251953125,-1.57177734375,41.94176470588236,462.8725042097473
0.0223603515625,0.0073505859375,0.6179736328125001,0.6184217228454235,-0.26904296875,0.25732421875,-1.43310546875,41.98882352941177,462.8725042097473
0.0086884765625,0.0019794921875,0.5979541015625001,0.5980204976334124,-0.21875,0.1552734375,-1.294921875,41.94176470588236,462.8725042097473
-0.0035185546874999,-0.0199931640625,0.5774462890625001,0.5778030145199758,-0.18212890625,0.13623046875,-1.15771484375,42.08294117647059,462.9365278241037
-0.0230498046875,-0.0317119140625,0.5852587890625001,0.5865703616485777,-0.11328125,0.19091796875,-1.01025390625,41.89470588235295,462.9365278241037
-0.0342802734375,-0.0488017578125,0.5994189453125001,0.602378469661798,-0.0673828125,0.2568359375,-0.802734375,42.13,462.9365278241037
-0.0425810546875,-0.0571025390625,0.6169970703125001,0.621095186714478,-0.06689453125,0.38037109375,-0.6328125,41.98882352941177,462.9365278241037
-0.0459990234375,-0.0575908203125,0.6414111328125001,0.6456321352266203,-0.1123046875,0.4501953125,-0.484375,42.224117647058826,462.8824261932783
-0.0420927734375,-0.0629619140625,0.6716845703125001,0.6759409487477158,-0.19140625,0.43310546875,-0.36767578125,41.98882352941177,462.8824261932783
-0.0425810546875,-0.0697978515625,0.6912158203125001,0.6960346230981064,-0.21826171875,0.26220703125,-0.2744140625,42.224117647058826,462.8824261932783
-0.0669951171875,-0.0839580078125,0.7473681640625001,0.7550473266338757,-0.2158203125,0.28173828125,-0.0234375,41.94176470588236,462.8824261932783
-0.0748076171875,-0.0820048828125,0.7771533203125001,0.7850402942952079,-0.27587890625,0.17822265625,0.16796875,42.31823529411765,462.8824261932783
-0.0655302734375,-0.0546611328125,0.8005908203125001,0.8051259017978375,-0.4228515625,0.0419921875,0.25048828125,41.94176470588236,462.5688649597169
-0.0762724609375,-0.0385478515625,0.8591845703125001,0.8634243169037008,-0.41357421875,-0.03173828125,0.31201171875,42.224117647058826,462.5688649597169
-0.1075224609375,-0.0126689453124999,0.9094775390625,0.9158989987114128,-0.4228515625,-0.08154296875,0.39453125,42.08294117647059,462.5688649597169
-0.1709990234375,-0.0063212890624999,0.9426806640625,0.9580853088891962,-0.341796875,-0.03515625,0.5498046875,41.14176470588235,462.5688649597169
-0.1910185546875,0.0171162109375,0.9783251953125,0.9969459567574362,-0.326171875,0.0556640625,0.73828125,42.27117647058824,461.8491161447415
-0.1583037109375,0.0478779296875,0.9939501953125,1.0076156766394129,-0.31982421875,0.18212890625,0.76220703125,41.98882352941177,461.8491161447415
-0.1573271484375,0.0566669921875,1.0247119140625005,1.0382665777442162,-0.26708984375,0.30224609375,0.73876953125,42.31823529411765,461.8491161447415
-0.1553740234375,0.0610615234375,1.0588916015625005,1.071970624906887,-0.18896484375,0.4501953125,0.84423828125,42.08294117647059,461.8491161447415
-0.1065458984375,0.0664326171875,1.0637744140625005,1.0711588701561738,-0.099609375,0.52197265625,0.73046875,42.27117647058824,461.8491161447415
-0.0665068359375,0.1011005859375,1.0867236328125005,1.093440781120094,-0.0595703125,0.49365234375,0.4619140625,42.224117647058826,462.2365955527412
-0.0894560546875,0.1299091796875,1.0891650390625005,1.1005268115785958,0.00830078125,0.4521484375,0.30615234375,42.31823529411765,462.2365955527412
-0.1290068359375,0.1528583984375,1.0828173828125005,1.1011366573738226,0.08349609375,0.5166015625,0.216796875,41.89470588235295,462.2365955527412
-0.1978544921875,0.1567646484375,1.1331103515625005,1.1608878601728072,0.1025390625,0.91162109375,0.26953125,42.08294117647059,462.2365955527412
-0.2647490234375,0.1435810546875,1.1946337890625005,1.2320135772977956,0.2177734375,1.17626953125,0.5791015625,42.08294117647059,462.2807753919116
-0.3057646484375,0.1054951171875,1.2136767578125005,1.25603841996922,0.3515625,1.4423828125,0.84716796875,42.08294117647059,462.2807753919116
-0.3160185546875,0.0547138671875,1.2195361328125005,1.261003454953497,0.46484375,1.78369140625,0.986328125,42.08294117647059,462.2807753919116
-0.3311552734375,0.0136982421875,1.3020556640625005,1.3435774667959164,0.39208984375,2.263671875,1.0185546875,42.08294117647059,462.2807753919116
-0.3423857421875,-0.0380595703125,1.4724658203125005,1.512227535569374,0.44140625,2.50048828125,1.203125,42.224117647058826,462.2807753919116
-0.1934599609375,-0.1459697265625,1.5686572265625005,1.5872679080752012,0.53076171875,2.23095703125,1.49853515625,41.98882352941177,461.64377269015097
0.0155244140625,-0.2299541015625,1.4583056640625005,1.476406213104703,0.4765625,1.8798828125,0.765625,42.31823529411765,461.64377269015097
0.0892548828125,-0.2123759765625,1.3298876953125005,1.349693028681093,0.22802734375,1.95556640625,0.224609375,42.13,461.64377269015097
0.1581025390625,-0.1205791015625,1.4246142578125005,1.43842327433697,0.08740234375,2.00537109375,-0.05517578125,42.27117647058824,461.64377269015097
0.1878876953125,-0.1098369140625,1.3943408203125005,1.4112236736004509,0.009765625,1.75732421875,-0.00439453125,41.94176470588236,461.9462664282307
0.2357392578125,-0.1113017578125,1.2258837890625005,1.253296510508337,-0.16015625,1.5673828125,-0.0400390625,42.08294117647059,461.9462664282307
0.2367158203125,-0.1391337890625,1.1521533203125005,1.1844196318671127,-0.3876953125,1.4658203125,-0.37158203125,42.224117647058826,461.9462664282307
0.2586884765625,-0.1777080078125,1.1663134765625005,1.2078025457657475,-0.60595703125,1.19580078125,-0.77978515625,42.08294117647059,461.9462664282307
0.2518525390625,-0.2113994140625,1.1057666015625005,1.1536200374600285,-0.6845703125,0.6533203125,-0.76611328125,42.224117647058826,461.9462664282307
0.2074189453125,-0.2719462890625,1.0496142578125005,1.103932739442354,-0.7177734375,0.27197265625,-0.29931640625,42.27117647058824,463.21471974423855
0.1776337890625,-0.2558330078125,1.0784228515625005,1.1224972773576274,-0.65869140625,-0.26416015625,0.36474609375,42.224117647058826,463.21471974423855
0.1761689453125,-0.2572978515625,1.1502001953125005,1.1917206765883148,-0.50927734375,-0.60009765625,0.734375,42.08294117647059,463.21471974423855
0.1458955078125,-0.2675517578125,1.1824267578125005,1.2210661242944247,-0.23193359375,-0.95458984375,1.17529296875,42.224117647058826,463.21471974423855
0.0545869140625,-0.2494853515625,1.1741259765625005,1.2015799934544416,-0.08984375,-1.18798828125,1.78076171875,41.94176470588236,463.57247553766285
-0.0098662109375,-0.1928447265625,1.1531298828125005,1.1691855957530437,-0.05224609375,-1.1748046875,2.28125,41.518235294117645,463.57247553766285
-0.0167021484375,-0.1259501953125,1.1218798828125005,1.1290513207649484,-0.00390625,-0.8447265625,2.44921875,42.224117647058826,463.57247553766285
-0.0127958984375,-0.0903056640625,1.1189501953125005,1.1226612969050258,-0.0576171875,-0.61572265625,2.505859375,41.98882352941177,463.57247553766285
-0.0284208984375,-0.0512431640625,1.1033251953125005,1.1048801274086242,-0.07470703125,-0.4658203125,2.4658203125,41.33,463.57247553766285
-0.0416044921875,0.0068623046875,1.0501025390625005,1.050948793967296,0.02490234375,-0.419921875,2.419921875,42.224117647058826,462.44082314315335
-0.0416044921875,0.0669208984375,0.9915087890625,0.99463511862695,0.1044921875,-0.38134765625,2.279296875,42.27117647058824,462.44082314315335
-0.0289091796875,0.0893818359375,0.8899462890625001,0.8948906361572219,0.23046875,-0.38623046875,2.4677734375,41.98882352941177,462.44082314315335
0.0013642578125,0.0849873046875,0.8416064453125001,0.845887765574705,0.251953125,-0.36474609375,2.87109375,42.224117647058826,462.44082314315335
0.0130830078125,0.0542255859375,0.8103564453125001,0.8122740594917445,0.57080078125,-0.2509765625,3.1474609375,41.98882352941177,462.2906946320907
0.0072236328125,0.0190693359375,0.7835009765625001,0.7837662921550648,0.63134765625,-0.11962890625,3.1435546875,41.98882352941177,462.2906946320907
0.0052705078125,0.0156513671875,0.7351611328125001,0.7353466085769336,0.63720703125,-0.07763671875,2.84130859375,41.98882352941177,462.2906946320907
-0.0049833984375,0.0093037109375,0.7146533203125001,0.7147312512622324,0.5576171875,0.12646484375,2.29345703125,41.98882352941177,462.2906946320907
-0.0293974609375,-0.0199931640625,0.6653369140625001,0.6662860846010612,0.5966796875,0.1865234375,1.84619140625,41.94176470588236,462.2906946320907
-0.0137724609375,-0.0341533203125,0.6233447265625001,0.6244315639859352,0.53125,0.2333984375,1.3681640625,42.08294117647059,462.6252133003698
-0.0250029296875,-0.0380595703125,0.6057666015625001,0.607475804418506,0.439453125,0.224609375,0.65869140625,42.08294117647059,462.6252133003698
-0.0308623046875,-0.0488017578125,0.5833056640625001,0.5861566268017518,0.404296875,0.16357421875,0.26171875,41.98882352941177,462.6252133003698
-0.0406279296875,-0.0497783203125,0.5960009765625001,0.5994544802629138,0.3671875,0.15283203125,-0.02099609375,42.224117647058826,462.6252133003698
-0.0259794921875,-0.0424541015625,0.5969775390625001,0.5990488017673671,0.3408203125,0.1689453125,-0.2802734375,42.224117647058826,462.2807753919116
-0.0689482421875,-0.0639384765625,0.6409228515625001,0.6477839844739032,0.28564453125,0.37109375,-0.2822265625,42.224117647058826,462.2807753919116
-0.0806669921875,-0.0551494140625,0.6531298828125001,0.6603993226243386,0.2099609375,0.16650390625,-0.224609375,41.89470588235295,462.2807753919116
-0.0796904296875,-0.0458720703125,0.6926806640625001,0.6987569776285597,0.1318359375,0.1962890625,-0.30419921875,42.08294117647059,462.2807753919116
-0.1055693359375,-0.0502666015625,0.7307666015625001,0.7400617824763913,0.0791015625,0.31982421875,-0.40478515625,42.08294117647059,462.2807753919116
-0.1172880859375,-0.0502666015625,0.7585986328125001,0.7692562070211197,0.0673828125,0.3857421875,-0.4931640625,42.27117647058824,462.0643807255598
-0.1197294921875,-0.0531962890625,0.7781298828125001,0.789082448794353,0.01171875,0.42822265625,-0.65869140625,42.224117647058826,462.0643807255598
-0.1348662109375,-0.0463603515625,0.8269580078125001,0.8391648966292952,0.00732421875,0.3466796875,-0.79931640625,41.98882352941177,462.0643807255598
-0.1441435546875,-0.0439189453125,0.8489306640625001,0.8622003888313367,0.017578125,0.1416015625,-0.5810546875,41.94176470588236,462.0643807255598
-0.1597685546875,-0.0385478515625,0.8796923828125001,0.8949137479697982,0.18505859375,0.09423828125,-0.3505859375,42.08294117647059,461.9352214499925
-0.1792998046875,-0.0561259765625,0.8987353515625001,0.9181632629082044,0.3046875,0.2431640625,-0.3837890625,41.98882352941177,461.9352214499925
-0.2139677734375,-0.0605205078125,0.9573291015625,0.982814300177886,0.38232421875,0.4716796875,-0.2666015625,42.224117647058826,461.9352214499925
-0.1539091796875,-0.0517314453125,1.0476611328125005,1.0601688673188676,0.43017578125,0.6142578125,-0.2138671875,42.08294117647059,461.9352214499925
-0.0645537109375,-0.0439189453125,1.1189501953125005,1.121670894221227,0.50732421875,0.5224609375,-0.5205078125,41.98882352941177,461.9352214499925
-0.0201201171875,-0.0727275390625,1.1311572265625005,1.1336713744548257,0.4375,0.2626953125,-0.90771484375,42.224117647058826,462.19354158239537
-0.0762724609375,-0.1103251953125,1.1423876953125005,1.1502342298069597,0.38134765625,-0.01220703125,-0.99609375,42.08294117647059,462.19354158239537
-0.1578154296875,-0.1269267578125,1.2058642578125005,1.2227529267869022,0.40771484375,-0.0361328125,-0.93017578125,42.31823529411765,462.19354158239537
-0.1949248046875,-0.1132548828125,1.2996142578125005,1.3190222011296358,0.47265625,0.20849609375,-1.01904296875,42.08294117647059,462.19354158239537
-0.1954130859375,-0.1171611328125,1.4392626953125005,1.4571856818249789,0.455078125,0.5068359375,-1.34423828125,42.08294117647059,462.1604068323062
-0.1470732421875,-0.1313212890625,1.5706103515625005,1.5829379949839666,0.3828125,0.72607421875,-1.89892578125,42.08294117647059,462.1604068323062
-0.0953154296875,-0.1401103515625,1.6731494140625005,1.6817089235444902,0.1982421875,0.7431640625,-2.5205078125,42.08294117647059,462.1604068323062
-0.0669951171875,-0.1386455078125,1.7927783203125005,1.799379067441339,-0.06396484375,0.458984375,-2.8330078125,42.13,462.1604068323062
0.0272431640625,-0.1161845703125,1.9373095703125005,1.940981559827718,-0.32177734375,-0.2216796875,-3.04638671875,42.13,462.1604068323062
0.2137666015625,-0.0697978515625,1.9446337890625005,1.9575925198033168,-0.54833984375,-1.0,-3.16845703125,41.80058823529412,461.8270262075384
0.3075166015625,-0.0053447265624999,1.6853564453125005,1.7131904080092684,-0.56201171875,-0.81005859375,-2.99462890625,42.224117647058826,461.8270262075384
0.2660126953125,0.0752216796875,1.4793017578125005,1.5049102118829492,-0.21728515625,0.0,-1.38916015625,41.98882352941177,461.8270262075384
0.2904267578125,0.1196552734375,1.4275439453125005,1.461693128503128,0.16015625,0.67333984375,0.591796875,42.08294117647059,461.8270262075384
0.2923798828125,0.2085224609375,1.3201220703125005,1.3680971797043675,0.60205078125,0.28369140625,2.1337890625,41.94176470588236,462.30173957930384
0.2459931640625,0.2173115234375,1.0999072265625005,1.1478383344481131,1.1201171875,-0.1171875,3.06982421875,42.08294117647059,462.30173957930384
0.1908173828125,0.1689716796875,0.9895556640625,1.0218527850908872,1.068359375,-0.15283203125,2.6259765625,41.94176470588236,462.30173957930384
0.1239228515625,0.1245380859375,0.9377978515625,0.9541128960367312,0.79736328125,-0.201171875,1.072265625,41.98882352941177,462.30173957930384
0.0355439453125,0.0942646484375,0.9221728515625,0.9276594009399872,0.52978515625,-0.13623046875,-0.25244140625,42.31823529411765,462.30173957930384
-0.0176787109375,0.0971943359375,0.9075244140625,0.9128854461969624,0.349609375,-0.03369140625,-1.3115234375,42.13,463.1948721715727
-0.0347685546875,0.1098896484375,0.9031298828125,0.910454926098868,0.21240234375,0.15185546875,-1.52294921875,42.08294117647059,463.1948721715727
-0.0396513671875,0.0869404296875,0.9036181640625,0.9086565113714687,0.18994140625,0.5380859375,-1.33056640625,41.98882352941177,463.1948721715727
0.0047822265625,0.0425068359375,0.9080126953125,0.909019667356534,0.13720703125,0.8232421875,-1.31494140625,42.27117647058824,463.1948721715727
0.0311494140625,0.0112568359375,0.9006884765625001,0.901297250724886,0.115234375,0.9384765625,-1.65380859375,42.224117647058826,463.28210955588406
0.0501923828125,-0.0571025390625,0.8743212890625001,0.8776204713699953,0.2294921875,1.00048828125,-1.88671875,42.08294117647059,463.28210955588406
0.0638642578125,-0.1264384765625,0.8762744140625001,0.8876498073688549,0.25732421875,0.6689453125,-1.68017578125,41.98882352941177,463.28210955588406
0.0960908203125,-0.1215556640625,0.8621142578125001,0.8759282040998579,0.17529296875,0.474609375,-1.64892578125,42.31823529411765,463.28210955588406
0.1102509765625,-0.1225322265625,0.7859423828125001,0.8030410036108612,0.095703125,0.25634765625,-1.609375,41.98882352941177,463.28210955588406
0.0960908203125,-0.0947001953125,0.7634814453125001,0.7753099316254235,0.03173828125,0.26953125,-1.7626953125,42.08294117647059,462.8824261932783
0.0580048828125,-0.0688212890625,0.7566455078125001,0.7619798952407815,-0.0576171875,0.3359375,-1.8310546875,42.08294117647059,462.8824261932783
0.0213837890625,-0.0551494140625,0.7595751953125001,0.7618747939393514,-0.03564453125,0.38037109375,-1.62646484375,42.13,462.8824261932783
0.0072236328125,-0.0253642578125,0.7473681640625001,0.7478333364457223,-0.1240234375,0.3134765625,-1.68310546875,41.98882352941177,462.8824261932783
-0.0103544921875,-0.0175517578125,0.7210009765625001,0.7212889073837532,-0.1796875,0.36181640625,-1.6748046875,42.08294117647059,462.65722389952697
-0.0132841796875,-0.0102275390624999,0.6956103515625001,0.6958123548674238,-0.20068359375,0.3408203125,-1.67919921875,42.27117647058824,462.65722389952697
-0.0313505859375,-0.0033916015624999,0.6663134765625001,0.6670592261925388,-0.12451171875,0.3916015625,-1.42919921875,41.98882352941177,462.65722389952697
-0.0391630859375,0.0049091796875,0.6438525390625001,0.6450611904327994,-0.05126953125,0.392578125,-1.22314453125,42.41235294117647,462.65722389952697
-0.0709013671875,-0.0048564453124999,0.6389697265625001,0.6429097140294943,0.0341796875,0.4296875,-0.96240234375,41.80058823529412,462.65722389952697
-0.0904326171875,-0.0063212890624999,0.6277392578125001,0.6342512063416048,0.1044921875,0.43896484375,-0.6455078125,42.224117647058826,462.8725042097473
-0.1045927734375,-0.0058330078124999,0.6570361328125001,0.6653346166078346,0.15576171875,0.455078125,-0.35693359375,41.98882352941177,462.8725042097473
-0.1084990234375,-0.0121806640624999,0.6692431640625001,0.6780905686619458,0.09619140625,0.47802734375,-0.15966796875,41.98882352941177,462.8725042097473
-0.1104521484375,-0.0077861328124999,0.7000048828125001,0.7087080759522748,0.0244140625,0.39404296875,0.01611328125,42.224117647058826,462.8725042097473
-0.1202177734375,-0.0160869140625,0.7307666015625001,0.7407637462872559,0.0234375,0.39111328125,0.33251953125,42.224117647058826,462.8184029025376
-0.1358427734375,-0.0112041015624999,0.7786181640625001,0.790458750596812,0.0126953125,0.42626953125,0.5546875,42.224117647058826,462.8184029025376
-0.1036162109375,0.0132099609375,0.8093798828125001,0.8160922845723951,-0.0244140625,0.2587890625,0.705078125,41.94176470588236,462.8184029025376
-0.0938505859375,0.0205341796875,0.8430712890625001,0.8485274205691624,-0.05615234375,0.1474609375,0.70703125,42.08294117647059,462.8184029025376
-0.0987333984375,-0.0033916015624999,0.8479541015625001,0.8536896071083703,-0.00244140625,-0.0556640625,0.86572265625,42.27117647058824,462.8184029025376
-0.1172880859375,0.0073505859375,0.8879931640625001,0.8957356672803852,-0.041015625,-0.02099609375,0.84423828125,41.94176470588236,461.9032136933768
-0.1509794921875,0.0180927734375,0.9016650390625,0.9143970681161636,-0.09423828125,0.04638671875,0.70361328125,42.13,461.9032136933768
-0.2110380859375,0.0190693359375,0.9231494140625,0.9471565625456004,-0.07421875,0.1904296875,0.6279296875,42.27117647058824,461.9032136933768
-0.2139677734375,0.0259052734375,0.9846728515625,1.0079850772039725,-0.0771484375,0.4599609375,0.73193359375,41.98882352941177,461.9032136933768
-0.1661162109375,0.0420185546875,1.0354541015625005,1.0495357787692914,-0.0166015625,0.5390625,0.84912109375,41.98882352941177,461.9904464803802
-0.0923857421875,0.0605732421875,1.0559619140625005,1.0617249205793278,0.025390625,0.44287109375,0.99755859375,41.98882352941177,461.9904464803802
-0.0430693359375,0.0859638671875,1.0491259765625005,1.0535226949895988,0.0478515625,0.36279296875,0.90380859375,41.94176470588236,461.9904464803802
-0.0943388671875,0.0874287109375,1.0667041015625005,1.0744306593022532,0.037109375,0.28369140625,0.64453125,42.224117647058826,461.9904464803802
-0.1412138671875,0.1011005859375,0.9680712890625,0.9835266673914262,-0.037109375,0.484375,0.46826171875,42.27117647058824,461.9904464803802
-0.1895537109375,0.1128193359375,1.1780322265625005,1.198506878875277,-0.05126953125,0.85595703125,0.3388671875,41.98882352941177,462.46291295088463
-0.2754912109375,0.1108662109375,1.2459033203125005,1.2808051403695884,-0.029296875,1.1396484375,0.49072265625,42.13,462.46291295088463
-0.3375029296875,0.0893818359375,1.3406298828125005,1.385346824023884,0.06103515625,1.36767578125,0.7265625,41.98882352941177,462.46291295088463
-0.3707060546875,0.0381123046875,1.4622119140625005,1.50895301728612,0.23193359375,1.5029296875,1.11474609375,42.08294117647059,462.46291295088463
-0.3096708984375,-0.0121806640624999,1.5842822265625005,1.614309328263306,0.41162109375,1.30908203125,1.56201171875,42.08294117647059,461.42964520519087
-0.1822294921875,-0.0536845703125,1.5881884765625005,1.599510005594985,0.59912109375,1.13037109375,1.53564453125,41.89470588235295,461.42964520519087
-0.2593779296875,-0.0927470703125,1.5071337890625005,1.5321002537674924,0.57275390625,1.23388671875,1.2294921875,42.224117647058826,461.42964520519087
-0.0870146484375,-0.1176494140625,1.5144580078125005,1.5215110880632314,0.3740234375,1.5224609375,0.912109375,41.98882352941177,461.42964520519087
0.0628876953125,-0.1239970703125,1.5525439453125005,1.5587568244579733,-0.01904296875,1.5380859375,0.67822265625,42.08294117647059,461.42964520519087
0.2196259765625,-0.1034892578125,1.5418017578125005,1.5608005178296585,-0.0146484375,1.2626953125,0.3857421875,42.224117647058826,461.46165096750735
0.3148408203125,-0.0712626953125,1.4539111328125005,1.4893155125742756,0.0947265625,0.84228515625,0.2421875,42.224117647058826,461.46165096750735
0.2772431640625,-0.0634501953125,1.2893603515625005,1.3203559427237623,0.11181640625,0.78173828125,0.18310546875,42.224117647058826,461.46165096750735
0.2123017578125,-0.0966533203125,1.1692431640625005,1.1922849816233514,0.11572265625,0.96923828125,0.171875,41.98882352941177,461.46165096750735
0.2000947265625,-0.1645244140625,1.1213916015625005,1.150923675347605,0.07666015625,0.9853515625,0.0849609375,42.08294117647059,462.6119207152639
0.2445283203125,-0.2250712890625,1.0413134765625005,1.0930621853608278,-0.0830078125,0.67333984375,-0.24853515625,42.31823529411765,462.6119207152639
0.2826142578125,-0.2538798828125,0.9876025390625,1.0581514961377203,-0.31494140625,0.20703125,-0.8671875,41.94176470588236,462.6119207152639
0.2098603515625,-0.2846416015625,0.9504931640625,1.014149625759209,-0.4716796875,-0.326171875,-0.87744140625,42.08294117647059,462.6119207152639
0.1288056640625,-0.2880595703125,0.9724658203125,1.022379081759436,-0.4443359375,-0.6142578125,-0.1728515625,42.224117647058826,462.6119207152639
0.0355439453125,-0.2548564453125,1.0286181640625005,1.0603162298130733,-0.3046875,-0.8232421875,0.7060546875,42.224117647058826,463.311881426277
-0.0342802734375,-0.1928447265625,1.0574267578125005,1.075414140621078,-0.22216796875,-0.966796875,1.453125,42.224117647058826,463.311881426277
-0.0596708984375,-0.1337626953125,1.0437548828125005,1.0539816555199333,-0.14453125,-0.91455078125,1.86181640625,42.08294117647059,463.311881426277
-0.0513701171875,-0.0932353515625,1.0183642578125005,1.0239128289609642,-0.095703125,-0.71337890625,1.98828125,41.98882352941177,463.311881426277
-0.0230498046875,-0.0458720703125,0.9998095703125,1.0011267238563522,-0.1201171875,-0.525390625,1.97607421875,41.94176470588236,463.14076952005473
-0.0220732421875,0.0141865234375,1.0803759765625005,1.0806945619375008,-0.2470703125,-0.517578125,2.04931640625,41.98882352941177,463.14076952005473
-0.0342802734375,0.0639912109375,0.9075244140625,0.91042329404716,-0.05712890625,-0.4970703125,2.3076171875,42.08294117647059,463.14076952005473
-0.0391630859375,0.0927998046875,0.8645556640625001,0.8704033819515734,0.14697265625,-0.4423828125,2.640625,42.224117647058826,463.14076952005473
-0.0425810546875,0.0810810546875,0.8025439453125001,0.8077524792938059,0.24609375,-0.482421875,2.9814453125,41.98882352941177,463.14076952005473
-0.0079130859375,0.0493427734375,0.7986376953125001,0.8001996592061386,0.27490234375,-0.4111328125,3.078125,41.98882352941177,462.2465149824106
0.0228486328125,-0.0024150390624999,0.7668994140625001,0.7672435100569308,0.35302734375,-0.43115234375,2.90576171875,42.08294117647059,462.2465149824106
0.0374970703125,-0.0258525390625,0.7341845703125001,0.7355959266764254,0.333984375,-0.45703125,2.69189453125,42.224117647058826,462.2465149824106
-0.0001005859374999,-0.0497783203125,0.7439501953125001,0.7456136964918038,0.42041015625,-0.32470703125,2.3837890625,41.98882352941177,462.2465149824106
0.0111298828125,-0.0580791015625,0.6995166015625001,0.7020117749662584,0.42138671875,-0.27001953125,1.93701171875,41.98882352941177,462.4187333910921
-0.0005888671874999,-0.0688212890625,0.6516650390625001,0.6552892794248342,0.41552734375,-0.1982421875,1.52197265625,42.224117647058826,462.4187333910921
-0.0108427734375,-0.0673564453125,0.6287158203125001,0.6324065458011742,0.41015625,-0.15185546875,1.189453125,41.98882352941177,462.4187333910921
-0.0142607421875,-0.0761455078125,0.6218798828125001,0.6266866009215856,0.4443359375,-0.171875,0.77197265625,42.08294117647059,462.4187333910921
-0.0420927734375,-0.0937236328125,0.6174853515625001,0.6259745045267398,0.42333984375,-0.271484375,0.56103515625,41.98882352941177,462.4187333910921
-0.0567412109375,-0.1005595703125,0.6423876953125001,0.6526819618229034,0.3994140625,-0.28564453125,0.37353515625,41.94176470588236,462.3326238353327
-0.0831083984375,-0.0888408203125,0.6736376953125001,0.6845344708563483,0.33544921875,-0.27880859375,0.34521484375,42.224117647058826,462.3326238353327
-0.1036162109375,-0.0810283203125,0.7087939453125001,0.7208958071547988,0.30908203125,-0.171875,0.2724609375,42.08294117647059,462.3326238353327
-0.1016630859375,-0.0585673828125,0.7234423828125001,0.7328945371752128,0.22802734375,-0.001953125,0.08642578125,42.13,462.3326238353327
-0.1436552734375,-0.0776103515625,0.7444384765625001,0.7621344039227949,0.34814453125,0.037109375,0.2216796875,42.31823529411765,462.4297782601646
-0.0367216796875,-0.0180400390625,0.7537158203125001,0.7548254517156882,0.14794921875,0.1767578125,-0.24365234375,42.13,462.4297782601646
-0.1084990234375,-0.0224345703125,0.7942431640625001,0.8019336329722112,0.14404296875,0.013671875,-0.400390625,42.08294117647059,462.4297782601646
-0.1158232421875,-0.0370830078125,0.8440478515625001,0.8527642984005125,0.1953125,-0.044921875,-0.06787109375,42.08294117647059,462.4297782601646
-0.0806669921875,-0.0185283203125,0.8626025390625001,0.8665642519047579,0.2265625,-0.09521484375,-0.0419921875,41.98882352941177,462.4297782601646
-0.0967802734375,-0.0292705078125,0.8987353515625001,0.9044050066769918,0.25830078125,-0.0947265625,-0.052734375,42.08294117647059,461.9683564264705
-0.1304716796875,-0.0419658203125,0.9656298828125,0.9753076744573792,0.306640625,-0.05078125,-0.03173828125,42.27117647058824,461.9683564264705
-0.1373076171875,-0.0473369140625,1.0320361328125005,1.0422057112687737,0.3798828125,-0.0048828125,0.00830078125,42.41235294117647,461.9683564264705
-0.0967802734375,-0.0551494140625,1.1062548828125005,1.111848795900132,0.45654296875,0.1337890625,-0.1357421875,42.224117647058826,461.9683564264705
-0.0503935546875,-0.0668681640625,1.1555712890625005,1.1586008224685067,0.5439453125,0.13525390625,-0.4677734375,41.98882352941177,461.9142586911587
-0.0425810546875,-0.1005595703125,1.1453173828125005,1.1505117473421165,0.48291015625,0.11279296875,-0.8466796875,41.94176470588236,461.9142586911587
-0.0723662109375,-0.1093486328125,1.1438525390625005,1.1513438335715105,0.35400390625,0.205078125,-1.125,41.98882352941177,461.9142586911587
-0.1377958984375,-0.0947001953125,1.1731494140625005,1.1850043815672628,0.3525390625,0.4873046875,-0.8818359375,41.94176470588236,461.9142586911587
-0.1636748046875,-0.0815166015625,1.2361376953125005,1.2495882521023838,0.35693359375,0.85400390625,-0.64208984375,41.98882352941177,461.9142586911587
-0.1612333984375,-0.1279033203125,1.2830126953125005,1.2994141158428727,0.3505859375,0.95068359375,-0.6357421875,41.94176470588236,462.30286539500656
-0.1919951171875,-0.1474345703125,1.2966845703125005,1.3190867873015737,0.232421875,1.01708984375,-0.8310546875,41.94176470588236,462.30286539500656
-0.2081083984375,-0.1054423828125,1.3918994140625005,1.4113154078592534,0.14404296875,1.33984375,-0.97705078125,42.08294117647059,462.30286539500656
-0.1485380859375,-0.0619853515625,1.5100634765625005,1.518616953030068,0.166015625,1.3203125,-1.05517578125,42.224117647058826,462.30286539500656
-0.0713896484375,-0.0566142578125,1.5520556640625005,1.554727770524531,0.08349609375,1.08837890625,-1.39013671875,41.98882352941177,461.6029783936698
-0.0611357421875,-0.0297587890625,1.5471728515625005,1.5486661993829791,-0.07666015625,0.8134765625,-1.84130859375,42.31823529411765,461.6029783936698
-0.0762724609375,0.0229755859375,1.5256884765625005,1.527766570311786,-0.13330078125,0.685546875,-1.92236328125,42.13,461.6029783936698
-0.0298857421875,0.0791279296875,1.4832080078125005,1.4856178449661452,-0.04248046875,0.7294921875,-1.46533203125,42.13,461.6029783936698
0.0711884765625,0.1211201171875,1.4363330078125005,1.443187580086008,0.17138671875,0.97021484375,-0.73779296875,41.98882352941177,461.6029783936698
0.1957001953125,0.1386982421875,1.4753955078125005,1.494766762175477,0.33837890625,1.26025390625,-0.00439453125,41.94176470588236,461.74204953110535
0.3475556640625,0.1465107421875,1.4426806640625005,1.4911699553230258,0.46826171875,0.9697265625,0.3837890625,42.13,461.74204953110535
0.4012666015625,0.1269794921875,1.2283251953125005,1.2984303841196898,0.48095703125,0.70263671875,0.2236328125,42.08294117647059,461.74204953110535
0.3587861328125,0.1289326171875,1.0793994140625005,1.144750716947509,0.42529296875,0.79736328125,0.19873046875,42.224117647058826,461.74204953110535
0.3080048828125,0.1557880859375,1.0374072265625005,1.0933209452308643,0.27490234375,0.50732421875,0.1923828125,42.13,463.5857613106069
0.2508759765625,0.1987568359375,0.9968798828125,1.0470016887304137,0.197265625,0.16943359375,0.20361328125,42.27117647058824,463.5857613106069
0.1624970703125,0.2275654296875,0.9763720703125,1.0156248039189075,0.21337890625,-0.0224609375,0.2431640625,42.08294117647059,463.5857613106069
0.0619111328125,0.2158466796875,1.0115283203125005,1.0361526529872291,0.322265625,0.02978515625,0.248046875,42.224117647058826,463.5857613106069
0.0174775390625,0.1655537109375,1.0183642578125005,1.031881416232923,0.322265625,0.22021484375,-0.3251953125,42.31823529411765,463.5857613106069
-0.0704130859375,0.0942646484375,1.0442431640625005,1.050850899180064,0.34912109375,0.43994140625,-0.41943359375,42.224117647058826,463.5073266963908
-0.0679716796875,0.0386005859375,1.0139697265625005,1.0169782499441615,0.24462890625,0.65380859375,-0.6572265625,42.13,463.5073266963908
-0.0254912109375,-0.0175517578125,0.9763720703125,0.9768624702196756,0.1630859375,0.83056640625,-0.96826171875,42.224117647058826,463.5073266963908
0.0223603515625,-0.0248759765625,0.9700244140625,0.9706009290172934,-0.10009765625,0.85205078125,-1.4033203125,41.98882352941177,463.5073266963908
0.0492158203125,-0.0439189453125,0.9553759765625,0.9576504202051734,-0.0703125,0.79248046875,-1.85302734375,42.224117647058826,462.8957174508453
0.0492158203125,-0.0868876953125,0.9104541015625,0.9159139367963178,-0.05859375,0.65966796875,-1.7265625,42.08294117647059,462.8957174508453
0.0453095703125,-0.0917705078125,0.8762744140625001,0.8822310536399438,-0.0595703125,0.6865234375,-1.89697265625,42.27117647058824,462.8957174508453
0.0448212890625,-0.0795634765625,0.8386767578125001,0.8436338061332195,-0.1796875,0.564453125,-2.4228515625,41.89470588235295,462.8957174508453
0.0082001953125,-0.0678447265625,0.8127978515625001,0.8156656776094722,-0.25,0.57470703125,-2.75439453125,42.27117647058824,462.8957174508453
-0.0030302734374999,-0.0536845703125,0.7888720703125001,0.790702446540969,-0.37060546875,0.63134765625,-2.77392578125,42.224117647058826,462.8404927038888
-0.0064482421875,-0.0331767578125,0.7473681640625001,0.7481319734782159,-0.484375,0.603515625,-2.70458984375,42.31823529411765,462.8404927038888
-0.0416044921875,-0.0346416015625,0.7239306640625001,0.7259521889897206,-0.5634765625,0.5712890625,-2.44873046875,41.98882352941177,462.8404927038888
-0.0621123046875,-0.0292705078125,0.6877978515625001,0.6912167428782272,-0.64501953125,0.66064453125,-2.1923828125,42.08294117647059,462.8404927038888
-0.0635771484375,-0.0224345703125,0.6624072265625001,0.6658293306477071,-0.693359375,0.72216796875,-1.95751953125,41.94176470588236,462.5490231645449
-0.0479521484375,-0.0146220703124999,0.6233447265625001,0.6253573871101817,-0.68701171875,0.64697265625,-1.6552734375,42.27117647058824,462.5490231645449
-0.0494169921875,-0.0077861328124999,0.6160205078125001,0.6180484843655907,-0.716796875,0.5634765625,-1.3330078125,41.98882352941177,462.5490231645449
-0.0860380859375,-0.0165751953125,0.6418994140625001,0.6478519484459525,-0.6640625,0.564453125,-0.8896484375,42.31823529411765,462.5490231645449
-0.0523466796875,0.0112568359375,0.6292041015625001,0.6314781806624061,-0.68310546875,0.3759765625,-0.6650390625,42.08294117647059,462.5490231645449
-0.1055693359375,0.0161396484375,0.6751025390625001,0.6834974844069327,-0.56494140625,0.50537109375,-0.5068359375,42.224117647058826,462.8184029025376
-0.1031279296875,0.0112568359375,0.6687548828125001,0.6767534111642988,-0.52099609375,0.478515625,-0.26171875,42.224117647058826,462.8184029025376
-0.1080107421875,0.0039326171875,0.6990283203125001,0.7073347004811464,-0.5029296875,0.53564453125,-0.1181640625,42.31823529411765,462.8184029025376
-0.1119169921875,-0.0009501953124999,0.7322314453125001,0.7407355840756279,-0.48193359375,0.44091796875,0.1796875,41.94176470588236,462.8184029025376
-0.1465849609375,-0.0097392578124999,0.7839892578125001,0.7976347286077641,-0.4814453125,0.57177734375,0.36083984375,42.08294117647059,462.547899042572
-0.1651396484375,-0.0053447265624999,0.8440478515625001,0.8600676981001909,-0.46044921875,0.77783203125,0.5380859375,41.98882352941177,462.547899042572
-0.1607451171875,0.0146748046875,0.8621142578125001,0.8770948273224721,-0.4052734375,0.7666015625,0.6416015625,41.98882352941177,462.547899042572
-0.1563505859375,0.0127216796875,0.8557666015625001,0.8700251853865505,-0.36962890625,0.54150390625,0.55859375,41.94176470588236,462.547899042572
-0.1666044921875,-0.0097392578124999,0.8455126953125001,0.8618257526289185,-0.3671875,0.4365234375,0.56591796875,42.224117647058826,462.547899042572
-0.1675810546875,-0.0238994140625,0.8572314453125001,0.8737850666584223,-0.421875,0.349609375,0.5537109375,41.94176470588236,462.2476404916557
-0.1617216796875,-0.0234111328125,0.8806689453125001,0.8957007167901241,-0.5517578125,0.2236328125,0.52734375,41.98882352941177,462.2476404916557
-0.1558623046875,-0.0033916015624999,0.9221728515625,0.9352578944561604,-0.65185546875,0.11474609375,0.5380859375,42.224117647058826,462.2476404916557
-0.1548857421875,0.0063740234375,0.9226611328125,0.9355927465038408,-0.626953125,-0.01611328125,0.6591796875,42.224117647058826,462.2476404916557
-0.1587919921875,0.0254169921875,0.9558642578125,0.969297374203694,-0.82568359375,-0.134765625,0.720703125,41.89470588235295,462.6019994577639
-0.1519560546875,0.0288349609375,0.9993212890625,1.0112196281233838,-0.88427734375,-0.3525390625,0.96240234375,41.94176470588236,462.6019994577639
-0.1392607421875,0.0522724609375,1.0252001953125005,1.0359350389652164,-0.92333984375,-0.5595703125,1.12255859375,41.98882352941177,462.6019994577639
-0.1290068359375,0.0913349609375,1.0217822265625005,1.033936050888584,-0.86083984375,-0.63671875,0.70556640625,41.98882352941177,462.6019994577639
-0.1802763671875,0.1220966796875,1.0369189453125005,1.0595320037191054,-0.6865234375,-0.513671875,0.44091796875,42.224117647058826,462.6019994577639
-0.2344755859375,0.1631123046875,1.0706103515625005,1.1080572860705271,-0.63916015625,-0.3427734375,0.4775390625,42.27117647058824,462.6130443182771
-0.2564482421875,0.1924091796875,1.1043017578125005,1.1498997198264087,-0.501953125,-0.30517578125,0.490234375,42.224117647058826,462.6130443182771
-0.3409208984375,0.1533466796875,1.2293017578125005,1.2848832923357345,-0.2236328125,0.0126953125,0.54443359375,42.224117647058826,462.6130443182771
-0.4268583984375,0.0693623046875,1.4207080078125005,1.485069178553899,0.025390625,0.19775390625,0.9130859375,42.224117647058826,462.6130443182771
-0.3711943359375,-0.0175517578125,1.6453173828125005,1.6867609757815023,0.212890625,0.17626953125,1.0439453125,41.94176470588236,461.9043412313108
-0.1700224609375,-0.0678447265625,1.8806689453125005,1.8895571507653364,0.17724609375,-0.8681640625,0.42138671875,41.98882352941177,461.9043412313108
-0.0709013671875,-0.1020244140625,1.8152392578125005,1.8194860670083544,0.38330078125,-1.7119140625,0.2978515625,41.94176470588236,461.9043412313108
-0.0440458984375,-0.1113017578125,1.5789111328125005,1.5834419748701154,0.078125,-1.3505859375,0.40869140625,41.89470588235295,461.9043412313108
0.1351533203125,-0.1005595703125,1.6003955078125005,1.6092372194923157,-0.392578125,-0.58935546875,0.1015625,42.224117647058826,461.9043412313108
0.2596650390625,-0.1708720703125,1.6140673828125005,1.6437264715223772,-0.25390625,0.25732421875,0.34716796875,41.94176470588236,461.9992375657501
0.4608369140625,-0.1186259765625,1.3674853515625005,1.447915387864937,-0.64794921875,0.3759765625,-0.58251953125,41.98882352941177,461.9992375657501
0.4832978515625,-0.0356181640625,1.2537158203125005,1.3441163733241095,-1.02490234375,0.52734375,-1.81591796875,42.224117647058826,461.9992375657501
0.4583955078125,-0.2143291015625,1.1941455078125005,1.2969375078191094,-1.34326171875,0.2734375,-2.60693359375,42.13,461.9992375657501
0.4290986328125,-0.1991923828125,1.0789111328125005,1.1780715065558758,-1.4013671875,-0.26025390625,-3.0,41.94176470588236,463.2600198390586
0.2469697265625,-0.1908916015625,0.9358447265625,0.9865287637065088,-1.4033203125,-1.3857421875,-2.693359375,42.08294117647059,463.2600198390586
0.0667939453125,-0.1801494140625,0.8474658203125001,0.8689727033200813,-0.98193359375,-3.119140625,-1.392578125,42.08294117647059,463.2600198390586
-0.0240263671875,-0.1918681640625,0.8132861328125001,0.835957530336353,-0.552734375,-4.6669921875,-0.11962890625,42.224117647058826,463.2600198390586
-0.0459990234375,-0.1864970703125,0.8982470703125001,0.9185558593342804,-0.337890625,-5.6123046875,0.82861328125,42.224117647058826,463.2600198390586
0.0252900390625,-0.1606181640625,1.0061572265625005,1.0192105500172834,-0.0400390625,-6.14404296875,0.75537109375,42.08294117647059,463.2909123641371
-0.0689482421875,-0.1762431640625,1.0603564453125005,1.077112484420856,0.146484375,-5.58740234375,0.43408203125,42.224117647058826,463.2909123641371
-0.1104521484375,-0.1738017578125,1.1697314453125005,1.187719824818145,0.0966796875,-2.69189453125,0.59033203125,42.31823529411765,463.2909123641371
-0.0215849609375,-0.1435283203125,1.2043994140625005,1.2131134480601948,0.259765625,1.00244140625,1.158203125,42.224117647058826,463.2909123641371
0.0907197265625,-0.1161845703125,1.1228564453125005,1.132490847621339,0.39404296875,3.58203125,1.84814453125,42.224117647058826,463.02039846340887
0.1346650390625,-0.0614970703125,1.0559619140625005,1.0662889506851625,0.70751953125,4.30419921875,2.1337890625,41.98882352941177,463.02039846340887
0.2298798828125,0.0278583984375,0.9085009765625,0.937547265635396,0.8828125,3.80908203125,1.69482421875,42.224117647058826,463.02039846340887
0.1781220703125,0.0386005859375,0.7996142578125001,0.8201222094689089,0.9384765625,1.8828125,0.8486328125,41.94176470588236,463.02039846340887
0.0677705078125,0.0044208984375,0.8064501953125001,0.8093048273621802,1.154296875,0.462890625,1.001953125,42.224117647058826,463.02039846340887
0.0492158203125,0.0019794921875,0.7893603515625001,0.7908956188886282,0.9345703125,0.01123046875,1.6884765625,42.224117647058826,462.3547136098647
0.0926728515625,0.0083271484375,0.8157275390625001,0.8210170624309753,0.87841796875,-0.0419921875,1.70849609375,42.41235294117647,462.3547136098647
0.1087861328125,-0.0121806640624999,0.8015673828125001,0.8090074538953169,0.8408203125,-0.126953125,1.50537109375,41.94176470588236,462.3547136098647
0.1082978515625,-0.0502666015625,0.7942431640625001,0.8031670807159041,0.7265625,-0.177734375,1.09375,41.94176470588236,462.3547136098647
0.0262666015625,-0.0834697265625,0.7927783203125001,0.7975930007012164,0.66455078125,-0.19287109375,0.70849609375,42.13,462.58103364097934
-0.0079130859375,-0.0907939453125,0.7605517578125001,0.7659929071121659,0.4775390625,-0.080078125,0.23193359375,42.224117647058826,462.58103364097934
-0.0679716796875,-0.0868876953125,0.7546923828125001,0.7627124055051596,0.43115234375,-0.00830078125,-0.001953125,42.31823529411765,462.58103364097934
-0.0826201171875,-0.1005595703125,0.7566455078125001,0.7677569507587326,0.44384765625,0.21435546875,-0.27734375,42.13,462.58103364097934
-0.0679716796875,-0.1078837890625,0.7390673828125001,0.7499864382236127,0.45361328125,0.38818359375,-0.40283203125,41.98882352941177,462.58103364097934
-0.0606474609375,-0.1078837890625,0.7288134765625001,0.7392469885496764,0.5087890625,0.37646484375,-0.4921875,41.94176470588236,462.45411828421146
-0.0655302734375,-0.1137431640625,0.7092822265625001,0.7213272496067232,0.61474609375,0.55810546875,-0.330078125,41.94176470588236,462.45411828421146
-0.0245146484375,-0.1015361328125,0.6834033203125001,0.691339751836014,0.62646484375,0.53369140625,-0.22998046875,42.27117647058824,462.45411828421146
-0.0210966796875,-0.0859111328125,0.6804736328125001,0.6861997942203168,0.65771484375,0.58837890625,-0.24560546875,42.27117647058824,462.45411828421146
-0.0040068359375,-0.0614970703125,0.6951220703125001,0.6978485774340927,0.5869140625,0.71728515625,-0.255859375,42.31823529411765,462.3447938898231
-0.0328154296875,-0.0600322265625,0.7112353515625001,0.7145183314400406,0.548828125,0.796875,-0.17236328125,42.224117647058826,462.3447938898231
-0.0743193359375,-0.0697978515625,0.7361376953125001,0.74316472617915,0.5,0.7919921875,0.02880859375,42.224117647058826,462.3447938898231
-0.0709013671875,-0.0693095703125,0.7717822265625001,0.7781250706947632,0.42724609375,0.81982421875,-0.064453125,42.08294117647059,462.3447938898231
-0.0933623046875,-0.0746806640625,0.7756884765625001,0.7848479688406091,0.421875,0.72607421875,-0.130859375,42.08294117647059,462.3447938898231
-0.0958037109375,-0.0859111328125,0.7864306640625001,0.7968891159680297,0.412109375,0.6259765625,-0.4033203125,42.31823529411765,462.0014915282144
-0.1187529296875,-0.1059306640625,0.8230517578125001,0.8382945543997843,0.4228515625,0.556640625,-0.5498046875,42.224117647058826,462.0014915282144
-0.1534208984375,-0.1279033203125,0.8538134765625001,0.8768664004191713,0.44775390625,0.470703125,-0.48095703125,42.224117647058826,462.0014915282144
-0.1705107421875,-0.1327861328125,0.8757861328125001,0.9020573267233656,0.48388671875,0.427734375,-0.33349609375,41.98882352941177,462.0014915282144
-0.1709990234375,-0.1235087890625,0.8918994140625001,0.9165040380692792,0.5107421875,0.51318359375,-0.2109375,42.08294117647059,462.087597468812
-0.1758818359375,-0.1171611328125,0.9099658203125,0.9341835715702,0.5576171875,0.6669921875,-0.03466796875,42.31823529411765,462.087597468812
-0.1729521484375,-0.1113017578125,0.9631884765625,0.984902314102312,0.6044921875,0.8291015625,0.1162109375,42.224117647058826,462.087597468812
-0.1631865234375,-0.1030009765625,1.0261767578125005,1.0441636753301762,0.67578125,0.9814453125,0.15966796875,41.98882352941177,462.087597468812
-0.1534208984375,-0.0956767578125,1.0911181640625005,1.1059976772172728,0.689453125,1.01904296875,0.09228515625,41.94176470588236,462.087597468812
-0.1475615234375,-0.1093486328125,1.1252978515625005,1.1401871694718977,0.6689453125,0.884765625,-0.02587890625,41.98882352941177,462.054462400779
-0.1539091796875,-0.1137431640625,1.1511767578125005,1.1669762082796409,0.6337890625,0.80126953125,-0.18359375,42.27117647058824,462.054462400779
-0.1709990234375,-0.1293681640625,1.1506884765625005,1.170495945308316,0.5166015625,0.94384765625,-0.2890625,41.89470588235295,462.054462400779
-0.1690458984375,-0.1362041015625,1.1716845703125005,1.1916261181131345,0.44775390625,1.2041015625,-0.34814453125,41.80058823529412,462.054462400779
-0.1358427734375,-0.1327861328125,1.1614306640625005,1.1768630351859777,0.25048828125,1.44970703125,-0.5224609375,41.89470588235295,462.3337489482228
-0.1514677734375,-0.1459697265625,1.1375048828125005,1.1567916864695755,0.32421875,1.74169921875,-0.67919921875,42.13,462.3337489482228
-0.2276396484375,-0.1313212890625,1.1897509765625005,1.2184303331472048,0.28857421875,2.046875,-0.630859375,42.45941176470589,462.3337489482228
-0.2183623046875,-0.1049541015625,1.3523486328125005,1.373879282984159,0.35595703125,2.4326171875,-0.48291015625,42.224117647058826,462.3337489482228
-0.0596708984375,-0.0746806640625,1.4563525390625005,1.4594863945028558,0.28662109375,2.33447265625,-0.90576171875,42.13,462.3337489482228
0.0169892578125,-0.0351298828125,1.5335009765625005,1.5339973887414482,0.0849609375,1.86962890625,-1.38427734375,41.98882352941177,461.8281537597576
0.0384736328125,0.0005146484375,1.5515673828125005,1.5520444029384073,-0.01708984375,1.21337890625,-1.451171875,42.224117647058826,461.8281537597576
0.0477509765625,0.0024677734375,1.4944384765625005,1.495203198865913,0.0947265625,0.80810546875,-0.98974609375,41.94176470588236,461.8281537597576
0.1590791015625,0.0195576171875,1.4666064453125005,1.4753383091264705,0.22509765625,0.55615234375,0.02587890625,42.224117647058826,461.8281537597576
0.2469697265625,0.0161396484375,1.4915087890625005,1.511903767420641,0.1572265625,0.462890625,0.40283203125,42.08294117647059,462.2266764577505
0.3431611328125,0.0376240234375,1.4260791015625005,1.4672684601415285,0.13671875,0.41064453125,0.3681640625,42.224117647058826,462.2266764577505
0.1732392578125,0.0796162109375,1.3538134765625005,1.367172816733025,0.26318359375,0.7177734375,0.68994140625,41.94176470588236,462.2266764577505
0.1092744140625,0.1064716796875,1.3093798828125005,1.3182385192590365,0.29443359375,0.8193359375,1.30712890625,42.224117647058826,462.2266764577505
0.1371064453125,0.1318623046875,1.2366259765625005,1.251171311472928,0.40283203125,0.470703125,1.82470703125,42.27117647058824,462.2266764577505
0.1761689453125,0.1577412109375,1.1760791015625005,1.1996165387541993,0.48486328125,0.06591796875,1.82373046875,41.94176470588236,463.0115970658676
0.1405244140625,0.1836201171875,1.2312548828125005,1.2527777316161013,0.556640625,-0.01513671875,1.22119140625,41.98882352941177,463.0115970658676
0.0155244140625,0.1137958984375,1.2820361328125005,1.2871702139849308,0.62744140625,0.0390625,0.7373046875,41.33,463.0115970658676
-0.0665068359375,0.0635029296875,1.2590869140625005,1.2624403504596735,0.75537109375,0.142578125,0.4521484375,42.31823529411765,463.0115970658676
-0.0889677734375,0.0058857421875,1.2249072265625005,1.2281480449671205,0.71826171875,0.62353515625,0.23046875,41.98882352941177,463.0115970658676
-0.0582060546875,-0.0478251953125,1.1350634765625005,1.137560675276318,0.59814453125,1.083984375,0.1376953125,42.224117647058826,463.0877889131361
-0.0367216796875,-0.0863994140625,1.0681689453125005,1.072286452511377,0.34375,1.34326171875,0.22412109375,42.224117647058826,463.0877889131361
0.0462861328125,-0.0956767578125,1.0418017578125005,1.0472093155895166,0.0849609375,1.53173828125,0.11279296875,42.224117647058826,463.0877889131361
0.0853486328125,-0.1156962890625,0.9866259765625,0.997046056134672,0.0595703125,1.40185546875,-0.01708984375,42.224117647058826,463.0877889131361
0.0980439453125,-0.0868876953125,0.9255908203125,0.9348157323536682,0.0615234375,1.38525390625,-0.21923828125,42.08294117647059,463.1662260614831
0.0941376953125,-0.0619853515625,0.8381884765625001,0.8457328252641259,-0.025390625,1.4423828125,-0.44970703125,42.224117647058826,463.1662260614831
0.0404267578125,-0.0439189453125,0.8084033203125001,0.8106041726988996,0.1162109375,2.0234375,-0.609375,42.224117647058826,463.1662260614831
0.0033173828125,-0.0400126953125,0.7229541015625001,0.7240681278587929,-0.20703125,2.73046875,-0.5810546875,42.13,463.1662260614831
-0.0352568359375,-0.0409892578125,0.6360400390625001,0.6383338429277975,-0.51708984375,2.21923828125,-0.10107421875,42.45941176470589,463.1662260614831
-0.0630888671875,-0.0141337890624999,0.5901416015625001,0.5936725352001875,-0.3564453125,1.33740234375,0.3662109375,42.27117647058824,462.691483207012
-0.0718779296875,0.0302998046875,0.6013720703125001,0.6064098299765632,-0.52587890625,1.03173828125,0.6865234375,42.506470588235295,462.691483207012
-0.0425810546875,0.0366474609375,0.5544970703125001,0.5573357907012711,-0.51220703125,0.55908203125,0.994140625,42.08294117647059,462.691483207012
-0.0464873046875,0.0488544921875,0.5466845703125001,0.5508283310812633,-0.47900390625,0.38427734375,1.21044921875,41.94176470588236,462.691483207012
-0.0450224609375,0.0718037109375,0.5662158203125001,0.5725234930248908,-0.396484375,0.2177734375,1.08837890625,42.224117647058826,462.6263378513806
-0.0723662109375,0.0781513671875,0.6130908203125001,0.6222739417894505,-0.30908203125,0.42578125,0.83642578125,42.27117647058824,462.6263378513806
-0.0523466796875,0.0903583984375,0.6282275390625001,0.6368474353242076,-0.22412109375,0.3984375,0.3017578125,42.13,462.6263378513806
-0.0718779296875,0.0747333984375,0.6189501953125001,0.6275753834365727,-0.20849609375,0.2939453125,-0.07177734375,41.98882352941177,462.6263378513806
-0.1182646484375,0.0439716796875,0.6350634765625001,0.6474763740463698,-0.11181640625,0.3603515625,0.01953125,42.224117647058826,462.6263378513806
-0.1290068359375,0.0176044921875,0.6399462890625001,0.6530573747754861,-0.07275390625,0.353515625,0.4755859375,42.224117647058826,462.636258250013
-0.0811552734375,0.0259052734375,0.6047900390625001,0.6107603891443906,-0.11181640625,0.1103515625,0.7021484375,42.13,462.636258250013
-0.1387724609375,0.0132099609375,0.6326220703125001,0.6477985665537506,-0.10009765625,0.21875,0.86279296875,41.80058823529412,462.636258250013
-0.1788115234375,0.0058857421875,0.6663134765625001,0.6899143801399871,0.04931640625,0.0546875,1.38525390625,41.98882352941177,462.636258250013
-0.1846708984375,0.0302998046875,0.7131884765625001,0.7373325043664858,0.27685546875,-0.4541015625,1.9560546875,42.31823529411765,462.70027961012784
-0.1548857421875,0.0595966796875,0.7844775390625001,0.8018393646213084,0.3369140625,-0.8056640625,1.88037109375,41.98882352941177,462.70027961012784
-0.0909208984375,0.0498310546875,0.8665087890625001,0.8726896500512143,0.2138671875,-0.47607421875,0.97998046875,42.08294117647059,462.70027961012784
-0.0953154296875,0.0542255859375,0.9509814453125,0.9572832154777547,0.12646484375,-0.3779296875,-0.01220703125,42.224117647058826,462.70027961012784
-0.1553740234375,0.0014912109375,0.9700244140625,0.9823902863661232,-0.0029296875,-0.9072265625,-0.40673828125,42.13,462.70027961012784
-0.1714873046875,-0.0170634765625,0.9392626953125,0.9549416048675882,-0.14892578125,-1.24560546875,-0.50146484375,42.41235294117647,462.3116591067855
-0.2076201171875,-0.0077861328124999,0.9514697265625,0.9738898179414568,-0.2138671875,-1.03515625,-0.1513671875,41.80058823529412,462.3116591067855
-0.2129912109375,0.0639912109375,0.9876025390625,1.01233339675058,-0.2734375,-0.8837890625,0.05810546875,42.27117647058824,462.3116591067855
-0.2286162109375,0.1089130859375,1.0418017578125005,1.072137274220547,-0.20068359375,-0.43994140625,0.1767578125,42.224117647058826,462.3116591067855
-0.2349638671875,0.1059833984375,1.1052783203125005,1.134936414510033,-0.05908203125,-0.09716796875,0.216796875,42.13,461.7310045108577
-0.2349638671875,0.1079365234375,1.1672900390625005,1.1955853575843145,-0.0166015625,0.11767578125,0.3935546875,42.08294117647059,461.7310045108577
-0.2149443359375,0.1206318359375,1.1716845703125005,1.1973294616360417,0.10498046875,0.2412109375,0.57177734375,41.98882352941177,461.7310045108577
-0.2071318359375,0.1318623046875,1.1433642578125005,1.1694328073469926,0.20166015625,0.349609375,0.65185546875,41.89470588235295,461.7310045108577
-0.2369169921875,0.1313740234375,1.1267626953125005,1.1588714194289285,0.2919921875,0.75634765625,0.51171875,42.08294117647059,461.7310045108577
-0.2784208984375,0.1035419921875,1.1570361328125005,1.1945592297858685,0.2783203125,1.15283203125,0.30615234375,41.98882352941177,462.31391041743336
-0.3116240234375,0.0840107421875,1.1819384765625005,1.2252125934568066,0.26123046875,1.35400390625,0.2568359375,42.27117647058824,462.31391041743336
-0.3023466796875,0.0503193359375,1.1716845703125005,1.2111111768106324,0.376953125,1.4501953125,0.2548828125,42.08294117647059,462.31391041743336
-0.3130888671875,0.0044208984375,1.1550830078125005,1.1967710466237556,0.30908203125,1.47802734375,0.0595703125,42.27117647058824,462.31391041743336
-0.3204130859375,-0.0199931640625,1.2566455078125005,1.2970050904119683,0.01220703125,1.6259765625,-0.30078125,42.08294117647059,461.7740565429579
-0.2540068359375,-0.0414775390625,1.4221728515625005,1.4452734961491112,-0.33056640625,1.822265625,-0.6572265625,41.98882352941177,461.7740565429579
-0.1812529296875,-0.1054423828125,1.5212939453125005,1.535677696868048,-0.5322265625,1.47900390625,-0.8349609375,42.224117647058826,461.7740565429579
-0.1768583984375,-0.1279033203125,1.4363330078125005,1.452821620769922,-0.6416015625,1.10986328125,-0.8798828125,42.08294117647059,461.7740565429579
-0.1685576171875,-0.0761455078125,1.3596728515625005,1.3721953475901498,-0.76171875,1.41259765625,-0.998046875,42.27117647058824,461.7740565429579
-0.0376982421875,-0.0453837890625,1.4446337890625005,1.445838037359224,-0.7607421875,1.724609375,-0.9814453125,42.08294117647059,461.7740565429579
0.1205048828125,-0.0365947265625,1.4578173828125005,1.463247115980116,-0.6005859375,1.37939453125,-0.93017578125,42.27117647058824,461.7740565429579
0.1825166015625,-0.0126689453124999,1.2932666015625005,1.3061436807404745,-0.53466796875,1.1220703125,-1.0869140625,41.98882352941177,461.7740565429579
0.1278291015625,-0.0600322265625,1.1995166015625005,1.2078014012478944,-0.44775390625,1.18017578125,-0.806640625,41.98882352941177,461.7740565429579
0.1419892578125,-0.1093486328125,1.1965869140625005,1.2099331864767264,-0.54541015625,1.04248046875,-0.4599609375,42.224117647058826,462.7102008233456
0.1834931640625,-0.1894267578125,1.1316455078125005,1.161969790134509,-0.2998046875,0.74609375,0.12158203125,41.94176470588236,462.7102008233456
0.1932587890625,-0.2519267578125,1.0398486328125005,1.0872447884509946,-0.376953125,0.1689453125,0.68603515625,41.98882352941177,462.7102008233456
0.2225556640625,-0.2543681640625,1.0759814453125005,1.127816588436083,-0.53271484375,-0.111328125,0.6025390625,42.31823529411765,462.7102008233456
0.2381806640625,-0.2572978515625,1.1047900390625005,1.1590915596119458,-0.3896484375,-0.50439453125,0.2822265625,42.27117647058824,462.7102008233456
0.1737275390625,-0.2450908203125,1.1213916015625005,1.1609349215546392,-0.1884765625,-1.0771484375,0.3310546875,42.224117647058826,463.55150599521295
0.0482392578125,-0.1923564453125,1.1399462890625005,1.1570676600765086,0.02490234375,-1.4736328125,0.8857421875,42.224117647058826,463.55150599521295
-0.0489287109375,-0.1069072265625,1.1628955078125005,1.16882382587616,0.0478515625,-1.587890625,1.24462890625,42.08294117647059,463.55150599521295
-0.1016630859375,-0.0248759765625,1.1843798828125005,1.1889953339114605,0.18115234375,-1.24462890625,1.2509765625,42.27117647058824,463.55150599521295
-0.1182646484375,0.0205341796875,1.1785205078125005,1.1846175614687289,0.30419921875,-0.85009765625,0.9697265625,42.31823529411765,463.00167450458815
-0.1299833984375,0.0346943359375,1.1418994140625005,1.1497972224056672,0.42333984375,-0.55908203125,0.921875,42.13,463.00167450458815
-0.1216826171875,0.0654560546875,1.0618212890625005,1.0707733673972295,0.59130859375,-0.37548828125,1.22802734375,41.98882352941177,463.00167450458815
-0.1006865234375,0.0981708984375,0.9719775390625,0.982097570378804,0.6982421875,-0.49267578125,1.4853515625,42.506470588235295,463.00167450458815
-0.0938505859375,0.1089130859375,0.8870166015625001,0.8985924795015415,0.74609375,-0.4091796875,1.68310546875,41.94176470588236,463.00167450458815
-0.0606474609375,0.0849873046875,0.7971728515625001,0.8039810394185296,0.72119140625,-0.42138671875,1.70849609375,42.224117647058826,462.08647066225126
-0.0181669921875,0.0566669921875,0.7288134765625001,0.7312388605837608,0.63427734375,-0.38232421875,1.7119140625,42.27117647058824,462.08647066225126
0.0155244140625,0.0317646484375,0.7009814453125001,0.701872486278486,0.5947265625,-0.287109375,1.42822265625,41.89470588235295,462.08647066225126
0.0199189453125,-0.0116923828124999,0.6682666015625001,0.6686656316591197,0.58935546875,-0.17919921875,1.02392578125,42.224117647058826,462.08647066225126
-0.0137724609375,-0.0424541015625,0.6350634765625001,0.6366299165790146,0.5703125,-0.13232421875,0.65771484375,42.224117647058826,462.48500281429074
-0.0591826171875,-0.0561259765625,0.6130908203125001,0.6184925718015624,0.5615234375,-0.03955078125,0.357421875,41.98882352941177,462.48500281429074
-0.0645537109375,-0.0624736328125,0.5974658203125001,0.604181713422611,0.5478515625,0.03759765625,0.09130859375,42.224117647058826,462.48500281429074
-0.0606474609375,-0.0732158203125,0.5847705078125001,0.5924484936848832,0.53271484375,0.14013671875,-0.26513671875,42.224117647058826,462.48500281429074
-0.0489287109375,-0.0800517578125,0.5725634765625001,0.5801993083210399,0.5068359375,0.16943359375,-0.59814453125,41.89470588235295,462.48500281429074
-0.0567412109375,-0.0917705078125,0.5789111328125001,0.5888798611067202,0.50537109375,0.1220703125,-0.88720703125,42.08294117647059,462.645055196453
-0.0743193359375,-0.1030009765625,0.5935595703125001,0.60699714033641,0.4560546875,0.05859375,-0.98828125,42.224117647058826,462.645055196453
-0.0777373046875,-0.0947001953125,0.6218798828125001,0.6338342087479909,0.412109375,0.03857421875,-0.99365234375,41.98882352941177,462.645055196453
-0.0875029296875,-0.0751689453125,0.6594775390625001,0.6694906702645083,0.3642578125,0.01806640625,-0.93701171875,42.224117647058826,462.645055196453
-0.0757841796875,-0.0468486328125,0.6960986328125001,0.7017772744188425,0.26025390625,0.04150390625,-1.04541015625,41.94176470588236,462.2045865269275
-0.1285185546875,-0.0600322265625,0.7322314453125001,0.7458443380689084,0.3134765625,-0.11328125,-0.759765625,42.08294117647059,462.2045865269275
-0.0513701171875,-0.0116923828124999,0.7800830078125001,0.7818600257293428,0.072265625,-0.01025390625,-0.99951171875,42.13,462.2045865269275
-0.1021513671875,-0.0102275390624999,0.8201220703125001,0.8265226642913138,0.1220703125,-0.18994140625,-1.2294921875,41.94176470588236,462.2045865269275
-0.1285185546875,-0.0400126953125,0.8723681640625001,0.8826914797112929,0.16162109375,-0.33740234375,-0.93017578125,42.08294117647059,462.2045865269275
-0.1099638671875,-0.0409892578125,0.9011767578125,0.9087858494520584,0.177734375,-0.47119140625,-0.92236328125,41.80058823529412,461.6669910505961
-0.1314482421875,-0.0585673828125,0.9314501953125,0.9425010583821029,0.19287109375,-0.6005859375,-0.9619140625,41.94176470588236,461.6669910505961
-0.1753935546875,-0.0815166015625,0.9622119140625,0.9814579068508422,0.19580078125,-0.65966796875,-0.76904296875,42.224117647058826,461.6669910505961
-0.1998076171875,-0.0790751953125,0.9968798828125,1.0197771674028209,0.2099609375,-0.63671875,-0.56787109375,42.08294117647059,461.6669910505961
-0.2349638671875,-0.0888408203125,0.9954150390625,1.0266215516095996,0.24462890625,-0.51708984375,-0.41845703125,42.27117647058824,461.988192640501
-0.2647490234375,-0.0942119140625,1.0037158203125005,1.0423115552021982,0.28466796875,-0.30078125,-0.25537109375,42.224117647058826,461.988192640501
-0.2662138671875,-0.0888408203125,1.0144580078125005,1.0525623801236812,0.31201171875,-0.0302734375,-0.15234375,41.98882352941177,461.988192640501
-0.2491240234375,-0.0810283203125,1.0471728515625005,1.0794439998424612,0.34912109375,0.2255859375,-0.1044921875,42.224117647058826,461.988192640501
-0.2271513671875,-0.0566142578125,1.0774462890625005,1.1025848827266604,0.38134765625,0.3544921875,-0.10205078125,41.94176470588236,461.988192640501
-0.2291044921875,-0.0707744140625,1.0999072265625005,1.1257414414823652,0.39013671875,0.3583984375,-0.1240234375,42.08294117647059,462.0312459249067
-0.2261748046875,-0.1005595703125,1.1047900390625005,1.132178563597008,0.3251953125,0.22998046875,-0.25927734375,42.08294117647059,462.0312459249067
-0.2276396484375,-0.1303447265625,1.1194384765625005,1.1497617405758347,0.248046875,0.25,-0.46240234375,42.224117647058826,462.0312459249067
-0.2452177734375,-0.1435283203125,1.1624072265625005,1.1966297236430727,0.15478515625,0.74169921875,-0.6298828125,42.08294117647059,462.0312459249067
-0.2134794921875,-0.0336650390625,1.2234423828125005,1.2423840358366012,0.080078125,1.01318359375,-0.60791015625,42.224117647058826,462.2796496987938
-0.2095732421875,-0.1464580078125,1.3098681640625005,1.3345881383849671,0.02001953125,1.0986328125,-0.87451171875,42.224117647058826,462.2796496987938
-0.2276396484375,-0.1117900390625,1.4246142578125005,1.4470116122329513,-0.03271484375,0.8681640625,-0.75390625,42.08294117647059,462.2796496987938
-0.2164091796875,-0.0580791015625,1.5579150390625005,1.5739458008547929,-0.03173828125,0.771484375,-0.54345703125,42.13,462.2796496987938
-0.1016630859375,0.0146748046875,1.6663134765625005,1.6694763655436269,-0.03955078125,0.4609375,-0.4130859375,41.94176470588236,462.2796496987938
0.0052705078125,0.0918232421875,1.6272509765625005,1.6298481606524078,-0.060546875,0.232421875,-0.13427734375,42.13,461.9120048226943
0.1087861328125,0.1504169921875,1.5017626953125005,1.513192283638566,0.0771484375,0.2822265625,0.42919921875,41.80058823529412,461.9120048226943
0.2435517578125,0.1523701171875,1.3918994140625005,1.4212382243004944,0.26123046875,0.45849609375,1.0966796875,41.94176470588236,461.9120048226943
0.2450166015625,0.1074482421875,1.3655322265625005,1.391494348379166,0.5517578125,0.6533203125,1.380859375,41.89470588235295,461.9120048226943
0.2093720703125,0.0879169921875,1.3767626953125005,1.3953643182145583,0.72021484375,0.7041015625,1.8251953125,41.94176470588236,462.2045865269275
0.2972626953125,0.1094013671875,1.2898486328125005,1.328172904683431,0.6416015625,0.67333984375,1.490234375,41.98882352941177,462.2045865269275
0.3216767578125,0.1430927734375,1.1682666015625005,1.2201632393467652,0.45947265625,0.46728515625,0.93408203125,41.89470588235295,462.2045865269275
0.2435517578125,0.1987568359375,1.1179736328125005,1.1613297474143267,0.30126953125,0.02978515625,0.80615234375,41.98882352941177,462.2045865269275
0.1864228515625,0.2236591796875,1.0584033203125005,1.0977224133139052,0.26025390625,-0.49462890625,0.7529296875,42.224117647058826,462.2045865269275
0.1092744140625,0.1924091796875,1.0535205078125005,1.0765071529619428,0.33056640625,-0.69873046875,0.41162109375,42.08294117647059,463.0645774634325
0.0052705078125,0.1094013671875,1.1062548828125005,1.111663754532635,0.1884765625,-0.5888671875,-0.1396484375,42.08294117647059,463.0645774634325
-0.0533232421875,0.0425068359375,1.1497119140625005,1.1517324709306682,0.00146484375,-0.43798828125,-0.626953125,42.08294117647059,463.0645774634325
-0.0953154296875,-0.0077861328124999,1.1609423828125005,1.1648746160900976,-0.0771484375,-0.21484375,-1.18359375,41.98882352941177,463.0645774634325
-0.0904326171875,-0.0683330078125,1.1492236328125005,1.1547997300063957,-0.0849609375,0.091796875,-1.37255859375,41.98882352941177,463.2047957905515
-0.0938505859375,-0.0815166015625,1.1296923828125005,1.1365112267794348,-0.0634765625,0.14599609375,-0.7216796875,42.31823529411765,463.2047957905515
0.0062470703125,-0.0712626953125,1.1165087890625005,1.1187981380412206,-0.0927734375,0.23876953125,-0.96240234375,42.27117647058824,463.2047957905515
0.0301728515625,-0.1181376953125,0.9983447265625,1.005762948751004,-0.05859375,0.20068359375,-1.0341796875,41.94176470588236,463.2047957905515
0.0560517578125,-0.1020244140625,0.9397509765625,0.9469333020698132,-0.091796875,0.181640625,-1.203125,42.08294117647059,463.2047957905515
0.0291962890625,-0.0893291015625,0.8923876953125001,0.8973226345223551,-0.21630859375,0.2275390625,-1.39208984375,42.08294117647059,462.645055196453
0.0125947265625,-0.0707744140625,0.8440478515625001,0.847103547714414,-0.27734375,0.279296875,-1.40185546875,42.08294117647059,462.645055196453
-0.0176787109375,-0.0419658203125,0.7957080078125001,0.7970099752147713,-0.42138671875,0.244140625,-1.31884765625,41.98882352941177,462.645055196453
-0.0552763671875,-0.0361064453125,0.7512744140625001,0.75417000562705,-0.4765625,0.2587890625,-1.03857421875,42.08294117647059,462.645055196453
-0.0572294921875,-0.0312236328125,0.7004931640625001,0.7035202931830336,-0.564453125,0.28125,-0.7734375,42.08294117647059,462.7532569022427
-0.0391630859375,-0.0351298828125,0.6287158203125001,0.6309131783992056,-0.63623046875,0.306640625,-0.54833984375,42.13,462.7532569022427
-0.0381865234375,-0.0258525390625,0.5964892578125001,0.598269169382752,-0.609375,0.2060546875,-0.3564453125,42.31823529411765,462.7532569022427
-0.0425810546875,-0.0199931640625,0.5613330078125001,0.5633006466243032,-0.5830078125,0.0947265625,-0.18310546875,42.224117647058826,462.7532569022427
-0.0455107421875,-0.0092509765624999,0.5422900390625001,0.5442750175124933,-0.4423828125,-0.0732421875,0.0322265625,42.13,462.7532569022427
-0.0459990234375,0.0024677734375,0.5193408203125001,0.5213797921916451,-0.33642578125,-0.32958984375,0.1962890625,42.08294117647059,462.8702589387099
-0.0503935546875,-0.0004619140624999,0.5134814453125001,0.5159485617761301,-0.25537109375,-0.50244140625,0.35498046875,42.27117647058824,462.8702589387099
-0.0801787109375,0.0078388671875,0.5374072265625001,0.5434119990283438,-0.20947265625,-0.54296875,0.4716796875,42.27117647058824,462.8702589387099
-0.0918974609375,-0.0024150390624999,0.5984423828125001,0.6054620229929666,-0.1513671875,-0.4169921875,0.7998046875,42.41235294117647,462.8702589387099
-0.0875029296875,-0.0004619140624999,0.6023486328125001,0.6086713822084826,-0.1064453125,-0.45263671875,1.11572265625,41.98882352941177,462.4838781733629
-0.0865263671875,2.6367187500001e-05,0.6375048828125001,0.643350051312405,-0.1142578125,-0.34765625,1.248046875,41.94176470588236,462.4838781733629
-0.0738310546875,-0.0053447265624999,0.6565478515625001,0.6607077055170699,-0.0791015625,-0.32177734375,1.29150390625,42.224117647058826,462.4838781733629
-0.0816435546875,-0.0185283203125,0.6980517578125001,0.703054212177649,-0.0810546875,-0.41796875,1.4423828125,42.08294117647059,462.4838781733629
-0.0899443359375,-0.0102275390624999,0.7449267578125001,0.7504068633931568,-0.14306640625,-0.37646484375,1.58251953125,42.224117647058826,462.4838781733629
-0.0875029296875,0.0014912109375,0.8108447265625001,0.8155538958328696,-0.15185546875,-0.50048828125,1.64501953125,42.224117647058826,462.3988933259482
-0.0630888671875,0.0312763671875,0.8767626953125001,0.8795858344693195,-0.19091796875,-0.57275390625,1.22021484375,42.08294117647059,462.3988933259482
-0.1016630859375,0.0127216796875,0.8899462890625001,0.8958245484426746,-0.20263671875,-0.62744140625,1.06591796875,42.224117647058826,462.3988933259482
-0.1421904296875,0.0117451171875,0.9578173828125,0.9683853597046226,-0.22998046875,-0.486328125,0.81884765625,42.224117647058826,462.3988933259482
-0.1607451171875,0.0322529296875,1.0256884765625005,1.0387088596551743,-0.32958984375,-0.38720703125,0.869140625,42.13,462.0003643253134
-0.1221708984375,0.0547138671875,1.0774462890625005,1.0857300960654035,-0.3525390625,-0.474609375,1.11181640625,42.224117647058826,462.0003643253134
-0.1426787109375,0.0840107421875,1.0994189453125005,1.1118169978327062,-0.3408203125,-0.36181640625,1.01806640625,42.08294117647059,462.0003643253134
-0.2046904296875,0.0864521484375,1.1848681640625005,1.2055225888318946,-0.41064453125,-0.0576171875,0.982421875,42.27117647058824,462.0003643253134
-0.1944365234375,0.0903583984375,1.2468798828125005,1.2651796884147193,-0.40966796875,0.06640625,1.19970703125,41.80058823529412,462.0003643253134
-0.1861357421875,0.1142841796875,1.2566455078125005,1.2754863074732996,-0.35546875,0.13427734375,1.27734375,42.224117647058826,462.2796496987938
-0.2271513671875,0.1396748046875,1.3123095703125005,1.3391277769553662,-0.26025390625,0.38037109375,1.37890625,42.13,462.2796496987938
-0.2618193359375,0.1445576171875,1.3767626953125005,1.4088725238863244,-0.1025390625,0.58984375,1.51806640625,42.45941176470589,462.2796496987938
-0.2745146484375,0.1318623046875,1.4685595703125005,1.4998043776308625,0.0693359375,0.77880859375,1.59033203125,42.13,462.2796496987938
-0.2544951171875,0.1084248046875,1.6028369140625005,1.626533084823423,0.2744140625,0.99609375,1.73779296875,42.224117647058826,461.5687144408464
-0.1968779296875,0.0840107421875,1.7551806640625005,1.7681849132655243,0.50927734375,0.91650390625,1.9990234375,41.98882352941177,461.5687144408464
-0.0762724609375,0.0469013671875,1.8005908203125005,1.8028157223452324,0.8720703125,0.53271484375,1.91455078125,42.45941176470589,461.5687144408464
0.0086884765625,-0.0502666015625,1.6809619140625005,1.6817357632476884,1.02392578125,0.45361328125,1.6953125,42.224117647058826,461.5687144408464
0.1493134765625,-0.1025126953125,1.5613330078125005,1.5718028274145084,0.6396484375,0.57470703125,0.64794921875,42.224117647058826,461.5687144408464
0.2904267578125,-0.1459697265625,1.5154345703125005,1.5499021903411982,0.24560546875,0.73486328125,-0.12646484375,41.98882352941177,461.589676025048
0.3788056640625,-0.1088603515625,1.5232470703125005,1.573412197894677,-0.158203125,0.68603515625,-1.17724609375,42.224117647058826,461.589676025048
0.3265595703125,-0.0863994140625,1.4275439453125005,1.466965482726641,-0.216796875,0.43408203125,-1.82421875,42.224117647058826,461.589676025048
0.2538056640625,-0.1127666015625,1.2952197265625005,1.324661376207067,-0.2451171875,0.240234375,-2.0419921875,42.224117647058826,461.589676025048
0.1942353515625,-0.1572001953125,1.1389697265625005,1.1660580222393535,-0.3720703125,0.2421875,-2.45703125,42.27117647058824,462.45186804006335
0.1214814453125,-0.2094462890625,1.0120166015625005,1.0405782485692168,-0.49755859375,0.47216796875,-2.6494140625,41.94176470588236,462.45186804006335
0.0277314453125,-0.2431376953125,0.9744189453125,1.0046776860888864,-0.5166015625,0.63037109375,-2.26171875,42.08294117647059,462.45186804006335
-0.0093779296875,-0.3017314453125,0.9695361328125,1.015445775748076,-0.392578125,0.458984375,-1.212890625,42.224117647058826,462.45186804006335
0.0443330078125,-0.3598369140625,0.9573291015625,1.0236830705849296,-0.29638671875,-0.08251953125,-0.2197265625,41.98882352941177,462.45186804006335
0.0848603515625,-0.3354228515625,0.9895556640625,1.0482987078575483,-0.1201171875,0.01953125,0.30908203125,41.94176470588236,463.5713557905788
0.0667939453125,-0.3002666015625,0.9915087890625,1.038128673109691,-0.05810546875,0.28271484375,0.90771484375,41.94176470588236,463.5713557905788
0.0584931640625,-0.2216533203125,0.9377978515625,0.9654099932375048,-0.16064453125,0.19580078125,1.365234375,42.08294117647059,463.5713557905788
0.0414033203125,-0.1122783203125,0.9451220703125,0.9526680344888676,-0.14794921875,0.25244140625,1.3515625,42.41235294117647,463.5713557905788
0.0487275390625,-0.0292705078125,0.9480517578125,0.9497543214863832,-0.10107421875,0.44189453125,1.08056640625,42.224117647058826,463.3450156795524
-0.0025419921874999,-0.0053447265624999,0.9710009765625,0.9710190133625798,0.07470703125,0.67578125,1.19970703125,42.13,463.3450156795524
-0.0181669921875,0.0117451171875,0.9270556640625,0.9273080349340512,0.23681640625,0.7138671875,1.61181640625,42.08294117647059,463.3450156795524
-0.0108427734375,0.0620380859375,0.8826220703125001,0.8848660965622591,0.3486328125,0.82421875,1.4658203125,41.94176470588236,463.3450156795524
0.0116181640625,0.0527607421875,0.8181689453125001,0.8199506696906391,0.6240234375,0.921875,1.5751953125,42.27117647058824,463.3450156795524
0.0702119140625,0.0302998046875,0.7322314453125001,0.7362137465063073,0.41650390625,0.69580078125,1.86181640625,41.94176470588236,462.49492306465527
0.0746064453125,-0.0165751953125,0.7527392578125001,0.7566090463600921,0.4326171875,0.43798828125,2.091796875,42.224117647058826,462.49492306465527
0.0863251953125,-0.0385478515625,0.7180712890625001,0.7242681495010714,0.4404296875,0.1123046875,2.16259765625,42.08294117647059,462.49492306465527
0.0594697265625,-0.0746806640625,0.7190478515625001,0.7253576102853555,0.4384765625,-0.0302734375,1.96240234375,41.98882352941177,462.49492306465527
0.0077119140625,-0.1005595703125,0.6814501953125001,0.6888730430865956,0.40478515625,-0.05419921875,1.70361328125,41.98882352941177,462.96966245469207
-0.0113310546875,-0.1137431640625,0.6545947265625001,0.6644999294316848,0.38818359375,-0.0458984375,1.443359375,41.98882352941177,462.96966245469207
-0.0196318359375,-0.1186259765625,0.6316455078125001,0.6429880083153922,0.37939453125,-0.01318359375,1.1669921875,42.08294117647059,462.96966245469207
-0.0250029296875,-0.1176494140625,0.6082080078125001,0.6199867029940705,0.37890625,0.0419921875,0.89208984375,41.94176470588236,462.96966245469207
-0.0469755859375,-0.1220439453125,0.5989306640625001,0.6130410839543784,0.41748046875,0.0537109375,0.7783203125,42.13,462.96966245469207
-0.0528349609375,-0.1044658203125,0.6052783203125001,0.6164953250034846,0.42333984375,0.01416015625,0.7177734375,41.94176470588236,462.904515916484
-0.1001982421875,-0.1010478515625,0.6248095703125001,0.6408099212691334,0.53759765625,-0.01025390625,0.78564453125,42.224117647058826,462.904515916484
-0.1163115234375,-0.0898173828125,0.6257861328125001,0.6428093160184155,0.4814453125,0.06982421875,1.02490234375,41.94176470588236,462.904515916484
-0.1260771484375,-0.0610087890625,0.6580126953125001,0.6727542098667425,0.44775390625,0.171875,0.826171875,42.08294117647059,462.904515916484
-0.1753935546875,-0.0644267578125,0.6668017578125001,0.692487032636704,0.4814453125,0.2041015625,0.93798828125,42.224117647058826,462.19354158239537
-0.1270537109375,-0.0512431640625,0.6902392578125001,0.7037035884175077,0.326171875,0.49462890625,0.95263671875,42.224117647058826,462.19354158239537
-0.0762724609375,-0.0131572265624999,0.7415087890625001,0.7455373130603287,0.23681640625,0.64599609375,0.17138671875,41.89470588235295,462.19354158239537
-0.0909208984375,-0.0512431640625,0.7864306640625001,0.7933256966805017,0.25341796875,0.68798828125,0.0,42.13,462.19354158239537
-0.0835966796875,-0.0766337890625,0.8127978515625001,0.8206713653987606,0.2099609375,0.423828125,0.3525390625,41.98882352941177,462.19354158239537
-0.0674833984375,-0.0541728515625,0.8752978515625001,0.8795652538959321,0.14599609375,0.1318359375,0.43505859375,42.224117647058826,461.5576694594157
-0.0909208984375,-0.0561259765625,0.9055712890625,0.9118531102058568,0.1796875,-0.11376953125,0.4775390625,42.08294117647059,461.5576694594157
-0.1451201171875,-0.0585673828125,0.9163134765625,0.9295807517758072,0.1123046875,-0.24365234375,0.34228515625,41.89470588235295,461.5576694594157
-0.2046904296875,-0.0575908203125,0.9539111328125,0.9773235512835792,0.13671875,-0.13818359375,0.705078125,42.224117647058826,461.5576694594157
-0.1807646484375,-0.0561259765625,1.0330126953125005,1.050210079958588,0.23681640625,0.1982421875,0.5341796875,42.224117647058826,461.9363487284663
-0.1407255859375,-0.0722392578125,1.1116259765625005,1.1228243463139218,0.287109375,0.41064453125,0.39794921875,41.98882352941177,461.9363487284663
-0.1251005859375,-0.0780986328125,1.1599658203125005,1.169303321359492,0.41552734375,0.396484375,0.32666015625,42.08294117647059,461.9363487284663
-0.1353544921875,-0.0849345703125,1.2063525390625005,1.2168899573470258,0.37548828125,0.197265625,0.21728515625,42.27117647058824,461.9363487284663
-0.1753935546875,-0.1000712890625,1.2444384765625005,1.260715782351337,0.52197265625,0.0849609375,0.033203125,41.18882352941176,461.9363487284663
-0.2134794921875,-0.1283916015625,1.2190478515625005,1.2442409579078983,0.4326171875,0.12255859375,-0.17138671875,42.224117647058826,461.5477531104677
-0.2305693359375,-0.1396220703125,1.2293017578125005,1.2585067949573858,0.27294921875,0.44580078125,-0.2158203125,42.13,461.5477531104677
-0.2300810546875,-0.1269267578125,1.2590869140625005,1.286214426422879,0.1708984375,0.76708984375,-0.2431640625,41.89470588235295,461.5477531104677
-0.2247099609375,-0.0976298828125,1.3440478515625005,1.366195735556325,0.15478515625,1.306640625,-0.19921875,41.94176470588236,461.5477531104677
-0.1636748046875,-0.0644267578125,1.5227587890625005,1.532884398276274,0.205078125,1.619140625,-0.31396484375,41.94176470588236,461.6349846217111
-0.0494169921875,-0.0531962890625,1.5906298828125005,1.5922861892207032,0.14453125,1.4638671875,-0.91650390625,42.08294117647059,461.6349846217111
-0.0357451171875,-0.0346416015625,1.5339892578125005,1.5347966630944012,-0.03369140625,1.22900390625,-1.654296875,42.224117647058826,461.6349846217111
-0.1060576171875,0.0185810546875,1.5002978515625005,1.5041566132420667,-0.099609375,1.17529296875,-1.6669921875,42.08294117647059,461.6349846217111
-0.1080107421875,0.0483662109375,1.4700244140625005,1.4747804544162304,0.01513671875,1.328125,-1.3017578125,42.08294117647059,461.6349846217111
-0.0293974609375,0.0732685546875,1.3987353515625005,1.4009614825277097,0.17041015625,1.4033203125,-0.9296875,41.98882352941177,461.6570747933556
0.0594697265625,0.1006123046875,1.4280322265625005,1.4328068691673004,0.279296875,1.61962890625,-0.08984375,42.224117647058826,461.6570747933556
0.2660126953125,0.1343037109375,1.5022509765625005,1.531521543244492,0.3408203125,1.2275390625,0.44287109375,42.224117647058826,461.6570747933556
0.3709931640625,0.1054951171875,1.3274462890625005,1.3823453974594455,0.36962890625,0.58544921875,0.0927734375,41.94176470588236,461.6570747933556
0.2923798828125,0.0708271484375,1.1296923828125005,1.1690625990997332,0.3349609375,0.59130859375,-0.322265625,42.224117647058826,462.3447938898231
0.1942353515625,0.1211201171875,1.0720751953125005,1.0962402469296852,0.1962890625,0.4833984375,-0.15625,42.224117647058826,462.3447938898231
0.1493134765625,0.2090107421875,1.0515673828125005,1.082485087762451,0.23193359375,0.24853515625,0.48046875,42.224117647058826,462.3447938898231
0.1532197265625,0.2690693359375,1.0042041015625005,1.050857016793761,0.3896484375,-0.08935546875,0.8974609375,42.08294117647059,462.3447938898231
0.1395478515625,0.2622333984375,1.0476611328125005,1.0889599659022189,0.6318359375,0.01953125,0.92333984375,42.224117647058826,462.3447938898231
0.1126923828125,0.1821552734375,1.0764697265625005,1.0975733182756373,0.63623046875,0.17578125,0.61865234375,41.98882352941177,463.3991191734047
0.0809541015625,0.0732685546875,1.0925830078125005,1.0980252622897146,0.46728515625,0.12060546875,-0.22900390625,42.27117647058824,463.3991191734047
-0.0025419921874999,-0.0029033203124999,1.1077197265625005,1.107726448004569,0.46484375,0.2529296875,-0.86376953125,42.08294117647059,463.3991191734047
-0.0391630859375,-0.0776103515625,1.0779345703125005,1.0814342568296038,0.201171875,0.423828125,-1.26220703125,41.94176470588236,463.3991191734047
-0.0728544921875,-0.1176494140625,1.0686572265625005,1.0775794307360378,-0.04296875,0.427734375,-1.07373046875,41.98882352941177,463.05577650053687
0.0199189453125,-0.0966533203125,0.9758837890625,0.980860743665876,-0.0869140625,0.11181640625,-1.08056640625,42.41235294117647,463.05577650053687
0.0360322265625,-0.1078837890625,0.9099658203125,0.9170469057962818,-0.1708984375,0.11083984375,-1.0625,42.224117647058826,463.05577650053687
0.0077119140625,-0.0917705078125,0.8630908203125001,0.8679902440870956,-0.1806640625,0.04296875,-1.09619140625,41.89470588235295,463.05577650053687
