AccX,AccY,AccZ,Magnitude,GyroX,GyroY,GyroZ,Temperature,Altitude
0.0394501953125,-0.0107158203124999,0.6130908203125001,0.6144521955910146,0.3095703125,-0.0625,0.6416015625,43.87117647058824,505.1531338226168
0.0208955078125,-0.0185283203125,0.6643603515625001,0.6649470637792105,0.42626953125,-0.00048828125,1.08203125,44.01235294117648,505.1531338226168
0.0165009765625,-0.0072978515624999,0.7512744140625001,0.7514910419225882,0.55517578125,0.13916015625,1.4580078125,43.87117647058824,505.1531338226168
0.0233369140625,-0.0058330078124999,0.8147509765625001,0.8151059988416529,0.46435546875,-0.134765625,1.810546875,44.15352941176471,505.1531338226168
0.0643525390625,0.0200458984375,0.9026416015625,0.9051546542990718,0.44287109375,-0.20751953125,1.85986328125,44.71823529411765,505.0852004832171
0.0858369140625,0.0351826171875,0.9548876953125,0.9593832930727704,0.25341796875,-0.4150390625,1.662109375,44.15352941176471,505.0852004832171
0.0575166015625,0.0366474609375,1.0085986328125005,1.0109017746347613,0.140625,-0.74609375,1.64794921875,43.87117647058824,505.0852004832171
0.0360322265625,0.0415302734375,1.0330126953125005,1.0344748975396365,-0.03515625,-1.00439453125,1.5,43.96529411764706,505.0852004832171
0.0096650390625,0.0454365234375,1.0745166015625005,1.0755202544236864,-0.03955078125,-1.1328125,1.74951171875,43.87117647058824,504.8988379799598
0.0379853515625,0.0615498046875,1.1043017578125005,1.1066678081963774,-0.025390625,-1.1025390625,1.439453125,43.82411764705883,504.8988379799598
0.0648408203125,0.0693623046875,1.1526416015625005,1.156545772091587,-0.0517578125,-0.990234375,1.16845703125,43.87117647058824,504.8988379799598
0.0736298828125,0.0752216796875,1.1951220703125005,1.1997484835106182,-0.10546875,-0.9853515625,1.0126953125,44.01235294117648,504.8988379799598
0.0609345703125,0.0761982421875,1.2571337890625005,1.260914175340365,-0.087890625,-0.84521484375,0.8837890625,44.57705882352941,504.8988379799598
0.0540986328125,0.0874287109375,1.2932666015625005,1.297346886644198,-0.1875,-0.64306640625,0.7998046875,44.059411764705885,504.30025687888434
0.0335908203125,0.0771748046875,1.3430712890625005,1.3457060530412377,-0.25537109375,-0.5361328125,0.6689453125,44.71823529411765,504.30025687888434
-0.0001005859374999,0.0561787109375,1.3440478515625005,1.3452214260001596,-0.39208984375,-0.29248046875,0.59033203125,43.96529411764706,504.30025687888434
-0.0118193359375,0.0512958984375,1.3616259765625005,1.3626431176020728,-0.51318359375,-0.1201171875,0.34765625,44.01235294117648,504.30025687888434
-0.0191435546875,0.0381123046875,1.3718798828125005,1.3725426901631532,-0.54736328125,0.01953125,0.10107421875,44.62411764705882,504.0828298304786
-0.0040068359375,0.0581318359375,1.4031298828125005,1.4043392870403917,-0.70654296875,0.48486328125,-0.0146484375,44.01235294117648,504.0828298304786
-0.0044951171875,0.0918232421875,1.4666064453125005,1.4694850047947143,-0.62158203125,1.01904296875,-0.0302734375,43.96529411764706,504.0828298304786
0.0257783203125,0.1328388671875,1.5535205078125005,1.5594026595551902,-0.517578125,1.4404296875,0.10791015625,43.96529411764706,504.0828298304786
0.1488251953125,0.1430927734375,1.5793994140625005,1.5928361465357348,-0.39453125,1.79150390625,0.5908203125,43.82411764705883,504.0828298304786
0.3099580078125,0.1264912109375,1.5881884765625005,1.623088608221204,-0.064453125,1.978515625,1.30224609375,44.76529411764706,504.5591197067421
0.4959931640625,0.0840107421875,1.5725634765625005,1.651067203786073,0.1884765625,1.83349609375,2.15771484375,43.63588235294118,504.5591197067421
0.6678681640625,0.0537373046875,1.5383837890625005,1.6779631297896824,0.51220703125,1.25341796875,2.88134765625,43.82411764705883,504.5591197067421
0.8192353515625,-0.0219462890625,1.4783251953125005,1.690288018045768,0.67041015625,0.74658203125,2.75341796875,43.30647058823529,504.5591197067421
0.8905244140625,-0.1000712890625,1.3630908203125005,1.63127697812364,0.3388671875,0.29931640625,1.73193359375,43.96529411764706,505.6962314068483
0.8958955078125,-0.1860087890625,1.3025439453125005,1.5918067596279923,-0.052734375,0.06396484375,-0.11279296875,43.30647058823529,505.6962314068483
0.8514619140625,-0.2865947265625,1.2791064453125005,1.5630858027736003,-0.39013671875,-0.33349609375,-1.71240234375,44.76529411764706,505.6962314068483
0.7518525390625,-0.3598369140625,1.2019580078125005,1.4626920037250992,-0.5830078125,-0.7744140625,-3.0654296875,44.01235294117648,505.6962314068483
0.5741181640625,-0.3349345703125,1.1716845703125005,1.347084839572216,-0.85791015625,-1.03076171875,-4.02197265625,43.87117647058824,505.6962314068483
0.3314423828125,-0.3207744140625,1.1311572265625005,1.2215837871575308,-0.83544921875,-0.98095703125,-3.94580078125,44.29470588235294,505.7285954657678
0.1600556640625,-0.3344462890625,1.1077197265625005,1.1681246202704,-0.615234375,-0.69189453125,-3.08349609375,43.82411764705883,505.7285954657678
0.0628876953125,-0.3085673828125,1.0725634765625005,1.117837690907455,-0.22509765625,0.0654296875,-2.01611328125,43.30647058823529,505.7285954657678
0.0252900390625,-0.2363017578125,1.0715869140625005,1.097623169038925,0.04931640625,1.12060546875,-0.953125,43.96529411764706,505.7285954657678
0.0755830078125,-0.1186259765625,1.0071337890625005,1.0169087385094004,0.20263671875,1.96240234375,-0.17333984375,44.57705882352941,505.7292303688784
0.1253876953125,0.0024677734375,0.9836962890625,0.9916584861517864,0.36962890625,2.41845703125,0.41015625,44.71823529411765,505.7292303688784
0.2425751953125,0.1323505859375,0.9246142578125,0.965023796975524,0.4794921875,2.68212890625,0.6640625,43.82411764705883,505.7292303688784
0.2904267578125,0.2261005859375,0.9207080078125,0.9915505091848948,0.69482421875,2.810546875,0.3466796875,43.82411764705883,505.7292303688784
0.2733369140625,0.2036396484375,0.7947314453125001,0.864742878070386,0.9775390625,2.34130859375,0.0244140625,44.76529411764706,505.7292303688784
0.2596650390625,0.2344013671875,0.7791064453125001,0.8540355885899477,1.05810546875,2.017578125,-0.8974609375,43.96529411764706,505.7609597282266
0.1410126953125,0.1689716796875,0.7781298828125001,0.8086545141786485,1.28662109375,1.80615234375,-0.9833984375,43.96529411764706,505.7609597282266
0.1273408203125,0.0801044921875,0.7463916015625001,0.761401889326203,1.35302734375,1.9482421875,-0.47412109375,44.01235294117648,505.7609597282266
0.1263642578125,0.0234638671875,0.7302783203125001,0.7415017895017807,1.53759765625,1.92431640625,0.08203125,43.40058823529412,505.7609597282266
0.1537080078125,0.0332294921875,0.6668017578125001,0.6850948365289047,1.3671875,1.6015625,0.14501953125,43.87117647058824,505.2949666459155
0.1810517578125,0.0078388671875,0.6340869140625001,0.6594750953835056,1.26123046875,1.43994140625,-0.28466796875,43.82411764705883,505.2949666459155
0.1678681640625,-0.0048564453124999,0.6111376953125001,0.6337922279411936,1.07421875,1.25341796875,-0.6142578125,44.01235294117648,505.2949666459155
0.1615205078125,-0.0356181640625,0.5950244140625001,0.6175852826821674,0.94873046875,1.09619140625,-0.669921875,43.777058823529416,505.2949666459155
0.1458955078125,-0.0566142578125,0.5740283203125001,0.5949783070905339,0.798828125,1.0341796875,-0.58251953125,44.01235294117648,505.2949666459155
0.1473603515625,-0.0605205078125,0.5403369140625001,0.5633309735644686,0.69189453125,1.00244140625,-0.65576171875,43.40058823529412,505.6522329850816
0.1449189453125,-0.0473369140625,0.5129931640625001,0.5351675163145676,0.5703125,0.9287109375,-0.912109375,43.82411764705883,505.6522329850816
0.1415009765625,-0.0424541015625,0.5085986328125001,0.5296200963014569,0.61474609375,0.67431640625,-1.1826171875,43.68294117647059,505.6522329850816
0.1234345703125,-0.0463603515625,0.5129931640625001,0.5296672179020382,0.5947265625,0.47412109375,-1.404296875,43.82411764705883,505.6522329850816
0.1024384765625,-0.0600322265625,0.5242236328125001,0.5375015599099524,0.568359375,0.25,-1.546875,43.82411764705883,505.5331425516061
0.0858369140625,-0.0551494140625,0.5520556640625001,0.5614043907119876,0.42236328125,0.3486328125,-1.60498046875,43.96529411764706,505.5331425516061
0.0604462890625,-0.0556376953125,0.5784228515625001,0.5842279539792733,0.30859375,0.3603515625,-1.65771484375,43.96529411764706,505.5331425516061
0.0438447265625,-0.0522197265625,0.6160205078125001,0.6197826441061198,0.2119140625,0.52490234375,-1.7978515625,43.777058823529416,505.5331425516061
0.0423798828125,-0.0658916015625,0.6414111328125001,0.6461779932181899,-0.05859375,0.6689453125,-2.26220703125,43.82411764705883,505.5331425516061
0.0096650390625,-0.0546611328125,0.7078173828125001,0.7099906336226998,-0.0322265625,0.76708984375,-2.54443359375,43.87117647058824,505.2069697333322
-0.0450224609375,-0.0854228515625,0.7341845703125001,0.7405073050570723,-0.01904296875,0.6943359375,-2.2353515625,44.01235294117648,505.2069697333322
-0.0318388671875,-0.0854228515625,0.7639697265625001,0.7693897062846846,-0.21142578125,0.99365234375,-2.1484375,43.87117647058824,505.2069697333322
-0.0015654296874999,-0.0741923828125,0.7766650390625001,0.7802022450233387,-0.33154296875,0.8642578125,-2.13623046875,43.82411764705883,505.2069697333322
-0.0376982421875,-0.1205791015625,0.8191455078125001,0.8288304049484705,-0.0751953125,0.40966796875,-1.7373046875,43.87117647058824,504.8827165559168
-0.0557646484375,-0.1239970703125,0.8826220703125001,0.8930322997877316,-0.01025390625,0.6416015625,-1.2744140625,43.30647058823529,504.8827165559168
-0.0489287109375,-0.1293681640625,0.9260791015625,0.9363507051194624,-0.13037109375,0.64208984375,-1.3203125,43.30647058823529,504.8827165559168
-0.0855498046875,-0.1322978515625,0.9866259765625,0.9991257719817008,-0.1435546875,0.587890625,-1.25,43.777058823529416,504.8827165559168
-0.0713896484375,-0.1703837890625,1.0383837890625005,1.0546885847808911,-0.1767578125,0.57080078125,-1.25439453125,43.30647058823529,504.8827165559168
-0.0835966796875,-0.1625712890625,1.1267626953125005,1.1414955104730409,-0.1796875,0.5712890625,-1.19189453125,43.96529411764706,504.5351993527578
-0.1080107421875,-0.1508525390625,1.2180712890625005,1.2321203164496066,-0.138671875,0.58154296875,-1.056640625,43.82411764705883,504.5351993527578
-0.0538115234375,-0.1156962890625,1.3020556640625005,1.3082928814584054,-0.14697265625,0.68115234375,-1.07373046875,43.87117647058824,504.5351993527578
0.0331025390625,-0.0844462890625,1.3806689453125005,1.3836450738463038,-0.109375,0.82568359375,-1.15771484375,43.54176470588236,504.5351993527578
0.1029267578125,-0.0810283203125,1.4846728515625005,1.4904405329744572,-0.0283203125,0.7509765625,-1.0908203125,43.87117647058824,504.6432783687196
0.0174775390625,-0.1205791015625,1.4924853515625005,1.4974502692022666,0.08984375,0.375,-0.849609375,43.777058823529416,504.6432783687196
-0.1294951171875,-0.1376689453125,1.4192431640625005,1.431772636495403,-0.05908203125,0.4638671875,-0.2412109375,44.01235294117648,504.6432783687196
-0.0596708984375,-0.0121806640624999,1.5652392578125005,1.5664236077430551,0.13525390625,0.6181640625,0.18603515625,43.96529411764706,504.6432783687196
-0.0240263671875,-0.0038798828124999,1.5955126953125005,1.5956983050420988,0.25927734375,0.4375,0.2490234375,43.82411764705883,504.6432783687196
-0.0699248046875,-0.0195048828125,1.5378955078125005,1.5396079084344765,0.2568359375,0.38134765625,0.251953125,44.01235294117648,504.28604727487766
-0.0733427734375,0.0542255859375,1.6350634765625005,1.6376056146015192,0.43701171875,0.6552734375,0.7421875,43.40058823529412,504.28604727487766
0.0072236328125,0.1216083984375,1.7380908203125005,1.7423548671542557,0.658203125,1.0078125,0.8056640625,43.30647058823529,504.28604727487766
0.1273408203125,0.1538349609375,1.7190478515625005,1.7306086778027407,0.68017578125,1.072265625,0.5869140625,43.30647058823529,504.28604727487766
0.2264619140625,0.1733662109375,1.6414111328125005,1.6660046063971408,0.6630859375,1.0947265625,0.35888671875,43.30647058823529,503.3095679060758
0.3128876953125,0.2041279296875,1.5584033203125005,1.602556654323802,0.65966796875,1.087890625,0.22900390625,43.30647058823529,503.3095679060758
0.3934541015625,0.1806904296875,1.4280322265625005,1.4922235762505762,0.60986328125,1.19140625,0.11328125,43.82411764705883,503.3095679060758
0.4593720703125,0.1509052734375,1.2625048828125005,1.3519296134266177,0.52880859375,1.2255859375,0.017578125,43.30647058823529,503.3095679060758
0.5023408203125,0.1933857421875,1.1531298828125005,1.2725772556779475,0.55322265625,1.2001953125,0.07177734375,44.01235294117648,503.3095679060758
0.5194306640625,0.2334248046875,1.0491259765625005,1.1937171645369045,0.69189453125,0.939453125,0.390625,43.82411764705883,504.46984093954495
0.5101533203125,0.2490498046875,0.9573291015625,1.1129965067956025,0.7900390625,0.869140625,0.671875,44.43588235294118,504.46984093954495
0.4569306640625,0.2261005859375,0.9002001953125001,1.0345373354125704,0.7548828125,1.08984375,0.60009765625,44.01235294117648,504.46984093954495
0.4793916015625,0.1640888671875,0.8879931640625001,1.0223860931200432,0.6533203125,1.67919921875,0.16015625,43.40058823529412,504.46984093954495
0.2498994140625,0.0937763671875,0.8503955078125001,0.8913003107254845,0.50732421875,2.02294921875,-0.46435546875,43.82411764705883,505.8366884260632
0.1468720703125,0.0366474609375,0.8684619140625001,0.8815557484403053,0.12060546875,2.4326171875,-1.15478515625,44.01235294117648,505.8366884260632
0.0741181640625,-0.0160869140625,0.8899462890625001,0.8931722613606878,0.24560546875,2.490234375,-1.6884765625,44.57705882352941,505.8366884260632
0.0062470703125,-0.1156962890625,0.8342822265625001,0.8422894340714513,0.2275390625,2.998046875,-1.75732421875,44.01235294117648,505.8366884260632
0.1009736328125,-0.1200908203125,0.8108447265625001,0.8258853735482293,-0.27978515625,2.21533203125,-1.515625,43.87117647058824,505.8366884260632
0.0794892578125,-0.1430400390625,0.7844775390625001,0.8013638400727474,-0.04833984375,0.72607421875,-1.44384765625,43.68294117647059,505.46714515147903
0.0824189453125,-0.1581767578125,0.8084033203125001,0.8278458174991125,-0.22509765625,0.587890625,-1.39208984375,43.63588235294118,505.46714515147903
0.0716767578125,-0.1474345703125,0.7839892578125001,0.800945482850823,-0.33349609375,0.26904296875,-1.22998046875,43.96529411764706,505.46714515147903
0.0497041015625,-0.1357158203125,0.7307666015625001,0.7449222157745302,-0.37060546875,0.0419921875,-0.98486328125,43.447647058823534,505.46714515147903
0.0287080078125,-0.1083720703125,0.7019580078125001,0.7108542045092466,-0.35546875,0.00390625,-0.62744140625,44.01235294117648,505.8464208588207
0.0150361328125,-0.0956767578125,0.6794970703125001,0.6863646230967455,-0.435546875,0.013671875,-0.232421875,44.53,505.8464208588207
0.0091767578125,-0.0614970703125,0.6326220703125001,0.6356703441151268,-0.4599609375,0.0439453125,0.0302734375,43.30647058823529,505.8464208588207
-0.0054716796875,-0.0527080078125,0.6043017578125001,0.6066207116983747,-0.47021484375,0.150390625,0.255859375,43.96529411764706,505.8464208588207
-0.0235380859375,-0.0361064453125,0.6140673828125001,0.6155781571148372,-0.46630859375,0.4267578125,0.8232421875,43.82411764705883,505.8464208588207
-0.0005888671874999,-0.0312236328125,0.5779345703125001,0.578777703071627,-0.43798828125,0.54736328125,1.3876953125,43.87117647058824,505.6619639417962
0.0135712890625,-0.0033916015624999,0.5540087890625001,0.554185367189061,-0.35205078125,0.64892578125,1.66162109375,44.76529411764706,505.6619639417962
0.0223603515625,0.0073505859375,0.5252001953125001,0.5257273643172014,-0.33251953125,0.5546875,1.8505859375,43.82411764705883,505.6619639417962
0.0223603515625,0.0224873046875,0.5330126953125001,0.5339552392835968,-0.22998046875,0.458984375,1.9072265625,44.01235294117648,505.6619639417962
0.0262666015625,0.0410419921875,0.5330126953125001,0.5352353807855549,-0.16748046875,0.2861328125,1.92578125,44.76529411764706,505.6729634181104
0.0726533203125,0.0888935546875,0.5574267578125001,0.5691266637074438,-0.35302734375,-0.06005859375,1.2587890625,43.54176470588236,505.6729634181104
0.0228486328125,0.0713154296875,0.6189501953125001,0.6234639482843376,-0.2587890625,-0.26171875,0.75732421875,43.30647058823529,505.6729634181104
0.1136689453125,0.0459248046875,0.6252978515625001,0.6372025737414433,-0.21044921875,-0.47900390625,0.693359375,43.68294117647059,505.6729634181104
-0.0596708984375,0.0361591796875,0.7087939453125001,0.7122197408859647,-0.08935546875,-0.2939453125,0.90966796875,44.71823529411765,505.6729634181104
-0.0455107421875,0.0386005859375,0.7332080078125001,0.7356325275635591,-0.1962890625,-0.47607421875,0.90478515625,44.01235294117648,505.2179692988353
-0.0489287109375,0.0459248046875,0.7947314453125001,0.7975595128942327,-0.24658203125,-0.6279296875,0.83740234375,44.01235294117648,505.2179692988353
-0.0709013671875,0.0498310546875,0.8547900390625001,0.8591717807055791,-0.306640625,-0.72412109375,0.82763671875,43.82411764705883,505.2179692988353
-0.0821318359375,0.0493427734375,0.9529345703125,0.9577393398318972,-0.33984375,-0.6728515625,0.87060546875,44.15352941176471,505.2179692988353
-0.1329130859375,0.0205341796875,0.9919970703125,1.0010722893265256,-0.22265625,-0.71044921875,1.3994140625,44.059411764705885,504.7189985409634
-0.0987333984375,0.0337177734375,1.0349658203125005,1.0402112388489788,-0.265625,-0.79638671875,1.755859375,43.96529411764706,504.7189985409634
-0.0494169921875,0.0600849609375,1.0745166015625005,1.0773291830639071,-0.30224609375,-0.94287109375,1.712890625,44.01235294117648,504.7189985409634
-0.0733427734375,0.1020771484375,1.1375048828125005,1.144428357334314,-0.3115234375,-1.169921875,1.4453125,44.01235294117648,504.7189985409634
-0.1124052734375,0.1411396484375,1.2092822265625005,1.2226687406397443,-0.326171875,-1.41015625,1.12841796875,43.777058823529416,504.7189985409634
-0.1495146484375,0.1655537109375,1.2717822265625005,1.2911981618259984,-0.4248046875,-1.49853515625,0.90673828125,43.96529411764706,504.7837198891271
-0.1221708984375,0.2129169921875,1.3308642578125005,1.35331409758046,-0.51220703125,-1.1015625,0.5869140625,44.62411764705882,504.7837198891271
-0.1036162109375,0.2236591796875,1.3562548828125005,1.3784727255119265,-0.52490234375,-0.89453125,0.32861328125,43.777058823529416,504.7837198891271
-0.1456083984375,0.2021748046875,1.3806689453125005,1.402969420157223,-0.5693359375,-0.75830078125,-0.00439453125,44.62411764705882,504.7837198891271
-0.1880888671875,0.2055927734375,1.4426806640625005,1.4693445167520849,-0.6376953125,-0.5908203125,-0.38330078125,43.96529411764706,504.2957661713592
-0.2271513671875,0.1528583984375,1.5037158203125005,1.5284386483749106,-0.51904296875,-0.14404296875,-0.38916015625,44.15352941176471,504.2957661713592
-0.1836943359375,0.1133076171875,1.5261767578125005,1.5413622939644342,-0.505859375,0.42236328125,-0.2294921875,44.01235294117648,504.2957661713592
-0.1294951171875,0.1167255859375,1.6028369140625005,1.6122903029136086,-0.37939453125,1.0185546875,-0.1669921875,44.01235294117648,504.2957661713592
-0.0879912109375,0.1020771484375,1.6765673828125005,1.6819751444495652,-0.2177734375,1.564453125,0.13427734375,44.71823529411765,504.2957661713592
0.0218720703125,0.0869404296875,1.6917041015625005,1.6940778591957892,0.078125,1.65380859375,0.7587890625,44.01235294117648,504.3727638146013
0.2064423828125,0.0166279296875,1.6174853515625005,1.6306912055892926,0.3427734375,1.44140625,1.71728515625,43.96529411764706,504.3727638146013
0.4832978515625,-0.0663798828125,1.5427783203125005,1.6180692345488157,0.57666015625,1.09765625,1.75732421875,44.76529411764706,504.3727638146013
0.6981416015625,-0.1738017578125,1.5432666015625005,1.702727385798806,0.5146484375,0.64404296875,0.93701171875,44.15352941176471,504.3727638146013
0.7430634765625,-0.2675517578125,1.5090869140625005,1.703252942902019,0.44580078125,-0.08056640625,0.1279296875,43.87117647058824,504.5882803863542
0.6336884765625,-0.3359111328125,1.3640673828125005,1.5411285473082454,0.32958984375,-0.5888671875,-0.12939453125,43.30647058823529,504.5882803863542
0.5540986328125,-0.3178447265625,1.2634814453125005,1.415781030999228,0.14599609375,-0.9326171875,-0.80126953125,43.82411764705883,504.5882803863542
0.4588837890625,-0.3622783203125,1.1394580078125005,1.2806968668661742,-0.20166015625,-1.0478515625,-1.31640625,43.447647058823534,504.5882803863542
0.3416962890625,-0.4189189453125,1.1033251953125005,1.2286480062703833,-0.453125,-1.0185546875,-1.59375,43.96529411764706,504.5882803863542
0.2606416015625,-0.4252666015625,1.1262744140625005,1.2317791127638962,-0.49267578125,-0.76123046875,-1.35595703125,43.82411764705883,506.0412478377841
0.1498017578125,-0.4203837890625,1.1140673828125005,1.200128838998944,-0.169921875,-0.45263671875,-0.3759765625,43.87117647058824,506.0412478377841
0.1410126953125,-0.3061259765625,1.1238330078125005,1.1732852693247844,-0.23779296875,-0.29296875,0.5205078125,43.87117647058824,506.0412478377841
0.1332001953125,-0.1952861328125,1.0813525390625005,1.106888557821909,-0.23876953125,-0.1474609375,0.87646484375,43.82411764705883,506.0412478377841
0.1346650390625,-0.0697978515625,1.0071337890625005,1.018491473651024,-0.35009765625,-0.25390625,0.9228515625,44.71823529411765,506.06324667601774
0.1024384765625,0.0454365234375,1.0344775390625005,1.0405296237817254,-0.31494140625,0.1455078125,0.4443359375,44.53,506.06324667601774
0.1239228515625,0.0830341796875,1.0090869140625005,1.0200529144450974,-0.15380859375,-0.11767578125,0.1181640625,44.01235294117648,506.06324667601774
0.1126923828125,0.1128193359375,0.9822314453125,0.9950911455067925,0.0703125,-0.25,-0.4326171875,43.87117647058824,506.06324667601774
0.1644501953125,0.1186787109375,0.8953173828125001,0.9179987576975968,0.09521484375,0.12451171875,-0.75439453125,44.57705882352941,506.06324667601774
0.1322236328125,0.0571552734375,0.8762744140625001,0.888035282574081,0.2109375,-0.09375,-0.17529296875,43.96529411764706,506.09624503744993
0.1522431640625,-0.0375712890625,0.7498095703125001,0.7660313143062725,0.328125,-0.34912109375,1.04248046875,43.30647058823529,506.09624503744993
0.1688447265625,-0.0492900390625,0.6775439453125001,0.7000027481863027,0.36376953125,-0.6708984375,1.94287109375,43.63588235294118,506.09624503744993
0.1322236328125,-0.0741923828125,0.6189501953125001,0.6372495139416846,0.298828125,-0.90771484375,2.15576171875,43.82411764705883,506.09624503744993
0.0707001953125,-0.0815166015625,0.5960009765625001,0.6056902162087305,0.328125,-0.83984375,2.11083984375,43.30647058823529,505.4775098498945
0.0257783203125,-0.0951884765625,0.5408251953125001,0.549742903322296,0.29931640625,-0.69384765625,1.89306640625,44.059411764705885,505.4775098498945
0.0194306640625,-0.1088603515625,0.4729541015625,0.4857094903674546,0.31591796875,-0.5791015625,1.55078125,44.57705882352941,505.4775098498945
0.0374970703125,-0.0995830078125,0.4431689453125,0.4557647636845116,0.37255859375,-0.2958984375,1.27392578125,44.01235294117648,505.4775098498945
0.0257783203125,-0.0766337890625,0.4265673828125,0.4341624022226194,0.10986328125,-0.09619140625,0.7734375,43.68294117647059,505.4775098498945
0.0213837890625,-0.0722392578125,0.3958056640625,0.4029117775741074,0.1376953125,-0.05615234375,0.54150390625,43.777058823529416,505.7376928650525
-0.0054716796875,-0.0956767578125,0.4270556640625,0.4376762747419344,0.146484375,-0.00439453125,0.62841796875,43.96529411764706,505.7376928650525
-0.0250029296875,-0.1010478515625,0.4485400390625,0.460460618772707,0.31884765625,0.00244140625,0.86865234375,43.96529411764706,505.7376928650525
-0.0381865234375,-0.1147197265625,0.4817431640625,0.4966843085459478,0.552734375,0.15478515625,1.0087890625,43.30647058823529,505.7376928650525
-0.0054716796875,-0.1210673828125,0.4788134765625,0.4939125386113809,0.43896484375,-0.01513671875,0.83203125,44.62411764705882,505.6503308942983
0.0018525390625,-0.1259501953125,0.5491259765625001,0.5633881625806086,0.45166015625,0.0361328125,0.57421875,44.01235294117648,505.6503308942983
0.0394501953125,-0.1215556640625,0.6033251953125001,0.6167117549347799,0.51513671875,0.158203125,0.14697265625,44.01235294117648,505.6503308942983
0.0697236328125,-0.1171611328125,0.6516650390625001,0.6657743154784588,0.462890625,0.11083984375,-0.11962890625,43.40058823529412,505.6503308942983
0.0873017578125,-0.1279033203125,0.7229541015625001,0.7393534264681243,0.2890625,-0.015625,-0.404296875,43.63588235294118,505.6503308942983
0.0736298828125,-0.1064189453125,0.7678759765625001,0.7787039661811288,0.271484375,-0.14013671875,-0.60888671875,44.01235294117648,505.4445114788159
0.0277314453125,-0.1322978515625,0.8513720703125001,0.8620360530136578,0.390625,-0.2587890625,-0.3447265625,44.01235294117648,505.4445114788159
0.0306611328125,-0.1484111328125,0.8425830078125001,0.8561028527358117,0.1396484375,-0.66064453125,0.2109375,43.87117647058824,505.4445114788159
0.0423798828125,-0.1147197265625,0.9153369140625,0.9234708097039324,0.21044921875,-0.82763671875,0.240234375,44.57705882352941,505.4445114788159
0.0545869140625,-0.0712626953125,0.9939501953125,0.9979955379117814,0.1201171875,-0.76513671875,-0.0224609375,44.01235294117648,505.2716950917484
0.0462861328125,-0.0522197265625,0.9685595703125,0.9710700011723836,0.09716796875,-0.716796875,-0.3046875,43.87117647058824,505.2716950917484
0.0384736328125,-0.0483134765625,1.1843798828125005,1.1859890890098013,0.1357421875,-0.66357421875,-0.48193359375,43.87117647058824,505.2716950917484
0.0155244140625,-0.0566142578125,1.2537158203125005,1.2550894548682536,0.24951171875,-0.72265625,-0.5654296875,43.82411764705883,505.2716950917484
-0.0040068359375,-0.0673564453125,1.3401416015625005,1.3418392070951977,0.4375,-0.818359375,-0.45166015625,44.01235294117648,505.2716950917484
-0.0469755859375,-0.0824931640625,1.3787158203125005,1.3819801521625354,0.6005859375,-0.94482421875,-0.20849609375,43.30647058823529,504.9468007403385
-0.0831083984375,-0.1020244140625,1.4382861328125005,1.4442932482000943,0.810546875,-0.98388671875,0.30712890625,43.87117647058824,504.9468007403385
-0.1133818359375,-0.0893291015625,1.4597705078125005,1.4668895884100093,1.01025390625,-0.9716796875,0.4814453125,43.82411764705883,504.9468007403385
-0.1490263671875,-0.1000712890625,1.4910205078125005,1.5017873603573777,1.19921875,-0.728515625,0.3046875,44.62411764705882,504.9468007403385
-0.1182646484375,-0.0868876953125,1.5076220703125005,1.5147476045731556,1.216796875,-0.1181640625,0.072265625,44.01235294117648,504.2090495534507
-0.0679716796875,-0.0780986328125,1.5139697265625005,1.5175058084351618,1.15087890625,0.38671875,0.06103515625,44.01235294117648,504.2090495534507
-0.0030302734374999,-0.1000712890625,1.5457080078125005,1.548946961928466,1.23291015625,0.5029296875,0.189453125,44.059411764705885,504.2090495534507
0.0663056640625,-0.1425517578125,1.6028369140625005,1.6105289869554047,1.18798828125,0.591796875,0.07666015625,43.30647058823529,504.2090495534507
0.1483369140625,-0.1620830078125,1.6755908203125005,1.689934714304269,0.96337890625,0.6630859375,-0.6083984375,43.96529411764706,504.2090495534507
0.2376923828125,-0.1723369140625,1.7302783203125005,1.7550101841696295,0.6533203125,0.68310546875,-1.59716796875,43.87117647058824,504.32812514574925
0.3661103515625,-0.1435283203125,1.6790087890625005,1.7244441661016656,0.240234375,0.75634765625,-2.2607421875,43.30647058823529,504.32812514574925
0.4906220703125,-0.0702861328125,1.6257861328125005,1.6996560552031943,-0.15087890625,0.80517578125,-2.2978515625,43.30647058823529,504.32812514574925
0.5877900390625,0.0024677734375,1.6218798828125005,1.7251079891411794,-0.27587890625,0.708984375,-1.83056640625,43.777058823529416,504.32812514574925
0.6288056640625,0.0039326171875,1.5193408203125005,1.644326171081299,-0.34326171875,0.2978515625,-1.0166015625,44.62411764705882,504.9901617929939
0.6078095703125,0.0019794921875,1.3635791015625005,1.49291136989802,-0.34228515625,-0.029296875,0.025390625,43.87117647058824,504.9901617929939
0.5609345703125,0.0449482421875,1.2844775390625005,1.402337507522163,-0.1953125,-0.228515625,1.3251953125,43.87117647058824,504.9901617929939
0.5233369140625,0.1323505859375,1.2058642578125005,1.321176298412953,0.07666015625,-0.40478515625,2.564453125,43.82411764705883,504.9901617929939
0.4730439453125,0.1606708984375,1.1008837890625005,1.2089378928721428,0.32568359375,-0.50830078125,3.5224609375,43.96529411764706,504.9901617929939
0.4290986328125,0.1782490234375,0.9929736328125,1.0963097128543708,0.42236328125,-0.32373046875,3.6806640625,44.71823529411765,505.7590584759062
0.3631806640625,0.1831318359375,0.9197314453125,1.005655704294138,0.24365234375,0.0263671875,3.15771484375,44.62411764705882,505.7590584759062
0.3211884765625,0.1767841796875,0.9270556640625,0.9969186967524908,0.2099609375,0.57568359375,2.33984375,43.63588235294118,505.7590584759062
0.2708955078125,0.1255146484375,0.9172900390625,0.9646550258453352,0.333984375,1.0146484375,1.8916015625,44.76529411764706,505.7590584759062
0.2528291015625,0.0659443359375,0.8918994140625001,0.929384621587946,0.185546875,1.65478515625,1.2177734375,44.01235294117648,506.4425450174917
0.2123017578125,0.0049091796875,0.9319384765625,0.955827108065635,0.2353515625,1.80224609375,0.88525390625,44.01235294117648,506.4425450174917
0.1864228515625,-0.0282939453125,0.9060595703125,0.9254717563928748,0.1162109375,1.81982421875,0.81640625,44.20058823529412,506.4425450174917
0.1624970703125,-0.1186259765625,0.9290087890625,0.9505444494240788,0.251953125,1.85986328125,0.99853515625,44.01235294117648,506.4425450174917
0.2015595703125,-0.1733134765625,0.8518603515625001,0.8923731731214952,0.10107421875,1.46630859375,1.29541015625,43.82411764705883,506.4425450174917
0.2132783203125,-0.1391337890625,0.8201220703125001,0.85874679818202,-0.23681640625,1.05078125,1.2275390625,44.059411764705885,505.9318860909912
0.1893525390625,-0.0981181640625,0.8025439453125001,0.8303964970579804,-0.44677734375,0.55810546875,1.001953125,43.96529411764706,505.9318860909912
0.1590791015625,-0.0912822265625,0.7683642578125001,0.7899507820895513,-0.44091796875,0.59619140625,0.93017578125,44.01235294117648,505.9318860909912
0.1478486328125,-0.0746806640625,0.6975634765625001,0.716959708521548,-0.619140625,0.2841796875,0.79833984375,44.71823529411765,505.9318860909912
0.1341767578125,-0.0361064453125,0.7029345703125001,0.7165361734557425,-0.728515625,0.240234375,0.67431640625,44.76529411764706,505.8781535749035
0.1224580078125,-0.0258525390625,0.6731494140625001,0.6846856586098993,-0.74267578125,0.19287109375,0.7626953125,43.96529411764706,505.8781535749035
0.1009736328125,-0.0092509765624999,0.6658251953125001,0.6735016301417854,-0.76708984375,0.3154296875,0.86376953125,44.62411764705882,505.8781535749035
0.0931611328125,0.0112568359375,0.6262744140625001,0.6332656273093936,-0.748046875,0.427734375,0.85791015625,43.40058823529412,505.8781535749035
0.0707001953125,0.0112568359375,0.5833056640625001,0.5876825092683494,-0.74755859375,0.5615234375,0.767578125,44.01235294117648,505.8781535749035
0.0575166015625,0.0024677734375,0.5300830078125001,0.5332000042503612,-0.666015625,0.70556640625,1.03515625,44.57705882352941,505.574602233434
0.0619111328125,-0.0077861328124999,0.5256884765625001,0.5293788686950992,-0.5693359375,0.80224609375,1.1953125,44.01235294117648,505.574602233434
0.0526337890625,0.0273701171875,0.5042041015625001,0.5076821989181629,-0.41259765625,1.009765625,1.427734375,43.82411764705883,505.574602233434
0.0882783203125,0.0361591796875,0.4924853515625,0.5016396810625218,-0.296875,1.25830078125,1.49365234375,43.40058823529412,505.574602233434
0.0941376953125,0.0512958984375,0.4734423828125,0.4854285371900144,-0.162109375,1.14599609375,1.42724609375,43.87117647058824,505.59723527010607
0.0736298828125,0.0420185546875,0.4900439453125,0.4973228196236821,-0.0693359375,1.1689453125,1.42529296875,43.96529411764706,505.59723527010607
0.0707001953125,0.0395771484375,0.5359423828125001,0.5420323846325144,0.05810546875,1.34423828125,1.40869140625,43.96529411764706,505.59723527010607
0.0575166015625,0.0234638671875,0.5779345703125001,0.5812633483034915,0.23876953125,1.33740234375,1.45703125,43.30647058823529,505.59723527010607
0.0721650390625,0.0302998046875,0.5877001953125001,0.5928890204729242,0.25341796875,1.150390625,1.2783203125,43.96529411764706,505.59723527010607
0.0418916015625,0.0342060546875,0.6628955078125001,0.6650980489647732,0.1162109375,0.9541015625,1.1767578125,43.63588235294118,505.2386965952709
0.0287080078125,0.0180927734375,0.7117236328125001,0.7125321239544542,0.1826171875,0.6015625,1.47119140625,43.96529411764706,505.2386965952709
0.0404267578125,0.0219990234375,0.7493212890625001,0.7507334240738992,0.1103515625,0.0751953125,1.75927734375,43.777058823529416,505.2386965952709
-0.0069365234375,0.0234638671875,0.8723681640625001,0.8727112249138135,0.14306640625,0.00732421875,1.9873046875,44.76529411764706,505.2386965952709
-0.0123076171875,0.0278583984375,0.9085009765625,0.9090113267827596,0.09765625,-0.30078125,1.86376953125,43.68294117647059,505.1739711200792
-0.0459990234375,0.0356708984375,0.9607470703125,0.9625088343836612,0.0537109375,-0.57666015625,1.68994140625,43.777058823529416,505.1739711200792
-0.0801787109375,0.0473896484375,1.0134814453125005,1.0177519562542454,0.017578125,-0.6689453125,1.58544921875,43.96529411764706,505.1739711200792
-0.1148466796875,0.0678974609375,1.0784228515625005,1.0866442250383503,0.04638671875,-0.50244140625,1.56689453125,44.01235294117648,505.1739711200792
-0.1270537109375,0.0605732421875,1.1106494140625005,1.119532886560047,0.01904296875,-0.2890625,1.56494140625,43.96529411764706,505.1739711200792
-0.1104521484375,0.0581318359375,1.1316455078125005,1.1385080336985487,0.0712890625,0.072265625,1.63720703125,43.87117647058824,504.9248015839445
-0.0499052734375,0.0552021484375,1.1697314453125005,1.172096185328601,0.041015625,0.2119140625,1.4130859375,43.96529411764706,504.9248015839445
0.0106416015625,0.0722919921875,1.1970751953125005,1.199303297356725,-0.1318359375,0.18310546875,0.9462890625,43.87117647058824,504.9248015839445
-0.0132841796875,0.0752216796875,1.2170947265625005,1.2194893783675305,-0.22900390625,0.19775390625,0.80712890625,43.87117647058824,504.9248015839445
-0.1319365234375,0.1064716796875,1.2410205078125005,1.252547550236496,-0.390625,0.25732421875,0.72314453125,43.96529411764706,505.00052434385424
-0.0616240234375,0.1347919921875,1.2810595703125005,1.2896045999110537,-0.43212890625,0.3564453125,0.4453125,43.87117647058824,505.00052434385424
-0.1158232421875,0.1133076171875,1.2976611328125005,1.3077377623804227,-0.515625,0.439453125,0.3193359375,44.388823529411766,505.00052434385424
-0.1319365234375,0.1025654296875,1.3245166015625005,1.3350172813107817,-0.62939453125,0.61279296875,0.10107421875,43.30647058823529,505.00052434385424
-0.1421904296875,0.0805927734375,1.3728564453125005,1.3825513129215632,-0.61328125,0.84130859375,-0.22998046875,43.96529411764706,505.00052434385424
-0.1211943359375,0.0737568359375,1.4016650390625005,1.40882682386478,-0.55419921875,1.03173828125,-0.3603515625,44.01235294117648,504.3721236379138
-0.1036162109375,0.0962177734375,1.4719775390625005,1.4787535476200249,-0.52685546875,1.212890625,-0.4697265625,43.96529411764706,504.3721236379138
-0.0899443359375,0.1406513671875,1.5305712890625005,1.5396497204109103,-0.3525390625,1.3994140625,-0.24169921875,43.30647058823529,504.3721236379138
-0.0826201171875,0.1513935546875,1.5964892578125005,1.6057783291836083,-0.11083984375,1.6005859375,0.35205078125,43.87117647058824,504.3721236379138
-0.0196318359375,0.1479755859375,1.6438525390625005,1.6506160526294578,0.24169921875,1.572265625,1.263671875,43.30647058823529,504.0899756144908
0.0985322265625,0.0459248046875,1.6643603515625005,1.6679067921230486,0.49658203125,1.31591796875,1.8740234375,43.30647058823529,504.0899756144908
0.3421845703125,-0.1132548828125,1.6292041015625005,1.6685990990015838,0.60107421875,1.07421875,1.18994140625,44.01235294117648,504.0899756144908
0.6644501953125,-0.2519267578125,1.5574267578125005,1.711881788939614,0.3427734375,0.609375,-0.0751953125,44.57705882352941,504.0899756144908
0.8236298828125,-0.2768291015625,1.4597705078125005,1.6988026579955655,-0.00146484375,-0.0546875,-1.46044921875,43.30647058823529,504.0899756144908
0.7562470703125,-0.2094462890625,1.3713916015625005,1.5800292099181112,-0.43896484375,-0.09521484375,-2.521484375,43.87117647058824,504.71836041577
0.6014619140625,-0.2323955078125,1.2903369140625005,1.4424747685528132,-0.65771484375,0.12939453125,-2.97900390625,43.96529411764706,504.71836041577
0.4881806640625,-0.2856181640625,1.2219775390625005,1.3465241187517516,-0.80419921875,0.1689453125,-2.87060546875,44.71823529411765,504.71836041577
0.3895478515625,-0.3110087890625,1.1350634765625005,1.2396947573323167,-0.798828125,0.18798828125,-2.67724609375,43.82411764705883,504.71836041577
0.2884736328125,-0.3359111328125,1.0686572265625005,1.1567547682459205,-0.73779296875,0.30712890625,-2.26708984375,43.87117647058824,505.9117846036712
0.2030244140625,-0.3261455078125,1.0125048828125005,1.0829385682903947,-0.70556640625,0.36865234375,-1.75830078125,43.447647058823534,505.9117846036712
0.1405244140625,-0.2655986328125,0.9783251953125,1.0234304727155232,-0.70361328125,0.60009765625,-1.375,44.76529411764706,505.9117846036712
0.1507783203125,-0.1791728515625,0.9539111328125,0.9822339140535332,-0.55615234375,0.68798828125,-0.90283203125,44.01235294117648,505.9117846036712
0.1307587890625,-0.1064189453125,0.9583056640625,0.973022403962409,-0.1513671875,0.72607421875,-0.6103515625,43.63588235294118,505.9117846036712
0.0892548828125,-0.0678447265625,0.9153369140625,0.9221773187807616,-0.021484375,0.8193359375,0.10693359375,43.82411764705883,506.1939760507786
0.1532197265625,0.0171162109375,0.9114306640625,0.924378225986611,0.22021484375,0.9599609375,0.66455078125,43.777058823529416,506.1939760507786
0.1639619140625,0.0830341796875,0.8655322265625001,0.884830051183646,0.52392578125,0.5390625,0.82666015625,44.57705882352941,506.1939760507786
0.0931611328125,0.0669208984375,0.8904345703125001,0.8977923631453973,0.73486328125,0.25537109375,1.42626953125,43.82411764705883,506.1939760507786
0.1009736328125,0.0176044921875,0.8313525390625001,0.8376470837257174,0.865234375,0.22265625,1.68701171875,44.15352941176471,505.78169075339713
0.1151337890625,-0.0219462890625,0.8328173828125001,0.8410245074325512,0.77685546875,-0.04296875,1.59423828125,43.30647058823529,505.78169075339713
0.0941376953125,-0.0546611328125,0.6902392578125001,0.6987703329024822,0.580078125,-0.1982421875,1.1220703125,43.49470588235295,505.78169075339713
0.1244111328125,-0.0131572265624999,0.6794970703125001,0.6909178758302444,0.53515625,-0.0830078125,0.85302734375,43.82411764705883,505.78169075339713
0.0619111328125,-0.0209697265625,0.6545947265625001,0.6578502670377715,0.494140625,-0.1318359375,0.8427734375,43.30647058823529,505.78169075339713
0.0243134765625,-0.0195048828125,0.5974658203125001,0.5982783566516285,0.521484375,-0.06982421875,1.0859375,44.62411764705882,505.8244219647449
0.0223603515625,-0.0199931640625,0.5793994140625001,0.5801753122524234,0.5478515625,0.1328125,1.07373046875,43.447647058823534,505.8244219647449
0.0257783203125,-0.0297587890625,0.5481494140625001,0.5495615411049634,0.5546875,0.3203125,1.064453125,43.447647058823534,505.8244219647449
0.0350556640625,-0.0414775390625,0.4973681640625,0.5003242713005697,0.576171875,0.4306640625,0.96875,43.87117647058824,505.8244219647449
0.0472626953125,-0.0492900390625,0.4617236328125,0.4667461659366441,0.6171875,0.45751953125,0.77734375,44.01235294117648,505.58623576873873
0.0614228515625,-0.0634501953125,0.4397509765625,0.4485305066179287,0.599609375,0.404296875,0.59912109375,43.82411764705883,505.58623576873873
0.0741181640625,-0.0644267578125,0.4314501953125,0.4424856838378171,0.56689453125,0.390625,0.361328125,44.01235294117648,505.58623576873873
0.0599580078125,-0.0673564453125,0.4539111328125,0.462781989620498,0.53076171875,0.34375,0.126953125,43.63588235294118,505.58623576873873
0.0560517578125,-0.0839580078125,0.4773486328125,0.4879062039753932,0.50927734375,0.35546875,-0.03955078125,44.01235294117648,505.58623576873873
0.0536103515625,-0.0932353515625,0.5271533203125001,0.5380125683403048,0.4208984375,0.39892578125,-0.2138671875,44.71823529411765,505.83542140484434
0.0389619140625,-0.0966533203125,0.5579150390625001,0.5675641689597356,0.33447265625,0.3310546875,-0.26025390625,43.82411764705883,505.83542140484434
0.0145478515625,-0.0893291015625,0.6130908203125001,0.619735171119489,0.32861328125,0.1240234375,-0.59912109375,43.82411764705883,505.83542140484434
-0.0503935546875,-0.1020244140625,0.6653369140625001,0.6749975560200564,0.3427734375,0.05419921875,-0.79052734375,44.059411764705885,505.83542140484434
-0.0660185546875,-0.0942119140625,0.7102587890625001,0.7195150323341932,0.21240234375,0.01953125,-0.7998046875,43.87117647058824,505.62959950417655
-0.0635771484375,-0.0824931640625,0.7668994140625001,0.7739392012360482,0.181640625,-0.0869140625,-0.93994140625,44.76529411764706,505.62959950417655
-0.0889677734375,-0.0780986328125,0.8274462890625001,0.8358720131939521,0.1728515625,-0.0947265625,-1.00634765625,44.76529411764706,505.62959950417655
-0.0962919921875,-0.0883525390625,0.8923876953125001,0.9019058252741156,0.166015625,0.03955078125,-1.18115234375,44.01235294117648,505.62959950417655
-0.0835966796875,-0.1122783203125,0.9749072265625,0.9849055419027536,0.1083984375,-0.02197265625,-1.09521484375,43.87117647058824,505.62959950417655
-0.0699248046875,-0.0971416015625,1.0481494140625005,1.054961214104232,0.15185546875,-0.1943359375,-0.75634765625,43.82411764705883,505.239332310773
-0.0484404296875,-0.0751689453125,1.1111376953125005,1.1147303815327176,0.22021484375,-0.19775390625,-0.42431640625,44.01235294117648,505.239332310773
-0.0630888671875,-0.0614970703125,1.2092822265625005,1.2124873600578197,0.3583984375,-0.1728515625,-0.18505859375,43.87117647058824,505.239332310773
-0.0630888671875,-0.0639384765625,1.2810595703125005,1.2842047954424494,0.45361328125,-0.08935546875,-0.12646484375,44.57705882352941,505.239332310773
-0.0435576171875,-0.0942119140625,1.3411181640625005,1.3451286483993805,0.5537109375,-0.04736328125,-0.33740234375,43.40058823529412,505.12024602177866
-0.0430693359375,-0.1279033203125,1.3879931640625005,1.3945390817504149,0.5849609375,-0.17626953125,-0.6064453125,44.059411764705885,505.12024602177866
-0.0459990234375,-0.1362041015625,1.4089892578125005,1.4163044150431332,0.62353515625,-0.251953125,-0.6826171875,43.82411764705883,505.12024602177866
-0.0757841796875,-0.1337626953125,1.4294970703125005,1.4377404406151315,0.673828125,-0.453125,-0.43115234375,43.87117647058824,505.12024602177866
-0.1255888671875,-0.0966533203125,1.4480517578125005,1.4566977453105163,0.7119140625,-0.41748046875,-0.18408203125,44.57705882352941,505.12024602177866
-0.1446318359375,-0.0810283203125,1.4939501953125005,1.503120468470034,0.7626953125,-0.2431640625,-0.00244140625,43.87117647058824,504.1980499344666
-0.1412138671875,-0.0683330078125,1.5852587890625005,1.593002255033764,0.7939453125,0.09423828125,0.01513671875,43.777058823529416,504.1980499344666
-0.0787138671875,-0.0893291015625,1.6624072265625005,1.6666653377930434,0.86865234375,0.44775390625,-0.12841796875,44.62411764705882,504.1980499344666
0.0316376953125,-0.1034892578125,1.7732470703125005,1.7765461273547427,0.81005859375,0.5107421875,-0.95654296875,44.76529411764706,504.1980499344666
0.1776337890625,-0.1283916015625,1.7869189453125005,1.8003103853183824,0.52392578125,0.18798828125,-1.9599609375,44.01235294117648,504.1760507381391
0.2708955078125,-0.0971416015625,1.7200244140625005,1.743933729210536,0.19677734375,0.1181640625,-2.45947265625,43.30647058823529,504.1760507381391
0.3700166015625,-0.0082744140624999,1.6331103515625005,1.6745238641896187,0.0400390625,0.35205078125,-1.8994140625,43.40058823529412,504.1760507381391
0.5316376953125,0.0976826171875,1.5784228515625005,1.668412188613018,0.09912109375,0.544921875,-0.74462890625,43.82411764705883,504.1760507381391
0.6410126953125,0.1230732421875,1.4685595703125005,1.6070816749782115,0.29345703125,0.36181640625,0.9599609375,43.96529411764706,504.1760507381391
0.6361298828125,0.1118427734375,1.3748095703125005,1.5189705028077662,0.4306640625,-0.14697265625,2.13134765625,43.82411764705883,505.3370566392375
0.5648408203125,0.1108662109375,1.2766650390625005,1.4004321086662472,0.5546875,-0.7451171875,2.73876953125,43.87117647058824,505.3370566392375
0.4813447265625,0.1128193359375,1.1350634765625005,1.2380589825113568,0.55419921875,-1.14404296875,2.724609375,44.01235294117648,505.3370566392375
0.3729462890625,0.1284443359375,1.0491259765625005,1.120826568501182,0.47021484375,-1.08740234375,2.7041015625,44.01235294117648,505.3370566392375
0.3207001953125,0.1665302734375,0.9993212890625,1.062649512312588,0.1923828125,-0.6669921875,2.30126953125,43.96529411764706,506.0638790209034
0.2508759765625,0.1816669921875,1.0862353515625005,1.1295348116152728,0.09912109375,-0.24951171875,1.71484375,43.87117647058824,506.0638790209034
0.1971650390625,0.1191669921875,0.9319384765625,0.9599917441067742,0.3515625,0.45361328125,1.4580078125,44.01235294117648,506.0638790209034
0.2259736328125,0.0742451171875,0.8660205078125001,0.8980912760429669,0.2587890625,0.78759765625,1.00830078125,44.76529411764706,506.0638790209034
0.2381806640625,0.0761982421875,0.9031298828125,0.9371124724784312,0.43310546875,1.26904296875,0.45458984375,43.96529411764706,506.0638790209034
0.1795869140625,-0.1093486328125,0.9026416015625,0.9268065839600892,0.45703125,1.15380859375,0.40576171875,43.82411764705883,506.26907755785
0.2000947265625,-0.1572001953125,0.8987353515625001,0.934063720070842,0.259765625,1.16162109375,0.513671875,44.29470588235294,506.26907755785
0.2181611328125,-0.1576884765625,0.8655322265625001,0.906424829055821,-0.11376953125,0.76904296875,0.51513671875,44.71823529411765,506.26907755785
0.1888642578125,-0.1288798828125,0.8743212890625001,0.9037242104650854,-0.25390625,0.38525390625,0.611328125,43.87117647058824,506.26907755785
0.1849580078125,-0.1156962890625,0.8235400390625001,0.8519467658814526,-0.37109375,-0.056640625,0.4970703125,44.76529411764706,506.2147117494006
0.1366181640625,-0.0878642578125,0.8084033203125001,0.824560839990006,-0.5029296875,-0.0595703125,0.091796875,43.87117647058824,506.2147117494006
0.0946259765625,-0.0859111328125,0.7507861328125001,0.7615869060094737,-0.57080078125,-0.150390625,0.02978515625,43.68294117647059,506.2147117494006
0.0819306640625,-0.0517314453125,0.6858447265625001,0.692655589092756,-0.53369140625,-0.03271484375,0.1875,44.01235294117648,506.2147117494006
0.0443330078125,-0.0234111328125,0.6746142578125001,0.6764746067408429,-0.5576171875,0.28564453125,0.126953125,43.96529411764706,506.2147117494006
0.0257783203125,-0.0229228515625,0.6174853515625001,0.6184481694662493,-0.57470703125,0.43896484375,0.55517578125,43.30647058823529,505.9007851275243
0.0448212890625,-0.0063212890624999,0.5803759765625001,0.5821384550255304,-0.6064453125,0.7255859375,0.68408203125,43.30647058823529,505.9007851275243
0.0374970703125,0.0093037109375,0.5457080078125001,0.5470738698840557,-0.60400390625,1.001953125,0.78955078125,44.53,505.9007851275243
0.0663056640625,0.0136982421875,0.4895556640625,0.4942153691878389,-0.54150390625,0.9853515625,0.95556640625,43.82411764705883,505.9007851275243
0.0936494140625,0.0112568359375,0.4685595703125,0.4779592033228443,-0.43212890625,0.89013671875,1.23486328125,44.059411764705885,505.83542140484434
0.1039033203125,0.0141865234375,0.4568408203125,0.4687224045455931,-0.28271484375,0.767578125,1.41943359375,43.30647058823529,505.83542140484434
0.0902314453125,0.0156513671875,0.4729541015625,0.4817387893898645,-0.1630859375,0.6376953125,1.45068359375,43.87117647058824,505.83542140484434
0.0838837890625,0.0312763671875,0.5139697265625001,0.521708329466437,-0.06103515625,0.7451171875,1.4189453125,43.40058823529412,505.83542140484434
0.0921845703125,0.0493427734375,0.5344775390625001,0.5446089827174273,-0.00732421875,0.6806640625,1.20263671875,43.96529411764706,505.83542140484434
0.0653291015625,0.0410419921875,0.5725634765625001,0.5777380646339817,0.00244140625,0.4599609375,1.087890625,43.63588235294118,505.5428722117871
0.1136689453125,0.0478779296875,0.5730517578125001,0.5861750953525863,-0.1220703125,0.1484375,0.9013671875,44.76529411764706,505.5428722117871
0.0174775390625,0.0337177734375,0.7170947265625001,0.7180997141630197,0.076171875,0.22021484375,0.97705078125,43.96529411764706,505.5428722117871
0.0077119140625,0.0263935546875,0.7385791015625001,0.73909078103601,0.0439453125,-0.04248046875,1.43359375,43.87117647058824,505.5428722117871
0.0526337890625,0.0302998046875,0.8240283203125001,0.8262633155309611,0.0595703125,-0.1875,1.451171875,43.82411764705883,505.4561456333571
-0.0489287109375,-0.0380595703125,0.8933642578125001,0.8955122817601424,0.2470703125,-0.13134765625,1.66015625,43.87117647058824,505.4561456333571
-0.0113310546875,0.0254169921875,0.9895556640625,0.9899468816913188,-0.05810546875,-0.25341796875,1.7275390625,44.76529411764706,505.4561456333571
0.0013642578125,0.0425068359375,1.0603564453125005,1.0612089725480829,-0.11962890625,-0.5771484375,1.46484375,43.96529411764706,505.4561456333571
-0.0157255859375,0.0498310546875,1.1145556640625005,1.1157798870557525,-0.16796875,-0.609375,1.4609375,43.82411764705883,505.4561456333571
0.0150361328125,0.0835224609375,1.1560595703125005,1.1591703140100398,-0.21533203125,-0.71533203125,1.380859375,43.82411764705883,504.8808034376843
0.0394501953125,0.1030537109375,1.2136767578125005,1.218682755151006,-0.3193359375,-1.103515625,1.2177734375,44.01235294117648,504.8808034376843
0.0580048828125,0.1211201171875,1.2463916015625005,1.2536054697005514,-0.400390625,-2.0615234375,0.900390625,43.82411764705883,504.8808034376843
0.0199189453125,0.1098896484375,1.3040087890625005,1.308782419338038,-0.6396484375,-2.607421875,0.55517578125,44.62411764705882,504.8808034376843
-0.0450224609375,0.1328388671875,1.3865283203125005,1.393604667634667,-0.46826171875,-2.67138671875,0.23974609375,44.01235294117648,504.7617207824903
-0.0562529296875,0.1323505859375,1.4036181640625005,1.4109659883153138,-0.7900390625,-2.765625,-0.05322265625,43.30647058823529,504.7617207824903
-0.0948271484375,0.1181904296875,1.4446337890625005,1.4525591038754946,-0.8115234375,-2.09619140625,-0.37109375,44.71823529411765,504.7617207824903
-0.1006865234375,0.1206318359375,1.4841845703125005,1.4924790298685215,-0.90576171875,-1.2021484375,-0.4873046875,43.82411764705883,504.7617207824903
-0.0821318359375,0.0908466796875,1.4827197265625005,1.4877689824775495,-0.8955078125,-0.56884765625,-0.630859375,44.01235294117648,504.7617207824903
-0.0723662109375,0.0630146484375,1.4802783203125005,1.4833851893524992,-0.865234375,0.41455078125,-0.78955078125,44.15352941176471,504.3824835030402
-0.0850615234375,0.0635029296875,1.4905322265625005,1.494307332267954,-1.052734375,0.8896484375,-0.712890625,44.76529411764706,504.3824835030402
-0.0889677734375,0.0835224609375,1.5579150390625005,1.5626869600558502,-0.9912109375,1.29248046875,-0.47216796875,44.01235294117648,504.3824835030402
-0.0704130859375,0.1064716796875,1.6140673828125005,1.6191070803087466,-0.75048828125,1.91162109375,0.02783203125,43.87117647058824,504.3824835030402
0.0257783203125,0.1015888671875,1.6355517578125005,1.6389064562134512,-0.4228515625,2.375,0.5458984375,44.01235294117648,504.349484754742
0.1781220703125,0.0512958984375,1.6096728515625005,1.6203102882430491,-0.064453125,2.7353515625,1.146484375,44.76529411764706,504.349484754742
0.3890595703125,-0.0199931640625,1.5110400390625005,1.5604515614113048,0.23876953125,2.552734375,1.72900390625,43.68294117647059,504.349484754742
0.7064423828125,-0.0986064453125,1.3899462890625005,1.5622851077090845,0.380859375,2.02490234375,1.8935546875,43.96529411764706,504.349484754742
1.0418916015625,-0.2172587890625,1.2327197265625005,1.6285998327052906,0.0458984375,0.94921875,1.20751953125,43.30647058823529,504.349484754742
1.0599580078125,-0.3354228515625,1.1809619140625005,1.6219403534477854,-0.49853515625,-0.18994140625,0.0419921875,43.96529411764706,505.4775098498945
0.8797822265625,-0.3852275390625,1.1404345703125005,1.4909755303797836,-0.65185546875,-0.92626953125,-1.3330078125,44.01235294117648,505.4775098498945
0.6776337890625,-0.4355205078125,1.0896533203125005,1.3550682725503225,-1.029296875,-1.5361328125,-2.48095703125,43.96529411764706,505.4775098498945
0.4393525390625,-0.4863017578125,1.0715869140625005,1.256112482074032,-1.50830078125,-1.90478515625,-2.9921875,43.777058823529416,505.4775098498945
0.2401337890625,-0.4560283203125,1.1311572265625005,1.2430377052934158,-1.427734375,-2.43408203125,-2.2900390625,44.71823529411765,506.7137509050469
0.0565400390625,-0.4028056640625,1.1223681640625005,1.193800433371947,-0.8037109375,-2.64990234375,-0.83251953125,43.87117647058824,506.7137509050469
-0.0132841796875,-0.2905009765625,1.1526416015625005,1.1887598363278855,-0.33056640625,-1.07177734375,0.05126953125,43.96529411764706,506.7137509050469
-0.0386748046875,-0.1742900390625,1.0105517578125005,1.0262005717460687,-0.4638671875,0.16552734375,1.45361328125,43.40058823529412,506.7137509050469
0.0506806640625,-0.0092509765624999,1.0002978515625005,1.0016236329668595,-0.42041015625,1.353515625,1.85400390625,44.76529411764706,506.7137509050469
0.1488251953125,0.0654560546875,0.9197314453125,0.933991094899559,-0.14501953125,1.57958984375,1.671875,44.01235294117648,507.3966671068145
0.2914033203125,0.1914326171875,0.8923876953125001,0.9580804458695318,-0.1650390625,1.1904296875,0.72900390625,43.30647058823529,507.3966671068145
0.3412080078125,0.2221943359375,0.8591845703125001,0.9507845988346452,-0.03125,0.7119140625,-0.27880859375,44.76529411764706,507.3966671068145
0.2010712890625,0.1025654296875,0.8596728515625001,0.8888119836983732,0.6650390625,0.80712890625,0.35791015625,44.01235294117648,507.3966671068145
0.2787080078125,0.0703388671875,0.7249072265625001,0.7798180537654723,0.7041015625,0.4990234375,1.5234375,44.62411764705882,506.78948850612375
0.3324189453125,0.0639912109375,0.7029345703125001,0.780201410163005,0.61669921875,0.2041015625,0.962890625,43.96529411764706,506.78948850612375
0.2171845703125,0.0366474609375,0.7175830078125001,0.7506247711581502,0.81201171875,0.3681640625,0.67724609375,43.96529411764706,506.78948850612375
0.1703095703125,0.0259052734375,0.6135791015625001,0.6373034966216212,0.6962890625,-0.2802734375,0.55810546875,44.01235294117648,506.78948850612375
0.1219697265625,-0.0033916015624999,0.5989306640625001,0.611233226774557,0.72314453125,-0.36962890625,0.576171875,43.30647058823529,506.78948850612375
0.1014619140625,-0.0087626953124999,0.5696337890625001,0.578665670725391,0.486328125,-0.3115234375,0.24072265625,44.01235294117648,505.9221512073741
0.0628876953125,-0.0351298828125,0.5476611328125001,0.5523782103609887,0.427734375,-0.0693359375,-0.1865234375,43.30647058823529,505.9221512073741
0.0457978515625,-0.0634501953125,0.5295947265625001,0.5353446972705944,0.3056640625,0.27490234375,-0.4384765625,43.87117647058824,505.9221512073741
0.0560517578125,-0.1010478515625,0.4836962890625,0.4973073173723686,0.2216796875,0.458984375,-0.52392578125,43.30647058823529,505.9221512073741
0.0707001953125,-0.1225322265625,0.4480517578125,0.4698542772418494,0.21630859375,0.484375,-0.46875,44.01235294117648,506.01924905506297
0.1014619140625,-0.1186259765625,0.4338916015625,0.4611166492625312,0.12451171875,0.4912109375,-0.52587890625,44.01235294117648,506.01924905506297
0.1097626953125,-0.1269267578125,0.4290087890625,0.4606590845993709,0.0673828125,0.3837890625,-0.6962890625,43.96529411764706,506.01924905506297
0.0912080078125,-0.1396220703125,0.4353564453125,0.4662064539263797,0.08349609375,0.3740234375,-0.794921875,43.82411764705883,506.01924905506297
0.0682587890625,-0.1415751953125,0.4749072265625,0.5002396146381624,0.12255859375,0.22998046875,-0.7919921875,43.82411764705883,506.01924905506297
0.0672822265625,-0.1445048828125,0.5110400390625001,0.5353227817801738,0.087890625,0.169921875,-0.67236328125,43.54176470588236,506.1933443084486
0.0931611328125,-0.1435283203125,0.5432666015625001,0.5695770147854494,0.03076171875,0.08544921875,-0.52099609375,44.01235294117648,506.1933443084486
0.0555634765625,-0.1264384765625,0.6086962890625001,0.6241675741350363,0.166015625,-0.03759765625,-0.35205078125,43.87117647058824,506.1933443084486
0.0291962890625,-0.1161845703125,0.6609423828125001,0.6717113301646673,0.1845703125,-0.0537109375,-0.40771484375,43.96529411764706,506.1933443084486
0.0448212890625,-0.0883525390625,0.7361376953125001,0.7427744109566605,0.09619140625,-0.09326171875,-0.6728515625,43.87117647058824,505.6186000222742
0.0716767578125,-0.0693095703125,0.8440478515625001,0.8499165546538597,0.0009765625,0.00390625,-1.37060546875,44.01235294117648,505.6186000222742
0.0243134765625,-0.0741923828125,0.9231494140625,0.9264450849855532,-0.04541015625,0.0458984375,-1.4736328125,44.71823529411765,505.6186000222742
0.0179658203125,-0.0854228515625,1.0056689453125005,1.009450277049111,0.06591796875,0.08642578125,-1.21533203125,43.777058823529416,505.6186000222742
0.0394501953125,-0.1186259765625,1.0627978515625005,1.0701250924595067,0.23974609375,-0.33056640625,-0.70849609375,43.777058823529416,505.6186000222742
0.0931611328125,-0.1152080078125,1.1062548828125005,1.1161324954849814,0.25390625,-0.57568359375,-0.40673828125,44.76529411764706,505.1733353259447
0.0667939453125,-0.1186259765625,1.1702197265625005,1.1781119479412083,0.35888671875,-0.66162109375,-0.390625,43.96529411764706,505.1733353259447
0.0511689453125,-0.1308330078125,1.2356494140625005,1.2436096700213697,0.359375,-0.55078125,-0.32958984375,43.96529411764706,505.1733353259447
0.0428681640625,-0.1244853515625,1.2786181640625005,1.285378812535156,0.38623046875,-0.44677734375,-0.31494140625,43.82411764705883,505.1733353259447
0.0531220703125,-0.1283916015625,1.3245166015625005,1.3317847369303888,0.4462890625,-0.47998046875,-0.3505859375,43.63588235294118,505.0982469100603
0.0448212890625,-0.1391337890625,1.3484423828125005,1.3563421467230037,0.580078125,-0.66650390625,-0.37548828125,43.87117647058824,505.0982469100603
0.0106416015625,-0.1449931640625,1.3611376953125005,1.3688798657695624,0.81689453125,-1.05859375,-0.1748046875,44.01235294117648,505.0982469100603
-0.0435576171875,-0.1132548828125,1.3972705078125005,1.4025294315979713,0.90380859375,-0.94921875,0.1025390625,43.30647058823529,505.0982469100603
-0.0845732421875,-0.0903056640625,1.4319384765625005,1.4372736506719967,0.998046875,-0.283203125,0.08837890625,44.71823529411765,505.0982469100603
-0.0953154296875,-0.0585673828125,1.4568408203125005,1.461129818049997,0.9873046875,0.3828125,-0.08935546875,43.96529411764706,504.8270804231425
-0.0513701171875,-0.0380595703125,1.4675830078125005,1.4689749162774068,1.02734375,0.9697265625,-0.33642578125,43.777058823529416,504.8270804231425
-0.0084013671875,-0.0322001953125,1.4861376953125005,1.4865102370914007,1.10693359375,0.9775390625,-0.39306640625,43.96529411764706,504.8270804231425
0.0726533203125,-0.0351298828125,1.5520556640625005,1.5541523084843838,1.20703125,1.0986328125,-0.43359375,43.82411764705883,504.8270804231425
0.1903291015625,-0.0488017578125,1.6204150390625005,1.6322841901112388,1.1845703125,1.26611328125,-1.0146484375,44.388823529411766,504.4472023914258
0.2835908203125,-0.0820048828125,1.6721728515625005,1.6980313894840908,0.99462890625,1.16943359375,-1.91455078125,43.96529411764706,504.4472023914258
0.3724580078125,-0.1122783203125,1.5715869140625005,1.6190172380948713,0.7470703125,1.01416015625,-2.41162109375,43.96529411764706,504.4472023914258
0.4935517578125,-0.0893291015625,1.4856494140625005,1.5680329102190498,0.19970703125,1.05908203125,-2.33251953125,43.777058823529416,504.4472023914258
0.6253876953125,-0.0112041015624999,1.4773486328125005,1.6043049224549135,0.18212890625,0.95751953125,-1.9853515625,43.68294117647059,504.4472023914258
0.6463837890625,0.0127216796875,1.3821337890625005,1.525866198185519,0.15283203125,0.57568359375,-1.08642578125,43.68294117647059,505.4775098498945
0.6214814453125,0.0351826171875,1.2913134765625005,1.4335157823239362,0.1474609375,0.08349609375,0.11962890625,43.96529411764706,505.4775098498945
0.5682587890625,0.1089130859375,1.2151416015625005,1.3458637462548302,0.2294921875,-0.337890625,0.99560546875,43.68294117647059,505.4775098498945
0.5228486328125,0.1841083984375,1.1355517578125005,1.26362351587812,0.25537109375,-0.58251953125,1.4931640625,43.82411764705883,505.4775098498945
0.4862275390625,0.2192646484375,1.0481494140625005,1.176057566616855,0.2294921875,-0.42919921875,1.4052734375,43.96529411764706,506.13897883757534
0.4071259765625,0.2134052734375,1.0051806640625005,1.1052970365146342,0.22412109375,0.017578125,0.7783203125,43.54176470588236,506.13897883757534
0.3285126953125,0.1777607421875,0.9578173828125,1.0280727655483932,0.08447265625,0.35546875,0.1953125,43.87117647058824,506.13897883757534
0.2474580078125,0.1684833984375,0.9861376953125,1.0305773504671203,0.294921875,0.95556640625,-0.1494140625,44.53,506.13897883757534
0.1761689453125,0.0864521484375,0.9539111328125,0.9738870163245864,0.36962890625,1.77978515625,0.0849609375,44.01235294117648,506.13897883757534
0.1590791015625,0.0503193359375,0.9304736328125,0.9453144331292178,0.5302734375,2.21923828125,0.47119140625,43.96529411764706,506.8872254835836
0.1522431640625,0.0097919921875,0.9495166015625,0.961694151358716,0.70263671875,2.68017578125,0.8134765625,43.82411764705883,506.8872254835836
0.2450166015625,-0.0829814453125,0.8440478515625001,0.8827999949222136,0.7548828125,2.06005859375,1.0009765625,44.388823529411766,506.8872254835836
0.2352509765625,-0.0414775390625,0.9187548828125,0.9493018186604836,0.224609375,2.0859375,0.30615234375,43.777058823529416,506.8872254835836
0.2503876953125,-0.1113017578125,0.8362353515625001,0.8799838876132424,0.45654296875,1.61376953125,0.138671875,44.29470588235294,506.51891048097394
0.2430634765625,-0.1279033203125,0.8005908203125001,0.846395164538558,0.01904296875,0.6962890625,0.162109375,44.01235294117648,506.51891048097394
0.2347626953125,-0.1044658203125,0.7615283203125001,0.8037113992982374,-0.27001953125,0.40869140625,-0.13134765625,44.71823529411765,506.51891048097394
0.1722626953125,-0.0986064453125,0.7615283203125001,0.7869708062510781,-0.294921875,0.55517578125,-0.216796875,43.63588235294118,506.51891048097394
0.1224580078125,-0.0492900390625,0.6897509765625001,0.7022690946475657,-0.41162109375,-0.0673828125,0.0166015625,43.96529411764706,506.51891048097394
0.1322236328125,-0.0126689453124999,0.6633837890625001,0.676551286186336,-0.46435546875,-0.44970703125,-0.07666015625,44.059411764705885,506.1169800494382
0.1356416015625,0.0146748046875,0.6140673828125001,0.6290411310886195,-0.59375,-0.5908203125,-0.2763671875,43.87117647058824,506.1169800494382
0.1122041015625,0.0141865234375,0.5984423828125001,0.6090355518366669,-0.62060546875,-0.392578125,-0.298828125,44.57705882352941,506.1169800494382
0.0965791015625,0.0097919921875,0.5730517578125001,0.5812157285394263,-0.60595703125,-0.18896484375,-0.2236328125,44.71823529411765,506.1169800494382
0.0970673828125,0.0244404296875,0.5457080078125001,0.5548122576151916,-0.61669921875,0.28076171875,-0.27392578125,44.01235294117648,505.77005789384
0.0736298828125,0.0166279296875,0.5300830078125001,0.5354305210391185,-0.568359375,0.8359375,-0.361328125,43.82411764705883,505.77005789384
0.0560517578125,0.0127216796875,0.4729541015625,0.4764338599141901,-0.48779296875,0.7373046875,-0.29541015625,43.40058823529412,505.77005789384
0.0428681640625,0.0317646484375,0.4924853515625,0.4953670294681376,-0.56005859375,1.1484375,-0.3935546875,43.96529411764706,505.77005789384
0.0282197265625,0.0332294921875,0.5520556640625001,0.5537743297967046,-0.56640625,2.1201171875,-0.52392578125,43.96529411764706,505.77005789384
0.0345673828125,0.0093037109375,0.5271533203125001,0.5283673779750296,-0.26123046875,2.58740234375,-0.35888671875,44.71823529411765,506.1493467545073
0.0165009765625,0.0229755859375,0.4778369140625,0.4786734546822715,-0.17724609375,2.57177734375,-0.41796875,44.76529411764706,506.1493467545073
-0.0040068359375,0.0307880859375,0.6052783203125001,0.6060740928386944,-0.17822265625,2.703125,-0.4013671875,43.30647058823529,506.1493467545073
-0.0640654296875,-0.0331767578125,0.5774462890625001,0.5819358154401958,-0.22412109375,2.3544921875,-0.06787109375,44.43588235294118,506.1493467545073
-0.0372099609375,-0.0102275390624999,0.6399462890625001,0.6411087556983683,-0.19873046875,2.09814453125,0.32177734375,44.01235294117648,505.8574203266837
-0.0567412109375,0.0127216796875,0.7297900390625001,0.7321030714780334,-0.14013671875,1.537109375,0.78271484375,43.63588235294118,505.8574203266837
-0.0840849609375,0.0327412109375,0.8079150390625001,0.8129384834616182,-0.16162109375,1.142578125,1.67138671875,44.01235294117648,505.8574203266837
-0.0289091796875,0.0576435546875,0.8709033203125001,0.873287531915206,-0.0205078125,0.46533203125,2.3623046875,43.777058823529416,505.8574203266837
-0.0284208984375,0.1006123046875,0.9612353515625,0.9669043305394842,-0.0009765625,-0.087890625,2.15625,44.71823529411765,505.8574203266837
-0.0645537109375,0.0991474609375,1.0422900390625005,1.0489832821046596,-0.04638671875,-0.20458984375,1.8115234375,44.01235294117648,505.261331416736
-0.0743193359375,0.0761982421875,1.0930712890625005,1.0982414938343077,-0.0888671875,-0.17138671875,1.63037109375,43.82411764705883,505.261331416736
-0.0782255859375,0.0781513671875,1.1467822265625005,1.1521008435237718,-0.1435546875,0.01708984375,1.30810546875,43.87117647058824,505.261331416736
-0.0650419921875,0.0893818359375,1.2004931640625005,1.2055718188080171,-0.15576171875,0.240234375,1.1220703125,44.01235294117648,505.261331416736
-0.0284208984375,0.0971943359375,1.2507861328125005,1.2548786540707335,-0.181640625,0.32861328125,0.94482421875,43.777058823529416,504.7189985409634
0.0038056640625,0.1118427734375,1.2791064453125005,1.2839924405887788,-0.2138671875,0.26806640625,0.77392578125,43.87117647058824,504.7189985409634
0.0228486328125,0.1323505859375,1.2937548828125005,1.300707666780121,-0.22314453125,0.158203125,0.548828125,43.68294117647059,504.7189985409634
-0.0010771484374999,0.1343037109375,1.3196337890625005,1.326450897792976,-0.12646484375,0.1630859375,0.2216796875,43.54176470588236,504.7189985409634
-0.0406279296875,0.1206318359375,1.3279345703125005,1.3340213234965133,-0.34375,0.35205078125,-0.19384765625,44.01235294117648,504.7189985409634
-0.0728544921875,0.1035419921875,1.3191455078125005,1.3252069996645632,-0.5576171875,0.66650390625,-0.65380859375,43.82411764705883,504.6322787444868
-0.0884794921875,0.0962177734375,1.3499072265625005,1.3562212211835831,-0.8427734375,1.08154296875,-1.1123046875,43.82411764705883,504.6322787444868
-0.1050810546875,0.0923115234375,1.3728564453125005,1.379963138945988,-1.04541015625,1.48193359375,-1.43603515625,44.01235294117648,504.6322787444868
-0.1075224609375,0.1006123046875,1.4187548828125005,1.4263762943083769,-0.94970703125,1.7041015625,-1.5283203125,43.777058823529416,504.6322787444868
-0.1124052734375,0.1255146484375,1.4876025390625005,1.497113952474609,-0.80029296875,1.97265625,-1.36328125,44.059411764705885,504.2536890082588
-0.1182646484375,0.1538349609375,1.5393603515625005,1.551541818398496,-0.591796875,2.2470703125,-0.85546875,43.63588235294118,504.2536890082588
-0.1231474609375,0.1518818359375,1.5667041015625005,1.5788588065675346,-0.30908203125,2.39111328125,-0.01806640625,43.82411764705883,504.2536890082588
-0.0425810546875,0.0927998046875,1.5481494140625005,1.551512667763432,0.00244140625,2.541015625,0.90625,44.059411764705885,504.2536890082588
0.1224580078125,-0.0024150390624999,1.5256884765625005,1.530596982751071,0.39599609375,2.564453125,1.3037109375,44.76529411764706,504.2536890082588
0.3553681640625,-0.0922587890625,1.4729541015625005,1.518022398220205,0.52197265625,2.3349609375,1.169921875,44.01235294117648,504.9040776944138
0.5565400390625,-0.1244853515625,1.4138720703125005,1.524554901944526,0.48095703125,1.79150390625,0.8408203125,43.87117647058824,504.9040776944138
0.6458955078125,-0.1479228515625,1.3220751953125005,1.47883230931953,0.306640625,1.36181640625,0.34521484375,43.777058823529416,504.9040776944138
0.6693330078125,-0.1684306640625,1.1931689453125005,1.3784149215682509,0.09521484375,0.68994140625,-0.37353515625,44.71823529411765,504.9040776944138
0.6517548828125,-0.2197001953125,1.1145556640625005,1.309689631700613,-0.0947265625,0.24267578125,-1.06591796875,43.82411764705883,506.68201166242727
0.6405244140625,-0.2807353515625,1.0720751953125005,1.2800113620711986,-0.32568359375,-0.06494140625,-1.90234375,43.82411764705883,506.68201166242727
0.5975556640625,-0.3510478515625,1.0549853515625005,1.2622604555919807,-0.58544921875,-0.1259765625,-2.76611328125,44.01235294117648,506.68201166242727
0.5086884765625,-0.3534892578125,1.0442431640625005,1.214150899710399,-0.79150390625,-0.517578125,-3.322265625,43.40058823529412,506.68201166242727
0.3231416015625,-0.3368876953125,1.0378955078125005,1.1380425734790036,-0.9296875,-0.43359375,-3.2880859375,43.54176470588236,506.68201166242727
0.1605439453125,-0.2636455078125,1.0569384765625005,1.101091392848238,-0.84033203125,-0.0986328125,-2.9638671875,44.53,507.1480700308499
-0.0020537109374999,-0.1996806640625,1.0540087890625005,1.072758646084968,-0.60498046875,0.228515625,-2.32568359375,43.30647058823529,507.1480700308499
-0.0757841796875,-0.1186259765625,1.0603564453125005,1.0696593641538763,-0.28125,0.86328125,-1.703125,43.82411764705883,507.1480700308499
-0.1055693359375,-0.0522197265625,1.0002978515625005,1.0072078119102834,-0.24609375,1.103515625,-1.31982421875,44.53,507.1480700308499
-0.0767607421875,-0.0126689453124999,0.9822314453125,0.9853077315626776,-0.08447265625,1.2939453125,-0.63671875,43.87117647058824,506.4761738458629
-0.0137724609375,0.0366474609375,0.9412158203125,0.9420296903388836,0.1875,1.16162109375,0.35107421875,44.01235294117648,506.4761738458629
0.0623994140625,0.0835224609375,0.8479541015625001,0.8543394212566023,0.29638671875,0.861328125,0.9833984375,44.01235294117648,506.4761738458629
0.0853486328125,0.0517841796875,0.8010791015625001,0.8072754903680976,0.470703125,0.6455078125,1.1123046875,43.40058823529412,506.4761738458629
0.1268525390625,0.0190693359375,0.7380908203125001,0.7491550342013858,0.4287109375,0.53955078125,0.87548828125,43.87117647058824,506.4761738458629
0.1219697265625,0.0019794921875,0.7053759765625001,0.7158462131621233,0.38134765625,0.29443359375,0.599609375,44.01235294117648,506.3460736361947
0.0848603515625,0.0083271484375,0.6682666015625001,0.6736845489042363,0.25244140625,0.11279296875,0.45703125,43.87117647058824,506.3460736361947
0.0448212890625,-0.0082744140624999,0.6365283203125001,0.6381580654047668,0.400390625,0.03857421875,0.41796875,43.96529411764706,506.3460736361947
0.0267548828125,-0.0116923828124999,0.6169970703125001,0.6176875588388946,0.3740234375,0.044921875,0.361328125,44.01235294117648,506.3460736361947
0.0038056640625,-0.0224345703125,0.6023486328125001,0.6027782913104545,0.39306640625,0.13818359375,0.27880859375,44.57705882352941,505.8567873617007
-0.0025419921874999,-0.0341533203125,0.5823291015625001,0.5833353182683507,0.41552734375,0.3173828125,0.3203125,43.30647058823529,505.8567873617007
0.0028291015625,-0.0600322265625,0.5295947265625001,0.5329938521638983,0.43115234375,0.42529296875,0.19677734375,43.30647058823529,505.8567873617007
0.0121064453125,-0.0571025390625,0.5110400390625001,0.5143628947644752,0.41796875,0.48974609375,-0.10400390625,43.40058823529412,505.8567873617007
0.0125947265625,-0.0639384765625,0.5115283203125001,0.5156626595013888,0.3759765625,0.48095703125,-0.47900390625,43.40058823529412,505.8567873617007
0.0340791015625,-0.0712626953125,0.5085986328125001,0.5146963436874733,0.30517578125,0.4462890625,-0.7099609375,43.82411764705883,506.3674412564888
0.0565400390625,-0.0546611328125,0.5266650390625001,0.5325041585079308,0.23486328125,0.36767578125,-0.87939453125,43.82411764705883,506.3674412564888
0.0199189453125,-0.0527080078125,0.5671923828125001,0.5699842959156388,0.1806640625,0.31201171875,-1.19775390625,43.82411764705883,506.3674412564888
0.0008759765625,-0.0634501953125,0.6111376953125001,0.6144232883379394,0.1513671875,0.27880859375,-1.2236328125,44.53,506.3674412564888
-0.0167021484375,-0.0732158203125,0.6545947265625001,0.6588882865477992,0.1591796875,0.2060546875,-1.34130859375,44.059411764705885,505.8904188135147
-0.0430693359375,-0.0873759765625,0.7117236328125001,0.7183592823108574,0.22412109375,0.06689453125,-1.419921875,44.01235294117648,505.8904188135147
-0.0748076171875,-0.1073955078125,0.7654345703125001,0.7765436601486473,0.23193359375,-0.0419921875,-1.3798828125,43.30647058823529,505.8904188135147
-0.0826201171875,-0.1176494140625,0.8181689453125001,0.830703251147541,0.224609375,-0.16015625,-1.38671875,44.01235294117648,505.8904188135147
-0.0845732421875,-0.1142314453125,0.8679736328125001,0.8795337876682265,0.1611328125,-0.14306640625,-1.57861328125,43.82411764705883,505.8904188135147
-0.0816435546875,-0.1069072265625,0.9065478515625,0.9164735851544664,0.10205078125,-0.14501953125,-1.86962890625,43.40058823529412,505.109246458981
-0.1099638671875,-0.1166728515625,0.9631884765625,0.9764408060713896,0.05322265625,-0.13232421875,-1.83544921875,43.447647058823534,505.109246458981
-0.1070341796875,-0.1069072265625,0.9998095703125,1.0111897188960772,0.083984375,-0.11279296875,-1.646484375,43.82411764705883,505.109246458981
-0.1099638671875,-0.0961650390625,1.0437548828125005,1.0539279018128604,0.0576171875,-0.12060546875,-1.56494140625,43.30647058823529,505.109246458981
-0.1377958984375,-0.1015361328125,0.9641650390625,0.9792402761544828,0.10302734375,-0.07080078125,-1.32763671875,43.777058823529416,505.22896887821537
-0.1578154296875,-0.0820048828125,1.1477587890625005,1.1614563050424065,0.19775390625,0.037109375,-1.041015625,44.76529411764706,505.22896887821537
-0.1587919921875,-0.0824931640625,1.2190478515625005,1.232111067760965,0.27685546875,0.1982421875,-0.8037109375,44.01235294117648,505.22896887821537
-0.1207060546875,-0.0873759765625,1.2517626953125005,1.260600792596327,0.4091796875,0.33447265625,-0.78369140625,43.58882352941177,505.22896887821537
-0.0792021484375,-0.0863994140625,1.2849658203125005,1.2903003520261611,0.47802734375,0.32763671875,-0.736328125,43.96529411764706,505.22896887821537
-0.0748076171875,-0.0903056640625,1.3084033203125005,1.3136477995093725,0.57421875,0.34228515625,-0.64501953125,44.01235294117648,504.88207840466674
-0.0933623046875,-0.0756572265625,1.3318408203125005,1.337251100772912,0.6552734375,0.39306640625,-0.58251953125,44.29470588235294,504.88207840466674
-0.1255888671875,-0.0751689453125,1.3435595703125005,1.3515085101023758,0.7109375,0.52490234375,-0.5712890625,43.63588235294118,504.88207840466674
-0.1382841796875,-0.0741923828125,1.3503955078125005,1.3594833767058063,0.775390625,0.6689453125,-0.68603515625,43.82411764705883,504.88207840466674
-0.1324248046875,-0.0580791015625,1.3879931640625005,1.3955051180196585,0.80712890625,0.9306640625,-0.8935546875,44.01235294117648,504.936438721572
-0.1236357421875,-0.0204814453125,1.4470751953125005,1.452491620367241,0.8623046875,1.11328125,-1.16064453125,44.01235294117648,504.936438721572
-0.0987333984375,0.0097919921875,1.5584033203125005,1.5615585406378605,0.93798828125,1.3076171875,-1.3330078125,43.777058823529416,504.936438721572
-0.0284208984375,0.0722919921875,1.6663134765625005,1.6681230415578576,0.9873046875,1.16796875,-1.98828125,43.30647058823529,504.936438721572
0.0208955078125,0.0688740234375,1.6604541015625005,1.6620132600996125,0.888671875,0.75146484375,-2.72802734375,43.447647058823534,504.936438721572
0.0667939453125,0.0542255859375,1.5920947265625005,1.5944175938720688,0.7216796875,0.4951171875,-3.146484375,44.53,504.6542780068195
0.1966767578125,0.0747333984375,1.5276416015625005,1.542062155274584,0.5078125,0.50244140625,-3.17431640625,43.30647058823529,504.6542780068195
0.4100556640625,0.1347919921875,1.4485400390625005,1.511483633240798,0.4169921875,0.61083984375,-3.03955078125,43.82411764705883,504.6542780068195
0.5594697265625,0.1655537109375,1.3127978515625005,1.436611501141562,0.44970703125,0.8330078125,-2.79833984375,44.059411764705885,504.6542780068195
0.5799775390625,0.1435810546875,1.2136767578125005,1.3527751984481498,0.609375,0.83154296875,-2.234375,43.777058823529416,505.6515985096168
0.5511689453125,0.1343037109375,1.1697314453125005,1.300037056087767,0.72216796875,0.6455078125,-1.2158203125,44.01235294117648,505.6515985096168
0.5042939453125,0.1592060546875,1.1003955078125005,1.2208723212285288,0.69970703125,0.3525390625,-0.78271484375,43.87117647058824,505.6515985096168
0.4330048828125,0.1958271484375,1.0256884765625005,1.1304328160300956,0.54296875,0.0712890625,-0.82275390625,44.71823529411765,505.6515985096168
0.3299775390625,0.2270771484375,0.9724658203125,1.0517314197571137,0.40234375,-0.08447265625,-1.47119140625,43.82411764705883,505.6515985096168
0.2137666015625,0.2192646484375,0.9587939453125,1.0065083087416171,0.4130859375,-0.068359375,-2.3349609375,43.30647058823529,506.2807082965974
0.0780244140625,0.1689716796875,0.9763720703125,0.9939525428371966,0.54345703125,0.2158203125,-2.767578125,43.82411764705883,506.2807082965974
0.0208955078125,0.1157490234375,0.9251025390625,0.9325498198237784,0.4384765625,0.50927734375,-2.8154296875,43.87117647058824,506.2807082965974
-0.0386748046875,0.0761982421875,0.9851611328125,0.9888601368416514,0.67431640625,1.4111328125,-2.814453125,43.40058823529412,506.2807082965974
0.0116181640625,-0.0009501953124999,0.8962939453125001,0.8963697457027217,0.38818359375,1.25244140625,-2.6240234375,43.96529411764706,506.0968775656032
0.0858369140625,-0.0287822265625,0.9163134765625,0.9207750972478153,0.34814453125,1.0859375,-2.94580078125,43.96529411764706,506.0968775656032
0.1541962890625,-0.0795634765625,0.9646533203125,0.980134108555196,0.2568359375,0.83837890625,-3.3642578125,43.68294117647059,506.0968775656032
0.1512666015625,-0.1342509765625,0.9368212890625,0.958404422515348,0.14453125,0.40869140625,-3.22119140625,44.43588235294118,506.0968775656032
0.1395478515625,-0.1205791015625,0.9109423828125,0.9294239868937344,-0.05712890625,-0.05908203125,-3.30615234375,43.82411764705883,506.0968775656032
0.0956025390625,-0.1069072265625,0.8748095703125001,0.886487893248872,-0.1748046875,-0.2431640625,-3.7255859375,44.01235294117648,506.3778097184323
0.0404267578125,-0.0907939453125,0.8460009765625001,0.8518189453148736,-0.3525390625,-0.26025390625,-3.87890625,44.01235294117648,506.3778097184323
0.0487275390625,-0.0522197265625,0.8113330078125001,0.8144707008060069,-0.40966796875,-0.24169921875,-3.68798828125,44.57705882352941,506.3778097184323
0.0345673828125,-0.0297587890625,0.7537158203125001,0.7550947141056658,-0.4228515625,-0.2431640625,-3.43701171875,43.777058823529416,506.3778097184323
-0.0171904296875,-0.0400126953125,0.7097705078125001,0.7111052667639483,-0.419921875,-0.26416015625,-3.20361328125,43.82411764705883,505.9551495774344
-0.0401396484375,-0.0375712890625,0.6697314453125001,0.6719843762907545,-0.4755859375,-0.2861328125,-3.10205078125,44.53,505.9551495774344
-0.0176787109375,-0.0385478515625,0.6243212890625001,0.6257599744767621,-0.45166015625,-0.21826171875,-2.97265625,44.01235294117648,505.9551495774344
0.0003876953125,-0.0326884765625,0.6038134765625001,0.6046977768159275,-0.36328125,0.02099609375,-2.70947265625,43.447647058823534,505.9551495774344
0.0248017578125,-0.0434306640625,0.5564501953125001,0.5586932697239327,-0.3896484375,0.19921875,-2.251953125,43.96529411764706,505.9551495774344
0.0467744140625,-0.0297587890625,0.5349658203125001,0.5378306984916189,-0.3515625,0.2158203125,-1.9228515625,43.96529411764706,505.8366884260632
0.0135712890625,-0.0434306640625,0.5437548828125001,0.5456553628895838,-0.30908203125,0.2724609375,-1.5595703125,43.82411764705883,505.8366884260632
-0.0093779296875,-0.0424541015625,0.5540087890625001,0.5557121868946194,-0.205078125,0.2529296875,-1.19921875,43.777058823529416,505.8366884260632
-0.0230498046875,-0.0263408203125,0.5701220703125001,0.571195507132434,-0.1474609375,0.30810546875,-1.017578125,43.30647058823529,505.8366884260632
-0.0367216796875,-0.0322001953125,0.5994189453125001,0.6014053594180754,-0.0966796875,0.2724609375,-0.888671875,44.01235294117648,505.2069697333322
-0.0445341796875,-0.0356181640625,0.6365283203125001,0.6390776551652189,0.01806640625,0.2724609375,-0.70361328125,43.30647058823529,505.2069697333322
-0.0557646484375,-0.0502666015625,0.6902392578125001,0.6943102046445465,0.11083984375,0.310546875,-0.4208984375,43.96529411764706,505.2069697333322
-0.0494169921875,-0.0102275390624999,0.7283251953125001,0.730071388152642,-0.00048828125,0.3037109375,-0.4189453125,43.777058823529416,505.2069697333322
-0.0743193359375,-0.0199931640625,0.7693408203125001,0.7731806956349411,0.150390625,-0.09228515625,-0.4150390625,44.53,505.2069697333322
-0.0865263671875,-0.0107158203124999,0.8181689453125001,0.8228013515408228,0.0849609375,-0.20751953125,-0.22509765625,44.62411764705882,504.7636358912048
-0.0674833984375,0.0019794921875,0.8679736328125001,0.8705952875542823,0.125,-0.19921875,-0.05126953125,43.68294117647059,504.7636358912048
-0.0689482421875,0.0014912109375,0.9168017578125,0.9193919441342177,0.13916015625,-0.16015625,-0.14990234375,43.96529411764706,504.7636358912048
-0.0977568359375,-0.0077861328124999,0.9597705078125,0.9647675629411208,0.07080078125,-0.21826171875,-0.224609375,43.82411764705883,504.7636358912048
-0.1167998046875,-0.0019267578124999,1.0227587890625005,1.0294082996436829,0.009765625,-0.21533203125,-0.2607421875,43.96529411764706,504.5358391103639
-0.0713896484375,-0.0077861328124999,1.0720751953125005,1.0744777011053042,-0.0205078125,-0.1865234375,-0.2353515625,44.01235294117648,504.5358391103639
-0.0127958984375,-0.0024150390624999,1.1135791015625005,1.1136552351905151,-0.11962890625,-0.2080078125,-0.15966796875,43.777058823529416,504.5358391103639
-0.0118193359375,0.0102802734375,1.1663134765625005,1.1664186668324796,-0.1494140625,-0.30810546875,0.05126953125,43.63588235294118,504.5358391103639
-0.0303740234375,0.0434833984375,1.2146533203125005,1.2158108717171587,-0.16357421875,-0.509765625,0.1396484375,44.01235294117648,504.5358391103639
-0.0923857421875,0.0586201171875,1.2566455078125005,1.2613997684334448,-0.19140625,-0.61669921875,0.0615234375,43.96529411764706,504.82835655989214
-0.1495146484375,0.0810810546875,1.3074267578125005,1.3184435879364476,-0.29296875,-0.53515625,-0.0341796875,43.96529411764706,504.82835655989214
-0.1944365234375,0.0971943359375,1.3601611328125005,1.3774217247446685,-0.3505859375,-0.37939453125,0.05126953125,43.30647058823529,504.82835655989214
-0.1846708984375,0.0786396484375,1.4202197265625005,1.4343331575172311,-0.35498046875,-0.23876953125,0.2099609375,44.76529411764706,504.82835655989214
-0.1739287109375,0.0337177734375,1.4861376953125005,1.4966607278079802,-0.35986328125,-0.2421875,0.3447265625,44.62411764705882,503.993544775697
-0.1900419921875,-0.0165751953125,1.5994189453125005,1.6107549964283183,-0.38623046875,-0.1435546875,0.30615234375,44.71823529411765,503.993544775697
-0.2110380859375,-0.0566142578125,1.6511767578125005,1.6655710532559167,-0.31689453125,0.1201171875,0.4931640625,43.87117647058824,503.993544775697
-0.2022490234375,-0.0658916015625,1.6223681640625005,1.6362532904172942,-0.291015625,0.3896484375,0.8955078125,43.82411764705883,503.993544775697
-0.1417021484375,-0.0571025390625,1.5667041015625005,1.5741352993602389,-0.2890625,0.78955078125,1.15771484375,43.447647058823534,503.993544775697
-0.0367216796875,-0.0771220703125,1.5710986328125005,1.5734189554958542,-0.2587890625,1.16455078125,1.26416015625,43.30647058823529,503.8524752823658
0.1380830078125,-0.1044658203125,1.5393603515625005,1.5490675636081002,-0.21337890625,1.2138671875,1.28564453125,44.059411764705885,503.8524752823658
0.3163056640625,-0.1156962890625,1.4446337890625005,1.4833751005466989,-0.2548828125,0.94482421875,1.3798828125,44.01235294117648,503.8524752823658
0.4354462890625,-0.1200908203125,1.3069384765625005,1.382795522592238,-0.421875,0.6083984375,1.31005859375,44.01235294117648,503.8524752823658
0.4774384765625,-0.1171611328125,1.2063525390625005,1.3026744330210716,-0.4921875,0.3115234375,1.0498046875,44.62411764705882,505.6405989999607
0.4857392578125,-0.1420634765625,1.1458056640625005,1.252595416625404,-0.4541015625,-0.01171875,0.8876953125,44.01235294117648,505.6405989999607
0.4373994140625,-0.1606181640625,1.0774462890625005,1.173885406614964,-0.369140625,-0.3662109375,0.939453125,43.87117647058824,505.6405989999607
0.3988251953125,-0.1703837890625,1.0193408203125005,1.107767069354704,-0.29931640625,-0.58056640625,1.05126953125,43.96529411764706,505.6405989999607
0.4837861328125,-0.2006572265625,0.9675830078125,1.1002405291030288,-0.19921875,-0.91357421875,1.20849609375,43.87117647058824,505.6405989999607
0.2650361328125,-0.2641337890625,0.9646533203125,1.0346819987854476,-0.29638671875,-1.1923828125,1.6611328125,43.96529411764706,507.0503312850271
0.1795869140625,-0.2660869140625,0.9617236328125,1.013886606799729,-0.2060546875,-1.3876953125,2.52001953125,44.01235294117648,507.0503312850271
0.1419892578125,-0.1987041015625,1.0105517578125005,1.039643748853346,0.16796875,-1.41455078125,3.642578125,43.82411764705883,507.0503312850271
0.0433564453125,-0.1415751953125,1.0247119140625005,1.03535396077841,0.330078125,-0.99365234375,4.416015625,43.777058823529416,507.0503312850271
0.0277314453125,-0.0522197265625,1.0208056640625005,1.022516570371094,0.43896484375,0.1669921875,4.306640625,43.87117647058824,507.2238107958211
0.0614228515625,-0.0019267578124999,0.9607470703125,0.9627104508645312,0.4091796875,0.6640625,3.6796875,43.63588235294118,507.2238107958211
0.1439423828125,0.0688740234375,0.9568408203125,0.9700553572299406,0.34912109375,0.904296875,2.626953125,43.87117647058824,507.2238107958211
0.1068330078125,0.0688740234375,0.9734423828125,0.9817061654682692,0.66015625,0.63525390625,2.21728515625,44.388823529411766,507.2238107958211
0.0716767578125,0.0244404296875,0.9163134765625,0.9194374799538448,0.77197265625,0.58740234375,2.72607421875,43.82411764705883,507.2238107958211
0.1078095703125,0.0630146484375,0.8455126953125001,0.8546844255649428,0.68212890625,0.61279296875,3.248046875,43.777058823529416,506.75837798928296
0.0892548828125,0.0615498046875,0.7996142578125001,0.8069310837116004,0.7216796875,0.634765625,3.7783203125,43.82411764705883,506.75837798928296
0.0985322265625,0.0405537109375,0.7410205078125001,0.7486418343512882,0.59423828125,0.45556640625,3.560546875,44.01235294117648,506.75837798928296
0.0726533203125,0.0049091796875,0.7288134765625001,0.7324422766448921,0.51513671875,0.32666015625,3.056640625,43.30647058823529,506.75837798928296
0.0882783203125,-0.0234111328125,0.6975634765625001,0.70351684188136,0.43212890625,0.34619140625,2.728515625,44.059411764705885,506.78037694868
0.0936494140625,-0.0405009765625,0.6389697265625001,0.6470647983935781,0.38623046875,0.1865234375,2.60791015625,44.01235294117648,506.78037694868
0.0682587890625,-0.0512431640625,0.6145556640625001,0.6204545014573717,0.3486328125,0.12939453125,2.64208984375,44.059411764705885,506.78037694868
0.0316376953125,-0.0473369140625,0.5881884765625001,0.5909377388173493,0.29736328125,0.06640625,2.57275390625,43.82411764705883,506.78037694868
-0.0171904296875,-0.0536845703125,0.5808642578125001,0.5835930345425185,0.29296875,0.09716796875,2.4111328125,43.96529411764706,506.78037694868
-0.0499052734375,-0.0751689453125,0.5667041015625001,0.5738418295872353,0.3251953125,0.17138671875,2.2978515625,43.82411764705883,506.0535122627494
-0.0328154296875,-0.0976298828125,0.5544970703125001,0.5639817793410558,0.32666015625,0.20068359375,2.2138671875,43.82411764705883,506.0535122627494
-0.0127958984375,-0.0907939453125,0.5584033203125001,0.5658812098473112,0.33984375,0.10205078125,2.33642578125,43.777058823529416,506.0535122627494
0.0047822265625,-0.0810283203125,0.5603564453125001,0.5662047369872678,0.26416015625,-0.12109375,2.38916015625,44.76529411764706,506.0535122627494
-0.0030302734374999,-0.0737041015625,0.5920947265625001,0.5966721397613292,0.2275390625,-0.23046875,2.36181640625,43.40058823529412,506.4651743812169
0.0140595703125,-0.0907939453125,0.6077197265625001,0.6146254778936366,0.15576171875,-0.2177734375,2.2607421875,43.96529411764706,506.4651743812169
0.0091767578125,-0.0448955078125,0.6711962890625001,0.6727587070837231,0.12744140625,-0.203125,1.80615234375,43.30647058823529,506.4651743812169
-0.0098662109375,-0.0585673828125,0.7185595703125001,0.7210099420503534,0.22412109375,-0.13720703125,1.57373046875,43.82411764705883,506.4651743812169
-0.0235380859375,-0.0614970703125,0.7922900390625001,0.7950216582862882,0.306640625,0.025390625,1.44482421875,43.82411764705883,506.4651743812169
-0.0542998046875,-0.0737041015625,0.8250048828125001,0.8300685634576839,0.30126953125,-0.06884765625,1.44482421875,43.96529411764706,506.3894401942269
-0.0626005859375,-0.0697978515625,0.8948291015625001,0.8997275667920874,0.2685546875,-0.11865234375,1.47607421875,43.58882352941177,506.3894401942269
-0.0640654296875,-0.0629619140625,0.9631884765625,0.9673678841507234,0.27392578125,-0.13232421875,1.44775390625,43.96529411764706,506.3894401942269
-0.0474638671875,-0.0678447265625,0.9880908203125,0.991553929343514,0.27685546875,-0.18603515625,1.43603515625,43.96529411764706,506.3894401942269
-0.0406279296875,-0.0649150390625,1.0378955078125005,1.0407169048807394,0.30224609375,-0.232421875,1.45556640625,43.30647058823529,506.1939760507786
-0.0347685546875,-0.0580791015625,1.1091845703125005,1.1112481475587217,0.380859375,-0.16845703125,1.3466796875,43.68294117647059,506.1939760507786
-0.0137724609375,-0.0629619140625,1.1672900390625005,1.1690679700501687,0.4072265625,-0.1630859375,1.12548828125,44.15352941176471,506.1939760507786
-0.0005888671874999,-0.0863994140625,1.1829150390625005,1.1860662692932231,0.38134765625,-0.14599609375,0.98876953125,44.76529411764706,506.1939760507786
-0.0113310546875,-0.0932353515625,1.0896533203125005,1.0936935503372829,0.369140625,-0.271484375,0.96142578125,44.57705882352941,506.1939760507786
-0.0591826171875,-0.0937236328125,1.2810595703125005,1.2858461510670638,0.47265625,-0.33251953125,1.10986328125,44.53,505.7493260060092
-0.1036162109375,-0.0751689453125,1.3518603515625005,1.3579076182256011,0.640625,-0.244140625,1.33984375,43.82411764705883,505.7493260060092
-0.1626982421875,-0.0541728515625,1.4075244140625005,1.4179317303873624,0.7763671875,-0.01416015625,1.36572265625,43.96529411764706,505.7493260060092
-0.1998076171875,-0.0531962890625,1.4304736328125005,1.4453400095575988,0.79052734375,0.15625,1.13037109375,43.96529411764706,505.7493260060092
-0.1807646484375,-0.0614970703125,1.4417041015625005,1.4542931149681928,0.6650390625,0.38037109375,0.705078125,43.96529411764706,505.5001437890965
-0.1246123046875,-0.0824931640625,1.5110400390625005,1.5184121141003106,0.646484375,0.48193359375,0.46435546875,44.71823529411765,505.5001437890965
-0.0318388671875,-0.0820048828125,1.5867236328125005,1.589160281782355,0.56884765625,0.47607421875,0.37451171875,44.01235294117648,505.5001437890965
0.1029267578125,-0.0820048828125,1.6687548828125005,1.673935953729845,0.40380859375,0.28271484375,-0.048828125,43.87117647058824,505.5001437890965
0.2381806640625,-0.0444072265625,1.7210009765625005,1.737971919172835,0.17578125,0.19140625,-0.39013671875,43.40058823529412,505.5001437890965
0.3519501953125,0.0718037109375,1.7449267578125005,1.7815145531302703,-0.05712890625,0.150390625,-0.53515625,43.40058823529412,504.8827165559168
0.3832001953125,0.1787373046875,1.7463916015625005,1.796850867429605,-0.0771484375,-0.1298828125,-0.21484375,43.777058823529416,504.8827165559168
0.3807587890625,0.1743427734375,1.5984423828125005,1.6523893939594034,-0.0078125,-0.30908203125,0.3974609375,43.96529411764706,504.8827165559168
0.4066376953125,0.1230732421875,1.4680712890625005,1.5283110115291445,0.087890625,-0.21044921875,0.75830078125,43.40058823529412,504.8827165559168
0.4466767578125,0.0830341796875,1.3435595703125005,1.4182972607830042,0.087890625,-0.10302734375,0.7197265625,43.30647058823529,505.4134179692918
0.4593720703125,0.0996357421875,1.2058642578125005,1.2942405450201824,0.0849609375,-0.2177734375,0.998046875,43.87117647058824,505.4134179692918
0.4383759765625,0.1577412109375,1.1003955078125005,1.194958601822291,0.12060546875,-0.39697265625,1.40869140625,43.54176470588236,505.4134179692918
0.3758759765625,0.1665302734375,1.0017626953125005,1.0828405143176658,-0.0400390625,-0.5556640625,1.533203125,43.54176470588236,505.4134179692918
0.3084931640625,0.1548115234375,0.9368212890625,0.9983830766309376,-0.18408203125,-0.49609375,1.00830078125,43.30647058823529,505.4134179692918
0.2249970703125,0.1694599609375,0.8572314453125001,0.9023226201546236,-0.4189453125,-0.26123046875,0.0068359375,43.40058823529412,507.0075901636577
0.1546845703125,0.1557880859375,0.9587939453125,0.9836071744252084,-0.35400390625,0.048828125,-0.71484375,43.87117647058824,507.0075901636577
0.0814423828125,0.1142841796875,0.8572314453125001,0.8686423235587709,-0.24560546875,0.138671875,-0.5380859375,43.96529411764706,507.0075901636577
0.0794892578125,0.0742451171875,0.9060595703125,0.9125649700096098,0.16259765625,1.015625,-0.18701171875,43.30647058823529,507.0075901636577
0.1107392578125,0.0166279296875,0.8508837890625001,0.858220772153595,0.0087890625,1.1884765625,0.001953125,43.82411764705883,506.8554847009722
0.0833955078125,-0.0019267578124999,0.8816455078125001,0.8855830421620177,0.0009765625,0.86572265625,0.09423828125,43.87117647058824,506.8554847009722
0.0824189453125,-0.0512431640625,0.8626025390625001,0.8680448633605483,0.09423828125,0.583984375,0.32958984375,43.68294117647059,506.8554847009722
0.1405244140625,-0.1010478515625,0.8328173828125001,0.8506130567817944,0.03515625,0.39306640625,0.63623046875,44.01235294117648,506.8554847009722
0.1903291015625,-0.0893291015625,0.7913134765625001,0.8187685103110539,-0.07568359375,0.20751953125,0.31787109375,43.96529411764706,506.8554847009722
0.1517548828125,-0.0766337890625,0.7835009765625001,0.8017331615680511,-0.25537109375,0.1171875,-0.48193359375,44.059411764705885,506.7901173752415
0.0882783203125,-0.0868876953125,0.7498095703125001,0.7599716607651434,-0.42724609375,0.0859375,-0.75439453125,43.87117647058824,506.7901173752415
0.1136689453125,-0.0341533203125,0.7210009765625001,0.7307047875995497,-0.37646484375,0.03271484375,-0.80615234375,44.76529411764706,506.7901173752415
0.0809541015625,0.0063740234375,0.7009814453125001,0.7056693144858822,-0.470703125,0.02001953125,-0.77685546875,43.87117647058824,506.7901173752415
0.0609345703125,0.0400654296875,0.6672900390625001,0.6712631799430427,-0.5107421875,-0.01220703125,-0.611328125,43.30647058823529,506.8114871822322
0.0545869140625,0.0410419921875,0.6282275390625001,0.6319288070234736,-0.50439453125,-0.04345703125,-0.48876953125,43.96529411764706,506.8114871822322
0.0370087890625,0.0498310546875,0.5935595703125001,0.5967962365738417,-0.50439453125,-0.02734375,-0.376953125,44.62411764705882,506.8114871822322
0.0106416015625,0.0669208984375,0.5798876953125001,0.5838333576512565,-0.4951171875,0.03564453125,-0.39697265625,43.30647058823529,506.8114871822322
-0.0069365234375,0.0571552734375,0.5740283203125001,0.5769084443478918,-0.46484375,0.166015625,-0.32275390625,43.96529411764706,506.8114871822322
-0.0103544921875,0.0425068359375,0.5652392578125001,0.5669298591380635,-0.4130859375,0.2099609375,-0.14892578125,44.01235294117648,506.1939760507786
-0.0044951171875,0.0356708984375,0.5691455078125001,0.5702799559313095,-0.35009765625,0.24658203125,0.0205078125,44.01235294117648,506.1939760507786
-0.0079130859375,0.0224873046875,0.5798876953125001,0.5803774935126325,-0.2783203125,0.28125,0.14599609375,43.82411764705883,506.1939760507786
-0.0059599609375,0.0268818359375,0.6018603515625001,0.602489864662206,-0.17236328125,0.3466796875,0.24658203125,43.96529411764706,506.1939760507786
-0.0035185546874999,0.0210224609375,0.6335986328125001,0.6339570581615342,-0.076171875,0.37841796875,0.21630859375,44.01235294117648,506.3778097184323
-0.0220732421875,0.0136982421875,0.6809619140625001,0.6814572607752882,-0.0419921875,0.42041015625,0.291015625,44.01235294117648,506.3778097184323
-0.0474638671875,0.0171162109375,0.7307666015625001,0.7325063885895162,-0.00439453125,0.572265625,0.39599609375,43.87117647058824,506.3778097184323
-0.0367216796875,0.0132099609375,0.7537158203125001,0.7547254617517462,0.08935546875,0.595703125,0.541015625,44.53,506.3778097184323
-0.0127958984375,0.0366474609375,0.7649462890625001,0.7659305429087407,-0.1787109375,0.26123046875,0.3935546875,43.82411764705883,506.3778097184323
-0.0489287109375,0.0317646484375,0.8440478515625001,0.8460613378305591,-0.17138671875,0.11865234375,0.41357421875,43.777058823529416,505.8684198084139
-0.0513701171875,0.0239521484375,0.8723681640625001,0.8742075314388492,-0.22265625,0.14990234375,0.587890625,43.30647058823529,505.8684198084139
-0.0445341796875,0.0351826171875,0.8962939453125001,0.8980890524421549,-0.267578125,0.201171875,0.62060546875,44.01235294117648,505.8684198084139
-0.0557646484375,0.0556904296875,0.9460986328125,0.9493754489051306,-0.34033203125,0.3037109375,0.64013671875,44.01235294117648,505.8684198084139
-0.0411162109375,0.0801044921875,0.9705126953125,0.974680544708474,-0.3564453125,0.4091796875,0.59228515625,44.01235294117648,505.6308686559352
-0.0328154296875,0.0898701171875,1.0168994140625005,1.021390184361259,-0.39013671875,0.49755859375,0.49365234375,43.96529411764706,505.6308686559352
-0.0274443359375,0.0903583984375,1.0584033203125005,1.062607839323504,-0.41259765625,0.4306640625,0.29931640625,43.96529411764706,505.6308686559352
-0.0367216796875,0.0952412109375,1.0764697265625005,1.0812984982073437,-0.42529296875,0.3955078125,0.07275390625,43.30647058823529,505.6308686559352
-0.0547880859375,0.1025654296875,1.0818408203125005,1.088072130983098,-0.439453125,0.41748046875,-0.02734375,43.447647058823534,505.6308686559352
-0.0767607421875,0.1167255859375,1.1096728515625005,1.1184323454945675,-0.47216796875,0.6083984375,-0.0556640625,43.82411764705883,506.0211466922314
-0.1099638671875,0.1430927734375,1.1506884765625005,1.1647538641234867,-0.4912109375,0.77734375,0.01025390625,43.68294117647059,506.0211466922314
-0.1480498046875,0.1797138671875,1.2419970703125005,1.263634655029818,-0.44482421875,1.07958984375,0.04443359375,43.96529411764706,506.0211466922314
-0.1685576171875,0.1914326171875,1.3225634765625005,1.3469343958679914,-0.3564453125,1.31396484375,0.029296875,44.01235294117648,506.0211466922314
-0.1314482421875,0.1928974609375,1.4114306640625005,1.430602876505646,-0.18896484375,1.52392578125,0.02978515625,44.57705882352941,505.28205910364335
-0.0777373046875,0.1997333984375,1.5364306640625005,1.551307740089956,0.00732421875,1.46630859375,0.197265625,43.30647058823529,505.28205910364335
-0.0196318359375,0.2163349609375,1.6868212890625005,1.7007505065530868,0.26318359375,1.19921875,0.375,44.01235294117648,505.28205910364335
-0.0010771484374999,0.1938740234375,1.7429736328125005,1.7537232911415088,0.55419921875,0.87060546875,0.62060546875,44.57705882352941,505.28205910364335
0.0492158203125,0.1338154296875,1.6853564453125005,1.691376691913386,0.8369140625,1.02001953125,0.9609375,43.30647058823529,505.28205910364335
0.2572236328125,0.0688740234375,1.6379931640625005,1.6594966808937008,0.9365234375,1.04541015625,0.4140625,43.87117647058824,505.11052043043225
0.4798798828125,-0.0336650390625,1.5901416015625005,1.6613152469663823,0.94140625,1.140625,-0.365234375,43.68294117647059,505.11052043043225
0.5907197265625,-0.1405986328125,1.5090869140625005,1.6266717816122278,0.72412109375,0.9365234375,-0.52685546875,43.96529411764706,505.11052043043225
0.6322236328125,-0.2050517578125,1.5740283203125005,1.7086012110537736,0.58984375,0.3037109375,-0.814453125,43.87117647058824,505.11052043043225
0.6224580078125,-0.2685283203125,1.3577197265625005,1.5175520703411496,0.28369140625,-0.34619140625,-1.61572265625,44.01235294117648,505.5221429502277
0.5594697265625,-0.3412822265625,1.2415087890625005,1.403860394208346,-0.1064453125,-0.830078125,-2.53125,44.76529411764706,505.5221429502277
0.4256806640625,-0.3642314453125,1.1609423828125005,1.289052283548456,-0.4609375,-1.43701171875,-3.05224609375,43.63588235294118,505.5221429502277
0.2328095703125,-0.4052470703125,1.1126025390625005,1.2067766545447742,-0.4306640625,-1.876953125,-2.66455078125,43.40058823529412,505.5221429502277
0.0609345703125,-0.4838603515625,1.0515673828125005,1.1591496116845688,-0.212890625,-2.96923828125,-1.1611328125,43.82411764705883,505.5221429502277
0.0072236328125,-0.4550517578125,1.0530322265625005,1.147170934664243,-0.03369140625,-3.564453125,0.58642578125,43.82411764705883,506.2697088373723
0.0594697265625,-0.3647197265625,1.0344775390625005,1.0984993883230203,0.0390625,-3.39404296875,1.45458984375,44.01235294117648,506.2697088373723
0.1283173828125,-0.2406962890625,1.0789111328125005,1.1128563639603544,0.109375,-2.93017578125,1.48681640625,44.01235294117648,506.2697088373723
0.0999970703125,-0.1586650390625,1.0803759765625005,1.0965337475085588,-0.05126953125,-1.45654296875,0.751953125,43.96529411764706,506.2697088373723
0.0765595703125,-0.0551494140625,1.1101611328125005,1.1141636174662164,-0.486328125,0.62646484375,-0.20947265625,43.30647058823529,506.4315456555722
0.0526337890625,0.0239521484375,0.9934619140625,0.9951435051582128,-0.46435546875,1.22412109375,-0.42724609375,43.30647058823529,506.4315456555722
0.0370087890625,0.1172138671875,0.8977587890625001,0.9061344185427944,-0.30419921875,1.23681640625,-0.0546875,43.777058823529416,506.4315456555722
-0.0044951171875,0.1987568359375,0.8640673828125001,0.8866436307507426,0.24755859375,1.2802734375,1.02783203125,43.82411764705883,506.4315456555722
0.0829072265625,0.1474873046875,0.7771533203125001,0.7953574017591164,0.56640625,1.22802734375,1.9599609375,43.54176470588236,506.4315456555722
0.1141572265625,0.0747333984375,0.7019580078125001,0.7150957963451848,0.685546875,0.9189453125,2.41650390625,43.87117647058824,506.0088817239271
0.1893525390625,0.0459248046875,0.6209033203125001,0.6507567939792005,0.7041015625,0.7041015625,2.36572265625,43.87117647058824,506.0088817239271
0.1795869140625,0.0210224609375,0.5852587890625001,0.6125530619801557,0.62060546875,0.599609375,1.76171875,43.30647058823529,506.0088817239271
0.1214814453125,-0.0151103515624999,0.5881884765625001,0.6007926000213976,0.67236328125,0.53955078125,1.2841796875,44.57705882352941,506.0088817239271
0.0604462890625,-0.0492900390625,0.5618212890625001,0.5672093287808826,0.58642578125,0.56640625,0.9501953125,44.15352941176471,506.1823448991528
0.0448212890625,-0.0678447265625,0.5388720703125001,0.5449724424578224,0.48486328125,0.5498046875,0.47900390625,43.96529411764706,506.1823448991528
0.0404267578125,-0.0795634765625,0.5100634765625001,0.5178121470890443,0.37646484375,0.626953125,0.0546875,44.01235294117648,506.1823448991528
0.0560517578125,-0.1088603515625,0.4744189453125,0.4899650103503383,0.353515625,0.39697265625,0.0390625,44.01235294117648,506.1823448991528
0.0975556640625,-0.1117900390625,0.4793017578125,0.5017412634679582,0.4150390625,0.3232421875,-0.09521484375,43.30647058823529,506.1823448991528
0.1078095703125,-0.1073955078125,0.5027392578125001,0.5252651329520492,0.33447265625,0.28955078125,-0.37109375,43.30647058823529,506.1499782524592
0.0985322265625,-0.1020244140625,0.5295947265625001,0.548259204335841,0.29248046875,0.27392578125,-0.578125,43.30647058823529,506.1499782524592
0.0833955078125,-0.0947001953125,0.5501025390625001,0.5643897068502753,0.2626953125,0.22119140625,-0.68896484375,43.87117647058824,506.1499782524592
0.0814423828125,-0.0873759765625,0.5891650390625001,0.6011512839975854,0.25537109375,0.16357421875,-0.80126953125,44.059411764705885,506.1499782524592
0.0760712890625,-0.0453837890625,0.6477587890625001,0.6537874105066694,0.22802734375,0.287109375,-0.87841796875,43.447647058823534,505.8036897808358
0.0184541015625,-0.0434306640625,0.7087939453125001,0.7103630292723913,0.2724609375,0.3681640625,-0.9833984375,44.01235294117648,505.8036897808358
-0.0069365234375,-0.0312236328125,0.7844775390625001,0.7851293141240907,0.22802734375,0.3720703125,-0.896484375,43.30647058823529,505.8036897808358
-0.0411162109375,-0.0248759765625,0.8455126953125001,0.8468772490428608,0.2568359375,0.29638671875,-0.92236328125,43.82411764705883,505.8036897808358
-0.0684599609375,-0.0409892578125,0.9143603515625,0.917835354525572,0.2744140625,0.12109375,-0.9384765625,44.71823529411765,505.8036897808358
-0.0875029296875,-0.0571025390625,0.9817431640625,0.987287750787342,0.28271484375,-0.1669921875,-0.7900390625,43.68294117647059,505.250331856821
-0.0835966796875,-0.0644267578125,1.0691455078125005,1.0743422773272278,0.31884765625,-0.22802734375,-0.6884765625,43.82411764705883,505.250331856821
-0.0899443359375,-0.0561259765625,1.1384814453125005,1.143407237222667,0.26904296875,-0.21826171875,-0.4970703125,43.82411764705883,505.250331856821
-0.0787138671875,-0.0483134765625,1.1985400390625005,1.202093295106959,0.3046875,-0.1640625,-0.34326171875,44.01235294117648,505.250331856821
-0.0298857421875,-0.0683330078125,1.2424853515625005,1.2447218188776925,0.3935546875,0.03173828125,-0.25341796875,44.57705882352941,504.89244027542605
0.0077119140625,-0.0815166015625,1.2898486328125005,1.292444941000228,0.53955078125,0.3359375,-0.52685546875,43.30647058823529,504.89244027542605
-0.0142607421875,-0.1122783203125,1.3215869140625005,1.3264244273237646,0.68701171875,0.4423828125,-0.88671875,43.82411764705883,504.89244027542605
-0.0704130859375,-0.1322978515625,1.3308642578125005,1.3392760719590686,0.79833984375,0.41162109375,-0.9384765625,44.62411764705882,504.89244027542605
-0.1192412109375,-0.1181376953125,1.3489306640625005,1.359333997915041,0.8447265625,0.4052734375,-0.68603515625,43.87117647058824,504.89244027542605
-0.1358427734375,-0.0971416015625,1.3606494140625005,1.3708597951059565,0.89111328125,0.46484375,-0.4404296875,44.01235294117648,504.67563855349925
-0.1534208984375,-0.0854228515625,1.3684619140625005,1.3796822264152135,0.92626953125,0.669921875,-0.37060546875,43.40058823529412,504.67563855349925
-0.1495146484375,-0.0820048828125,1.4128955078125005,1.4231490248386582,0.95654296875,0.919921875,-0.41259765625,43.87117647058824,504.67563855349925
-0.1094755859375,-0.0995830078125,1.4568408203125005,1.4643383676903852,0.890625,1.171875,-0.6201171875,44.53,504.67563855349925
-0.0474638671875,-0.1015361328125,1.5217822265625005,1.525904174591718,0.78857421875,1.47265625,-0.90380859375,43.82411764705883,504.1889730854768
-0.0064482421875,-0.0800517578125,1.6267626953125005,1.6287439119200324,0.6826171875,1.74462890625,-1.24267578125,43.96529411764706,504.1889730854768
0.0433564453125,-0.0624736328125,1.7200244140625005,1.7217045975189746,0.49658203125,1.70263671875,-1.7001953125,44.15352941176471,504.1889730854768
0.1283173828125,-0.0580791015625,1.7258837890625005,1.7316216059286422,0.20361328125,1.56005859375,-2.29248046875,43.96529411764706,504.1889730854768
0.2069306640625,-0.1567119140625,1.6453173828125005,1.665667498008968,-0.15087890625,1.50390625,-2.5546875,44.01235294117648,504.1889730854768
0.2982392578125,0.0312763671875,1.5564501953125005,1.585074785785617,-0.3720703125,1.42041015625,-2.35791015625,44.71823529411765,504.5132000291622
0.3807587890625,0.0996357421875,1.4988330078125005,1.5496467087300452,-0.29736328125,1.20849609375,-1.55078125,43.447647058823534,504.5132000291622
0.4608369140625,0.1440693359375,1.4006884765625005,1.4815717476028956,-0.04150390625,0.8291015625,-0.18994140625,44.53,504.5132000291622
0.5243134765625,0.1650654296875,1.2771533203125005,1.3904214545842632,0.15380859375,0.6435546875,1.05029296875,44.71823529411765,504.5132000291622
0.5623994140625,0.1850849609375,1.1775439453125005,1.3180133864438586,0.2421875,0.48388671875,1.7177734375,43.40058823529412,505.8043237759808
0.5511689453125,0.1933857421875,1.0735400390625005,1.2221593460055111,0.27587890625,0.4912109375,2.1240234375,43.40058823529412,505.8043237759808
0.5165009765625,0.2197529296875,0.9978564453125,1.1448939227491577,0.0830078125,0.90869140625,1.6494140625,44.01235294117648,505.8043237759808
0.4344697265625,0.2593037109375,1.0159228515625005,1.1349456366417443,-0.041015625,1.94384765625,0.685546875,43.87117647058824,505.8043237759808
0.2806611328125,0.2192646484375,1.0076220703125005,1.0687141311439956,0.171875,2.87939453125,-0.197265625,43.68294117647059,505.8043237759808
0.1844697265625,0.0996357421875,0.8489306640625001,0.8744367521581505,-0.099609375,2.40380859375,-0.384765625,44.059411764705885,506.3784407184145
0.0648408203125,0.0776630859375,0.9558642578125,0.9612036029164556,0.3876953125,2.05810546875,-0.236328125,43.96529411764706,506.3784407184145
0.0663056640625,0.0210224609375,0.9138720703125,0.9165154367755586,0.55908203125,2.310546875,-0.53271484375,43.96529411764706,506.3784407184145
0.1312470703125,0.0024677734375,0.8811572265625001,0.8908815528984031,0.2314453125,1.92431640625,-0.73681640625,44.15352941176471,506.3784407184145
0.1605439453125,-0.0356181640625,0.9343798828125,0.9487406270379632,0.26513671875,2.3076171875,-1.412109375,43.82411764705883,506.204343731636
0.1869111328125,-0.1205791015625,0.7908251953125001,0.8215105482243826,-0.4169921875,1.78271484375,-1.6103515625,43.96529411764706,506.204343731636
0.1161103515625,-0.1108134765625,0.8142626953125001,0.82993070632759,-0.36669921875,0.30810546875,-1.28125,44.76529411764706,506.204343731636
0.0462861328125,-0.0903056640625,0.8157275390625001,0.822015168374324,-0.38623046875,0.1953125,-1.47265625,43.82411764705883,506.204343731636
0.0111298828125,-0.0522197265625,0.8079150390625001,0.809677395310653,-0.50439453125,0.060546875,-1.73095703125,43.82411764705883,506.204343731636
-0.0430693359375,-0.0331767578125,0.7747119140625001,0.7766171609920997,-0.580078125,0.05517578125,-1.8212890625,43.87117647058824,506.0748785219216
-0.0630888671875,-0.0082744140624999,0.7288134765625001,0.7315857808283303,-0.56396484375,0.06103515625,-1.6533203125,44.01235294117648,506.0748785219216
-0.0323271484375,0.0078388671875,0.6765673828125001,0.6773846144183078,-0.5615234375,0.0849609375,-1.5302734375,43.82411764705883,506.0748785219216
-0.0118193359375,-0.0185283203125,0.6213916015625001,0.6217801201775551,-0.59521484375,0.08837890625,-1.2265625,44.01235294117648,506.0748785219216
0.0003876953125,-0.0038798828124999,0.5999072265625001,0.5999198982199248,-0.59912109375,0.17333984375,-1.12841796875,43.30647058823529,506.1396107196632
0.0169892578125,0.0034443359375,0.5486376953125001,0.5489114856230297,-0.64697265625,0.20947265625,-1.169921875,44.01235294117648,506.1396107196632
0.0228486328125,0.0010029296875,0.5178759765625001,0.5183807413377947,-0.6259765625,0.25537109375,-1.1142578125,44.76529411764706,506.1396107196632
0.0101533203125,-0.0175517578125,0.4959033203125,0.4963176978636153,-0.6435546875,0.33203125,-0.857421875,43.96529411764706,506.1396107196632
0.0208955078125,-0.0107158203124999,0.4934619140625,0.4940203555339984,-0.65966796875,0.36376953125,-0.57666015625,43.87117647058824,506.1396107196632
0.0038056640625,-0.0131572265624999,0.5139697265625001,0.514152191002338,-0.60693359375,0.52490234375,-0.3583984375,44.01235294117648,505.83542140484434
0.0057587890625,-0.0038798828124999,0.5315478515625001,0.5315932050382273,-0.6044921875,0.5498046875,-0.0771484375,43.96529411764706,505.83542140484434
-0.0201201171875,0.0107685546875,0.5681689453125001,0.5686270581877151,-0.431640625,0.47509765625,0.11962890625,43.87117647058824,505.83542140484434
-0.0909208984375,-0.0292705078125,0.6282275390625001,0.6354472544883712,-0.2138671875,0.74169921875,0.6689453125,43.447647058823534,505.83542140484434
-0.0757841796875,-0.0302470703125,0.6414111328125001,0.6465805196951198,-0.125,0.7998046875,1.0712890625,44.01235294117648,505.7389605674399
-0.0586943359375,-0.0024150390624999,0.6897509765625001,0.6922479809676154,-0.10546875,0.62548828125,0.98095703125,44.01235294117648,505.7389605674399
-0.0709013671875,-0.0116923828124999,0.7346728515625001,0.738178782211915,-0.0009765625,0.42578125,0.96484375,43.68294117647059,505.7389605674399
-0.0787138671875,0.0034443359375,0.8259814453125001,0.8297307300191962,-0.28076171875,0.19580078125,1.1240234375,43.40058823529412,505.7389605674399
-0.0855498046875,0.0351826171875,0.8733447265625001,0.8782298087908196,-0.2451171875,-0.04345703125,1.30224609375,43.82411764705883,505.7389605674399
-0.0552763671875,0.0849873046875,0.9041064453125,0.9097729294626752,-0.2197265625,-0.166015625,1.37158203125,44.29470588235294,505.250331856821
-0.0660185546875,0.0757099609375,0.9255908203125,0.9310256786979352,-0.15576171875,-0.29541015625,1.669921875,43.96529411764706,505.250331856821
-0.0577177734375,0.0879169921875,0.9993212890625,1.0048401751818128,-0.16455078125,-0.38916015625,1.60107421875,44.01235294117648,505.250331856821
-0.0821318359375,0.0893818359375,1.0759814453125005,1.0828069180268474,-0.1845703125,-0.50244140625,1.05419921875,43.87117647058824,505.250331856821
-0.1065458984375,0.0884052734375,1.1140673828125005,1.1226369200645894,-0.23583984375,-0.42236328125,0.73095703125,44.01235294117648,505.3150575833662
-0.1016630859375,0.0908466796875,1.1633837890625005,1.1713455266939807,-0.27099609375,-0.27978515625,0.673828125,43.96529411764706,505.3150575833662
-0.1099638671875,0.1137958984375,1.2127001953125005,1.2229813254089386,-0.23974609375,-0.26171875,0.7490234375,43.96529411764706,505.3150575833662
-0.0933623046875,0.1509052734375,1.2312548828125005,1.2439764901063974,-0.2646484375,-0.31591796875,0.5263671875,44.76529411764706,505.3150575833662
-0.1338896484375,0.1679951171875,1.2766650390625005,1.2946128453410366,-0.255859375,-0.49951171875,0.19384765625,43.68294117647059,505.3150575833662
-0.1797880859375,0.1802021484375,1.3103564453125005,1.3348522704473975,-0.2294921875,-0.283203125,0.00439453125,43.82411764705883,505.2729673345046
-0.2188505859375,0.1704365234375,1.3523486328125005,1.380503897914268,-0.29638671875,-0.09521484375,-0.0048828125,43.82411764705883,505.2729673345046
-0.2178740234375,0.1636005859375,1.4446337890625005,1.470102386335392,-0.3544921875,0.14013671875,-0.115234375,43.82411764705883,505.2729673345046
-0.2061552734375,0.1308857421875,1.5042041015625005,1.523896667570184,-0.30126953125,0.2587890625,-0.40380859375,43.82411764705883,505.2729673345046
-0.2427763671875,0.0923115234375,1.5896533203125005,1.6107325850694982,-0.189453125,0.52978515625,-0.3505859375,44.76529411764706,504.5248393805368
-0.2637724609375,0.0869404296875,1.6370166015625005,1.6604089566292126,-0.0888671875,0.75732421875,-0.03662109375,43.68294117647059,504.5248393805368
-0.2774443359375,0.1045185546875,1.6853564453125005,1.7112351783358566,0.1103515625,0.87744140625,0.39697265625,44.01235294117648,504.5248393805368
-0.2227568359375,0.0991474609375,1.6897509765625005,1.707251940915916,0.2880859375,1.41796875,0.9052734375,44.01235294117648,504.5248393805368
-0.0362333984375,0.0327412109375,1.6560595703125005,1.6567794501621536,0.43115234375,1.58740234375,1.09326171875,44.76529411764706,504.5248393805368
0.2850556640625,-0.0668681640625,1.5461962890625005,1.5736743777827258,0.3984375,1.32177734375,0.8427734375,43.447647058823534,504.7629970764656
0.5609345703125,-0.0375712890625,1.4382861328125005,1.5442558705649216,0.2392578125,0.9248046875,0.248046875,43.30647058823529,504.7629970764656
0.6664033203125,-0.1855205078125,1.3611376953125005,1.5268290898928922,-0.0283203125,0.515625,-0.9072265625,44.01235294117648,504.7629970764656
0.6180634765625,-0.1918681640625,1.2356494140625005,1.3948639101769889,-0.2041015625,0.19775390625,-1.6376953125,43.30647058823529,504.7629970764656
0.5487275390625,-0.2099345703125,1.1384814453125005,1.2811379462254333,-0.34228515625,-0.0830078125,-1.9267578125,43.87117647058824,505.77005789384
0.4530244140625,-0.2548564453125,1.0598681640625005,1.1804674720835004,-0.384765625,-0.29296875,-2.01123046875,43.96529411764706,505.77005789384
0.4808564453125,-0.2905009765625,0.9988330078125,1.1459847799504606,-0.49755859375,-0.724609375,-1.9287109375,43.87117647058824,505.77005789384
0.2328095703125,-0.3383525390625,0.9739306640625,1.0569880203296318,-0.2939453125,-1.13818359375,-1.49755859375,43.82411764705883,505.77005789384
0.1590791015625,-0.3197978515625,0.9519580078125,1.0167599889139358,-0.2392578125,-1.33642578125,-0.56884765625,44.34176470588236,505.77005789384
0.0916962890625,-0.2436259765625,1.0247119140625005,1.0572588768629465,0.14892578125,-0.99365234375,0.0732421875,43.96529411764706,506.83285724560886
0.0999970703125,-0.1064189453125,0.9753955078125,0.9862660912012096,0.05224609375,-0.076171875,0.5234375,43.87117647058824,506.83285724560886
0.0457978515625,-0.0424541015625,1.0120166015625005,1.0139415149727975,0.0751953125,0.359375,0.57080078125,43.96529411764706,506.83285724560886
0.0560517578125,0.0176044921875,0.9700244140625,0.971801976524203,0.10546875,0.36328125,0.1337890625,43.82411764705883,506.83285724560886
